#time,accel_x,accel_y,accel_z
3056.945909,-10584.944971,518.144159,1532.190996
3056.946247,-9770.718434,888.247130,-536.266849
3056.946584,-10436.903782,1110.308913,0.000000
3056.946922,-10807.006753,0.000000,229.828649
3056.947260,-10362.883188,222.061783,-229.828649
3056.947597,-9622.677246,518.144159,-383.047749
3056.947935,-9696.697840,814.226536,-995.924147
3056.948272,-10288.862594,-518.144159,-1302.362347
3056.948610,-10288.862594,-1258.350101,-1302.362347
3056.948948,-9992.780217,-1184.329507,-919.314598
3056.949285,-9622.677246,-1406.391290,-306.438199
3056.949623,-9548.656652,-1776.494261,-689.485948
3056.949961,-10288.862594,-1480.411884,-1532.190996
3056.950298,-10807.006753,-2960.823768,-689.485948
3056.950636,-9622.677246,-2738.761985,0.000000
3056.950974,-9400.615463,-1998.556043,0.000000
3056.951311,-10362.883188,-1850.514855,-612.876398
3056.951649,-10658.965565,-1850.514855,-536.266849
3056.951986,-10436.903782,-2590.720797,-383.047749
3056.952324,-9400.615463,-1776.494261,0.000000
3056.952662,-9844.739029,-1406.391290,1072.533697
3056.952999,-10881.027347,-444.123565,-306.438199
3056.953337,-10362.883188,-1110.308913,0.000000
3056.953675,-9844.739029,-740.205942,689.485948
3056.954012,-9326.594869,-296.082377,2068.457845
3056.954350,-10436.903782,740.205942,1608.800546
3056.954688,-11325.150913,1332.370696,-306.438199
3056.955025,-10510.924376,148.041188,-2451.505594
3056.955363,-9548.656652,-518.144159,-1225.752797
3056.955700,-9030.512492,-1406.391290,76.609550
3056.956038,-9770.718434,-592.164754,-1302.362347
3056.956376,-10140.821405,-888.247130,-3294.210641
3056.956713,-9696.697840,-1184.329507,-3677.258390
3056.957051,-8660.409521,-2368.659014,-2757.943793
3056.957389,-9252.574275,-2368.659014,-1302.362347
3056.957726,-10214.842000,-2294.638420,-2374.896044
3056.958064,-10214.842000,-2664.741391,-3830.477490
3056.958402,-10584.944971,-3108.864956,-3983.696590
3056.958739,-9474.636058,-4293.194464,-3983.696590
3056.959077,-8438.347739,-4145.153275,-2451.505594
3056.959414,-9326.594869,-4219.173869,-919.314598
3056.959752,-9992.780217,-3849.070898,-1149.143247
3056.960090,-9844.739029,-3034.844362,-1225.752797
3056.960427,-10362.883188,-2146.597232,-1455.581446
3056.960765,-11473.192101,-2738.761985,-2374.896044
3056.961103,-11029.068536,-2886.803174,-3140.991542
3056.961440,-10807.006753,-4663.297435,-2681.334243
3056.961778,-9844.739029,-4441.235652,-2221.676944
3056.962116,-9178.553681,-4737.318029,-2298.286494
3056.962453,-8808.450710,-4071.132681,-1915.238745
3056.962791,-9918.759623,-3256.906145,-1991.848295
3056.963128,-10658.965565,-2664.741391,-2604.724693
3056.963466,-10955.047942,-2146.597232,-4136.915689
3056.963804,-11029.068536,-2294.638420,-4596.572988
3056.964141,-11399.171507,-3627.009116,-3907.087040
3056.964479,-10658.965565,-4589.276840,-2068.457845
3056.964817,-9770.718434,-3997.112087,-995.924147
3056.965154,-9696.697840,-4219.173869,0.000000
3056.965492,-9844.739029,-3552.988522,-612.876398
3056.965830,-9918.759623,-3923.091493,-1378.971896
3056.966167,-9770.718434,-3182.885551,0.000000
3056.966505,-9696.697840,-1924.535449,1072.533697
3056.966842,-9918.759623,0.000000,1302.362347
3056.967180,-11177.109724,1110.308913,459.657299
3056.967518,-11843.295072,222.061783,0.000000
3056.967855,-10732.986159,-1036.288319,-1378.971896
3056.968193,-9622.677246,-1998.556043,-229.828649
3056.968531,-9400.615463,-1184.329507,612.876398
3056.968868,-8734.430116,-1480.411884,-536.266849
3056.969206,-8660.409521,-2294.638420,-2298.286494
3056.969544,-9030.512492,-1776.494261,-2221.676944
3056.969881,-8808.450710,-444.123565,-1991.848295
3056.970219,-9030.512492,444.123565,-2145.067394
3056.970556,-10436.903782,0.000000,-2221.676944
3056.970894,-11843.295072,-1110.308913,-2911.162892
3056.971232,-12065.356855,-1554.432478,-3370.820191
3056.971569,-9252.574275,-2590.720797,-2681.334243
3056.971907,-7772.162391,-4663.297435,-995.924147
3056.972245,-9474.636058,-5181.441594,383.047749
3056.972582,-9992.780217,-4441.235652,-2221.676944
3056.972920,-9326.594869,-3330.926739,-3447.429741
3056.973258,-10362.883188,-3182.885551,-2221.676944
3056.973595,-12139.377449,-2664.741391,-2834.553343
3056.973933,-11769.274478,-1776.494261,-4443.353888
3056.974270,-10584.944971,-1628.453072,-2528.115143
3056.974608,-9622.677246,-1480.411884,-229.828649
3056.974946,-10510.924376,-1628.453072,-919.314598
3056.975283,-10584.944971,-1480.411884,-2298.286494
3056.975621,-10807.006753,-2146.597232,-2374.896044
3056.975959,-9548.656652,-2294.638420,-2221.676944
3056.976296,-9326.594869,-1554.432478,-2145.067394
3056.976634,-10436.903782,-1554.432478,-1378.971896
3056.976972,-9770.718434,-1110.308913,-1991.848295
3056.977309,-9252.574275,-1406.391290,-3677.258390
3056.977647,-10214.842000,-1480.411884,-3983.696590
3056.977984,-9474.636058,-1850.514855,-4213.525239
3056.978322,-9474.636058,-2664.741391,-2911.162892
3056.978660,-8586.388927,-2738.761985,-2834.553343
3056.978997,-8364.327145,-2590.720797,-2528.115143
3056.979335,-10436.903782,-2960.823768,0.000000
3056.979673,-9030.512492,-2072.576638,-612.876398
3056.980010,-8956.491898,-2072.576638,1302.362347
3056.980348,-11251.130318,-1036.288319,1915.238745
3056.980686,-9992.780217,-814.226536,153.219100
3056.981023,-12361.439231,-592.164754,0.000000
3056.981361,-11621.233289,-1776.494261,-2068.457845
3056.981698,-10214.842000,-2072.576638,-1991.848295
3056.982036,-9252.574275,-2146.597232,-1532.190996
3056.982374,-8142.265362,-3034.844362,-1991.848295
3056.982711,-9474.636058,-2664.741391,-1532.190996
3056.983049,-9326.594869,-2886.803174,-2911.162892
3056.983387,-10955.047942,-1554.432478,-459.657299
3056.983724,-10955.047942,-1036.288319,-1302.362347
3056.984062,-10436.903782,-1406.391290,-995.924147
3056.984400,-11029.068536,-1554.432478,-689.485948
3056.984737,-11251.130318,-3256.906145,-2068.457845
3056.985075,-10658.965565,-4071.132681,-2757.943793
3056.985412,-9400.615463,-6069.688724,-4673.182538
3056.985750,-8216.285956,-7328.038826,-4136.915689
3056.986088,-7328.038826,-8438.347739,-3140.991542
3056.986425,-8512.368333,-7105.977043,-1685.410096
3056.986763,-7772.162391,-4737.318029,-1608.800546
3056.987101,-9918.759623,-3108.864956,-2451.505594
3056.987438,-11251.130318,-2590.720797,-2451.505594
3056.987776,-12657.521608,-1406.391290,-2987.772442
3056.988114,-12435.459826,-2886.803174,-1378.971896
3056.988451,-10955.047942,-2960.823768,-995.924147
3056.988789,-9474.636058,-4441.235652,383.047749
3056.989126,-9622.677246,-4515.256246,612.876398
3056.989464,-9474.636058,-3404.947333,689.485948
3056.989802,-9548.656652,-2220.617826,-612.876398
3056.990139,-10140.821405,-370.102971,-1838.629195
3056.990477,-12139.377449,888.247130,-2604.724693
3056.990815,-11991.336260,888.247130,-4366.744339
3056.991152,-10955.047942,592.164754,-4519.963438
3056.991490,-9474.636058,0.000000,-2757.943793
3056.991828,-8512.368333,-592.164754,-1991.848295
3056.992165,-9622.677246,-444.123565,-1378.971896
3056.992503,-9770.718434,-2442.679609,-2298.286494
3056.992840,-10066.800811,-3330.926739,-1378.971896
3056.993178,-9178.553681,-3849.070898,-2068.457845
3056.993516,-7624.121203,-3552.988522,-1608.800546
3056.993853,-7624.121203,-1850.514855,0.000000
3056.994191,-8882.471304,-2146.597232,-766.095498
3056.994529,-10584.944971,370.102971,-2374.896044
3056.994866,-11769.274478,74.020594,-2681.334243
3056.995204,-11695.253884,-666.185348,-3217.601092
3056.995542,-10510.924376,-2738.761985,-2757.943793
3056.995879,-8882.471304,-3997.112087,-1608.800546
3056.996217,-7994.224174,-4737.318029,1072.533697
3056.996554,-7476.080014,-4145.153275,1072.533697
3056.996892,-9178.553681,-2294.638420,-536.266849
3056.997230,-11991.336260,-1924.535449,-1991.848295
3056.997567,-13101.645173,-1036.288319,-3600.648841
3056.997905,-11991.336260,-888.247130,-3524.039291
3056.998243,-11473.192101,-1480.411884,-1991.848295
3056.998580,-9548.656652,-2368.659014,-1991.848295
3056.998918,-9252.574275,-2960.823768,-3217.601092
3056.999256,-9918.759623,-4293.194464,-3140.991542
3056.999593,-9548.656652,-4811.338623,-3983.696590
3056.999931,-9844.739029,-5329.482782,-2681.334243
3057.000268,-10658.965565,-4737.318029,-1685.410096
3057.000606,-10288.862594,-3330.926739,-1149.143247
3057.000944,-10658.965565,-2516.700203,-2528.115143
3057.001281,-10436.903782,-1998.556043,-2681.334243
3057.001619,-9474.636058,-1628.453072,-2145.067394
3057.001957,-9104.533087,-2960.823768,-306.438199
3057.002294,-10288.862594,-2590.720797,1225.752797
3057.002632,-10066.800811,-1554.432478,1302.362347
3057.002970,-9696.697840,-814.226536,536.266849
3057.003307,-9992.780217,-444.123565,-689.485948
3057.003645,-10658.965565,-1036.288319,-1762.019645
3057.003982,-9178.553681,-592.164754,-1838.629195
3057.004320,-7994.224174,-1036.288319,-689.485948
3057.004658,-9400.615463,-888.247130,766.095498
3057.004995,-11325.150913,-370.102971,-1838.629195
3057.005333,-10584.944971,1110.308913,-3677.258390
3057.005671,-10658.965565,666.185348,-4290.134789
3057.006008,-9474.636058,-1036.288319,-2681.334243
3057.006346,-8586.388927,-1332.370696,-1532.190996
3057.006684,-9622.677246,-1480.411884,0.000000
3057.007021,-10066.800811,-1628.453072,-1532.190996
3057.007359,-10732.986159,-3256.906145,-2528.115143
3057.007697,-11917.315666,-4663.297435,-2221.676944
3057.008034,-9622.677246,-4367.215058,-1149.143247
3057.008372,-7994.224174,-3552.988522,229.828649
3057.008710,-7698.141797,-2442.679609,766.095498
3057.009047,-10362.883188,-2294.638420,-459.657299
3057.009385,-11695.253884,-2220.617826,-2145.067394
3057.009723,-11029.068536,-1998.556043,-2068.457845
3057.010060,-10510.924376,-2368.659014,689.485948
3057.010398,-11547.212695,-2146.597232,1608.800546
3057.010736,-10510.924376,-2960.823768,76.609550
3057.011073,-10288.862594,-2960.823768,-229.828649
3057.011411,-8734.430116,-3997.112087,-383.047749
3057.011749,-9178.553681,-2072.576638,612.876398
3057.012086,-10658.965565,-148.041188,-2068.457845
3057.012424,-11695.253884,-1110.308913,-4213.525239
3057.012762,-10732.986159,-2516.700203,-3524.039291
3057.013099,-9030.512492,-2664.741391,-1302.362347
3057.013437,-8956.491898,-1258.350101,1608.800546
3057.013775,-10436.903782,-444.123565,153.219100
3057.014112,-9548.656652,-1480.411884,-1378.971896
3057.014450,-10436.903782,-2738.761985,-383.047749
3057.014788,-9030.512492,-2590.720797,2221.676944
3057.015125,-10066.800811,-370.102971,2757.943793
3057.015463,-10658.965565,814.226536,-536.266849
3057.015801,-9844.739029,74.020594,-2681.334243
3057.016138,-10066.800811,0.000000,-1532.190996
3057.016476,-8660.409521,1628.453072,1149.143247
3057.016814,-9622.677246,444.123565,3370.820191
3057.017151,-11177.109724,444.123565,1072.533697
3057.017489,-11325.150913,1332.370696,-766.095498
3057.017827,-9770.718434,740.205942,995.924147
3057.018164,-8216.285956,1332.370696,2374.896044
3057.018502,-9252.574275,740.205942,3370.820191
3057.018840,-11325.150913,1184.329507,995.924147
3057.019177,-11399.171507,888.247130,-306.438199
3057.019515,-11621.233289,592.164754,-766.095498
3057.019853,-10732.986159,222.061783,-1915.238745
3057.020190,-9178.553681,-888.247130,-2298.286494
3057.020528,-8734.430116,-814.226536,-2681.334243
3057.020866,-8142.265362,-1924.535449,-3294.210641
3057.021203,-7031.956449,-3256.906145,-1532.190996
3057.021541,-9326.594869,-2960.823768,766.095498
3057.021879,-10955.047942,-962.267725,1455.581446
3057.022216,-12435.459826,74.020594,306.438199
3057.022554,-12139.377449,-592.164754,229.828649
3057.022892,-10140.821405,-1036.288319,612.876398
3057.023229,-9918.759623,-1776.494261,1838.629195
3057.023567,-10510.924376,-2368.659014,1685.410096
3057.023905,-10214.842000,-2294.638420,689.485948
3057.024242,-10584.944971,-2294.638420,919.314598
3057.024580,-10658.965565,-666.185348,1149.143247
3057.024918,-11547.212695,148.041188,1532.190996
3057.025255,-10066.800811,2072.576638,459.657299
3057.025593,-10066.800811,1480.411884,536.266849
3057.025931,-11325.150913,1628.453072,1302.362347
3057.026268,-10362.883188,1480.411884,0.000000
3057.026606,-11621.233289,148.041188,1532.190996
3057.026944,-10807.006753,-592.164754,459.657299
3057.027281,-9030.512492,-814.226536,-76.609550
3057.027619,-7772.162391,-814.226536,1149.143247
3057.027956,-7328.038826,-222.061783,536.266849
3057.028294,-8438.347739,-222.061783,76.609550
3057.028632,-9474.636058,444.123565,-842.705048
3057.028969,-11399.171507,814.226536,-995.924147
3057.029307,-11399.171507,888.247130,-766.095498
3057.029645,-10658.965565,-666.185348,0.000000
3057.029982,-7994.224174,814.226536,1149.143247
3057.030320,-8438.347739,-370.102971,1915.238745
3057.030658,-8808.450710,-222.061783,2451.505594
3057.030995,-10066.800811,-962.267725,842.705048
3057.031333,-11473.192101,-1110.308913,229.828649
3057.031671,-11177.109724,-296.082377,-306.438199
3057.032008,-9992.780217,-592.164754,-689.485948
3057.032346,-9474.636058,370.102971,76.609550
3057.032684,-10140.821405,74.020594,0.000000
3057.033021,-10140.821405,0.000000,-612.876398
3057.033359,-9548.656652,-518.144159,0.000000
3057.033697,-11473.192101,-1036.288319,76.609550
3057.034034,-11991.336260,-1702.473667,-1072.533697
3057.034372,-10584.944971,-2072.576638,-1991.848295
3057.034710,-8068.244768,-1776.494261,-1915.238745
3057.035047,-7846.182985,-2960.823768,-1302.362347
3057.035385,-10140.821405,-1776.494261,0.000000
3057.035723,-11177.109724,-2294.638420,-1378.971896
3057.036060,-11251.130318,-2294.638420,-1608.800546
3057.036398,-10881.027347,-2368.659014,-1072.533697
3057.036736,-10436.903782,-2146.597232,1608.800546
3057.037073,-9474.636058,-1480.411884,1455.581446
3057.037411,-7846.182985,-1258.350101,1608.800546
3057.037749,-9622.677246,-962.267725,3600.648841
3057.038086,-12361.439231,-148.041188,2757.943793
3057.038424,-12731.542202,1036.288319,1378.971896
3057.038762,-10955.047942,1628.453072,229.828649
3057.039099,-9178.553681,666.185348,842.705048
3057.039437,-9992.780217,-370.102971,1838.629195
3057.039775,-9326.594869,1036.288319,383.047749
3057.040112,-8142.265362,1480.411884,1608.800546
3057.040450,-9696.697840,962.267725,1302.362347
3057.040788,-9844.739029,1110.308913,0.000000
3057.041125,-10955.047942,2516.700203,-383.047749
3057.041463,-10140.821405,1110.308913,459.657299
3057.041801,-9326.594869,1406.391290,0.000000
3057.042138,-8660.409521,962.267725,-612.876398
3057.042476,-9992.780217,-222.061783,0.000000
3057.042814,-9252.574275,-1406.391290,383.047749
3057.043151,-9918.759623,-1850.514855,76.609550
3057.043489,-9918.759623,-666.185348,0.000000
3057.043827,-9104.533087,-1258.350101,229.828649
3057.044164,-10436.903782,-1554.432478,1225.752797
3057.044502,-9548.656652,-1924.535449,612.876398
3057.044840,-9400.615463,-740.205942,1685.410096
3057.045177,-10807.006753,370.102971,1455.581446
3057.045515,-11325.150913,-518.144159,1225.752797
3057.045853,-11251.130318,-296.082377,1072.533697
3057.046190,-10214.842000,-222.061783,-689.485948
3057.046528,-9770.718434,370.102971,0.000000
3057.046866,-10214.842000,74.020594,383.047749
3057.047203,-10658.965565,296.082377,-1991.848295
3057.047541,-10066.800811,-2368.659014,-2451.505594
3057.047879,-9622.677246,-2220.617826,-766.095498
3057.048216,-9696.697840,-1480.411884,1762.019645
3057.048554,-10288.862594,0.000000,1149.143247
3057.048892,-9474.636058,0.000000,-995.924147
3057.049229,-10881.027347,-888.247130,-1149.143247
3057.049567,-11843.295072,-1036.288319,-612.876398
3057.049905,-10436.903782,-74.020594,-689.485948
3057.050242,-9030.512492,-1110.308913,306.438199
3057.050580,-8734.430116,-370.102971,229.828649
3057.050918,-9326.594869,-1036.288319,0.000000
3057.051255,-10807.006753,-518.144159,1149.143247
3057.051593,-9548.656652,-148.041188,1378.971896
3057.051930,-9474.636058,1998.556043,2068.457845
3057.052268,-11695.253884,2590.720797,1608.800546
3057.052606,-10807.006753,1480.411884,0.000000
3057.052943,-9474.636058,1702.473667,1378.971896
3057.053281,-8512.368333,1406.391290,2451.505594
3057.053619,-10362.883188,2516.700203,2145.067394
3057.053956,-12435.459826,1998.556043,842.705048
3057.054294,-11177.109724,222.061783,-383.047749
3057.054632,-9474.636058,74.020594,229.828649
3057.054969,-8438.347739,518.144159,1072.533697
3057.055307,-7772.162391,1332.370696,-689.485948
3057.055645,-9326.594869,-1554.432478,-3217.601092
3057.055982,-9844.739029,-1850.514855,-3753.867940
3057.056320,-10214.842000,-1924.535449,-2451.505594
3057.056658,-8956.491898,-814.226536,1225.752797
3057.056995,-8808.450710,-888.247130,2374.896044
3057.057333,-10214.842000,-888.247130,995.924147
3057.057671,-11473.192101,-1702.473667,0.000000
3057.058008,-11029.068536,-2146.597232,842.705048
3057.058346,-11251.130318,-3256.906145,2068.457845
3057.058684,-9992.780217,-2516.700203,1225.752797
3057.059021,-10214.842000,-2368.659014,459.657299
3057.059359,-10288.862594,-1258.350101,612.876398
3057.059697,-9770.718434,-370.102971,612.876398
3057.060034,-10732.986159,1332.370696,1455.581446
3057.060372,-12139.377449,370.102971,306.438199
3057.060710,-12065.356855,0.000000,-536.266849
3057.061047,-11547.212695,-518.144159,459.657299
3057.061385,-8290.306550,-444.123565,995.924147
3057.061723,-7402.059420,-592.164754,2221.676944
3057.062060,-8882.471304,-1258.350101,1608.800546
3057.062398,-10140.821405,-1332.370696,-995.924147
3057.062736,-11695.253884,-740.205942,-229.828649
3057.063073,-10140.821405,740.205942,-842.705048
3057.063411,-8734.430116,740.205942,-1532.190996
3057.063749,-9770.718434,-740.205942,-689.485948
3057.064086,-8364.327145,-444.123565,-383.047749
3057.064424,-7254.018232,814.226536,1378.971896
3057.064762,-7994.224174,1924.535449,1532.190996
3057.065099,-10584.944971,1258.350101,919.314598
3057.065437,-13249.686362,0.000000,-383.047749
3057.065775,-12213.398043,-1258.350101,-306.438199
3057.066112,-7994.224174,-296.082377,1532.190996
3057.066450,-6809.894666,1702.473667,2834.553343
3057.066788,-8438.347739,2442.679609,1685.410096
3057.067125,-10807.006753,1702.473667,-2451.505594
3057.067463,-12953.603985,518.144159,-2068.457845
3057.067801,-12065.356855,740.205942,-306.438199
3057.068138,-10362.883188,888.247130,459.657299
3057.068476,-9474.636058,1628.453072,76.609550
3057.068814,-9178.553681,444.123565,-919.314598
3057.069151,-8586.388927,-370.102971,-1225.752797
3057.069489,-9474.636058,0.000000,-459.657299
3057.069827,-11103.089130,-666.185348,-536.266849
3057.070164,-11917.315666,-1480.411884,-2374.896044
3057.070502,-11547.212695,-2886.803174,-3600.648841
3057.070840,-9326.594869,-3775.050304,-612.876398
3057.071177,-6661.853478,-1998.556043,1608.800546
3057.071515,-7402.059420,-1554.432478,1532.190996
3057.071853,-9474.636058,-1480.411884,689.485948
3057.072190,-12435.459826,-1776.494261,383.047749
3057.072528,-13249.686362,-1628.453072,1608.800546
3057.072866,-11769.274478,-518.144159,2987.772442
3057.073203,-9252.574275,-222.061783,2451.505594
3057.073541,-9474.636058,0.000000,1685.410096
3057.073879,-9252.574275,-296.082377,766.095498
3057.074216,-8586.388927,444.123565,1455.581446
3057.074554,-9548.656652,1036.288319,2451.505594
3057.074892,-10955.047942,2146.597232,1991.848295
3057.075229,-13545.768739,1332.370696,-1302.362347
3057.075567,-11621.233289,888.247130,-1225.752797
3057.075905,-7698.141797,1110.308913,1149.143247
3057.076242,-5181.441594,1184.329507,4290.134789
3057.076580,-9252.574275,1850.514855,3524.039291
3057.076917,-13767.830521,444.123565,306.438199
3057.077255,-13989.892304,518.144159,-2145.067394
3057.077593,-9770.718434,0.000000,-1608.800546
3057.077930,-7031.956449,592.164754,612.876398
3057.078268,-8068.244768,-1184.329507,842.705048
3057.078606,-9104.533087,-740.205942,-2068.457845
3057.078943,-9178.553681,-370.102971,-2145.067394
3057.079281,-9474.636058,-148.041188,-689.485948
3057.079619,-10214.842000,-74.020594,1838.629195
3057.079956,-12139.377449,0.000000,1072.533697
3057.080294,-12065.356855,0.000000,0.000000
3057.080632,-9844.739029,0.000000,689.485948
3057.080969,-9474.636058,-592.164754,2757.943793
3057.081307,-9252.574275,-740.205942,1762.019645
3057.081645,-10584.944971,-1258.350101,0.000000
3057.081982,-12361.439231,-1702.473667,-995.924147
3057.082320,-11251.130318,-740.205942,-2068.457845
3057.082658,-8882.471304,0.000000,-1455.581446
3057.082995,-7105.977043,370.102971,-1762.019645
3057.083333,-10140.821405,-1332.370696,-919.314598
3057.083671,-12361.439231,-1184.329507,-1378.971896
3057.084008,-10436.903782,0.000000,-1072.533697
3057.084346,-10658.965565,444.123565,1149.143247
3057.084684,-10732.986159,-148.041188,995.924147
3057.085021,-10955.047942,-2368.659014,-995.924147
3057.085359,-9030.512492,-1332.370696,-919.314598
3057.085697,-7624.121203,-1184.329507,1532.190996
3057.086034,-9178.553681,-518.144159,1915.238745
3057.086372,-9770.718434,-296.082377,-536.266849
3057.086710,-12287.418637,-1184.329507,153.219100
3057.087047,-10955.047942,0.000000,995.924147
3057.087385,-6439.791695,814.226536,2451.505594
3057.087723,-7550.100608,2368.659014,5056.230287
3057.088060,-10288.862594,2442.679609,2911.162892
3057.088398,-13027.624579,1332.370696,306.438199
3057.088736,-12731.542202,296.082377,459.657299
3057.089073,-9770.718434,1628.453072,2528.115143
3057.089411,-9030.512492,1998.556043,3524.039291
3057.089749,-9548.656652,1776.494261,-383.047749
3057.090086,-9030.512492,296.082377,-2451.505594
3057.090424,-9474.636058,-666.185348,-1685.410096
3057.090762,-9474.636058,814.226536,1302.362347
3057.091099,-9696.697840,2072.576638,-306.438199
3057.091437,-10732.986159,296.082377,-1762.019645
3057.091775,-11325.150913,-1036.288319,-1685.410096
3057.092112,-9844.739029,-1406.391290,612.876398
3057.092450,-9474.636058,-962.267725,2451.505594
3057.092788,-8956.491898,-1184.329507,1225.752797
3057.093125,-10732.986159,-2960.823768,306.438199
3057.093463,-12065.356855,-3256.906145,-306.438199
3057.093801,-9770.718434,-2072.576638,-76.609550
3057.094138,-8660.409521,-296.082377,1608.800546
3057.094476,-9622.677246,74.020594,689.485948
3057.094814,-12583.501014,148.041188,-1302.362347
3057.095151,-11695.253884,74.020594,-1762.019645
3057.095489,-8882.471304,592.164754,1455.581446
3057.095827,-8882.471304,-814.226536,3064.381992
3057.096164,-10732.986159,-666.185348,1685.410096
3057.096502,-10732.986159,-1258.350101,-689.485948
3057.096840,-9696.697840,-814.226536,-689.485948
3057.097177,-8956.491898,-296.082377,-612.876398
3057.097515,-9474.636058,-1554.432478,306.438199
3057.097853,-10584.944971,-814.226536,0.000000
3057.098190,-9770.718434,222.061783,-1072.533697
3057.098528,-9104.533087,1702.473667,-1225.752797
3057.098866,-8216.285956,1258.350101,-995.924147
3057.099203,-9400.615463,518.144159,-306.438199
3057.099541,-11621.233289,148.041188,-1225.752797
3057.099879,-11251.130318,-888.247130,-2528.115143
3057.100216,-8734.430116,-518.144159,459.657299
3057.100554,-8882.471304,-592.164754,2681.334243
3057.100892,-8142.265362,740.205942,2221.676944
3057.101229,-11251.130318,1406.391290,1149.143247
3057.101567,-11917.315666,666.185348,-153.219100
3057.101904,-11399.171507,1480.411884,-536.266849
3057.102242,-10362.883188,1776.494261,1532.190996
3057.102579,-9326.594869,1332.370696,1532.190996
3057.102917,-9400.615463,666.185348,1915.238745
3057.103254,-9992.780217,222.061783,229.828649
3057.103592,-10807.006753,1184.329507,689.485948
3057.103929,-10732.986159,740.205942,459.657299
3057.104266,-10658.965565,-740.205942,-1072.533697
3057.104604,-10807.006753,-1702.473667,-995.924147
3057.104941,-8808.450710,-1036.288319,-1225.752797
3057.105279,-7402.059420,-740.205942,-1302.362347
3057.105616,-7920.203579,-1332.370696,-766.095498
3057.105953,-10066.800811,-1628.453072,229.828649
3057.106291,-10807.006753,-2368.659014,153.219100
3057.106628,-11843.295072,-1998.556043,1302.362347
3057.106966,-11547.212695,-962.267725,2834.553343
3057.107303,-10510.924376,-2294.638420,2374.896044
3057.107640,-9844.739029,-2590.720797,2068.457845
3057.107978,-8956.491898,-962.267725,1455.581446
3057.108315,-9326.594869,-1036.288319,1455.581446
3057.108653,-10584.944971,-740.205942,1455.581446
3057.108990,-10658.965565,148.041188,0.000000
3057.109327,-11029.068536,148.041188,1149.143247
3057.109665,-9474.636058,2590.720797,766.095498
3057.110002,-8734.430116,2738.761985,766.095498
3057.110340,-11103.089130,1554.432478,1225.752797
3057.110677,-11621.233289,740.205942,0.000000
3057.111014,-10288.862594,-444.123565,2145.067394
3057.111352,-10584.944971,518.144159,1378.971896
3057.111689,-8660.409521,370.102971,3217.601092
3057.112027,-9622.677246,666.185348,-1072.533697
3057.112364,-9474.636058,1406.391290,-2834.553343
3057.112701,-8734.430116,814.226536,-3753.867940
3057.113039,-9178.553681,-962.267725,-3370.820191
3057.113376,-9326.594869,-740.205942,-1915.238745
3057.113714,-9326.594869,296.082377,-1378.971896
3057.114051,-8660.409521,444.123565,-612.876398
3057.114388,-11917.315666,-666.185348,-229.828649
3057.114726,-10510.924376,-1924.535449,1149.143247
3057.115063,-7846.182985,-2368.659014,842.705048
3057.115401,-10584.944971,-1036.288319,3600.648841
3057.115738,-13175.665768,0.000000,2451.505594
3057.116075,-10362.883188,-592.164754,-842.705048
3057.116413,-10807.006753,-666.185348,-1838.629195
3057.116750,-9696.697840,-1110.308913,-612.876398
3057.117088,-9474.636058,74.020594,229.828649
3057.117425,-10140.821405,-222.061783,842.705048
3057.117762,-10658.965565,518.144159,-1532.190996
3057.118100,-9992.780217,-740.205942,-766.095498
3057.118437,-10066.800811,-2368.659014,-1991.848295
3057.118775,-10214.842000,-3330.926739,536.266849
3057.119112,-8734.430116,-2664.741391,1608.800546
3057.119449,-7846.182985,-1776.494261,1072.533697
3057.119787,-9770.718434,-1628.453072,995.924147
3057.120124,-11843.295072,-2368.659014,1149.143247
3057.120462,-11843.295072,-962.267725,229.828649
3057.120799,-10288.862594,0.000000,306.438199
3057.121136,-10955.047942,-518.144159,1762.019645
3057.121474,-10288.862594,-592.164754,2528.115143
3057.121811,-9400.615463,296.082377,2451.505594
3057.122149,-10288.862594,888.247130,2451.505594
3057.122486,-10955.047942,962.267725,1838.629195
3057.122823,-12435.459826,666.185348,2834.553343
3057.123161,-11251.130318,222.061783,1915.238745
3057.123498,-8660.409521,888.247130,2757.943793
3057.123836,-8586.388927,1110.308913,2834.553343
3057.124173,-9326.594869,1406.391290,1302.362347
3057.124511,-9030.512492,2442.679609,-612.876398
3057.124848,-9696.697840,2886.803174,-766.095498
3057.125185,-10732.986159,1628.453072,-1225.752797
3057.125523,-10066.800811,962.267725,-1378.971896
3057.125860,-9400.615463,1110.308913,-1915.238745
3057.126198,-8808.450710,-592.164754,-1608.800546
3057.126535,-7550.100608,-2368.659014,-766.095498
3057.126872,-7698.141797,-2886.803174,536.266849
3057.127210,-9696.697840,-2516.700203,995.924147
3057.127547,-9992.780217,-1406.391290,0.000000
3057.127885,-10732.986159,-296.082377,-1225.752797
3057.128222,-12435.459826,-814.226536,-1532.190996
3057.128559,-11177.109724,-1776.494261,-1072.533697
3057.128897,-9844.739029,-1776.494261,0.000000
3057.129234,-9548.656652,-962.267725,766.095498
3057.129572,-11103.089130,-222.061783,-459.657299
3057.129909,-12139.377449,-1702.473667,-1072.533697
3057.130246,-11843.295072,-2294.638420,229.828649
3057.130584,-9844.739029,-1554.432478,536.266849
3057.130921,-8660.409521,-592.164754,1532.190996
3057.131259,-9400.615463,-444.123565,1991.848295
3057.131596,-10436.903782,-1776.494261,995.924147
3057.131933,-12953.603985,-814.226536,612.876398
3057.132271,-9992.780217,1628.453072,-766.095498
3057.132608,-9918.759623,518.144159,76.609550
3057.132946,-10881.027347,-888.247130,383.047749
3057.133283,-9548.656652,-1184.329507,-1685.410096
3057.133620,-8216.285956,-444.123565,-612.876398
3057.133958,-7550.100608,-592.164754,995.924147
3057.134295,-8512.368333,-1036.288319,0.000000
3057.134633,-11029.068536,-666.185348,-1455.581446
3057.134970,-11103.089130,-592.164754,-459.657299
3057.135307,-7031.956449,-444.123565,-612.876398
3057.135645,-7846.182985,222.061783,1532.190996
3057.135982,-8956.491898,1036.288319,2834.553343
3057.136320,-10436.903782,666.185348,1915.238745
3057.136657,-12065.356855,814.226536,2145.067394
3057.136994,-11621.233289,1480.411884,1685.410096
3057.137332,-11029.068536,1184.329507,2068.457845
3057.137669,-8882.471304,-592.164754,1991.848295
3057.138007,-8586.388927,518.144159,1149.143247
3057.138344,-10807.006753,1480.411884,995.924147
3057.138681,-11177.109724,2664.741391,0.000000
3057.139019,-10807.006753,2664.741391,-1838.629195
3057.139356,-11103.089130,518.144159,-1455.581446
3057.139694,-11103.089130,0.000000,-459.657299
3057.140031,-10510.924376,-518.144159,76.609550
3057.140368,-8364.327145,-814.226536,0.000000
3057.140706,-8512.368333,-1998.556043,0.000000
3057.141043,-10436.903782,-3627.009116,-306.438199
3057.141381,-11177.109724,-4811.338623,459.657299
3057.141718,-10288.862594,-3330.926739,1532.190996
3057.142055,-8290.306550,-2664.741391,459.657299
3057.142393,-9770.718434,-2812.782580,0.000000
3057.142730,-10881.027347,-3775.050304,-1532.190996
3057.143068,-9252.574275,-3330.926739,-689.485948
3057.143405,-7402.059420,-1332.370696,766.095498
3057.143742,-7698.141797,-222.061783,1915.238745
3057.144080,-11547.212695,296.082377,2145.067394
3057.144417,-13619.789333,370.102971,153.219100
3057.144755,-12583.501014,-740.205942,-383.047749
3057.145092,-9696.697840,296.082377,536.266849
3057.145430,-7179.997637,1554.432478,995.924147
3057.145767,-8364.327145,1184.329507,306.438199
3057.146104,-11325.150913,-814.226536,-1762.019645
3057.146442,-10955.047942,1036.288319,-2451.505594
3057.146779,-9844.739029,2220.617826,0.000000
3057.147117,-10140.821405,2442.679609,76.609550
3057.147454,-11399.171507,1406.391290,-1608.800546
3057.147791,-11917.315666,-74.020594,-1149.143247
3057.148129,-9326.594869,-222.061783,0.000000
3057.148466,-8290.306550,-962.267725,995.924147
3057.148804,-9326.594869,-370.102971,383.047749
3057.149141,-9548.656652,-1184.329507,-1532.190996
3057.149478,-10955.047942,-1702.473667,-1072.533697
3057.149816,-9400.615463,-592.164754,-1072.533697
3057.150153,-6957.935855,592.164754,-689.485948
3057.150491,-8438.347739,0.000000,1149.143247
3057.150828,-11399.171507,-1036.288319,995.924147
3057.151165,-12065.356855,-740.205942,766.095498
3057.151503,-10510.924376,444.123565,1532.190996
3057.151840,-9104.533087,-814.226536,2451.505594
3057.152178,-8660.409521,-1628.453072,1991.848295
3057.152515,-9548.656652,-2368.659014,689.485948
3057.152852,-9104.533087,-1850.514855,1149.143247
3057.153190,-9474.636058,-444.123565,1685.410096
3057.153527,-11399.171507,296.082377,689.485948
3057.153865,-12583.501014,0.000000,-1532.190996
3057.154202,-12509.480420,-666.185348,-2145.067394
3057.154539,-9992.780217,-148.041188,-1302.362347
3057.154877,-7624.121203,0.000000,536.266849
3057.155214,-9178.553681,-592.164754,1302.362347
3057.155552,-11473.192101,-2368.659014,1149.143247
3057.155889,-12509.480420,-2738.761985,229.828649
3057.156226,-11621.233289,-2072.576638,1149.143247
3057.156564,-9104.533087,1184.329507,2298.286494
3057.156901,-8364.327145,222.061783,1915.238745
3057.157239,-10140.821405,-740.205942,919.314598
3057.157576,-11621.233289,-1554.432478,1225.752797
3057.157913,-9252.574275,666.185348,306.438199
3057.158251,-7328.038826,1998.556043,2681.334243
3057.158588,-9474.636058,1480.411884,995.924147
3057.158926,-9770.718434,0.000000,-536.266849
3057.159263,-9252.574275,0.000000,459.657299
3057.159600,-9178.553681,1628.453072,919.314598
3057.159938,-8660.409521,2146.597232,0.000000
3057.160275,-10658.965565,814.226536,0.000000
3057.160613,-10732.986159,0.000000,-1762.019645
3057.160950,-9696.697840,-74.020594,-1149.143247
3057.161287,-9918.759623,1110.308913,-919.314598
3057.161625,-8068.244768,1036.288319,-2604.724693
3057.161962,-9548.656652,-962.267725,-2911.162892
3057.162300,-11843.295072,-1332.370696,-1685.410096
3057.162637,-11177.109724,-1332.370696,-919.314598
3057.162974,-9474.636058,-148.041188,1072.533697
3057.163312,-10066.800811,-1110.308913,1838.629195
3057.163649,-12139.377449,-1480.411884,229.828649
3057.163987,-13767.830521,-1258.350101,-612.876398
3057.164324,-11251.130318,-1554.432478,-1225.752797
3057.164661,-8956.491898,-1554.432478,229.828649
3057.164999,-9622.677246,-1924.535449,2451.505594
3057.165336,-10362.883188,-814.226536,536.266849
3057.165674,-9622.677246,-1258.350101,-842.705048
3057.166011,-8956.491898,-518.144159,1072.533697
3057.166349,-9918.759623,518.144159,2221.676944
3057.166686,-12213.398043,296.082377,2145.067394
3057.167023,-11177.109724,-518.144159,0.000000
3057.167361,-9030.512492,-962.267725,0.000000
3057.167698,-8216.285956,-444.123565,2145.067394
3057.168036,-7994.224174,1628.453072,919.314598
3057.168373,-9178.553681,-592.164754,-536.266849
3057.168710,-10140.821405,-888.247130,-1225.752797
3057.169048,-9992.780217,-888.247130,-2068.457845
3057.169385,-9770.718434,-444.123565,-459.657299
3057.169723,-7772.162391,444.123565,76.609550
3057.170060,-8808.450710,-592.164754,0.000000
3057.170397,-11547.212695,-370.102971,459.657299
3057.170735,-9696.697840,740.205942,76.609550
3057.171072,-9770.718434,888.247130,2451.505594
3057.171410,-11695.253884,148.041188,2681.334243
3057.171747,-11917.315666,1110.308913,1225.752797
3057.172084,-12139.377449,0.000000,1225.752797
3057.172422,-9918.759623,0.000000,2068.457845
3057.172759,-8142.265362,592.164754,2681.334243
3057.173097,-10955.047942,888.247130,459.657299
3057.173434,-11399.171507,74.020594,-1762.019645
3057.173771,-10584.944971,-1036.288319,-2451.505594
3057.174109,-9400.615463,-444.123565,-689.485948
3057.174446,-8586.388927,74.020594,0.000000
3057.174784,-8808.450710,-74.020594,-919.314598
3057.175121,-8364.327145,-2072.576638,-1838.629195
3057.175458,-9400.615463,-3182.885551,-689.485948
3057.175796,-10584.944971,-2960.823768,766.095498
3057.176133,-9622.677246,-2812.782580,1838.629195
3057.176471,-9622.677246,-2664.741391,1608.800546
3057.176808,-10881.027347,-3182.885551,766.095498
3057.177145,-11769.274478,-2146.597232,-229.828649
3057.177483,-9474.636058,-1850.514855,-536.266849
3057.177820,-8364.327145,-1850.514855,-1072.533697
3057.178158,-9770.718434,-1554.432478,-612.876398
3057.178495,-12139.377449,-1110.308913,-459.657299
3057.178832,-9992.780217,-296.082377,-995.924147
3057.179170,-9104.533087,740.205942,1685.410096
3057.179507,-10732.986159,1998.556043,2451.505594
3057.179845,-12139.377449,1776.494261,1762.019645
3057.180182,-12065.356855,666.185348,1225.752797
3057.180519,-11325.150913,1332.370696,383.047749
3057.180857,-9252.574275,2146.597232,459.657299
3057.181194,-8586.388927,2072.576638,229.828649
3057.181532,-9474.636058,444.123565,0.000000
3057.181869,-8290.306550,1110.308913,-842.705048
3057.182206,-8364.327145,1924.535449,-1225.752797
3057.182544,-9770.718434,2442.679609,306.438199
3057.182881,-11473.192101,2072.576638,0.000000
3057.183219,-11917.315666,148.041188,-1685.410096
3057.183556,-9252.574275,-444.123565,-2068.457845
3057.183893,-7254.018232,-1036.288319,612.876398
3057.184231,-7031.956449,-1184.329507,1838.629195
3057.184568,-8882.471304,-1480.411884,0.000000
3057.184906,-11251.130318,-1480.411884,-1608.800546
3057.185243,-11251.130318,-1184.329507,-1302.362347
3057.185580,-9548.656652,-814.226536,1072.533697
3057.185918,-9770.718434,1332.370696,2221.676944
3057.186255,-10288.862594,1406.391290,2374.896044
3057.186593,-10807.006753,1184.329507,1685.410096
3057.186930,-11251.130318,74.020594,1149.143247
3057.187268,-13101.645173,-370.102971,2221.676944
3057.187605,-10955.047942,-1332.370696,2145.067394
3057.187942,-9918.759623,-740.205942,1915.238745
3057.188280,-10584.944971,-1184.329507,1378.971896
3057.188617,-10140.821405,222.061783,0.000000
3057.188955,-8956.491898,0.000000,153.219100
3057.189292,-9918.759623,-592.164754,-1225.752797
3057.189629,-11103.089130,-1036.288319,-689.485948
3057.189967,-10732.986159,-148.041188,-1149.143247
3057.190304,-9030.512492,-666.185348,-536.266849
3057.190642,-8216.285956,-1036.288319,153.219100
3057.190979,-8512.368333,-2072.576638,766.095498
3057.191316,-10214.842000,-1998.556043,1302.362347
3057.191654,-9770.718434,-1776.494261,1455.581446
3057.191991,-9992.780217,-2146.597232,2298.286494
3057.192329,-9400.615463,0.000000,1225.752797
3057.192666,-10140.821405,-592.164754,229.828649
3057.193003,-9696.697840,222.061783,0.000000
3057.193341,-8956.491898,370.102971,0.000000
3057.193678,-9474.636058,1480.411884,536.266849
3057.194016,-10066.800811,3108.864956,0.000000
3057.194353,-11399.171507,1850.514855,-689.485948
3057.194690,-11177.109724,1628.453072,-1302.362347
3057.195028,-10362.883188,1998.556043,0.000000
3057.195365,-10436.903782,1850.514855,459.657299
3057.195703,-9844.739029,1036.288319,536.266849
3057.196040,-10214.842000,666.185348,689.485948
3057.196377,-11103.089130,296.082377,-689.485948
3057.196715,-10436.903782,0.000000,-1532.190996
3057.197052,-9770.718434,-1110.308913,-2068.457845
3057.197390,-9030.512492,-962.267725,-2987.772442
3057.197727,-9252.574275,-1480.411884,-2145.067394
3057.198064,-9030.512492,-1924.535449,-1762.019645
3057.198402,-8290.306550,-1110.308913,0.000000
3057.198739,-11325.150913,-1184.329507,1149.143247
3057.199077,-11917.315666,-1554.432478,0.000000
3057.199414,-10732.986159,-2812.782580,306.438199
3057.199751,-9622.677246,-3182.885551,2604.724693
3057.200089,-8364.327145,-3256.906145,2987.772442
3057.200426,-8364.327145,-2368.659014,3600.648841
3057.200764,-8956.491898,-1554.432478,3217.601092
3057.201101,-9770.718434,740.205942,1302.362347
3057.201438,-12361.439231,1332.370696,76.609550
3057.201776,-11991.336260,1184.329507,0.000000
3057.202113,-10362.883188,0.000000,-459.657299
3057.202451,-9252.574275,296.082377,995.924147
3057.202788,-9400.615463,0.000000,1991.848295
3057.203125,-9474.636058,1110.308913,1838.629195
3057.203463,-9326.594869,222.061783,995.924147
3057.203800,-11325.150913,-444.123565,1225.752797
3057.204138,-11251.130318,962.267725,1072.533697
3057.204475,-11325.150913,888.247130,383.047749
3057.204812,-10066.800811,1998.556043,-306.438199
3057.205150,-9326.594869,74.020594,-1685.410096
3057.205487,-9696.697840,740.205942,-459.657299
3057.205824,-9178.553681,1258.350101,766.095498
3057.206162,-8586.388927,1110.308913,0.000000
3057.206499,-10140.821405,1036.288319,153.219100
3057.206836,-10807.006753,-444.123565,459.657299
3057.207174,-11547.212695,370.102971,1072.533697
3057.207511,-10436.903782,-296.082377,1685.410096
3057.207848,-8586.388927,1628.453072,1072.533697
3057.208186,-8142.265362,1036.288319,1915.238745
3057.208523,-9844.739029,888.247130,0.000000
3057.208860,-10881.027347,0.000000,0.000000
3057.209198,-10955.047942,1184.329507,-842.705048
3057.209535,-10214.842000,962.267725,-2221.676944
3057.209873,-9326.594869,0.000000,-2681.334243
3057.210210,-8586.388927,-1110.308913,-1532.190996
3057.210547,-9622.677246,-2960.823768,919.314598
3057.210885,-8734.430116,-2146.597232,1302.362347
3057.211222,-9474.636058,296.082377,842.705048
3057.211559,-12583.501014,-1258.350101,0.000000
3057.211897,-13397.727550,-2960.823768,-2221.676944
3057.212234,-11325.150913,-2220.617826,-612.876398
3057.212571,-8290.306550,-1184.329507,1072.533697
3057.212909,-7772.162391,222.061783,1532.190996
3057.213246,-9104.533087,-1406.391290,536.266849
3057.213583,-11843.295072,-2146.597232,76.609550
3057.213921,-12139.377449,-2442.679609,536.266849
3057.214258,-10658.965565,1110.308913,1455.581446
3057.214596,-9622.677246,1036.288319,1149.143247
3057.214933,-10584.944971,-962.267725,1072.533697
3057.215270,-10436.903782,-296.082377,-383.047749
3057.215608,-8142.265362,1184.329507,1072.533697
3057.215945,-8068.244768,2590.720797,1762.019645
3057.216282,-9474.636058,1332.370696,919.314598
3057.216620,-12065.356855,2590.720797,-306.438199
3057.216957,-11547.212695,1628.453072,-2221.676944
3057.217294,-8068.244768,1406.391290,-1225.752797
3057.217632,-6513.812290,592.164754,995.924147
3057.217969,-8364.327145,148.041188,1455.581446
3057.218306,-10510.924376,-1332.370696,0.000000
3057.218644,-11769.274478,-1258.350101,0.000000
3057.218981,-9030.512492,-74.020594,0.000000
3057.219318,-9548.656652,-518.144159,1149.143247
3057.219656,-9844.739029,-740.205942,-153.219100
3057.219993,-9400.615463,-444.123565,-1991.848295
3057.220331,-9548.656652,-962.267725,-612.876398
3057.220668,-9104.533087,-370.102971,0.000000
3057.221005,-10436.903782,0.000000,1225.752797
3057.221343,-13175.665768,-1036.288319,1455.581446
3057.221680,-13101.645173,-1998.556043,-153.219100
3057.222017,-10362.883188,-1332.370696,1685.410096
3057.222355,-7772.162391,592.164754,3677.258390
3057.222692,-8808.450710,-962.267725,2987.772442
3057.223029,-12583.501014,-1850.514855,76.609550
3057.223367,-12657.521608,-2368.659014,-1532.190996
3057.223704,-9622.677246,-1406.391290,-459.657299
3057.224041,-8956.491898,592.164754,842.705048
3057.224379,-8586.388927,222.061783,76.609550
3057.224716,-9844.739029,-962.267725,-2451.505594
3057.225053,-10955.047942,-1702.473667,-766.095498
3057.225391,-9474.636058,0.000000,-919.314598
3057.225728,-9770.718434,-814.226536,0.000000
3057.226066,-10362.883188,-2368.659014,-306.438199
3057.226403,-10955.047942,-3108.864956,-1455.581446
3057.226740,-9400.615463,-814.226536,153.219100
3057.227078,-7624.121203,666.185348,1072.533697
3057.227415,-8660.409521,518.144159,1685.410096
3057.227752,-10214.842000,148.041188,1072.533697
3057.228090,-12213.398043,1184.329507,612.876398
3057.228427,-12657.521608,2442.679609,766.095498
3057.228764,-10362.883188,3256.906145,459.657299
3057.229102,-9030.512492,3034.844362,536.266849
3057.229439,-9844.739029,518.144159,-229.828649
3057.229776,-10362.883188,592.164754,1455.581446
3057.230114,-9326.594869,2442.679609,1991.848295
3057.230451,-10066.800811,3256.906145,1072.533697
3057.230788,-11547.212695,2590.720797,-1072.533697
3057.231126,-13101.645173,666.185348,-2221.676944
3057.231463,-9030.512492,148.041188,-1608.800546
3057.231801,-7031.956449,1702.473667,229.828649
3057.232138,-8290.306550,2368.659014,1149.143247
3057.232475,-10658.965565,962.267725,-1302.362347
3057.232813,-12139.377449,-1332.370696,-3524.039291
3057.233150,-11991.336260,-3552.988522,-842.705048
3057.233487,-9474.636058,-2664.741391,1225.752797
3057.233825,-7846.182985,-1776.494261,2681.334243
3057.234162,-8586.388927,-2516.700203,1072.533697
3057.234499,-9474.636058,-4441.235652,0.000000
3057.234837,-10140.821405,-3923.091493,1225.752797
3057.235174,-8290.306550,-1702.473667,1838.629195
3057.235511,-9770.718434,-518.144159,3217.601092
3057.235849,-12065.356855,-592.164754,689.485948
3057.236186,-12139.377449,-1702.473667,-76.609550
3057.236524,-10807.006753,-1110.308913,1608.800546
3057.236861,-8290.306550,444.123565,2681.334243
3057.237198,-9400.615463,592.164754,2834.553343
3057.237536,-12731.542202,-1258.350101,1072.533697
3057.237873,-12805.562797,-962.267725,0.000000
3057.238210,-10658.965565,-1036.288319,229.828649
3057.238548,-8956.491898,592.164754,919.314598
3057.238885,-8364.327145,888.247130,0.000000
3057.239222,-10732.986159,370.102971,-766.095498
3057.239560,-11325.150913,740.205942,-1685.410096
3057.239897,-10732.986159,0.000000,-1225.752797
3057.240234,-9844.739029,666.185348,153.219100
3057.240572,-8808.450710,0.000000,-1608.800546
3057.240909,-10584.944971,-2072.576638,-229.828649
3057.241246,-9474.636058,-1036.288319,153.219100
3057.241584,-7550.100608,-518.144159,383.047749
3057.241921,-7698.141797,222.061783,1838.629195
3057.242259,-8660.409521,0.000000,612.876398
3057.242596,-11769.274478,592.164754,153.219100
3057.242933,-11917.315666,1628.453072,0.000000
3057.243271,-10510.924376,2368.659014,536.266849
3057.243608,-8882.471304,1702.473667,842.705048
3057.243945,-9178.553681,370.102971,76.609550
3057.244283,-10214.842000,0.000000,-842.705048
3057.244620,-9696.697840,-1036.288319,-1685.410096
3057.244957,-8068.244768,-296.082377,-383.047749
3057.245295,-9030.512492,-296.082377,0.000000
3057.245632,-11843.295072,-444.123565,-1225.752797
3057.245969,-11917.315666,-1554.432478,-1149.143247
3057.246307,-10066.800811,-740.205942,-1149.143247
3057.246644,-9030.512492,74.020594,229.828649
3057.246981,-10362.883188,-1036.288319,1072.533697
3057.247319,-11177.109724,-2294.638420,153.219100
3057.247656,-11695.253884,-2738.761985,0.000000
3057.247994,-11103.089130,-2146.597232,0.000000
3057.248331,-8808.450710,-1332.370696,689.485948
3057.248668,-9252.574275,-2590.720797,1149.143247
3057.249006,-9770.718434,-2738.761985,919.314598
3057.249343,-9326.594869,-2442.679609,76.609550
3057.249680,-9252.574275,0.000000,2374.896044
3057.250018,-9252.574275,370.102971,2451.505594
3057.250355,-10732.986159,1184.329507,1608.800546
3057.250692,-11325.150913,1406.391290,1685.410096
3057.251030,-10881.027347,1406.391290,1838.629195
3057.251367,-9844.739029,2516.700203,1991.848295
3057.251704,-9178.553681,2368.659014,1149.143247
3057.252042,-10288.862594,1184.329507,-153.219100
3057.252379,-10140.821405,-370.102971,-919.314598
3057.252717,-9918.759623,296.082377,0.000000
3057.253054,-9770.718434,1332.370696,383.047749
3057.253391,-9252.574275,1554.432478,-766.095498
3057.253729,-9548.656652,2146.597232,-1072.533697
3057.254066,-10510.924376,444.123565,-919.314598
3057.254403,-10510.924376,1110.308913,-383.047749
3057.254741,-9918.759623,740.205942,689.485948
3057.255078,-9548.656652,148.041188,0.000000
3057.255415,-11177.109724,-518.144159,-383.047749
3057.255753,-11251.130318,-2664.741391,-612.876398
3057.256090,-9030.512492,-1850.514855,1225.752797
3057.256427,-7550.100608,-1702.473667,919.314598
3057.256765,-8660.409521,-444.123565,766.095498
3057.257102,-11621.233289,-740.205942,306.438199
3057.257439,-12065.356855,-740.205942,-1685.410096
3057.257777,-9992.780217,-888.247130,612.876398
3057.258114,-9178.553681,148.041188,1838.629195
3057.258452,-9104.533087,444.123565,1991.848295
3057.258789,-10584.944971,-518.144159,459.657299
3057.259126,-12287.418637,-888.247130,-383.047749
3057.259464,-10732.986159,-888.247130,-919.314598
3057.259801,-9844.739029,-1554.432478,-995.924147
3057.260138,-9622.677246,-1184.329507,-1455.581446
3057.260476,-9696.697840,-2368.659014,-1072.533697
3057.260813,-9474.636058,-1406.391290,-1685.410096
3057.261150,-8734.430116,-370.102971,-2221.676944
3057.261488,-9622.677246,-370.102971,383.047749
3057.261825,-12065.356855,-444.123565,919.314598
3057.262162,-12139.377449,-740.205942,-1149.143247
3057.262500,-10881.027347,74.020594,229.828649
3057.262837,-9474.636058,-592.164754,2528.115143
3057.263174,-9252.574275,-1480.411884,2834.553343
3057.263512,-9622.677246,-1258.350101,2068.457845
3057.263849,-9252.574275,592.164754,919.314598
3057.264187,-9622.677246,592.164754,459.657299
3057.264524,-11695.253884,1110.308913,0.000000
3057.264861,-9770.718434,1628.453072,1302.362347
3057.265199,-9326.594869,3256.906145,383.047749
3057.265536,-9252.574275,2812.782580,-229.828649
3057.265873,-10510.924376,1628.453072,1455.581446
3057.266211,-10436.903782,592.164754,766.095498
3057.266548,-10510.924376,-888.247130,536.266849
3057.266885,-10214.842000,-1628.453072,689.485948
3057.267223,-7994.224174,0.000000,459.657299
3057.267560,-8734.430116,-1554.432478,689.485948
3057.267897,-10288.862594,-370.102971,-995.924147
3057.268235,-9400.615463,0.000000,-2221.676944
3057.268572,-11843.295072,-1036.288319,-1685.410096
3057.268909,-11399.171507,-1924.535449,-1378.971896
3057.269247,-9844.739029,-2738.761985,1149.143247
3057.269584,-9622.677246,-2368.659014,1378.971896
3057.269922,-7328.038826,-4219.173869,76.609550
3057.270259,-9326.594869,-3478.967927,2911.162892
3057.270596,-11103.089130,-2146.597232,2987.772442
3057.270934,-10436.903782,-1332.370696,1225.752797
3057.271271,-11325.150913,444.123565,766.095498
3057.271608,-12583.501014,-1036.288319,919.314598
3057.271946,-11843.295072,-1036.288319,0.000000
3057.272283,-8512.368333,74.020594,153.219100
3057.272620,-6735.874072,1184.329507,1762.019645
3057.272958,-9326.594869,222.061783,1302.362347
3057.273295,-11547.212695,222.061783,842.705048
3057.273632,-11991.336260,148.041188,-766.095498
3057.273970,-11325.150913,1110.308913,-459.657299
3057.274307,-9548.656652,962.267725,-1072.533697
3057.274645,-9622.677246,518.144159,-1838.629195
3057.274982,-9252.574275,0.000000,-1838.629195
3057.275319,-7772.162391,-518.144159,-2911.162892
3057.275657,-8216.285956,296.082377,-612.876398
3057.275994,-9770.718434,444.123565,1302.362347
3057.276331,-11547.212695,888.247130,459.657299
3057.276669,-11399.171507,1924.535449,-1225.752797
3057.277006,-10732.986159,666.185348,-766.095498
3057.277343,-9770.718434,0.000000,919.314598
3057.277681,-9178.553681,-1554.432478,3064.381992
3057.278018,-10658.965565,-370.102971,3140.991542
3057.278355,-10436.903782,444.123565,1302.362347
3057.278693,-10658.965565,1332.370696,0.000000
3057.279030,-9992.780217,296.082377,-995.924147
3057.279367,-9622.677246,0.000000,-766.095498
3057.279705,-8660.409521,148.041188,-1072.533697
3057.280042,-8956.491898,-222.061783,-842.705048
3057.280380,-8808.450710,-1184.329507,766.095498
3057.280717,-9622.677246,-1184.329507,1149.143247
3057.281054,-11251.130318,-1924.535449,1455.581446
3057.281392,-11177.109724,-1776.494261,919.314598
3057.281729,-9548.656652,-1406.391290,153.219100
3057.282066,-10955.047942,-2368.659014,383.047749
3057.282404,-10436.903782,-2664.741391,-1532.190996
3057.282741,-8660.409521,-2590.720797,-1378.971896
3057.283078,-9104.533087,-1850.514855,306.438199
3057.283416,-10140.821405,-666.185348,919.314598
3057.283753,-11325.150913,148.041188,153.219100
3057.284090,-11917.315666,-1184.329507,229.828649
3057.284428,-11177.109724,-1036.288319,2068.457845
3057.284765,-11251.130318,-1258.350101,3217.601092
3057.285102,-10362.883188,-962.267725,3753.867940
3057.285440,-9770.718434,296.082377,3524.039291
3057.285777,-11029.068536,0.000000,2221.676944
3057.286115,-10807.006753,0.000000,1225.752797
3057.286452,-8438.347739,1406.391290,0.000000
3057.286789,-7994.224174,2590.720797,-612.876398
3057.287127,-9326.594869,2516.700203,-1838.629195
3057.287464,-10510.924376,1776.494261,-2528.115143
3057.287801,-9844.739029,814.226536,-1532.190996
3057.288139,-9178.553681,592.164754,-689.485948
3057.288476,-9252.574275,-518.144159,383.047749
3057.288813,-8882.471304,-1850.514855,766.095498
3057.289151,-9252.574275,-888.247130,2221.676944
3057.289488,-9326.594869,-1036.288319,2068.457845
3057.289825,-9548.656652,370.102971,0.000000
3057.290163,-10436.903782,-666.185348,-1302.362347
3057.290500,-11399.171507,-1480.411884,-2221.676944
3057.290838,-10288.862594,-1036.288319,-2145.067394
3057.291175,-9400.615463,0.000000,-2374.896044
3057.291512,-8364.327145,814.226536,-1532.190996
3057.291850,-9474.636058,-518.144159,-1149.143247
3057.292187,-11695.253884,-1258.350101,0.000000
3057.292524,-12065.356855,-1480.411884,1455.581446
3057.292862,-11399.171507,-444.123565,2834.553343
3057.293199,-11029.068536,-592.164754,2834.553343
3057.293536,-10881.027347,-740.205942,1455.581446
3057.293874,-11029.068536,-296.082377,612.876398
3057.294211,-10362.883188,-740.205942,0.000000
3057.294548,-9178.553681,296.082377,-1302.362347
3057.294886,-8734.430116,0.000000,-1455.581446
3057.295223,-10732.986159,-148.041188,-1991.848295
3057.295560,-10288.862594,-814.226536,-2528.115143
3057.295898,-9770.718434,-592.164754,-1762.019645
3057.296235,-9252.574275,-592.164754,-1072.533697
3057.296573,-9252.574275,-1776.494261,76.609550
3057.296910,-9474.636058,-2072.576638,766.095498
3057.297247,-9696.697840,-2368.659014,2451.505594
3057.297585,-10732.986159,-1628.453072,4290.134789
3057.297922,-10436.903782,666.185348,2451.505594
3057.298259,-10214.842000,-518.144159,1225.752797
3057.298597,-10436.903782,666.185348,1685.410096
3057.298934,-10214.842000,0.000000,1532.190996
3057.299271,-10140.821405,1184.329507,1838.629195
3057.299609,-8438.347739,2294.638420,536.266849
3057.299946,-9474.636058,1110.308913,536.266849
3057.300283,-12509.480420,1036.288319,1991.848295
3057.300621,-11177.109724,888.247130,1838.629195
3057.300958,-8956.491898,2368.659014,2374.896044
3057.301296,-10140.821405,2146.597232,2451.505594
3057.301633,-10658.965565,962.267725,612.876398
3057.301970,-10288.862594,-592.164754,536.266849
3057.302308,-9992.780217,-592.164754,1838.629195
3057.302645,-9696.697840,296.082377,0.000000
3057.302983,-10807.006753,1998.556043,-1762.019645
3057.303320,-10658.965565,518.144159,-3983.696590
3057.303658,-8882.471304,-2442.679609,-4366.744339
3057.303995,-7920.203579,-2960.823768,-919.314598
3057.304332,-5995.668130,-1776.494261,0.000000
3057.304670,-8290.306550,-2294.638420,1455.581446
3057.305007,-11621.233289,-2960.823768,766.095498
3057.305345,-12805.562797,-2590.720797,76.609550
3057.305682,-12065.356855,-1554.432478,919.314598
3057.306019,-9474.636058,-74.020594,1455.581446
3057.306357,-8290.306550,-1776.494261,689.485948
3057.306694,-10066.800811,-1184.329507,689.485948
3057.307032,-10510.924376,-1258.350101,153.219100
3057.307369,-9548.656652,0.000000,0.000000
3057.307707,-10732.986159,296.082377,-229.828649
3057.308044,-10807.006753,592.164754,-2221.676944
3057.308381,-11251.130318,-962.267725,-919.314598
3057.308719,-9252.574275,-592.164754,153.219100
3057.309056,-8512.368333,814.226536,612.876398
3057.309394,-11177.109724,222.061783,0.000000
3057.309731,-12361.439231,296.082377,-1685.410096
3057.310069,-12213.398043,-2072.576638,-2068.457845
3057.310406,-9326.594869,-888.247130,0.000000
3057.310743,-7550.100608,74.020594,1072.533697
3057.311081,-8438.347739,1110.308913,153.219100
3057.311418,-9844.739029,148.041188,-1532.190996
3057.311756,-12361.439231,-1110.308913,-1378.971896
3057.312093,-11769.274478,-296.082377,-383.047749
3057.312431,-9030.512492,222.061783,995.924147
3057.312768,-9252.574275,148.041188,2374.896044
3057.313105,-9622.677246,-888.247130,1685.410096
3057.313443,-8068.244768,-740.205942,2451.505594
3057.313780,-8586.388927,444.123565,3677.258390
3057.314118,-9992.780217,1480.411884,2374.896044
3057.314455,-11103.089130,1332.370696,76.609550
3057.314792,-12731.542202,-740.205942,-842.705048
3057.315130,-10066.800811,-888.247130,1532.190996
3057.315467,-6661.853478,740.205942,1608.800546
3057.315805,-7624.121203,1998.556043,2374.896044
3057.316142,-9770.718434,740.205942,76.609550
3057.316480,-11177.109724,370.102971,-995.924147
3057.316817,-12065.356855,-740.205942,383.047749
3057.317154,-11547.212695,222.061783,459.657299
3057.317492,-10066.800811,0.000000,0.000000
3057.317829,-9992.780217,-1258.350101,-612.876398
3057.318167,-10066.800811,-3701.029710,612.876398
3057.318504,-10140.821405,-1776.494261,1532.190996
3057.318842,-9104.533087,-518.144159,1762.019645
3057.319179,-11103.089130,0.000000,459.657299
3057.319516,-12361.439231,-1184.329507,-1455.581446
3057.319854,-12213.398043,-2072.576638,-995.924147
3057.320191,-9326.594869,-1628.453072,2528.115143
3057.320529,-7402.059420,-666.185348,3677.258390
3057.320866,-7994.224174,0.000000,2451.505594
3057.321204,-10288.862594,814.226536,76.609550
3057.321541,-11103.089130,518.144159,0.000000
3057.321878,-11177.109724,666.185348,0.000000
3057.322216,-9474.636058,2368.659014,-766.095498
3057.322553,-10214.842000,1332.370696,-1915.238745
3057.322891,-10362.883188,-1332.370696,-1838.629195
3057.323228,-7994.224174,-2664.741391,-766.095498
3057.323565,-6217.729913,-814.226536,1302.362347
3057.323903,-7994.224174,814.226536,1532.190996
3057.324240,-11177.109724,148.041188,-306.438199
3057.324578,-13175.665768,0.000000,-2987.772442
3057.324915,-11473.192101,-740.205942,-2834.553343
3057.325253,-9696.697840,0.000000,0.000000
3057.325590,-8882.471304,444.123565,229.828649
3057.325927,-10214.842000,370.102971,-1762.019645
3057.326265,-9622.677246,222.061783,-3064.381992
3057.326602,-9992.780217,-370.102971,-1072.533697
3057.326940,-10807.006753,222.061783,2374.896044
3057.327277,-11325.150913,0.000000,383.047749
3057.327615,-11843.295072,148.041188,306.438199
3057.327952,-11399.171507,-518.144159,1762.019645
3057.328289,-10140.821405,74.020594,2757.943793
3057.328627,-9474.636058,1110.308913,2604.724693
3057.328964,-9400.615463,0.000000,2068.457845
3057.329302,-10658.965565,-1258.350101,0.000000
3057.329639,-10807.006753,-962.267725,-229.828649
3057.329977,-9030.512492,74.020594,-689.485948
3057.330314,-7624.121203,0.000000,-306.438199
3057.330651,-9030.512492,-1036.288319,-919.314598
3057.330989,-9474.636058,-740.205942,-1532.190996
3057.331326,-10881.027347,-1258.350101,-383.047749
3057.331664,-8882.471304,-1776.494261,842.705048
3057.332001,-9474.636058,-1924.535449,1685.410096
3057.332339,-10214.842000,-1924.535449,919.314598
3057.332676,-10807.006753,-2516.700203,1302.362347
3057.333013,-10066.800811,-2368.659014,1608.800546
3057.333351,-8956.491898,-666.185348,1915.238745
3057.333688,-10584.944971,0.000000,2145.067394
3057.334026,-11177.109724,666.185348,0.000000
3057.334363,-12065.356855,296.082377,842.705048
3057.334700,-12139.377449,370.102971,2374.896044
3057.335038,-10362.883188,962.267725,2298.286494
3057.335375,-9400.615463,2368.659014,2528.115143
3057.335713,-10658.965565,1776.494261,1838.629195
3057.336050,-11695.253884,740.205942,995.924147
3057.336388,-10732.986159,888.247130,-612.876398
3057.336725,-8660.409521,666.185348,1072.533697
3057.337062,-8068.244768,1998.556043,1225.752797
3057.337400,-10584.944971,1406.391290,766.095498
3057.337737,-12361.439231,1258.350101,-2145.067394
3057.338075,-9548.656652,1776.494261,-3140.991542
3057.338412,-7920.203579,-74.020594,-2221.676944
3057.338750,-7105.977043,-1628.453072,-1608.800546
3057.339087,-7402.059420,-2146.597232,-1225.752797
3057.339424,-8068.244768,-2664.741391,153.219100
3057.339762,-9252.574275,-1258.350101,766.095498
3057.340099,-10510.924376,-222.061783,306.438199
3057.340437,-11325.150913,296.082377,-229.828649
3057.340774,-10436.903782,-1776.494261,-229.828649
3057.341112,-10584.944971,-1184.329507,306.438199
3057.341449,-10807.006753,0.000000,689.485948
3057.341786,-9844.739029,518.144159,-842.705048
3057.342124,-9622.677246,-222.061783,-383.047749
3057.342461,-11103.089130,-296.082377,153.219100
3057.342799,-10732.986159,0.000000,-383.047749
3057.343136,-11103.089130,0.000000,1378.971896
3057.343473,-10807.006753,592.164754,1685.410096
3057.343811,-11695.253884,-148.041188,306.438199
3057.344148,-12657.521608,0.000000,306.438199
3057.344486,-10214.842000,888.247130,-689.485948
3057.344823,-9326.594869,0.000000,383.047749
3057.345161,-9474.636058,-814.226536,153.219100
3057.345498,-9770.718434,-1480.411884,-919.314598
3057.345835,-9696.697840,-1998.556043,153.219100
3057.346173,-9474.636058,-1776.494261,-153.219100
3057.346510,-8734.430116,-444.123565,0.000000
3057.346848,-9104.533087,518.144159,-995.924147
3057.347185,-9104.533087,-592.164754,-459.657299
3057.347523,-9474.636058,-1406.391290,995.924147
3057.347860,-8438.347739,-1036.288319,2451.505594
3057.348197,-8808.450710,-1036.288319,3370.820191
3057.348535,-10732.986159,222.061783,2681.334243
3057.348872,-9030.512492,518.144159,689.485948
3057.349210,-10140.821405,74.020594,2298.286494
3057.349547,-11177.109724,-370.102971,3830.477490
3057.349885,-8734.430116,962.267725,1532.190996
3057.350222,-10140.821405,1258.350101,2451.505594
3057.350559,-11769.274478,1036.288319,1072.533697
3057.350897,-11325.150913,1258.350101,-1838.629195
3057.351234,-10584.944971,888.247130,-1378.971896
3057.351572,-8882.471304,0.000000,-766.095498
3057.351909,-10140.821405,0.000000,0.000000
3057.352246,-9770.718434,888.247130,-1991.848295
3057.352584,-9326.594869,0.000000,-1685.410096
3057.352921,-11177.109724,-1702.473667,-689.485948
3057.353259,-11399.171507,-2368.659014,-689.485948
3057.353596,-10288.862594,-1850.514855,383.047749
3057.353934,-9844.739029,-962.267725,842.705048
3057.354271,-10436.903782,-2294.638420,383.047749
3057.354608,-9474.636058,-2442.679609,-459.657299
3057.354946,-9474.636058,-3108.864956,2374.896044
3057.355283,-9178.553681,-1554.432478,2068.457845
3057.355621,-9992.780217,-666.185348,153.219100
3057.355958,-10955.047942,-814.226536,76.609550
3057.356296,-10807.006753,-1628.453072,153.219100
3057.356633,-8364.327145,222.061783,-383.047749
3057.356970,-7920.203579,1702.473667,-383.047749
3057.357308,-9474.636058,1628.453072,-536.266849
3057.357645,-11325.150913,-740.205942,-383.047749
3057.357983,-11325.150913,370.102971,-536.266849
3057.358320,-10732.986159,1258.350101,919.314598
3057.358658,-10214.842000,1702.473667,1378.971896
3057.358995,-9844.739029,1036.288319,0.000000
3057.359332,-11621.233289,0.000000,-842.705048
3057.359670,-9696.697840,518.144159,-1838.629195
3057.360007,-7846.182985,222.061783,-689.485948
3057.360345,-9622.677246,0.000000,995.924147
3057.360682,-10584.944971,814.226536,-1532.190996
3057.361019,-11473.192101,1554.432478,-2145.067394
3057.361357,-11473.192101,1184.329507,-1685.410096
3057.361694,-9992.780217,1110.308913,-459.657299
3057.362032,-9696.697840,148.041188,76.609550
3057.362369,-9030.512492,-592.164754,1378.971896
3057.362707,-9696.697840,-1406.391290,2757.943793
3057.363044,-11029.068536,-1184.329507,3830.477490
3057.363381,-9622.677246,222.061783,2604.724693
3057.363719,-9252.574275,1184.329507,2911.162892
3057.364056,-10584.944971,592.164754,2068.457845
3057.364394,-10510.924376,-666.185348,153.219100
3057.364731,-9770.718434,-1184.329507,689.485948
3057.365069,-9252.574275,-1036.288319,1685.410096
3057.365406,-8364.327145,518.144159,0.000000
3057.365743,-8956.491898,-370.102971,-1762.019645
3057.366081,-10436.903782,-666.185348,153.219100
3057.366418,-11177.109724,-888.247130,-229.828649
3057.366756,-10658.965565,518.144159,-766.095498
3057.367093,-9548.656652,-296.082377,-383.047749
3057.367431,-11177.109724,-2368.659014,0.000000
3057.367768,-11769.274478,-1998.556043,689.485948
3057.368105,-10436.903782,-1332.370696,995.924147
3057.368443,-10214.842000,-1036.288319,1685.410096
3057.368780,-9474.636058,-888.247130,689.485948
3057.369118,-9548.656652,-518.144159,919.314598
3057.369455,-10584.944971,666.185348,1991.848295
3057.369793,-11399.171507,296.082377,1991.848295
3057.370130,-12213.398043,962.267725,229.828649
3057.370467,-10807.006753,1406.391290,0.000000
3057.370805,-8512.368333,592.164754,1149.143247
3057.371142,-8734.430116,0.000000,1455.581446
3057.371480,-8142.265362,0.000000,1762.019645
3057.371817,-8956.491898,1036.288319,1072.533697
3057.372154,-10584.944971,518.144159,-306.438199
3057.372492,-9696.697840,1332.370696,-1915.238745
3057.372829,-9696.697840,1258.350101,-1838.629195
3057.373167,-9474.636058,888.247130,-1532.190996
3057.373504,-9030.512492,444.123565,-1838.629195
3057.373842,-8808.450710,0.000000,-2298.286494
3057.374179,-9326.594869,-1628.453072,-2298.286494
3057.374516,-9696.697840,-2368.659014,-306.438199
3057.374854,-9918.759623,-1184.329507,-229.828649
3057.375191,-10584.944971,-888.247130,-766.095498
3057.375529,-12065.356855,-1628.453072,-995.924147
3057.375866,-11621.233289,-1776.494261,-842.705048
3057.376204,-9474.636058,-1776.494261,0.000000
3057.376541,-8660.409521,222.061783,919.314598
3057.376878,-9770.718434,222.061783,1225.752797
3057.377216,-12583.501014,-888.247130,0.000000
3057.377553,-12583.501014,-740.205942,-459.657299
3057.377891,-10288.862594,-740.205942,612.876398
3057.378228,-9696.697840,0.000000,2068.457845
3057.378566,-8956.491898,-1036.288319,995.924147
3057.378903,-10732.986159,-1406.391290,995.924147
3057.379240,-10658.965565,-1924.535449,1225.752797
3057.379578,-8808.450710,-592.164754,1072.533697
3057.379915,-9770.718434,592.164754,612.876398
3057.380253,-9474.636058,-592.164754,-459.657299
3057.380590,-9548.656652,-962.267725,-536.266849
3057.380927,-10584.944971,-814.226536,612.876398
3057.381265,-8586.388927,888.247130,-766.095498
3057.381602,-8438.347739,74.020594,-612.876398
3057.381940,-10807.006753,-1184.329507,-612.876398
3057.382277,-10214.842000,-2220.617826,383.047749
3057.382615,-9474.636058,-888.247130,2681.334243
3057.382952,-8512.368333,1110.308913,2987.772442
3057.383289,-9474.636058,888.247130,2374.896044
3057.383627,-11547.212695,592.164754,-306.438199
3057.383964,-11029.068536,-1406.391290,-153.219100
3057.384302,-9918.759623,-370.102971,2451.505594
3057.384639,-8512.368333,1776.494261,2987.772442
3057.384977,-9770.718434,1850.514855,3064.381992
3057.385314,-12213.398043,1406.391290,229.828649
3057.385651,-11177.109724,444.123565,-919.314598
3057.385989,-9844.739029,1110.308913,536.266849
3057.386326,-7994.224174,518.144159,229.828649
3057.386664,-9178.553681,444.123565,689.485948
3057.387001,-11399.171507,-666.185348,-2451.505594
3057.387339,-10066.800811,-1184.329507,-3447.429741
3057.387676,-9030.512492,-1332.370696,-1072.533697
3057.388013,-8438.347739,370.102971,0.000000
3057.388351,-9548.656652,-1628.453072,-1532.190996
3057.388688,-12657.521608,-2368.659014,-2451.505594
3057.389026,-11029.068536,-1850.514855,-2068.457845
3057.389363,-9474.636058,-2442.679609,0.000000
3057.389700,-9770.718434,-1998.556043,2068.457845
3057.390038,-8734.430116,-1628.453072,-229.828649
3057.390375,-11251.130318,-2442.679609,612.876398
3057.390713,-11177.109724,-1776.494261,1685.410096
3057.391050,-9548.656652,222.061783,919.314598
3057.391388,-9770.718434,666.185348,842.705048
3057.391725,-10807.006753,518.144159,-1225.752797
3057.392062,-11177.109724,518.144159,-2145.067394
3057.392400,-9696.697840,444.123565,-919.314598
3057.392737,-8290.306550,296.082377,1532.190996
3057.393075,-8364.327145,1332.370696,2068.457845
3057.393412,-10436.903782,1036.288319,1225.752797
3057.393750,-12509.480420,0.000000,1378.971896
3057.394087,-12361.439231,444.123565,842.705048
3057.394424,-10436.903782,2886.803174,842.705048
3057.394762,-9178.553681,1110.308913,-995.924147
3057.395099,-8734.430116,-962.267725,0.000000
3057.395437,-8734.430116,-444.123565,-76.609550
3057.395774,-9474.636058,-222.061783,-383.047749
3057.396112,-9474.636058,444.123565,-306.438199
3057.396449,-9918.759623,-296.082377,-1762.019645
3057.396786,-11843.295072,-1036.288319,-766.095498
3057.397124,-8586.388927,-814.226536,0.000000
3057.397461,-7179.997637,370.102971,3064.381992
3057.397799,-9252.574275,740.205942,4826.401637
3057.398136,-10955.047942,0.000000,2451.505594
3057.398474,-12509.480420,-740.205942,1149.143247
3057.398811,-11695.253884,-1406.391290,919.314598
3057.399148,-9252.574275,-592.164754,2374.896044
3057.399486,-9030.512492,888.247130,2681.334243
3057.399823,-8586.388927,-222.061783,-612.876398
3057.400161,-9622.677246,-1924.535449,-995.924147
3057.400498,-11177.109724,-962.267725,-383.047749
3057.400835,-9252.574275,222.061783,-459.657299
3057.401173,-9918.759623,1036.288319,-919.314598
3057.401510,-12361.439231,-222.061783,-1532.190996
3057.401848,-11843.295072,-1332.370696,-2528.115143
3057.402185,-9474.636058,-1998.556043,-919.314598
3057.402522,-8216.285956,-1480.411884,1838.629195
3057.402860,-9548.656652,-1850.514855,1378.971896
3057.403197,-12435.459826,-3034.844362,383.047749
3057.403534,-11399.171507,-2590.720797,-842.705048
3057.403872,-9992.780217,-444.123565,0.000000
3057.404209,-9622.677246,-148.041188,-229.828649
3057.404546,-9474.636058,-592.164754,-766.095498
3057.404883,-9030.512492,-1184.329507,-766.095498
3057.405221,-9252.574275,-888.247130,995.924147
3057.405558,-9474.636058,962.267725,3600.648841
3057.405895,-11473.192101,1554.432478,2834.553343
3057.406232,-13027.624579,1184.329507,1378.971896
3057.406570,-11325.150913,-1776.494261,459.657299
3057.406907,-8734.430116,-888.247130,2451.505594
3057.407244,-6735.874072,2294.638420,2757.943793
3057.407581,-8512.368333,2146.597232,1225.752797
3057.407919,-10732.986159,2220.617826,-3140.991542
3057.408256,-12213.398043,-740.205942,-5515.887586
3057.408593,-10881.027347,-962.267725,-3447.429741
3057.408931,-6587.832884,74.020594,-383.047749
3057.409268,-7105.977043,518.144159,1225.752797
3057.409605,-9992.780217,296.082377,306.438199
3057.409942,-11251.130318,-666.185348,-1532.190996
3057.410280,-11843.295072,-1110.308913,536.266849
3057.410617,-11473.192101,-962.267725,2451.505594
3057.410954,-10807.006753,-740.205942,1991.848295
3057.411291,-11103.089130,-370.102971,0.000000
3057.411629,-9326.594869,-1628.453072,-995.924147
3057.411966,-9400.615463,-1406.391290,-76.609550
3057.412303,-8068.244768,-370.102971,229.828649
3057.412641,-9474.636058,296.082377,306.438199
3057.412978,-11991.336260,-296.082377,995.924147
3057.413315,-11991.336260,-962.267725,1532.190996
3057.413652,-11103.089130,370.102971,2528.115143
3057.413990,-9918.759623,-370.102971,2681.334243
3057.414327,-9844.739029,74.020594,2604.724693
3057.414664,-8882.471304,-148.041188,306.438199
3057.415001,-9178.553681,-1110.308913,536.266849
3057.415339,-9400.615463,-1480.411884,1149.143247
3057.415676,-10732.986159,-148.041188,229.828649
3057.416013,-10881.027347,592.164754,-2145.067394
3057.416350,-9400.615463,592.164754,-3983.696590
3057.416688,-9474.636058,0.000000,-1685.410096
3057.417025,-9030.512492,-370.102971,0.000000
3057.417362,-9992.780217,-518.144159,-153.219100
3057.417700,-10658.965565,-1850.514855,766.095498
3057.418037,-10955.047942,-814.226536,1149.143247
3057.418374,-11769.274478,-666.185348,995.924147
3057.418711,-9326.594869,-962.267725,1838.629195
3057.419049,-7476.080014,-592.164754,2451.505594
3057.419386,-9474.636058,-592.164754,2604.724693
3057.419723,-10584.944971,1036.288319,1149.143247
3057.420060,-11547.212695,1776.494261,306.438199
3057.420398,-11473.192101,1332.370696,306.438199
3057.420735,-10955.047942,1332.370696,-153.219100
3057.421072,-11177.109724,-370.102971,1302.362347
3057.421410,-10510.924376,-666.185348,153.219100
3057.421747,-7994.224174,-370.102971,-459.657299
3057.422084,-7846.182985,-592.164754,-766.095498
3057.422421,-9400.615463,0.000000,-919.314598
3057.422759,-10955.047942,-1110.308913,-536.266849
3057.423096,-10955.047942,-666.185348,-1762.019645
3057.423433,-10436.903782,-222.061783,-1762.019645
3057.423770,-9844.739029,-296.082377,-1378.971896
3057.424108,-9474.636058,-1554.432478,-1072.533697
3057.424445,-9770.718434,-1924.535449,-689.485948
3057.424782,-10066.800811,-2220.617826,-229.828649
3057.425119,-10436.903782,-1924.535449,536.266849
3057.425457,-10807.006753,-2368.659014,306.438199
3057.425794,-10066.800811,-2368.659014,459.657299
3057.426131,-9178.553681,-2146.597232,1149.143247
3057.426469,-8142.265362,592.164754,1532.190996
3057.426806,-9326.594869,1258.350101,1225.752797
3057.427143,-11917.315666,222.061783,229.828649
3057.427480,-12361.439231,74.020594,306.438199
3057.427818,-10955.047942,1258.350101,0.000000
3057.428155,-9622.677246,-148.041188,2068.457845
3057.428492,-9178.553681,296.082377,3064.381992
3057.428829,-9844.739029,-370.102971,2451.505594
3057.429167,-10214.842000,-740.205942,2221.676944
3057.429504,-9548.656652,0.000000,1225.752797
3057.429841,-9770.718434,1036.288319,2451.505594
3057.430179,-11843.295072,592.164754,1072.533697
3057.430516,-11029.068536,1406.391290,-2298.286494
3057.430853,-9252.574275,888.247130,-1991.848295
3057.431190,-8660.409521,370.102971,-612.876398
3057.431528,-8734.430116,-296.082377,-383.047749
3057.431865,-10066.800811,-962.267725,383.047749
3057.432202,-9474.636058,-444.123565,229.828649
3057.432539,-9696.697840,0.000000,689.485948
3057.432877,-10732.986159,296.082377,1225.752797
3057.433214,-10214.842000,-666.185348,1838.629195
3057.433551,-9548.656652,-962.267725,1532.190996
3057.433888,-9030.512492,370.102971,1072.533697
3057.434226,-9474.636058,222.061783,612.876398
3057.434563,-10140.821405,148.041188,1378.971896
3057.434900,-10214.842000,-1036.288319,536.266849
3057.435238,-10288.862594,666.185348,-1149.143247
3057.435575,-10362.883188,1036.288319,0.000000
3057.435912,-10362.883188,814.226536,-1149.143247
3057.436249,-9548.656652,0.000000,-2987.772442
3057.436587,-10214.842000,-1850.514855,-2221.676944
3057.436924,-10955.047942,-1628.453072,-459.657299
3057.437261,-9400.615463,-1480.411884,-1149.143247
3057.437598,-8068.244768,-592.164754,-1072.533697
3057.437936,-10510.924376,-1184.329507,-1302.362347
3057.438273,-11547.212695,-1702.473667,-1455.581446
3057.438610,-10436.903782,-740.205942,-1302.362347
3057.438948,-10214.842000,-1258.350101,842.705048
3057.439285,-11843.295072,-1332.370696,1838.629195
3057.439622,-10066.800811,-444.123565,-306.438199
3057.439959,-10288.862594,-1480.411884,1378.971896
3057.440297,-10510.924376,-1776.494261,2681.334243
3057.440634,-9400.615463,-1184.329507,1608.800546
3057.440971,-10066.800811,370.102971,1762.019645
3057.441308,-9622.677246,-370.102971,1072.533697
3057.441646,-10140.821405,1110.308913,2145.067394
3057.441983,-11399.171507,1406.391290,1685.410096
3057.442320,-10584.944971,2294.638420,842.705048
3057.442657,-9474.636058,2072.576638,153.219100
3057.442995,-9770.718434,222.061783,842.705048
3057.443332,-8882.471304,0.000000,76.609550
3057.443669,-9178.553681,-296.082377,1149.143247
3057.444007,-9252.574275,1184.329507,459.657299
3057.444344,-9474.636058,-74.020594,-995.924147
3057.444681,-11547.212695,74.020594,-1225.752797
3057.445018,-9918.759623,-962.267725,-612.876398
3057.445356,-8438.347739,-962.267725,76.609550
3057.445693,-9178.553681,0.000000,842.705048
3057.446030,-9918.759623,-1036.288319,536.266849
3057.446367,-10955.047942,-296.082377,0.000000
3057.446705,-10584.944971,-74.020594,0.000000
3057.447042,-9770.718434,-814.226536,1838.629195
3057.447379,-11991.336260,-1850.514855,2451.505594
3057.447717,-10214.842000,-1628.453072,842.705048
3057.448054,-9252.574275,-296.082377,-1302.362347
3057.448391,-10214.842000,-1406.391290,306.438199
3057.448728,-9696.697840,-370.102971,842.705048
3057.449066,-9474.636058,1036.288319,0.000000
3057.449403,-10066.800811,0.000000,-689.485948
3057.449740,-10362.883188,-148.041188,-229.828649
3057.450077,-10362.883188,-296.082377,459.657299
3057.450415,-11695.253884,0.000000,1838.629195
3057.450752,-10288.862594,222.061783,306.438199
3057.451089,-10436.903782,148.041188,-2221.676944
3057.451426,-11103.089130,-1036.288319,-1532.190996
3057.451764,-9696.697840,-666.185348,-1302.362347
3057.452101,-8808.450710,-888.247130,-1991.848295
3057.452438,-8734.430116,-814.226536,-1302.362347
3057.452776,-10214.842000,-666.185348,-1608.800546
3057.453113,-10955.047942,-518.144159,-1378.971896
3057.453450,-9770.718434,666.185348,-842.705048
3057.453787,-6883.915261,1110.308913,-306.438199
3057.454125,-10362.883188,-370.102971,2298.286494
3057.454462,-12213.398043,-740.205942,1762.019645
3057.454799,-10510.924376,-888.247130,1149.143247
3057.455136,-9326.594869,1702.473667,2374.896044
3057.455474,-9326.594869,2220.617826,2451.505594
3057.455811,-11103.089130,740.205942,2145.067394
3057.456148,-10436.903782,-592.164754,612.876398
3057.456486,-9474.636058,0.000000,536.266849
3057.456823,-10140.821405,1628.453072,842.705048
3057.457160,-9178.553681,1110.308913,-1378.971896
3057.457497,-9474.636058,-518.144159,-2145.067394
3057.457835,-9770.718434,-1702.473667,-1378.971896
3057.458172,-8438.347739,-740.205942,-306.438199
3057.458509,-9548.656652,814.226536,76.609550
3057.458846,-10362.883188,-592.164754,-306.438199
3057.459184,-10140.821405,-2220.617826,-2221.676944
3057.459521,-11695.253884,-3478.967927,536.266849
3057.459858,-11547.212695,-2294.638420,2987.772442
3057.460195,-9548.656652,-962.267725,2221.676944
3057.460533,-9474.636058,-962.267725,689.485948
3057.460870,-10362.883188,-1184.329507,-689.485948
3057.461207,-10955.047942,-1184.329507,1149.143247
3057.461545,-11177.109724,-444.123565,2298.286494
3057.461882,-9696.697840,1036.288319,919.314598
3057.462219,-11325.150913,1702.473667,995.924147
3057.462556,-11843.295072,296.082377,-229.828649
3057.462894,-8808.450710,-888.247130,1455.581446
3057.463231,-8216.285956,74.020594,4366.744339
3057.463568,-8660.409521,1554.432478,5209.449386
3057.463905,-11325.150913,1628.453072,1991.848295
3057.464243,-12805.562797,0.000000,0.000000
3057.464580,-10288.862594,666.185348,383.047749
3057.464917,-8364.327145,74.020594,919.314598
3057.465255,-7920.203579,888.247130,0.000000
3057.465592,-8068.244768,222.061783,-2374.896044
3057.465929,-9178.553681,0.000000,-3830.477490
3057.466266,-8142.265362,0.000000,-4213.525239
3057.466604,-8364.327145,962.267725,-1762.019645
3057.466941,-9474.636058,1036.288319,-383.047749
3057.467278,-9918.759623,0.000000,-1991.848295
3057.467615,-12139.377449,-666.185348,0.000000
3057.467953,-10436.903782,-666.185348,612.876398
3057.468290,-9326.594869,-1850.514855,2911.162892
3057.468627,-9474.636058,-518.144159,2681.334243
3057.468964,-11251.130318,-222.061783,995.924147
3057.469302,-13323.706956,-370.102971,919.314598
3057.469639,-12509.480420,-888.247130,-766.095498
3057.469976,-8586.388927,666.185348,-766.095498
3057.470314,-10140.821405,740.205942,-919.314598
3057.470651,-9548.656652,0.000000,-2451.505594
3057.470988,-9770.718434,222.061783,-2145.067394
3057.471325,-10510.924376,592.164754,-1455.581446
3057.471663,-10288.862594,444.123565,-1225.752797
3057.472000,-11177.109724,-814.226536,-995.924147
3057.472337,-10214.842000,-1628.453072,459.657299
3057.472674,-9400.615463,-2886.803174,919.314598
3057.473012,-9696.697840,-1776.494261,1608.800546
3057.473349,-8956.491898,-1036.288319,919.314598
3057.473686,-10362.883188,-1998.556043,-76.609550
3057.474024,-11399.171507,-2368.659014,-383.047749
3057.474361,-9104.533087,-2368.659014,229.828649
3057.474698,-7254.018232,-296.082377,1991.848295
3057.475035,-9030.512492,0.000000,2757.943793
3057.475373,-9696.697840,1628.453072,1378.971896
3057.475710,-10807.006753,444.123565,1149.143247
3057.476047,-11177.109724,592.164754,2451.505594
3057.476384,-11325.150913,1998.556043,4060.306139
3057.476722,-11991.336260,2442.679609,3447.429741
3057.477059,-9178.553681,1480.411884,2221.676944
3057.477396,-9696.697840,-1332.370696,3217.601092
3057.477734,-9622.677246,888.247130,2604.724693
3057.478071,-7476.080014,2442.679609,766.095498
3057.478408,-9844.739029,1702.473667,1378.971896
3057.478745,-11251.130318,1850.514855,-1072.533697
3057.479083,-11029.068536,1110.308913,-2451.505594
3057.479420,-10436.903782,888.247130,0.000000
3057.479757,-9178.553681,740.205942,-153.219100
3057.480094,-8438.347739,-444.123565,-1455.581446
3057.480432,-9474.636058,-1998.556043,-1455.581446
3057.480769,-9326.594869,-2812.782580,-383.047749
3057.481106,-9992.780217,-2146.597232,1225.752797
3057.481443,-9992.780217,-2220.617826,0.000000
3057.481781,-10362.883188,-1480.411884,-612.876398
3057.482118,-10807.006753,-2220.617826,-689.485948
3057.482455,-9696.697840,-2294.638420,-306.438199
3057.482793,-9992.780217,-1110.308913,1072.533697
3057.483130,-10955.047942,-1036.288319,306.438199
3057.483467,-9918.759623,-592.164754,-919.314598
3057.483804,-10436.903782,-1776.494261,-459.657299
3057.484142,-10584.944971,-666.185348,1072.533697
3057.484479,-9474.636058,-1110.308913,1378.971896
3057.484816,-9770.718434,296.082377,766.095498
3057.485153,-10807.006753,518.144159,-1225.752797
3057.485491,-11917.315666,-740.205942,-919.314598
3057.485828,-10881.027347,592.164754,-383.047749
3057.486165,-9326.594869,814.226536,-1685.410096
3057.486503,-8364.327145,592.164754,-2221.676944
3057.486840,-9696.697840,0.000000,-2068.457845
3057.487177,-10955.047942,370.102971,-1762.019645
3057.487514,-9622.677246,-666.185348,-1762.019645
3057.487852,-8882.471304,222.061783,-536.266849
3057.488189,-9696.697840,-444.123565,1302.362347
3057.488526,-10510.924376,-444.123565,1762.019645
3057.488863,-9400.615463,-592.164754,1762.019645
3057.489201,-8808.450710,-74.020594,2681.334243
3057.489538,-9400.615463,518.144159,2374.896044
3057.489875,-10658.965565,1776.494261,1072.533697
3057.490212,-11103.089130,0.000000,919.314598
3057.490550,-9918.759623,518.144159,842.705048
3057.490887,-8734.430116,1110.308913,1072.533697
3057.491224,-9178.553681,1110.308913,1532.190996
3057.491562,-9178.553681,0.000000,1378.971896
3057.491899,-10658.965565,-518.144159,1455.581446
3057.492236,-10288.862594,1480.411884,306.438199
3057.492573,-9252.574275,1110.308913,1455.581446
3057.492911,-9770.718434,-518.144159,1455.581446
3057.493248,-10140.821405,-1554.432478,76.609550
3057.493585,-10658.965565,-1776.494261,306.438199
3057.493922,-10214.842000,-370.102971,1072.533697
3057.494260,-10140.821405,-1110.308913,1378.971896
3057.494597,-11325.150913,-1110.308913,76.609550
3057.494934,-12213.398043,-1776.494261,-153.219100
3057.495272,-11695.253884,-1406.391290,-1532.190996
3057.495609,-9696.697840,-1628.453072,-76.609550
3057.495946,-9326.594869,-1628.453072,995.924147
3057.496283,-8808.450710,-1480.411884,383.047749
3057.496621,-10214.842000,-370.102971,1455.581446
3057.496958,-11547.212695,-666.185348,689.485948
3057.497295,-11769.274478,0.000000,919.314598
3057.497632,-10658.965565,370.102971,1378.971896
3057.497970,-8808.450710,370.102971,1302.362347
3057.498307,-9252.574275,-666.185348,2298.286494
3057.498644,-9770.718434,0.000000,612.876398
3057.498981,-9252.574275,296.082377,306.438199
3057.499319,-10140.821405,814.226536,919.314598
3057.499656,-9696.697840,296.082377,-766.095498
3057.499993,-9178.553681,962.267725,-1685.410096
3057.500331,-9030.512492,1628.453072,-995.924147
3057.500668,-8882.471304,1924.535449,-1608.800546
3057.501005,-10214.842000,1258.350101,-3064.381992
3057.501342,-9770.718434,296.082377,-3524.039291
3057.501680,-9622.677246,-814.226536,-2451.505594
3057.502017,-10214.842000,-1184.329507,-306.438199
3057.502354,-9326.594869,148.041188,153.219100
3057.502691,-10510.924376,148.041188,76.609550
3057.503029,-10732.986159,-740.205942,229.828649
3057.503366,-11177.109724,-888.247130,153.219100
3057.503703,-11103.089130,-370.102971,1149.143247
3057.504040,-10510.924376,-1258.350101,1838.629195
3057.504378,-11473.192101,-814.226536,1072.533697
3057.504715,-10732.986159,0.000000,689.485948
3057.505052,-10140.821405,-444.123565,-536.266849
3057.505389,-9400.615463,-296.082377,1072.533697
3057.505726,-9622.677246,0.000000,-306.438199
3057.506064,-9696.697840,148.041188,153.219100
3057.506401,-10140.821405,-370.102971,0.000000
3057.506738,-10288.862594,-1036.288319,-612.876398
3057.507075,-9474.636058,-592.164754,306.438199
3057.507412,-10362.883188,-1480.411884,766.095498
3057.507750,-10214.842000,-1406.391290,612.876398
3057.508087,-9104.533087,-1406.391290,-1302.362347
3057.508424,-7846.182985,-1184.329507,-1149.143247
3057.508761,-9326.594869,-2146.597232,766.095498
3057.509098,-10288.862594,-1850.514855,995.924147
3057.509436,-9400.615463,-1628.453072,1149.143247
3057.509773,-10510.924376,-1332.370696,2451.505594
3057.510110,-9770.718434,-888.247130,3753.867940
3057.510447,-9844.739029,0.000000,3140.991542
3057.510784,-11103.089130,740.205942,2911.162892
3057.511121,-11843.295072,296.082377,1991.848295
3057.511459,-12879.583391,666.185348,1302.362347
3057.511796,-10362.883188,1702.473667,1149.143247
3057.512133,-7994.224174,0.000000,0.000000
3057.512470,-8882.471304,222.061783,1762.019645
3057.512807,-8364.327145,962.267725,995.924147
3057.513145,-8364.327145,2072.576638,459.657299
3057.513482,-10140.821405,4367.215058,1149.143247
3057.513819,-12879.583391,3701.029710,-1762.019645
3057.514156,-13323.706956,2886.803174,-3447.429741
3057.514493,-10807.006753,0.000000,-2834.553343
3057.514831,-7698.141797,-1332.370696,842.705048
3057.515168,-6883.915261,-1924.535449,1991.848295
3057.515505,-8512.368333,-1406.391290,-229.828649
3057.515842,-9104.533087,-888.247130,-2221.676944
3057.516179,-10955.047942,-1776.494261,-2834.553343
3057.516517,-10140.821405,-592.164754,-2145.067394
3057.516854,-10362.883188,-814.226536,-612.876398
3057.517191,-8734.430116,1036.288319,-689.485948
3057.517528,-8216.285956,-148.041188,-1302.362347
3057.517865,-11103.089130,-444.123565,689.485948
3057.518203,-10807.006753,-1332.370696,2451.505594
3057.518540,-12287.418637,-148.041188,2604.724693
3057.518877,-11843.295072,148.041188,2145.067394
3057.519214,-10658.965565,740.205942,1838.629195
3057.519551,-11029.068536,74.020594,2451.505594
3057.519889,-9548.656652,296.082377,1149.143247
3057.520226,-8808.450710,962.267725,689.485948
3057.520563,-9696.697840,2220.617826,995.924147
3057.520900,-11399.171507,1406.391290,1225.752797
3057.521237,-11695.253884,2220.617826,536.266849
3057.521575,-10955.047942,1924.535449,995.924147
3057.521912,-10362.883188,1406.391290,459.657299
3057.522249,-9178.553681,1110.308913,153.219100
3057.522586,-9474.636058,-592.164754,1838.629195
3057.522923,-8142.265362,-1406.391290,3140.991542
3057.523261,-7920.203579,-666.185348,4443.353888
3057.523598,-9844.739029,1776.494261,3907.087040
3057.523935,-9030.512492,1998.556043,1685.410096
3057.524272,-10214.842000,1480.411884,2681.334243
3057.524609,-10066.800811,1998.556043,3907.087040
3057.524947,-9400.615463,2294.638420,4136.915689
3057.525284,-9326.594869,2960.823768,4213.525239
3057.525621,-10288.862594,1628.453072,3983.696590
3057.525958,-11103.089130,2220.617826,4826.401637
3057.526295,-9252.574275,2664.741391,3370.820191
3057.526632,-9400.615463,2664.741391,4979.620737
3057.526970,-11103.089130,2368.659014,4290.134789
3057.527307,-10732.986159,3182.885551,306.438199
3057.527644,-10658.965565,1924.535449,229.828649
3057.527981,-8956.491898,2146.597232,1072.533697
3057.528318,-8216.285956,1998.556043,3140.991542
3057.528656,-11177.109724,2072.576638,2374.896044
3057.528993,-11547.212695,2072.576638,612.876398
3057.529330,-12287.418637,1184.329507,766.095498
3057.529667,-11843.295072,222.061783,842.705048
3057.530004,-8882.471304,-296.082377,1608.800546
3057.530342,-9696.697840,-592.164754,2681.334243
3057.530679,-9770.718434,0.000000,1378.971896
3057.531016,-9770.718434,-296.082377,-766.095498
3057.531353,-10807.006753,0.000000,76.609550
3057.531690,-8586.388927,444.123565,1532.190996
3057.532028,-10140.821405,1184.329507,3370.820191
3057.532365,-11621.233289,2368.659014,2604.724693
3057.532702,-11029.068536,2146.597232,1378.971896
3057.533039,-11399.171507,1924.535449,2451.505594
3057.533376,-9030.512492,1332.370696,3370.820191
3057.533714,-7698.141797,1258.350101,4903.011187
3057.534051,-9474.636058,2368.659014,4826.401637
3057.534388,-10288.862594,3478.967927,2987.772442
3057.534725,-11177.109724,4663.297435,153.219100
3057.535062,-10807.006753,3478.967927,-383.047749
3057.535400,-8956.491898,3256.906145,766.095498
3057.535737,-8586.388927,2664.741391,1685.410096
3057.536074,-9770.718434,3330.926739,2911.162892
3057.536411,-10288.862594,3627.009116,1455.581446
3057.536748,-11473.192101,2072.576638,0.000000
3057.537086,-9770.718434,1850.514855,1225.752797
3057.537423,-8956.491898,518.144159,3294.210641
3057.537760,-10066.800811,1332.370696,4749.792088
3057.538097,-9622.677246,2442.679609,4366.744339
3057.538434,-10807.006753,2664.741391,2451.505594
3057.538772,-10362.883188,1702.473667,2068.457845
3057.539109,-10140.821405,1702.473667,2298.286494
3057.539446,-10362.883188,2072.576638,3907.087040
3057.539783,-10510.924376,1258.350101,2528.115143
3057.540120,-9474.636058,1110.308913,2604.724693
3057.540458,-9844.739029,1332.370696,3524.039291
3057.540795,-8660.409521,1702.473667,3217.601092
3057.541132,-9474.636058,2220.617826,3600.648841
3057.541469,-10510.924376,1184.329507,2757.943793
3057.541806,-10955.047942,1258.350101,1838.629195
3057.542144,-11251.130318,1554.432478,1532.190996
3057.542481,-9474.636058,1184.329507,1378.971896
3057.542818,-9326.594869,592.164754,2374.896044
3057.543155,-10436.903782,370.102971,1838.629195
3057.543492,-10436.903782,1554.432478,459.657299
3057.543829,-9844.739029,74.020594,612.876398
3057.544167,-10362.883188,-518.144159,2221.676944
3057.544504,-9622.677246,-74.020594,1838.629195
3057.544841,-9770.718434,1258.350101,2987.772442
3057.545178,-10140.821405,888.247130,2834.553343
3057.545515,-10288.862594,888.247130,3370.820191
3057.545853,-10955.047942,2368.659014,2604.724693
3057.546190,-9548.656652,2812.782580,2987.772442
3057.546527,-10881.027347,1998.556043,2757.943793
3057.546864,-11399.171507,2368.659014,2451.505594
3057.547201,-11399.171507,2368.659014,2451.505594
3057.547539,-9474.636058,1702.473667,3677.258390
3057.547876,-7772.162391,2294.638420,3753.867940
3057.548213,-7994.224174,3256.906145,5286.058936
3057.548550,-10066.800811,4071.132681,3677.258390
3057.548887,-9548.656652,5181.441594,1532.190996
3057.549225,-11621.233289,4811.338623,1991.848295
3057.549562,-11325.150913,4071.132681,229.828649
3057.549899,-11695.253884,2146.597232,306.438199
3057.550236,-10066.800811,1628.453072,995.924147
3057.550573,-7402.059420,592.164754,-536.266849
3057.550911,-8216.285956,-1036.288319,612.876398
3057.551248,-8956.491898,-370.102971,1838.629195
3057.551585,-8290.306550,-296.082377,1915.238745
3057.551922,-8956.491898,1850.514855,1991.848295
3057.552259,-11177.109724,3256.906145,2145.067394
3057.552597,-13175.665768,2294.638420,1991.848295
3057.552934,-13323.706956,1628.453072,1915.238745
3057.553271,-10584.944971,666.185348,2834.553343
3057.553608,-10510.924376,962.267725,3983.696590
3057.553945,-10510.924376,888.247130,4213.525239
3057.554283,-10732.986159,-740.205942,3140.991542
3057.554620,-9770.718434,296.082377,2374.896044
3057.554957,-9030.512492,518.144159,3447.429741
3057.555294,-9548.656652,2590.720797,4903.011187
3057.555631,-9400.615463,4145.153275,2451.505594
3057.555969,-11251.130318,3775.050304,1225.752797
3057.556306,-12139.377449,3404.947333,229.828649
3057.556643,-10658.965565,2368.659014,995.924147
3057.556980,-10732.986159,1258.350101,2451.505594
3057.557317,-9030.512492,962.267725,2451.505594
3057.557655,-8808.450710,814.226536,1225.752797
3057.557992,-8956.491898,518.144159,1532.190996
3057.558329,-8142.265362,-222.061783,2528.115143
3057.558666,-7846.182985,592.164754,2911.162892
3057.559003,-8068.244768,3108.864956,3983.696590
3057.559341,-9992.780217,3775.050304,3370.820191
3057.559678,-12583.501014,5477.523971,3600.648841
3057.560015,-13101.645173,4737.318029,1838.629195
3057.560352,-11695.253884,3404.947333,1532.190996
3057.560689,-10362.883188,2220.617826,3294.210641
3057.561026,-9770.718434,444.123565,4519.963438
3057.561364,-7846.182985,1110.308913,3524.039291
3057.561701,-7476.080014,1110.308913,3217.601092
3057.562038,-9326.594869,2368.659014,4290.134789
3057.562375,-10362.883188,3997.112087,1532.190996
3057.562712,-10955.047942,5403.503377,459.657299
3057.563050,-10955.047942,4885.359217,1072.533697
3057.563387,-11399.171507,3552.988522,1532.190996
3057.563724,-12435.459826,3256.906145,1838.629195
3057.564061,-10732.986159,1258.350101,612.876398
3057.564398,-8734.430116,-592.164754,1072.533697
3057.564736,-8438.347739,-2294.638420,2298.286494
3057.565073,-9252.574275,-2146.597232,3217.601092
3057.565410,-8586.388927,-888.247130,3294.210641
3057.565747,-8512.368333,-296.082377,1838.629195
3057.566084,-9918.759623,444.123565,1455.581446
3057.566422,-11177.109724,1036.288319,689.485948
3057.566759,-11029.068536,1480.411884,1838.629195
3057.567096,-10214.842000,1850.514855,2451.505594
3057.567433,-10066.800811,1554.432478,3370.820191
3057.567770,-12657.521608,814.226536,3447.429741
3057.568108,-11769.274478,-370.102971,3294.210641
3057.568445,-9178.553681,74.020594,3064.381992
3057.568782,-8216.285956,814.226536,4903.011187
3057.569119,-9844.739029,2442.679609,5669.106685
3057.569456,-10807.006753,3552.988522,2834.553343
3057.569794,-11251.130318,3478.967927,0.000000
3057.570131,-10807.006753,3997.112087,0.000000
3057.570468,-10362.883188,4219.173869,1532.190996
3057.570805,-9844.739029,4441.235652,2604.724693
3057.571142,-9844.739029,3627.009116,1915.238745
3057.571480,-10066.800811,2442.679609,1072.533697
3057.571817,-10140.821405,2294.638420,1072.533697
3057.572154,-8956.491898,296.082377,1378.971896
3057.572491,-7624.121203,0.000000,2298.286494
3057.572828,-7179.997637,-296.082377,2911.162892
3057.573166,-8734.430116,1258.350101,2451.505594
3057.573503,-9992.780217,1998.556043,1915.238745
3057.573840,-10140.821405,3775.050304,1762.019645
3057.574177,-10362.883188,3701.029710,1225.752797
3057.574514,-11399.171507,3552.988522,2604.724693
3057.574852,-11843.295072,2368.659014,3600.648841
3057.575189,-10955.047942,1110.308913,2681.334243
3057.575526,-9770.718434,370.102971,3830.477490
3057.575863,-9104.533087,740.205942,3983.696590
3057.576200,-9474.636058,592.164754,3600.648841
3057.576538,-9992.780217,1480.411884,2374.896044
3057.576875,-10510.924376,2516.700203,1302.362347
3057.577212,-10510.924376,3627.009116,229.828649
3057.577549,-11399.171507,3034.844362,0.000000
3057.577886,-11103.089130,3701.029710,76.609550
3057.578223,-11251.130318,2368.659014,766.095498
3057.578561,-10584.944971,1406.391290,1608.800546
3057.578898,-10066.800811,296.082377,1762.019645
3057.579235,-9474.636058,-296.082377,2604.724693
3057.579572,-9844.739029,-962.267725,2681.334243
3057.579909,-9474.636058,-888.247130,1685.410096
3057.580247,-9548.656652,0.000000,1838.629195
3057.580584,-10214.842000,1110.308913,1225.752797
3057.580921,-9844.739029,1332.370696,1225.752797
3057.581258,-9548.656652,2368.659014,2221.676944
3057.581595,-9548.656652,1998.556043,2757.943793
3057.581933,-9770.718434,2590.720797,2681.334243
3057.582270,-10436.903782,2516.700203,2911.162892
3057.582607,-10140.821405,3034.844362,3677.258390
3057.582944,-9918.759623,2368.659014,2911.162892
3057.583281,-9548.656652,2368.659014,3370.820191
3057.583619,-9178.553681,1924.535449,3064.381992
3057.583956,-9696.697840,2368.659014,3140.991542
3057.584293,-9622.677246,2886.803174,2298.286494
3057.584630,-10140.821405,3404.947333,1991.848295
3057.584967,-10732.986159,3775.050304,1072.533697
3057.585305,-10732.986159,2738.761985,306.438199
3057.585642,-10881.027347,1998.556043,306.438199
3057.585979,-9400.615463,888.247130,459.657299
3057.586316,-9030.512492,0.000000,2068.457845
3057.586653,-8956.491898,-296.082377,3600.648841
3057.586991,-8882.471304,-740.205942,3983.696590
3057.587328,-10214.842000,888.247130,4596.572988
3057.587665,-11399.171507,1110.308913,4519.963438
3057.588002,-11621.233289,1406.391290,3753.867940
3057.588339,-12139.377449,888.247130,3524.039291
3057.588677,-11251.130318,740.205942,3677.258390
3057.589014,-9696.697840,814.226536,3600.648841
3057.589351,-9548.656652,814.226536,4673.182538
3057.589688,-9548.656652,1258.350101,5515.887586
3057.590025,-9548.656652,2590.720797,4596.572988
3057.590363,-10288.862594,3404.947333,3753.867940
3057.590700,-11325.150913,4219.173869,2451.505594
3057.591037,-11325.150913,3701.029710,1225.752797
3057.591374,-10658.965565,3182.885551,1762.019645
3057.591711,-9474.636058,2516.700203,2374.896044
3057.592049,-9104.533087,2738.761985,3294.210641
3057.592386,-9770.718434,3404.947333,2911.162892
3057.592723,-9548.656652,3182.885551,1302.362347
3057.593060,-9918.759623,3034.844362,995.924147
3057.593397,-10066.800811,2812.782580,2298.286494
3057.593735,-9844.739029,3775.050304,2298.286494
3057.594072,-10066.800811,4367.215058,995.924147
3057.594409,-10584.944971,3997.112087,-153.219100
3057.594746,-10214.842000,1924.535449,-689.485948
3057.595083,-9844.739029,888.247130,1072.533697
3057.595420,-8364.327145,1406.391290,2451.505594
3057.595758,-7624.121203,2960.823768,3064.381992
3057.596095,-8364.327145,3775.050304,2145.067394
3057.596432,-10140.821405,3108.864956,2604.724693
3057.596769,-11325.150913,3330.926739,2757.943793
3057.597106,-10362.883188,4589.276840,3217.601092
3057.597444,-9548.656652,5403.503377,3524.039291
3057.597781,-11843.295072,4145.153275,2987.772442
3057.598118,-12509.480420,2294.638420,2145.067394
3057.598455,-11325.150913,1258.350101,306.438199
3057.598792,-8216.285956,0.000000,459.657299
3057.599130,-7402.059420,518.144159,2451.505594
3057.599467,-11177.109724,296.082377,2068.457845
3057.599804,-10584.944971,962.267725,-1532.190996
3057.600141,-8216.285956,-74.020594,-1838.629195
3057.600478,-9844.739029,-148.041188,612.876398
3057.600816,-10066.800811,222.061783,2068.457845
3057.601153,-10140.821405,888.247130,1915.238745
3057.601490,-9992.780217,1110.308913,2987.772442
3057.601827,-11399.171507,814.226536,3753.867940
3057.602164,-12953.603985,296.082377,3983.696590
3057.602502,-11621.233289,-814.226536,4519.963438
3057.602839,-8956.491898,-962.267725,5362.668486
3057.603176,-9400.615463,-962.267725,5439.278036
3057.603513,-10066.800811,370.102971,5132.839837
3057.603850,-10214.842000,1850.514855,3677.258390
3057.604188,-9252.574275,1258.350101,2298.286494
3057.604525,-9770.718434,2590.720797,1762.019645
3057.604862,-10436.903782,2960.823768,1991.848295
3057.605199,-9992.780217,3552.988522,2374.896044
3057.605537,-9252.574275,2664.741391,2834.553343
3057.605874,-9696.697840,3552.988522,3064.381992
3057.606211,-10510.924376,2442.679609,2911.162892
3057.606549,-10436.903782,1850.514855,3677.258390
3057.606886,-9622.677246,2368.659014,3753.867940
3057.607223,-10732.986159,2812.782580,2987.772442
3057.607561,-9622.677246,1628.453072,0.000000
3057.607898,-8956.491898,444.123565,0.000000
3057.608236,-10066.800811,-444.123565,1455.581446
3057.608573,-8438.347739,1480.411884,306.438199
3057.608910,-9104.533087,2072.576638,1378.971896
3057.609248,-9178.553681,3182.885551,1532.190996
3057.609585,-10140.821405,2368.659014,1302.362347
3057.609922,-11177.109724,2812.782580,1915.238745
3057.610260,-10732.986159,2442.679609,3907.087040
3057.610597,-11251.130318,2220.617826,3753.867940
3057.610934,-10658.965565,2294.638420,2145.067394
3057.611272,-10288.862594,370.102971,2451.505594
3057.611609,-10510.924376,-592.164754,2451.505594
3057.611946,-8882.471304,0.000000,2681.334243
3057.612284,-9030.512492,2072.576638,1302.362347
3057.612621,-9326.594869,3108.864956,1225.752797
3057.612958,-10214.842000,2072.576638,383.047749
3057.613296,-11843.295072,3256.906145,612.876398
3057.613633,-10066.800811,2886.803174,-383.047749
3057.613970,-11177.109724,2590.720797,612.876398
3057.614308,-10288.862594,370.102971,536.266849
3057.614645,-9696.697840,-296.082377,1608.800546
3057.614982,-9844.739029,-370.102971,3064.381992
3057.615320,-8290.306550,0.000000,3447.429741
3057.615657,-9474.636058,814.226536,4060.306139
3057.615994,-10807.006753,2368.659014,3294.210641
3057.616332,-11399.171507,3034.844362,1685.410096
3057.616669,-10732.986159,3849.070898,2145.067394
3057.617006,-10510.924376,2812.782580,3983.696590
3057.617344,-11103.089130,2886.803174,4826.401637
3057.617681,-10658.965565,3997.112087,4290.134789
3057.618018,-9474.636058,3775.050304,4903.011187
3057.618356,-10066.800811,2738.761985,5132.839837
3057.618693,-9548.656652,3108.864956,4443.353888
3057.619030,-9326.594869,4219.173869,2987.772442
3057.619368,-9178.553681,2960.823768,3830.477490
3057.619705,-9252.574275,3997.112087,2757.943793
3057.620042,-10066.800811,4367.215058,2681.334243
3057.620380,-10584.944971,4885.359217,1532.190996
3057.620717,-10214.842000,3330.926739,2145.067394
3057.621054,-11399.171507,3182.885551,1378.971896
3057.621392,-9918.759623,1184.329507,0.000000
3057.621729,-9104.533087,-148.041188,2145.067394
3057.622066,-8068.244768,-518.144159,3140.991542
3057.622404,-8290.306550,-518.144159,2911.162892
3057.622741,-9622.677246,518.144159,2681.334243
3057.623078,-10807.006753,1110.308913,1685.410096
3057.623416,-10955.047942,2072.576638,229.828649
3057.623753,-11103.089130,1332.370696,0.000000
3057.624090,-10658.965565,740.205942,1378.971896
3057.624428,-10362.883188,518.144159,2145.067394
3057.624765,-11029.068536,0.000000,3064.381992
3057.625102,-10807.006753,814.226536,2911.162892
3057.625440,-10658.965565,148.041188,2987.772442
3057.625777,-9474.636058,518.144159,1991.848295
3057.626114,-9548.656652,0.000000,2451.505594
3057.626452,-10658.965565,74.020594,2757.943793
3057.626789,-9844.739029,814.226536,2451.505594
3057.627126,-9992.780217,2960.823768,1378.971896
3057.627464,-8956.491898,2664.741391,536.266849
3057.627801,-10807.006753,1998.556043,0.000000
3057.628138,-11991.336260,74.020594,689.485948
3057.628476,-10362.883188,740.205942,919.314598
3057.628813,-8956.491898,-222.061783,2298.286494
3057.629150,-9252.574275,1184.329507,2987.772442
3057.629488,-9030.512492,962.267725,1991.848295
3057.629825,-10510.924376,740.205942,1149.143247
3057.630163,-9104.533087,1332.370696,1302.362347
3057.630500,-8216.285956,2664.741391,3447.429741
3057.630837,-9770.718434,3775.050304,5286.058936
3057.631175,-11547.212695,3849.070898,2681.334243
3057.631512,-11103.089130,4737.318029,995.924147
3057.631849,-12213.398043,3108.864956,2221.676944
3057.632187,-10214.842000,2146.597232,2681.334243
3057.632524,-9030.512492,814.226536,4903.011187
3057.632861,-8734.430116,1702.473667,5592.497135
3057.633199,-8364.327145,2294.638420,1915.238745
3057.633536,-10732.986159,2368.659014,229.828649
3057.633873,-9696.697840,1924.535449,-306.438199
3057.634211,-8956.491898,370.102971,689.485948
3057.634548,-8660.409521,1480.411884,1915.238745
3057.634885,-9252.574275,2886.803174,1072.533697
3057.635223,-11029.068536,2294.638420,383.047749
3057.635560,-12213.398043,0.000000,-536.266849
3057.635897,-10362.883188,-1776.494261,919.314598
3057.636235,-9030.512492,-1480.411884,2528.115143
3057.636572,-8068.244768,-1036.288319,3294.210641
3057.636909,-9918.759623,-1850.514855,2757.943793
3057.637247,-11547.212695,-2146.597232,919.314598
3057.637584,-10584.944971,-1406.391290,459.657299
3057.637921,-10881.027347,0.000000,2221.676944
3057.638259,-9844.739029,1702.473667,3370.820191
3057.638596,-10732.986159,888.247130,2604.724693
3057.638933,-11991.336260,74.020594,1378.971896
3057.639271,-8956.491898,-592.164754,2145.067394
3057.639608,-10066.800811,0.000000,4673.182538
3057.639945,-10436.903782,1554.432478,3983.696590
3057.640283,-10510.924376,1554.432478,1532.190996
3057.640620,-11251.130318,888.247130,842.705048
3057.640957,-9770.718434,962.267725,842.705048
3057.641295,-9918.759623,1850.514855,689.485948
3057.641632,-9548.656652,3330.926739,-612.876398
3057.641969,-8956.491898,1924.535449,-2834.553343
3057.642307,-10658.965565,1406.391290,-3370.820191
3057.642644,-9326.594869,740.205942,-1838.629195
3057.642981,-9252.574275,0.000000,1378.971896
3057.643319,-9770.718434,1480.411884,1225.752797
3057.643656,-9622.677246,1184.329507,306.438199
3057.643993,-9770.718434,1184.329507,-1225.752797
3057.644331,-8956.491898,0.000000,0.000000
3057.644668,-10436.903782,0.000000,459.657299
3057.645005,-9992.780217,0.000000,-536.266849
3057.645343,-8290.306550,814.226536,76.609550
3057.645680,-10881.027347,74.020594,459.657299
3057.646017,-10436.903782,-444.123565,0.000000
3057.646355,-9474.636058,814.226536,-689.485948
3057.646692,-10140.821405,518.144159,1762.019645
3057.647029,-10955.047942,74.020594,536.266849
3057.647367,-9474.636058,1110.308913,-995.924147
3057.647704,-10362.883188,-222.061783,536.266849
3057.648041,-11251.130318,-1554.432478,1072.533697
3057.648379,-10362.883188,-1332.370696,536.266849
3057.648716,-11177.109724,-2072.576638,-306.438199
3057.649053,-10436.903782,-1406.391290,-1072.533697
3057.649391,-8882.471304,-1332.370696,-1455.581446
3057.649728,-10288.862594,-2072.576638,-2757.943793
3057.650065,-8734.430116,-2368.659014,-2451.505594
3057.650403,-10214.842000,-3701.029710,-1302.362347
3057.650740,-9622.677246,-2664.741391,-229.828649
3057.651077,-8216.285956,-2738.761985,383.047749
3057.651415,-9844.739029,-2072.576638,2604.724693
3057.651752,-10436.903782,-1702.473667,2911.162892
3057.652090,-11251.130318,-1850.514855,1838.629195
3057.652427,-11103.089130,-1924.535449,2298.286494
3057.652764,-9548.656652,-1924.535449,3524.039291
3057.653102,-10288.862594,-222.061783,4826.401637
3057.653439,-10140.821405,444.123565,2987.772442
3057.653776,-9548.656652,666.185348,612.876398
3057.654114,-9474.636058,296.082377,1302.362347
3057.654451,-9474.636058,1110.308913,383.047749
3057.654788,-10436.903782,2146.597232,1991.848295
3057.655126,-10066.800811,2886.803174,229.828649
3057.655463,-10807.006753,2072.576638,-1302.362347
3057.655800,-11399.171507,1554.432478,-1302.362347
3057.656138,-9474.636058,370.102971,-536.266849
3057.656475,-9474.636058,1184.329507,229.828649
3057.656812,-9474.636058,0.000000,-612.876398
3057.657150,-10066.800811,-222.061783,-1532.190996
3057.657487,-10214.842000,-1258.350101,-995.924147
3057.657824,-9548.656652,-1480.411884,-383.047749
3057.658162,-8364.327145,-1110.308913,383.047749
3057.658499,-9474.636058,-666.185348,459.657299
3057.658836,-8882.471304,-888.247130,-842.705048
3057.659174,-9918.759623,-1554.432478,-383.047749
3057.659511,-10807.006753,-1258.350101,1149.143247
3057.659848,-10510.924376,-1998.556043,766.095498
3057.660186,-9548.656652,-370.102971,153.219100
3057.660523,-9474.636058,0.000000,-536.266849
3057.660860,-10362.883188,-1554.432478,-306.438199
3057.661198,-9844.739029,-888.247130,0.000000
3057.661535,-9918.759623,-666.185348,-383.047749
3057.661872,-10658.965565,740.205942,153.219100
3057.662210,-10807.006753,-222.061783,-459.657299
3057.662547,-11325.150913,-518.144159,-536.266849
3057.662884,-10881.027347,-666.185348,-766.095498
3057.663222,-10214.842000,-222.061783,-612.876398
3057.663559,-9770.718434,888.247130,-689.485948
3057.663896,-9844.739029,0.000000,-919.314598
3057.664234,-11029.068536,-2146.597232,-76.609550
3057.664571,-10807.006753,-518.144159,-306.438199
3057.664908,-10288.862594,444.123565,536.266849
3057.665246,-10510.924376,222.061783,459.657299
3057.665583,-9770.718434,148.041188,-689.485948
3057.665920,-8068.244768,666.185348,-76.609550
3057.666258,-9326.594869,74.020594,1838.629195
3057.666595,-10436.903782,1184.329507,2068.457845
3057.666932,-8882.471304,1184.329507,766.095498
3057.667270,-9474.636058,1332.370696,1608.800546
3057.667607,-10584.944971,888.247130,2145.067394
3057.667944,-10140.821405,1406.391290,2145.067394
3057.668282,-8956.491898,1850.514855,1455.581446
3057.668619,-8142.265362,1036.288319,2068.457845
3057.668956,-9622.677246,518.144159,229.828649
3057.669294,-9474.636058,-518.144159,-229.828649
3057.669631,-9104.533087,-1184.329507,842.705048
3057.669968,-8364.327145,370.102971,1532.190996
3057.670306,-9992.780217,296.082377,1302.362347
3057.670643,-11473.192101,740.205942,-1532.190996
3057.670980,-10955.047942,-1628.453072,-1685.410096
3057.671318,-11103.089130,-1998.556043,-536.266849
3057.671655,-9252.574275,-1184.329507,-383.047749
3057.671992,-9696.697840,-2368.659014,0.000000
3057.672330,-11325.150913,-2738.761985,229.828649
3057.672667,-11029.068536,-3478.967927,0.000000
3057.673004,-11103.089130,-2886.803174,153.219100
3057.673342,-10288.862594,-2368.659014,2757.943793
3057.673679,-10140.821405,-1332.370696,2298.286494
3057.674017,-12065.356855,-1480.411884,1685.410096
3057.674354,-12435.459826,-962.267725,766.095498
3057.674691,-9844.739029,0.000000,1149.143247
3057.675029,-10140.821405,-1184.329507,2451.505594
3057.675366,-9992.780217,-74.020594,1608.800546
3057.675703,-9770.718434,-370.102971,0.000000
3057.676041,-10510.924376,222.061783,-459.657299
3057.676378,-9030.512492,-444.123565,-1915.238745
3057.676715,-8882.471304,592.164754,-1685.410096
3057.677053,-8808.450710,-296.082377,-1762.019645
3057.677390,-7920.203579,-592.164754,-1532.190996
3057.677727,-9474.636058,0.000000,-1302.362347
3057.678065,-10658.965565,666.185348,-689.485948
3057.678402,-9844.739029,296.082377,-919.314598
3057.678739,-9326.594869,888.247130,-383.047749
3057.679077,-10140.821405,888.247130,995.924147
3057.679414,-11029.068536,296.082377,153.219100
3057.679751,-10140.821405,-222.061783,383.047749
3057.680089,-9474.636058,-592.164754,306.438199
3057.680426,-10362.883188,74.020594,0.000000
3057.680763,-9992.780217,888.247130,-612.876398
3057.681101,-10436.903782,1776.494261,-306.438199
3057.681438,-9918.759623,888.247130,0.000000
3057.681775,-11029.068536,592.164754,0.000000
3057.682113,-10658.965565,740.205942,0.000000
3057.682450,-8956.491898,-518.144159,1225.752797
3057.682787,-9474.636058,0.000000,1838.629195
3057.683125,-11103.089130,370.102971,1455.581446
3057.683462,-11177.109724,-962.267725,-383.047749
3057.683799,-10288.862594,-2146.597232,-383.047749
3057.684137,-9104.533087,-2368.659014,306.438199
3057.684474,-8956.491898,-1184.329507,-689.485948
3057.684811,-9992.780217,-592.164754,-1225.752797
3057.685149,-9696.697840,-1332.370696,-2681.334243
3057.685486,-9400.615463,-2664.741391,-383.047749
3057.685823,-9400.615463,-2516.700203,1072.533697
3057.686161,-8808.450710,-962.267725,2757.943793
3057.686498,-10732.986159,-962.267725,2528.115143
3057.686835,-11621.233289,-1258.350101,1149.143247
3057.687173,-12435.459826,-1850.514855,306.438199
3057.687510,-12213.398043,-2146.597232,3064.381992
3057.687847,-9326.594869,-962.267725,4366.744339
3057.688185,-8882.471304,-814.226536,3064.381992
3057.688522,-9178.553681,740.205942,1455.581446
3057.688859,-9474.636058,1480.411884,1225.752797
3057.689197,-11621.233289,1184.329507,2374.896044
3057.689534,-11769.274478,2442.679609,995.924147
3057.689871,-10584.944971,3775.050304,0.000000
3057.690209,-11547.212695,2886.803174,0.000000
3057.690546,-10658.965565,888.247130,-536.266849
3057.690883,-8808.450710,888.247130,919.314598
3057.691221,-8660.409521,814.226536,1225.752797
3057.691558,-8586.388927,444.123565,-76.609550
3057.691895,-10214.842000,-222.061783,-1532.190996
3057.692233,-9918.759623,-222.061783,-3064.381992
3057.692570,-9178.553681,0.000000,-1608.800546
3057.692907,-8364.327145,-592.164754,-1225.752797
3057.693245,-8364.327145,-518.144159,-1378.971896
3057.693582,-9696.697840,-1184.329507,-766.095498
3057.693919,-10362.883188,-1776.494261,-459.657299
3057.694257,-9030.512492,-444.123565,1608.800546
3057.694594,-10214.842000,-1480.411884,2374.896044
3057.694932,-11991.336260,-1258.350101,766.095498
3057.695269,-10436.903782,-1702.473667,-1378.971896
3057.695606,-9992.780217,-1776.494261,-229.828649
3057.695944,-8734.430116,-740.205942,536.266849
3057.696281,-9178.553681,0.000000,-1762.019645
3057.696618,-10510.924376,666.185348,-2298.286494
3057.696956,-12213.398043,-1776.494261,-2298.286494
3057.697293,-11325.150913,-1184.329507,-2221.676944
3057.697630,-9252.574275,222.061783,153.219100
3057.697968,-9918.759623,444.123565,1455.581446
3057.698305,-11473.192101,-2146.597232,612.876398
3057.698642,-11399.171507,-2072.576638,-383.047749
3057.698980,-9992.780217,-962.267725,1149.143247
3057.699317,-9474.636058,-1554.432478,2221.676944
3057.699654,-9622.677246,-444.123565,1149.143247
3057.699992,-10807.006753,-1110.308913,-1072.533697
3057.700329,-10807.006753,-1776.494261,-1225.752797
3057.700666,-9252.574275,-888.247130,0.000000
3057.701004,-8216.285956,0.000000,229.828649
3057.701341,-8216.285956,-296.082377,383.047749
3057.701678,-9178.553681,148.041188,1149.143247
3057.702016,-9696.697840,444.123565,1991.848295
3057.702353,-10732.986159,0.000000,4443.353888
3057.702690,-10658.965565,0.000000,5669.106685
3057.703028,-9252.574275,1406.391290,4519.963438
3057.703365,-9548.656652,1332.370696,2911.162892
3057.703702,-11177.109724,1924.535449,1838.629195
3057.704040,-10732.986159,74.020594,383.047749
3057.704377,-9474.636058,962.267725,0.000000
3057.704714,-8216.285956,-148.041188,-1378.971896
3057.705052,-9400.615463,-962.267725,-1378.971896
3057.705389,-9326.594869,-666.185348,-383.047749
3057.705726,-8882.471304,0.000000,-459.657299
3057.706064,-10362.883188,1258.350101,-536.266849
3057.706401,-11843.295072,0.000000,-1532.190996
3057.706739,-12435.459826,-1258.350101,-919.314598
3057.707076,-11325.150913,-1776.494261,306.438199
3057.707413,-9992.780217,-1258.350101,612.876398
3057.707751,-10955.047942,-1628.453072,612.876398
3057.708088,-11177.109724,-4515.256246,0.000000
3057.708426,-11029.068536,-3108.864956,306.438199
3057.708763,-9770.718434,-2368.659014,1072.533697
3057.709100,-9178.553681,0.000000,612.876398
3057.709438,-9104.533087,148.041188,-842.705048
3057.709775,-10807.006753,-888.247130,-689.485948
3057.710113,-10214.842000,-666.185348,-536.266849
3057.710450,-9770.718434,0.000000,1225.752797
3057.710787,-10807.006753,1554.432478,1608.800546
3057.711125,-10214.842000,1850.514855,-1302.362347
3057.711462,-10362.883188,-444.123565,-1762.019645
3057.711800,-10584.944971,-1554.432478,0.000000
3057.712137,-7994.224174,-518.144159,919.314598
3057.712474,-6809.894666,888.247130,-306.438199
3057.712812,-9548.656652,888.247130,-766.095498
3057.713149,-11325.150913,222.061783,-2221.676944
3057.713487,-11325.150913,592.164754,-2298.286494
3057.713824,-9252.574275,296.082377,-766.095498
3057.714162,-8142.265362,1110.308913,842.705048
3057.714499,-9844.739029,592.164754,842.705048
3057.714836,-11103.089130,740.205942,-689.485948
3057.715174,-11177.109724,-296.082377,229.828649
3057.715511,-10658.965565,-370.102971,1072.533697
3057.715849,-9622.677246,-296.082377,612.876398
3057.716186,-9918.759623,74.020594,1225.752797
3057.716523,-10288.862594,0.000000,1302.362347
3057.716861,-9474.636058,-740.205942,1838.629195
3057.717198,-10658.965565,666.185348,2068.457845
3057.717536,-10362.883188,814.226536,1762.019645
3057.717873,-11399.171507,518.144159,842.705048
3057.718210,-10214.842000,-666.185348,536.266849
3057.718548,-9474.636058,74.020594,1225.752797
3057.718885,-10214.842000,-814.226536,1072.533697
3057.719223,-9918.759623,-1332.370696,766.095498
3057.719560,-9844.739029,-2072.576638,-1225.752797
3057.719897,-9474.636058,-2812.782580,-536.266849
3057.720235,-8808.450710,-2146.597232,-383.047749
3057.720572,-9326.594869,-1184.329507,0.000000
3057.720910,-9474.636058,-1554.432478,153.219100
3057.721247,-11251.130318,-2146.597232,0.000000
3057.721584,-10362.883188,-1480.411884,536.266849
3057.721922,-9770.718434,-1850.514855,1762.019645
3057.722259,-11325.150913,-1332.370696,2681.334243
3057.722597,-11251.130318,-2072.576638,1685.410096
3057.722934,-10732.986159,-1850.514855,1455.581446
3057.723271,-9548.656652,0.000000,3140.991542
3057.723609,-9400.615463,0.000000,2068.457845
3057.723946,-10510.924376,740.205942,1608.800546
3057.724284,-11621.233289,1184.329507,-76.609550
3057.724621,-11029.068536,2368.659014,-1302.362347
3057.724959,-10807.006753,888.247130,-383.047749
3057.725296,-9326.594869,1776.494261,-383.047749
3057.725633,-9474.636058,1036.288319,1072.533697
3057.725971,-9622.677246,1480.411884,-612.876398
3057.726308,-8956.491898,1998.556043,-919.314598
3057.726646,-10807.006753,518.144159,-766.095498
3057.726983,-11029.068536,888.247130,-2374.896044
3057.727320,-10140.821405,0.000000,-3830.477490
3057.727658,-9030.512492,-1110.308913,-2911.162892
3057.727995,-7254.018232,-1480.411884,-1302.362347
3057.728333,-7476.080014,-1998.556043,0.000000
3057.728670,-8068.244768,-370.102971,-229.828649
3057.729007,-10288.862594,888.247130,-766.095498
3057.729345,-12731.542202,370.102971,-383.047749
3057.729682,-12953.603985,370.102971,-1685.410096
3057.730020,-10732.986159,-444.123565,0.000000
3057.730357,-9844.739029,-592.164754,1838.629195
3057.730694,-8586.388927,-1480.411884,1225.752797
3057.731032,-9400.615463,-518.144159,-306.438199
3057.731369,-8660.409521,148.041188,536.266849
3057.731707,-9844.739029,-592.164754,0.000000
3057.732044,-11843.295072,-592.164754,1072.533697
3057.732381,-12139.377449,-148.041188,229.828649
3057.732719,-9696.697840,1924.535449,842.705048
3057.733056,-10066.800811,0.000000,766.095498
3057.733394,-9844.739029,-962.267725,842.705048
3057.733731,-9918.759623,-2368.659014,1762.019645
3057.734069,-10436.903782,-2220.617826,2987.772442
3057.734406,-9104.533087,-1036.288319,1455.581446
3057.734743,-9770.718434,-1850.514855,383.047749
3057.735081,-10140.821405,-1480.411884,612.876398
3057.735418,-9252.574275,-1850.514855,842.705048
3057.735756,-8290.306550,518.144159,766.095498
3057.736093,-9474.636058,222.061783,536.266849
3057.736430,-12287.418637,-518.144159,1149.143247
3057.736768,-11843.295072,148.041188,995.924147
3057.737105,-9844.739029,592.164754,1072.533697
3057.737443,-8586.388927,518.144159,2374.896044
3057.737780,-9252.574275,888.247130,2757.943793
3057.738117,-9918.759623,370.102971,1455.581446
3057.738455,-10436.903782,592.164754,1685.410096
3057.738792,-9770.718434,0.000000,2221.676944
3057.739130,-11177.109724,2072.576638,2145.067394
3057.739467,-11843.295072,1998.556043,-612.876398
3057.739804,-10510.924376,1702.473667,-3447.429741
3057.740142,-8660.409521,0.000000,-2298.286494
3057.740479,-7105.977043,592.164754,-2068.457845
3057.740817,-8438.347739,444.123565,-1302.362347
3057.741154,-10584.944971,-74.020594,-2221.676944
3057.741491,-9918.759623,0.000000,-4596.572988
3057.741829,-10732.986159,-1702.473667,-3753.867940
3057.742166,-9992.780217,-444.123565,-459.657299
3057.742504,-8290.306550,-1776.494261,0.000000
3057.742841,-9474.636058,-1184.329507,-536.266849
3057.743178,-11029.068536,-1924.535449,0.000000
3057.743516,-12287.418637,-2442.679609,1838.629195
3057.743853,-11843.295072,-370.102971,2145.067394
3057.744191,-10362.883188,-814.226536,229.828649
3057.744528,-10807.006753,-74.020594,-383.047749
3057.744866,-10436.903782,-2146.597232,1149.143247
3057.745203,-9770.718434,-1332.370696,1838.629195
3057.745540,-8660.409521,222.061783,1378.971896
3057.745878,-9474.636058,444.123565,689.485948
3057.746215,-11251.130318,888.247130,-1378.971896
3057.746553,-11325.150913,0.000000,-1072.533697
3057.746890,-10066.800811,222.061783,612.876398
3057.747227,-8660.409521,296.082377,2451.505594
3057.747565,-9622.677246,-370.102971,1685.410096
3057.747902,-9548.656652,74.020594,-612.876398
3057.748240,-10584.944971,-1628.453072,766.095498
3057.748577,-9400.615463,0.000000,1685.410096
3057.748914,-9400.615463,0.000000,1149.143247
3057.749252,-9770.718434,-814.226536,0.000000
3057.749589,-8808.450710,-740.205942,0.000000
3057.749927,-9252.574275,-444.123565,842.705048
3057.750264,-9548.656652,2146.597232,0.000000
3057.750601,-9844.739029,1776.494261,-612.876398
3057.750939,-10955.047942,444.123565,-612.876398
3057.751276,-11917.315666,-1184.329507,76.609550
3057.751614,-10658.965565,-592.164754,2528.115143
3057.751951,-9474.636058,-592.164754,3983.696590
3057.752288,-8438.347739,-592.164754,3140.991542
3057.752626,-9548.656652,74.020594,1149.143247
3057.752963,-11103.089130,-592.164754,1685.410096
3057.753301,-10807.006753,666.185348,1455.581446
3057.753638,-10362.883188,1332.370696,0.000000
3057.753976,-11029.068536,1998.556043,-2068.457845
3057.754313,-10288.862594,370.102971,-2987.772442
3057.754650,-9696.697840,-666.185348,-1991.848295
3057.754988,-8660.409521,-1184.329507,-1455.581446
3057.755325,-7105.977043,-592.164754,-1225.752797
3057.755663,-7994.224174,-1036.288319,-995.924147
3057.756000,-11695.253884,-1998.556043,-612.876398
3057.756337,-12435.459826,-2442.679609,-919.314598
3057.756675,-10955.047942,-1258.350101,459.657299
3057.757012,-9918.759623,-370.102971,1838.629195
3057.757350,-8882.471304,-962.267725,0.000000
3057.757687,-9770.718434,-1332.370696,-459.657299
3057.758024,-10140.821405,-1480.411884,1685.410096
3057.758362,-11029.068536,-1036.288319,2374.896044
3057.758699,-11399.171507,148.041188,1991.848295
3057.759037,-10510.924376,0.000000,-766.095498
3057.759374,-10214.842000,-444.123565,766.095498
3057.759711,-9474.636058,518.144159,612.876398
3057.760049,-8290.306550,2294.638420,1455.581446
3057.760386,-9992.780217,1850.514855,919.314598
3057.760724,-11325.150913,666.185348,-1149.143247
3057.761061,-12287.418637,1406.391290,-689.485948
3057.761398,-10066.800811,962.267725,0.000000
3057.761736,-9104.533087,1406.391290,1685.410096
3057.762073,-9474.636058,1406.391290,-459.657299
3057.762411,-8956.491898,222.061783,-3217.601092
3057.762748,-9252.574275,-1406.391290,-306.438199
3057.763085,-9474.636058,-296.082377,306.438199
3057.763423,-8586.388927,1406.391290,-459.657299
3057.763760,-11177.109724,-296.082377,-1455.581446
3057.764098,-10658.965565,-1776.494261,-536.266849
3057.764435,-9696.697840,-1702.473667,383.047749
3057.764773,-9474.636058,74.020594,2298.286494
3057.765110,-7772.162391,0.000000,2298.286494
3057.765447,-10732.986159,-444.123565,3140.991542
3057.765785,-13175.665768,-222.061783,2068.457845
3057.766122,-11251.130318,-666.185348,306.438199
3057.766460,-10214.842000,-222.061783,1608.800546
3057.766797,-7994.224174,-444.123565,1225.752797
3057.767134,-9696.697840,74.020594,-229.828649
3057.767472,-10214.842000,-222.061783,-536.266849
3057.767809,-10066.800811,-1332.370696,1072.533697
3057.768147,-10362.883188,-148.041188,1302.362347
3057.768484,-10362.883188,222.061783,0.000000
3057.768821,-10066.800811,74.020594,229.828649
3057.769159,-10658.965565,-2368.659014,1608.800546
3057.769496,-10214.842000,-2812.782580,1685.410096
