#time,accel_x,accel_y,accel_z
3324.488432,-10658.965565,0.000000,383.047749
3324.488770,-10140.821405,-592.164754,-842.705048
3324.489108,-9770.718434,-888.247130,-383.047749
3324.489446,-9252.574275,-1184.329507,0.000000
3324.489784,-9326.594869,-2220.617826,766.095498
3324.490122,-9178.553681,-962.267725,0.000000
3324.490460,-8882.471304,-814.226536,0.000000
3324.490798,-9548.656652,-666.185348,612.876398
3324.491136,-10807.006753,-1406.391290,459.657299
3324.491474,-9918.759623,-962.267725,306.438199
3324.491812,-8660.409521,-444.123565,1225.752797
3324.492150,-9326.594869,-666.185348,2068.457845
3324.492488,-10807.006753,-592.164754,2528.115143
3324.492825,-11251.130318,-370.102971,2068.457845
3324.493163,-9992.780217,592.164754,1915.238745
3324.493501,-9474.636058,592.164754,1149.143247
3324.493839,-11103.089130,1184.329507,1762.019645
3324.494177,-10955.047942,148.041188,306.438199
3324.494515,-10288.862594,962.267725,0.000000
3324.494853,-9474.636058,814.226536,0.000000
3324.495191,-9326.594869,0.000000,-536.266849
3324.495529,-10288.862594,0.000000,306.438199
3324.495867,-10510.924376,-1850.514855,-306.438199
3324.496205,-9696.697840,-1258.350101,-153.219100
3324.496543,-9474.636058,-1110.308913,0.000000
3324.496881,-9770.718434,-2072.576638,536.266849
3324.497218,-9992.780217,-2812.782580,766.095498
3324.497556,-10362.883188,-4071.132681,1225.752797
3324.497894,-9770.718434,-3034.844362,2068.457845
3324.498232,-8956.491898,-3330.926739,3064.381992
3324.498570,-10066.800811,-3330.926739,4443.353888
3324.498908,-10881.027347,-3627.009116,3677.258390
3324.499246,-10732.986159,-3182.885551,3677.258390
3324.499584,-11251.130318,-2220.617826,4596.572988
3324.499922,-10510.924376,-2072.576638,4826.401637
3324.500260,-10436.903782,-1258.350101,4060.306139
3324.500598,-10066.800811,-1480.411884,2834.553343
3324.500936,-10140.821405,-1776.494261,2374.896044
3324.501274,-10140.821405,-2368.659014,2298.286494
3324.501611,-9474.636058,-1702.473667,2834.553343
3324.501949,-10140.821405,-1184.329507,2834.553343
3324.502287,-9918.759623,-740.205942,1302.362347
3324.502625,-10362.883188,-1258.350101,1302.362347
3324.502963,-10584.944971,-1998.556043,1608.800546
3324.503301,-9400.615463,-2664.741391,2757.943793
3324.503639,-9400.615463,-2294.638420,2987.772442
3324.503977,-9770.718434,-2220.617826,2298.286494
3324.504315,-10362.883188,-2146.597232,1608.800546
3324.504653,-9992.780217,-3034.844362,689.485948
3324.504991,-9252.574275,-3552.988522,1685.410096
3324.505329,-9474.636058,-4663.297435,3217.601092
3324.505667,-9252.574275,-3701.029710,3907.087040
3324.506004,-8142.265362,-4293.194464,4749.792088
3324.506342,-11843.295072,-3330.926739,4519.963438
3324.506680,-11251.130318,-444.123565,4290.134789
3324.507018,-9918.759623,-1776.494261,612.876398
3324.507356,-9844.739029,-1628.453072,1915.238745
3324.507694,-10732.986159,-2368.659014,3064.381992
3324.508032,-9474.636058,-2146.597232,3294.210641
3324.508370,-9622.677246,-2812.782580,2604.724693
3324.508708,-11399.171507,-2812.782580,1915.238745
3324.509046,-10362.883188,-2886.803174,1072.533697
3324.509384,-9474.636058,-3552.988522,1149.143247
3324.509722,-9622.677246,-2590.720797,2911.162892
3324.510060,-10658.965565,-2886.803174,2145.067394
3324.510397,-10140.821405,-1258.350101,306.438199
3324.510735,-10658.965565,-1332.370696,-1072.533697
3324.511073,-11325.150913,-2812.782580,-306.438199
3324.511411,-10436.903782,-4737.318029,0.000000
3324.511749,-9252.574275,-4589.276840,1455.581446
3324.512087,-7846.182985,-3701.029710,2604.724693
3324.512425,-9252.574275,-3552.988522,3064.381992
3324.512763,-11029.068536,-4367.215058,3907.087040
3324.513101,-11103.089130,-2664.741391,3907.087040
3324.513439,-10881.027347,-1184.329507,2987.772442
3324.513777,-11251.130318,1554.432478,2298.286494
3324.514115,-11103.089130,1480.411884,1455.581446
3324.514453,-11029.068536,-592.164754,1378.971896
3324.514790,-8438.347739,-1554.432478,1532.190996
3324.515128,-7402.059420,-1924.535449,5362.668486
3324.515466,-10510.924376,-1702.473667,7201.297681
3324.515804,-11695.253884,-1480.411884,4596.572988
3324.516142,-10066.800811,222.061783,459.657299
3324.516480,-9030.512492,592.164754,2221.676944
3324.516818,-9622.677246,740.205942,2911.162892
3324.517156,-10362.883188,0.000000,2834.553343
3324.517494,-9326.594869,296.082377,1378.971896
3324.517832,-9622.677246,-518.144159,1072.533697
3324.518170,-11917.315666,-1554.432478,1302.362347
3324.518508,-10214.842000,-2368.659014,1608.800546
3324.518846,-7624.121203,-3775.050304,1685.410096
3324.519183,-7402.059420,-4515.256246,2451.505594
3324.519521,-7920.203579,-4515.256246,4213.525239
3324.519859,-8734.430116,-2738.761985,5209.449386
3324.520197,-11399.171507,-2960.823768,5056.230287
3324.520535,-12435.459826,-740.205942,3600.648841
3324.520873,-12583.501014,-518.144159,1455.581446
3324.521211,-12287.418637,-888.247130,2451.505594
3324.521549,-9918.759623,-3108.864956,2911.162892
3324.521887,-8956.491898,-3404.947333,2528.115143
3324.522225,-8216.285956,-2294.638420,2221.676944
3324.522563,-10362.883188,-3923.091493,2298.286494
3324.522901,-11473.192101,-3552.988522,1149.143247
3324.523239,-9474.636058,-4219.173869,1302.362347
3324.523576,-9696.697840,-2886.803174,3600.648841
3324.523914,-10066.800811,-1776.494261,2604.724693
3324.524252,-11769.274478,-666.185348,229.828649
3324.524590,-11769.274478,-444.123565,-1685.410096
3324.524928,-10584.944971,-2146.597232,-1532.190996
3324.525266,-10584.944971,-3775.050304,1225.752797
3324.525604,-10140.821405,-3330.926739,1915.238745
3324.525942,-8142.265362,-3997.112087,1149.143247
3324.526280,-8734.430116,-3849.070898,689.485948
3324.526618,-8512.368333,-5329.482782,1685.410096
3324.526956,-9622.677246,-4737.318029,3370.820191
3324.527294,-10140.821405,-1480.411884,3983.696590
3324.527632,-9696.697840,0.000000,1838.629195
3324.527969,-11621.233289,1850.514855,689.485948
3324.528307,-11547.212695,-740.205942,1455.581446
3324.528645,-10214.842000,-1332.370696,2451.505594
3324.528983,-8808.450710,666.185348,4213.525239
3324.529321,-8734.430116,666.185348,2374.896044
3324.529659,-11695.253884,74.020594,2451.505594
3324.529997,-10658.965565,-3330.926739,2298.286494
3324.530335,-9178.553681,-2516.700203,2298.286494
3324.530673,-7624.121203,-518.144159,1991.848295
3324.531011,-8216.285956,666.185348,766.095498
3324.531349,-11843.295072,592.164754,-919.314598
3324.531687,-11177.109724,-814.226536,-1762.019645
3324.532025,-9844.739029,0.000000,-842.705048
3324.532362,-10066.800811,-148.041188,842.705048
3324.532700,-12139.377449,-1998.556043,1225.752797
3324.533038,-10436.903782,-3330.926739,-1149.143247
3324.533376,-7476.080014,-3627.009116,-306.438199
3324.533714,-6513.812290,-3182.885551,1838.629195
3324.534052,-8882.471304,-3478.967927,2681.334243
3324.534390,-13101.645173,-4145.153275,2374.896044
3324.534728,-10881.027347,-1332.370696,-995.924147
3324.535066,-9844.739029,592.164754,459.657299
3324.535404,-12361.439231,1110.308913,3140.991542
3324.535742,-12879.583391,0.000000,1762.019645
3324.536080,-10362.883188,-592.164754,-842.705048
3324.536418,-8290.306550,1406.391290,-842.705048
3324.536756,-8438.347739,1184.329507,612.876398
3324.537093,-11991.336260,-962.267725,1455.581446
3324.537431,-10214.842000,-2146.597232,-1685.410096
3324.537769,-7031.956449,0.000000,-2451.505594
3324.538107,-8290.306550,444.123565,1072.533697
3324.538445,-11251.130318,0.000000,2834.553343
3324.538783,-12287.418637,74.020594,536.266849
3324.539121,-9252.574275,2442.679609,-2221.676944
3324.539459,-9474.636058,2516.700203,-842.705048
3324.539797,-13397.727550,814.226536,689.485948
3324.540135,-11325.150913,-444.123565,-459.657299
3324.540473,-6957.935855,-222.061783,-1532.190996
3324.540811,-6217.729913,0.000000,1149.143247
3324.541149,-9696.697840,-1258.350101,3217.601092
3324.541486,-12805.562797,-888.247130,1685.410096
3324.541824,-8956.491898,814.226536,-766.095498
3324.542162,-7624.121203,2516.700203,0.000000
3324.542500,-11103.089130,2738.761985,1991.848295
3324.542838,-14137.933492,2442.679609,1149.143247
3324.543176,-10288.862594,2146.597232,-689.485948
3324.543514,-8068.244768,1776.494261,0.000000
3324.543852,-9178.553681,0.000000,2604.724693
3324.544190,-12435.459826,-962.267725,2451.505594
3324.544527,-9992.780217,-1480.411884,-306.438199
3324.544865,-7031.956449,74.020594,-1302.362347
3324.545203,-8364.327145,-962.267725,-612.876398
3324.545541,-11991.336260,-2442.679609,-1225.752797
3324.545879,-9474.636058,-1850.514855,-2834.553343
3324.546216,-7698.141797,-1332.370696,-2604.724693
3324.546554,-9474.636058,-1258.350101,-459.657299
3324.546892,-12731.542202,-2886.803174,0.000000
3324.547230,-11843.295072,-2664.741391,-612.876398
3324.547568,-8512.368333,-2590.720797,-1378.971896
3324.547906,-8216.285956,-2664.741391,1302.362347
3324.548243,-11473.192101,-3849.070898,2528.115143
3324.548581,-10881.027347,-3701.029710,1072.533697
3324.548919,-8808.450710,-2442.679609,1149.143247
3324.549257,-9696.697840,-1776.494261,2451.505594
3324.549595,-11843.295072,-592.164754,3370.820191
3324.549932,-13693.809927,-370.102971,1838.629195
3324.550270,-10066.800811,1332.370696,459.657299
3324.550608,-8290.306550,1554.432478,0.000000
3324.550946,-10807.006753,1406.391290,1532.190996
3324.551284,-10732.986159,518.144159,0.000000
3324.551621,-8364.327145,0.000000,-919.314598
3324.551959,-8142.265362,0.000000,766.095498
3324.552297,-10140.821405,-370.102971,2681.334243
3324.552635,-11325.150913,-962.267725,1762.019645
3324.552973,-9178.553681,814.226536,-842.705048
3324.553310,-8438.347739,1628.453072,-536.266849
3324.553648,-10807.006753,1036.288319,-766.095498
3324.553986,-11621.233289,0.000000,-919.314598
3324.554324,-9030.512492,222.061783,-919.314598
3324.554662,-7254.018232,0.000000,153.219100
3324.554999,-9030.512492,-814.226536,2451.505594
3324.555337,-11547.212695,-1554.432478,2145.067394
3324.555675,-9474.636058,-148.041188,689.485948
3324.556013,-8290.306550,296.082377,383.047749
3324.556351,-10436.903782,592.164754,1378.971896
3324.556688,-12287.418637,296.082377,1072.533697
3324.557026,-10584.944971,0.000000,0.000000
3324.557364,-8808.450710,296.082377,536.266849
3324.557702,-10214.842000,-148.041188,1762.019645
3324.558040,-12435.459826,-740.205942,2145.067394
3324.558377,-10510.924376,0.000000,-995.924147
3324.558715,-9030.512492,148.041188,-1762.019645
3324.559053,-9696.697840,222.061783,-1302.362347
3324.559391,-10732.986159,-1850.514855,-1838.629195
3324.559729,-10140.821405,-1702.473667,-1915.238745
3324.560066,-8068.244768,-2220.617826,-1455.581446
3324.560404,-8068.244768,-2294.638420,-459.657299
3324.560742,-11917.315666,-2664.741391,459.657299
3324.561080,-12583.501014,-1480.411884,-383.047749
3324.561418,-9474.636058,-592.164754,-2221.676944
3324.561755,-9622.677246,-518.144159,-842.705048
3324.562093,-11325.150913,-962.267725,0.000000
3324.562431,-10066.800811,-1776.494261,-306.438199
3324.562769,-7476.080014,-1702.473667,306.438199
3324.563107,-7698.141797,-666.185348,2834.553343
3324.563444,-11843.295072,-740.205942,4903.011187
3324.563782,-12657.521608,814.226536,2528.115143
3324.564120,-10066.800811,2072.576638,-229.828649
3324.564458,-9400.615463,2812.782580,919.314598
3324.564796,-10436.903782,1998.556043,1762.019645
3324.565133,-11325.150913,1850.514855,1302.362347
3324.565471,-8808.450710,2368.659014,-306.438199
3324.565809,-7846.182985,2072.576638,0.000000
3324.566147,-10066.800811,1036.288319,1225.752797
3324.566485,-11843.295072,74.020594,0.000000
3324.566822,-9178.553681,1702.473667,-1378.971896
3324.567160,-7476.080014,592.164754,-1762.019645
3324.567498,-9178.553681,962.267725,-383.047749
3324.567836,-11695.253884,-1184.329507,-766.095498
3324.568174,-9844.739029,-1184.329507,-1378.971896
3324.568511,-7698.141797,-888.247130,-536.266849
3324.568849,-10214.842000,-2590.720797,2451.505594
3324.569187,-12213.398043,-2590.720797,2757.943793
3324.569525,-10140.821405,-2590.720797,0.000000
3324.569863,-8216.285956,-1554.432478,76.609550
3324.570200,-9400.615463,-2442.679609,842.705048
3324.570538,-12065.356855,-2960.823768,1225.752797
3324.570876,-10510.924376,-1776.494261,306.438199
3324.571214,-8142.265362,-1036.288319,0.000000
3324.571552,-9622.677246,-1110.308913,2068.457845
3324.571889,-12435.459826,-2294.638420,1991.848295
3324.572227,-12065.356855,-740.205942,459.657299
3324.572565,-9474.636058,888.247130,-1685.410096
3324.572903,-9992.780217,370.102971,-689.485948
3324.573241,-12509.480420,-1110.308913,-76.609550
3324.573578,-10140.821405,-1850.514855,-1991.848295
3324.573916,-7698.141797,-1332.370696,-1302.362347
3324.574254,-7994.224174,-1850.514855,842.705048
3324.574592,-11399.171507,-1332.370696,1455.581446
3324.574930,-11843.295072,-962.267725,-1302.362347
3324.575267,-9252.574275,296.082377,-2298.286494
3324.575605,-8882.471304,1406.391290,-1378.971896
3324.575943,-11843.295072,0.000000,153.219100
3324.576281,-10881.027347,0.000000,-536.266849
3324.576619,-7772.162391,0.000000,-229.828649
3324.576956,-7624.121203,666.185348,2374.896044
3324.577294,-10955.047942,-740.205942,3370.820191
3324.577632,-12657.521608,-296.082377,2987.772442
3324.577970,-8956.491898,2368.659014,1149.143247
3324.578308,-7624.121203,2442.679609,842.705048
3324.578645,-10658.965565,2590.720797,1838.629195
3324.578983,-12213.398043,1406.391290,689.485948
3324.579321,-9178.553681,3034.844362,-1225.752797
3324.579659,-7328.038826,2516.700203,-229.828649
3324.579997,-10584.944971,888.247130,1225.752797
3324.580334,-12287.418637,-814.226536,383.047749
3324.580672,-9622.677246,-370.102971,-919.314598
3324.581010,-7402.059420,1110.308913,-689.485948
3324.581348,-9030.512492,-962.267725,-919.314598
3324.581686,-11843.295072,-1554.432478,-995.924147
3324.582023,-10066.800811,-2072.576638,-1991.848295
3324.582361,-8290.306550,-1110.308913,-383.047749
3324.582699,-10066.800811,-2442.679609,1991.848295
3324.583037,-13545.768739,-2664.741391,2757.943793
3324.583375,-11695.253884,-2146.597232,306.438199
3324.583712,-8882.471304,-666.185348,-459.657299
3324.584050,-9696.697840,-1332.370696,1302.362347
3324.584388,-12731.542202,-1924.535449,1762.019645
3324.584726,-11177.109724,-1628.453072,-383.047749
3324.585064,-7476.080014,-814.226536,-383.047749
3324.585401,-7846.182985,-888.247130,2145.067394
3324.585739,-11769.274478,-1332.370696,3140.991542
3324.586077,-11547.212695,-740.205942,842.705048
3324.586415,-8734.430116,1480.411884,459.657299
3324.586753,-9400.615463,2146.597232,612.876398
3324.587090,-12213.398043,666.185348,536.266849
3324.587428,-11103.089130,666.185348,-766.095498
3324.587766,-8364.327145,666.185348,-536.266849
3324.588104,-7920.203579,370.102971,536.266849
3324.588442,-10510.924376,-518.144159,1532.190996
3324.588779,-11251.130318,-74.020594,383.047749
3324.589117,-8290.306550,518.144159,-2145.067394
3324.589455,-8290.306550,1554.432478,-1838.629195
3324.589793,-11029.068536,1184.329507,-766.095498
3324.590131,-12139.377449,-814.226536,-1072.533697
3324.590468,-7920.203579,1184.329507,-1991.848295
3324.590806,-7254.018232,1036.288319,1225.752797
3324.591144,-11621.233289,-444.123565,4136.915689
3324.591482,-13323.706956,-1628.453072,2145.067394
3324.591820,-10658.965565,592.164754,1225.752797
3324.592157,-8512.368333,1110.308913,1762.019645
3324.592495,-11029.068536,74.020594,2221.676944
3324.592833,-11917.315666,-814.226536,153.219100
3324.593171,-8808.450710,370.102971,-1838.629195
3324.593509,-6661.853478,222.061783,-1149.143247
3324.593846,-9400.615463,-1480.411884,689.485948
3324.594184,-12361.439231,-1628.453072,76.609550
3324.594522,-10436.903782,-1480.411884,-383.047749
3324.594860,-7476.080014,-296.082377,-1378.971896
3324.595198,-9844.739029,-740.205942,-383.047749
3324.595535,-12953.603985,-2220.617826,0.000000
3324.595873,-9696.697840,-2516.700203,-1762.019645
3324.596211,-6957.935855,-2516.700203,-536.266849
3324.596549,-9326.594869,-2960.823768,2757.943793
3324.596887,-12731.542202,-3627.009116,3064.381992
3324.597224,-12065.356855,-2664.741391,536.266849
3324.597562,-9326.594869,0.000000,-919.314598
3324.597900,-9992.780217,518.144159,766.095498
3324.598238,-12953.603985,-740.205942,1455.581446
3324.598576,-11029.068536,74.020594,-612.876398
3324.598913,-7328.038826,962.267725,153.219100
3324.599251,-8512.368333,666.185348,3217.601092
3324.599589,-12361.439231,0.000000,3907.087040
3324.599927,-11917.315666,518.144159,1608.800546
3324.600265,-8808.450710,2368.659014,383.047749
3324.600602,-8734.430116,3627.009116,842.705048
3324.600940,-11029.068536,2368.659014,-306.438199
3324.601278,-10658.965565,2146.597232,-1838.629195
3324.601616,-7031.956449,1998.556043,-2374.896044
3324.601954,-7105.977043,2072.576638,76.609550
3324.602291,-10584.944971,592.164754,1072.533697
3324.602629,-11325.150913,0.000000,-76.609550
3324.602967,-8290.306550,666.185348,-1915.238745
3324.603305,-7179.997637,1406.391290,-1455.581446
3324.603643,-10881.027347,0.000000,-383.047749
3324.603980,-12139.377449,-1184.329507,-995.924147
3324.604318,-9104.533087,-370.102971,-2221.676944
3324.604656,-8068.244768,-666.185348,153.219100
3324.604994,-10584.944971,-2294.638420,1991.848295
3324.605332,-12361.439231,-2442.679609,1838.629195
3324.605669,-10140.821405,-1036.288319,1149.143247
3324.606007,-8808.450710,222.061783,0.000000
3324.606345,-11473.192101,-444.123565,919.314598
3324.606683,-13101.645173,-1258.350101,612.876398
3324.607021,-9918.759623,-370.102971,-612.876398
3324.607358,-8808.450710,-592.164754,459.657299
3324.607696,-9844.739029,-1036.288319,1532.190996
3324.608034,-11917.315666,-1702.473667,995.924147
3324.608372,-11103.089130,-666.185348,-383.047749
3324.608710,-9178.553681,-888.247130,-612.876398
3324.609047,-9918.759623,-740.205942,0.000000
3324.609385,-11843.295072,-1332.370696,306.438199
3324.609723,-10658.965565,-296.082377,-919.314598
3324.610061,-7328.038826,-666.185348,-1225.752797
3324.610399,-8660.409521,-1258.350101,689.485948
3324.610736,-11177.109724,-1850.514855,2145.067394
3324.611074,-10881.027347,-814.226536,1302.362347
3324.611412,-8882.471304,814.226536,0.000000
3324.611750,-9548.656652,814.226536,459.657299
3324.612088,-11103.089130,148.041188,919.314598
3324.612425,-10510.924376,518.144159,689.485948
3324.612763,-7846.182985,962.267725,1302.362347
3324.613101,-7994.224174,1480.411884,2911.162892
3324.613439,-10955.047942,74.020594,3753.867940
3324.613777,-11843.295072,1406.391290,2451.505594
3324.614114,-9622.677246,2812.782580,229.828649
3324.614452,-9474.636058,3330.926739,689.485948
3324.614790,-11029.068536,2442.679609,0.000000
3324.615128,-10732.986159,1850.514855,-1608.800546
3324.615466,-8586.388927,1924.535449,-2221.676944
3324.615803,-7624.121203,222.061783,-1302.362347
3324.616141,-9770.718434,-1110.308913,766.095498
3324.616479,-11769.274478,-1332.370696,76.609550
3324.616817,-9918.759623,-444.123565,-1302.362347
3324.617155,-9252.574275,-74.020594,-1991.848295
3324.617492,-10732.986159,-1480.411884,-1072.533697
3324.617830,-11473.192101,-2294.638420,-1915.238745
3324.618168,-9548.656652,-1924.535449,-2221.676944
3324.618506,-8290.306550,-1406.391290,-842.705048
3324.618844,-9918.759623,-3108.864956,919.314598
3324.619181,-11991.336260,-3256.906145,1915.238745
3324.619519,-10584.944971,-2516.700203,1225.752797
3324.619857,-9104.533087,-666.185348,689.485948
3324.620195,-11251.130318,-1776.494261,1838.629195
3324.620533,-11991.336260,-1480.411884,1149.143247
3324.620870,-9770.718434,-592.164754,229.828649
3324.621208,-7772.162391,0.000000,842.705048
3324.621546,-9104.533087,0.000000,1608.800546
3324.621884,-12213.398043,-666.185348,1762.019645
3324.622222,-10881.027347,0.000000,76.609550
3324.622559,-8660.409521,814.226536,-383.047749
3324.622897,-9548.656652,1184.329507,919.314598
3324.623235,-11177.109724,1258.350101,383.047749
3324.623573,-11621.233289,0.000000,-995.924147
3324.623911,-7698.141797,1184.329507,-1302.362347
3324.624248,-7994.224174,0.000000,766.095498
3324.624586,-11695.253884,-1184.329507,3524.039291
3324.624924,-10584.944971,-592.164754,1072.533697
3324.625262,-8808.450710,1110.308913,0.000000
3324.625600,-9844.739029,1184.329507,1225.752797
3324.625937,-10955.047942,222.061783,229.828649
3324.626275,-10807.006753,666.185348,76.609550
3324.626613,-8216.285956,1184.329507,-536.266849
3324.626951,-8660.409521,1850.514855,1072.533697
3324.627289,-11325.150913,-296.082377,1685.410096
3324.627626,-11621.233289,-148.041188,76.609550
3324.627964,-8808.450710,1110.308913,-306.438199
3324.628302,-8734.430116,814.226536,0.000000
3324.628640,-10658.965565,444.123565,689.485948
3324.628978,-11325.150913,-1036.288319,-1378.971896
3324.629315,-8956.491898,0.000000,-1225.752797
3324.629653,-7476.080014,0.000000,-842.705048
3324.629991,-10214.842000,-1184.329507,689.485948
3324.630329,-12139.377449,-2220.617826,0.000000
3324.630667,-9400.615463,-1036.288319,-2451.505594
3324.631004,-8882.471304,-222.061783,-1225.752797
3324.631342,-10658.965565,-1702.473667,-1149.143247
3324.631680,-11769.274478,-2368.659014,-1455.581446
3324.632018,-10066.800811,-1850.514855,-1991.848295
3324.632356,-8882.471304,-1110.308913,-995.924147
3324.632693,-10362.883188,-1850.514855,459.657299
3324.633031,-12731.542202,-1998.556043,842.705048
3324.633369,-10362.883188,-1332.370696,0.000000
3324.633707,-8882.471304,-444.123565,612.876398
3324.634045,-10066.800811,74.020594,1762.019645
3324.634382,-11621.233289,0.000000,2298.286494
3324.634720,-11103.089130,814.226536,1532.190996
3324.635058,-8586.388927,1776.494261,76.609550
3324.635396,-9696.697840,1332.370696,2374.896044
3324.635734,-12065.356855,1258.350101,2681.334243
3324.636071,-9992.780217,592.164754,1302.362347
3324.636409,-9178.553681,2146.597232,1149.143247
3324.636747,-8734.430116,1554.432478,383.047749
3324.637085,-11103.089130,1850.514855,1378.971896
3324.637423,-10658.965565,962.267725,-306.438199
3324.637760,-6439.791695,1110.308913,-1915.238745
3324.638098,-7476.080014,1850.514855,0.000000
3324.638436,-10658.965565,-148.041188,-76.609550
3324.638774,-10955.047942,-370.102971,-536.266849
3324.639112,-9030.512492,-74.020594,-1455.581446
3324.639449,-9400.615463,148.041188,0.000000
3324.639787,-10807.006753,-296.082377,995.924147
3324.640125,-11547.212695,-1480.411884,76.609550
3324.640463,-8956.491898,-1110.308913,-766.095498
3324.640801,-7920.203579,-1776.494261,842.705048
3324.641138,-11251.130318,-1184.329507,3524.039291
3324.641476,-13323.706956,-2886.803174,2374.896044
3324.641814,-10955.047942,-1036.288319,612.876398
3324.642152,-8956.491898,0.000000,383.047749
3324.642490,-10955.047942,-296.082377,1378.971896
3324.642827,-11621.233289,-1776.494261,153.219100
3324.643165,-9178.553681,-814.226536,-1608.800546
3324.643503,-8364.327145,-888.247130,-383.047749
3324.643841,-10436.903782,-1184.329507,919.314598
3324.644179,-12805.562797,-2294.638420,459.657299
3324.644516,-11251.130318,-1258.350101,-1225.752797
3324.644854,-7846.182985,-592.164754,-1838.629195
3324.645192,-8956.491898,-592.164754,-766.095498
3324.645529,-11621.233289,-2220.617826,-153.219100
3324.645867,-9918.759623,-1406.391290,-1455.581446
3324.646204,-7550.100608,-1184.329507,-1532.190996
3324.646542,-9252.574275,-888.247130,1149.143247
3324.646879,-12065.356855,-370.102971,1915.238745
3324.647217,-10955.047942,-296.082377,153.219100
3324.647554,-8142.265362,1110.308913,-612.876398
3324.647891,-8586.388927,444.123565,995.924147
3324.648229,-11621.233289,444.123565,2528.115143
3324.648566,-10807.006753,666.185348,689.485948
3324.648904,-7920.203579,1554.432478,766.095498
3324.649241,-8512.368333,1628.453072,2604.724693
3324.649579,-11399.171507,148.041188,2145.067394
3324.649916,-11177.109724,1036.288319,1378.971896
3324.650254,-7846.182985,1776.494261,-229.828649
3324.650591,-8290.306550,2368.659014,0.000000
3324.650928,-11621.233289,888.247130,0.000000
3324.651266,-12361.439231,740.205942,-1608.800546
3324.651603,-8586.388927,740.205942,-2757.943793
3324.651941,-8364.327145,-74.020594,-536.266849
3324.652278,-10807.006753,-1332.370696,919.314598
3324.652616,-11695.253884,-2516.700203,-383.047749
3324.652953,-9104.533087,-1628.453072,-1072.533697
3324.653290,-8660.409521,-1036.288319,0.000000
3324.653628,-11547.212695,-1184.329507,842.705048
3324.653965,-12805.562797,-2294.638420,-689.485948
3324.654303,-9770.718434,-1480.411884,-1762.019645
3324.654640,-7772.162391,-1554.432478,76.609550
3324.654978,-11103.089130,-1850.514855,2374.896044
3324.655315,-12509.480420,-1702.473667,1838.629195
3324.655652,-10214.842000,-592.164754,-229.828649
3324.655990,-8956.491898,222.061783,153.219100
3324.656327,-10658.965565,-148.041188,536.266849
3324.656665,-11769.274478,-740.205942,919.314598
3324.657002,-8956.491898,0.000000,0.000000
3324.657340,-7105.977043,814.226536,459.657299
3324.657677,-9326.594869,814.226536,1608.800546
3324.658015,-12879.583391,0.000000,1302.362347
3324.658352,-10584.944971,888.247130,-995.924147
3324.658689,-7624.121203,1406.391290,-1532.190996
3324.659027,-9770.718434,888.247130,459.657299
3324.659364,-11621.233289,74.020594,-1072.533697
3324.659702,-9770.718434,740.205942,-2528.115143
3324.660039,-7179.997637,888.247130,-1455.581446
3324.660377,-8882.471304,74.020594,536.266849
3324.660714,-11843.295072,-296.082377,1532.190996
3324.661051,-11325.150913,222.061783,306.438199
3324.661389,-8438.347739,1184.329507,-383.047749
3324.661726,-8586.388927,962.267725,612.876398
3324.662064,-11843.295072,0.000000,2068.457845
3324.662401,-11547.212695,444.123565,612.876398
3324.662739,-7772.162391,592.164754,-153.219100
3324.663076,-8956.491898,888.247130,1991.848295
3324.663413,-11991.336260,-1110.308913,2221.676944
3324.663751,-12065.356855,-1036.288319,766.095498
3324.664088,-8808.450710,-296.082377,-766.095498
3324.664426,-7994.224174,-222.061783,0.000000
3324.664763,-11029.068536,-888.247130,459.657299
3324.665101,-11695.253884,-1702.473667,-995.924147
3324.665438,-7994.224174,-962.267725,-2298.286494
3324.665776,-8512.368333,-1776.494261,0.000000
3324.666113,-10436.903782,-3108.864956,919.314598
3324.666450,-12213.398043,-2738.761985,383.047749
3324.666788,-10288.862594,-2368.659014,-995.924147
3324.667125,-8882.471304,-2294.638420,-536.266849
3324.667463,-11325.150913,-3108.864956,612.876398
3324.667800,-12583.501014,-3108.864956,459.657299
3324.668138,-9918.759623,-1702.473667,-383.047749
3324.668475,-8438.347739,-592.164754,459.657299
3324.668812,-10881.027347,-2516.700203,1532.190996
3324.669150,-12287.418637,-2590.720797,2298.286494
3324.669487,-9918.759623,-962.267725,1225.752797
3324.669825,-8808.450710,888.247130,1685.410096
3324.670162,-10436.903782,444.123565,2374.896044
3324.670500,-11843.295072,888.247130,1302.362347
3324.670837,-10436.903782,1776.494261,536.266849
3324.671175,-8586.388927,1480.411884,842.705048
3324.671512,-9474.636058,518.144159,1532.190996
3324.671849,-11473.192101,592.164754,1532.190996
3324.672187,-9844.739029,1110.308913,229.828649
3324.672524,-7105.977043,2442.679609,-1302.362347
3324.672862,-8142.265362,1184.329507,-1072.533697
3324.673199,-11621.233289,1776.494261,-459.657299
3324.673537,-10584.944971,1110.308913,-1302.362347
3324.673874,-7698.141797,444.123565,-1762.019645
3324.674211,-7994.224174,0.000000,0.000000
3324.674549,-10732.986159,-1332.370696,1685.410096
3324.674886,-10955.047942,0.000000,229.828649
3324.675224,-8660.409521,0.000000,-1378.971896
3324.675561,-9770.718434,0.000000,0.000000
3324.675899,-11621.233289,-1406.391290,306.438199
3324.676236,-10955.047942,-1998.556043,-153.219100
3324.676573,-8364.327145,0.000000,0.000000
3324.676911,-9474.636058,0.000000,1915.238745
3324.677248,-12139.377449,-962.267725,2068.457845
3324.677586,-12435.459826,-592.164754,766.095498
3324.677923,-9844.739029,222.061783,612.876398
3324.678261,-9400.615463,74.020594,153.219100
3324.678598,-11695.253884,-666.185348,612.876398
3324.678936,-11843.295072,-1480.411884,0.000000
3324.679273,-8142.265362,-962.267725,-995.924147
3324.679610,-7698.141797,-740.205942,153.219100
3324.679948,-11251.130318,-2368.659014,1149.143247
3324.680285,-12139.377449,-2220.617826,229.828649
3324.680623,-9326.594869,-1406.391290,-1991.848295
3324.680960,-7994.224174,-666.185348,-689.485948
3324.681298,-9400.615463,-1628.453072,612.876398
3324.681635,-11843.295072,-1998.556043,0.000000
3324.681972,-9252.574275,-592.164754,-612.876398
3324.682310,-7550.100608,-370.102971,153.219100
3324.682647,-10140.821405,-592.164754,2987.772442
3324.682985,-12879.583391,-1924.535449,2451.505594
3324.683322,-10362.883188,0.000000,536.266849
3324.683660,-8364.327145,1554.432478,689.485948
3324.683997,-9992.780217,1184.329507,2681.334243
3324.684334,-11695.253884,666.185348,1685.410096
3324.684672,-10288.862594,1184.329507,842.705048
3324.685009,-7994.224174,2368.659014,1608.800546
3324.685347,-9844.739029,1850.514855,1991.848295
3324.685684,-12361.439231,1036.288319,1378.971896
3324.686022,-10732.986159,1480.411884,-1225.752797
3324.686359,-8438.347739,1998.556043,-1532.190996
3324.686697,-9178.553681,1184.329507,-1225.752797
3324.687034,-10955.047942,0.000000,-1838.629195
3324.687371,-9622.677246,-962.267725,-2757.943793
3324.687709,-7772.162391,-888.247130,-2451.505594
3324.688046,-8438.347739,-1776.494261,-1455.581446
3324.688384,-10955.047942,-2812.782580,-306.438199
3324.688721,-11103.089130,-2516.700203,-766.095498
3324.689059,-7994.224174,-1332.370696,-1915.238745
3324.689396,-9400.615463,-1480.411884,-689.485948
3324.689733,-11029.068536,-2516.700203,0.000000
3324.690071,-10807.006753,-3775.050304,-306.438199
3324.690408,-9104.533087,-2368.659014,536.266849
3324.690746,-8808.450710,-2146.597232,1915.238745
3324.691083,-11991.336260,-2146.597232,2757.943793
3324.691421,-12213.398043,-1776.494261,1455.581446
3324.691758,-9770.718434,74.020594,306.438199
3324.692096,-9918.759623,148.041188,842.705048
3324.692433,-11473.192101,0.000000,995.924147
3324.692770,-12435.459826,-296.082377,153.219100
3324.693108,-9918.759623,592.164754,-689.485948
3324.693445,-7846.182985,222.061783,0.000000
3324.693783,-10436.903782,-296.082377,1685.410096
3324.694120,-12583.501014,-888.247130,1532.190996
3324.694458,-10140.821405,444.123565,-383.047749
3324.694795,-8882.471304,1258.350101,-459.657299
3324.695132,-9918.759623,888.247130,0.000000
3324.695470,-11621.233289,-444.123565,306.438199
3324.695807,-9696.697840,0.000000,153.219100
3324.696145,-6735.874072,0.000000,919.314598
3324.696482,-9474.636058,-370.102971,2834.553343
3324.696820,-12139.377449,0.000000,2451.505594
3324.697157,-9548.656652,370.102971,153.219100
3324.697494,-8438.347739,1850.514855,919.314598
3324.697832,-8438.347739,1924.535449,1685.410096
3324.698169,-11177.109724,1554.432478,1072.533697
3324.698507,-10288.862594,1554.432478,383.047749
3324.698844,-8290.306550,1036.288319,0.000000
3324.699182,-9474.636058,962.267725,1915.238745
3324.699519,-12213.398043,-444.123565,2068.457845
3324.699857,-11547.212695,592.164754,766.095498
3324.700194,-8586.388927,148.041188,-1225.752797
3324.700531,-8512.368333,1036.288319,-1302.362347
3324.700869,-11029.068536,-814.226536,-1378.971896
3324.701206,-11325.150913,-962.267725,-2221.676944
3324.701544,-8586.388927,-1554.432478,-2911.162892
3324.701881,-9252.574275,-1184.329507,-1302.362347
3324.702219,-11251.130318,-2220.617826,-383.047749
3324.702556,-11843.295072,-2442.679609,-1072.533697
3324.702893,-9548.656652,-2738.761985,-1532.190996
3324.703231,-8660.409521,-888.247130,-612.876398
3324.703568,-11621.233289,-1924.535449,1302.362347
3324.703906,-12361.439231,-2294.638420,0.000000
3324.704243,-9400.615463,-2146.597232,-536.266849
3324.704581,-8808.450710,-1924.535449,2374.896044
3324.704918,-10510.924376,-1998.556043,3830.477490
3324.705255,-11991.336260,-1406.391290,3294.210641
3324.705593,-10140.821405,518.144159,766.095498
3324.705930,-8068.244768,2072.576638,0.000000
3324.706268,-10436.903782,1998.556043,459.657299
3324.706605,-12361.439231,962.267725,306.438199
3324.706943,-9104.533087,2072.576638,-1762.019645
3324.707280,-6883.915261,962.267725,0.000000
3324.707618,-8660.409521,1036.288319,2374.896044
3324.707955,-11325.150913,296.082377,1149.143247
3324.708292,-10436.903782,296.082377,-1225.752797
3324.708630,-7920.203579,1776.494261,-1302.362347
3324.708967,-8660.409521,888.247130,-306.438199
3324.709305,-11621.233289,0.000000,76.609550
3324.709642,-9696.697840,-296.082377,-995.924147
3324.709980,-7698.141797,666.185348,229.828649
3324.710317,-9844.739029,-1184.329507,1532.190996
3324.710654,-12509.480420,-1628.453072,1838.629195
3324.710992,-11177.109724,-814.226536,0.000000
3324.711329,-9178.553681,0.000000,459.657299
3324.711667,-9326.594869,-74.020594,995.924147
3324.712004,-11843.295072,-888.247130,689.485948
3324.712342,-11399.171507,-370.102971,-306.438199
3324.712679,-8290.306550,-1258.350101,0.000000
3324.713017,-8956.491898,-370.102971,2068.457845
3324.713354,-11991.336260,-1332.370696,2757.943793
3324.713691,-13323.706956,-370.102971,612.876398
3324.714029,-8808.450710,-518.144159,-1838.629195
3324.714366,-8586.388927,222.061783,-1532.190996
3324.714704,-10955.047942,-1184.329507,-383.047749
3324.715041,-11325.150913,-1554.432478,-2221.676944
3324.715379,-7994.224174,-1628.453072,-2221.676944
3324.715716,-7846.182985,-1406.391290,0.000000
3324.716053,-9844.739029,-2590.720797,1302.362347
3324.716391,-12435.459826,-2294.638420,383.047749
3324.716728,-9622.677246,-962.267725,-1608.800546
3324.717066,-8290.306550,296.082377,-842.705048
3324.717403,-11325.150913,-888.247130,383.047749
3324.717741,-12065.356855,-1850.514855,-689.485948
3324.718078,-9030.512492,-296.082377,-536.266849
3324.718415,-8068.244768,-370.102971,1991.848295
3324.718753,-9622.677246,0.000000,3524.039291
3324.719090,-12731.542202,148.041188,2987.772442
3324.719428,-11177.109724,1480.411884,536.266849
3324.719765,-8660.409521,1702.473667,153.219100
3324.720103,-10288.862594,1850.514855,2757.943793
3324.720440,-11473.192101,1702.473667,1838.629195
3324.720778,-9030.512492,1628.453072,229.828649
3324.721115,-7476.080014,2886.803174,306.438199
3324.721452,-9252.574275,1406.391290,1455.581446
3324.721790,-13249.686362,518.144159,1838.629195
3324.722127,-11473.192101,814.226536,-842.705048
3324.722465,-8290.306550,2368.659014,-995.924147
3324.722802,-8882.471304,296.082377,-919.314598
3324.723140,-10955.047942,74.020594,-1991.848295
3324.723477,-10140.821405,-1554.432478,-2451.505594
3324.723814,-7031.956449,-1480.411884,-1225.752797
3324.724152,-7476.080014,-2368.659014,1225.752797
3324.724489,-12139.377449,-3330.926739,3217.601092
3324.724827,-12509.480420,-1776.494261,1072.533697
3324.725164,-9252.574275,-1258.350101,-612.876398
3324.725502,-9326.594869,-814.226536,995.924147
3324.725839,-11325.150913,-1554.432478,1302.362347
3324.726176,-11473.192101,-2072.576638,-383.047749
3324.726514,-8660.409521,-888.247130,-612.876398
3324.726851,-8734.430116,-888.247130,1455.581446
3324.727189,-12805.562797,-2072.576638,3524.039291
3324.727526,-13027.624579,-1702.473667,1149.143247
3324.727864,-8586.388927,1110.308913,-995.924147
3324.728201,-8956.491898,1184.329507,383.047749
3324.728539,-11769.274478,222.061783,306.438199
3324.728876,-12287.418637,-888.247130,-689.485948
3324.729213,-9104.533087,0.000000,-1225.752797
3324.729551,-7105.977043,-148.041188,842.705048
3324.729888,-9770.718434,-1480.411884,1532.190996
3324.730226,-12065.356855,-666.185348,0.000000
3324.730563,-8734.430116,296.082377,-2604.724693
3324.730901,-7550.100608,666.185348,-1072.533697
3324.731238,-9992.780217,-814.226536,0.000000
3324.731575,-11843.295072,-1776.494261,-536.266849
3324.731913,-8068.244768,518.144159,76.609550
3324.732250,-6661.853478,518.144159,1915.238745
3324.732588,-9548.656652,-740.205942,4060.306139
3324.732925,-13101.645173,-740.205942,3064.381992
3324.733263,-11325.150913,1184.329507,1455.581446
3324.733600,-8882.471304,2738.761985,1302.362347
3324.733938,-10362.883188,1480.411884,1608.800546
3324.734275,-13175.665768,1406.391290,1149.143247
3324.734612,-10140.821405,1110.308913,-1302.362347
3324.734950,-7105.977043,1184.329507,-229.828649
3324.735287,-9104.533087,0.000000,1838.629195
3324.735625,-11695.253884,-2072.576638,1225.752797
3324.735962,-10288.862594,-740.205942,-612.876398
3324.736300,-8068.244768,0.000000,-689.485948
3324.736637,-9178.553681,370.102971,-459.657299
3324.736974,-12583.501014,-1110.308913,-1072.533697
3324.737312,-11177.109724,-666.185348,-1838.629195
3324.737649,-7254.018232,-1850.514855,-1915.238745
3324.737987,-8734.430116,-2220.617826,1225.752797
3324.738324,-12213.398043,-3256.906145,1838.629195
3324.738662,-11769.274478,-2960.823768,76.609550
3324.738999,-8660.409521,-1184.329507,-383.047749
3324.739336,-8808.450710,-1850.514855,0.000000
3324.739674,-11473.192101,-1998.556043,306.438199
3324.740011,-11325.150913,-1924.535449,0.000000
3324.740349,-8364.327145,-888.247130,842.705048
3324.740686,-8660.409521,370.102971,3064.381992
3324.741024,-12065.356855,0.000000,3064.381992
3324.741361,-13545.768739,-296.082377,1762.019645
3324.741699,-9400.615463,1480.411884,0.000000
3324.742036,-8586.388927,2812.782580,1149.143247
3324.742373,-11103.089130,1628.453072,1225.752797
3324.742711,-11917.315666,962.267725,-536.266849
3324.743048,-9326.594869,1850.514855,-1838.629195
3324.743386,-7772.162391,1628.453072,-536.266849
3324.743723,-9992.780217,888.247130,919.314598
3324.744061,-11843.295072,0.000000,-306.438199
3324.744398,-8956.491898,1036.288319,-1685.410096
3324.744735,-8068.244768,1924.535449,-995.924147
3324.745073,-9992.780217,888.247130,229.828649
3324.745410,-11325.150913,148.041188,0.000000
3324.745748,-9252.574275,148.041188,-459.657299
3324.746085,-7402.059420,222.061783,766.095498
3324.746423,-10288.862594,-814.226536,1532.190996
3324.746760,-12435.459826,-1850.514855,2298.286494
3324.747097,-9844.739029,-888.247130,1378.971896
3324.747435,-7698.141797,0.000000,1072.533697
3324.747772,-9178.553681,518.144159,1149.143247
3324.748109,-12509.480420,148.041188,689.485948
3324.748447,-10732.986159,592.164754,-919.314598
3324.748784,-8364.327145,0.000000,-919.314598
3324.749122,-9178.553681,0.000000,1532.190996
3324.749459,-12065.356855,-1554.432478,1072.533697
3324.749796,-11251.130318,-370.102971,0.000000
3324.750134,-8364.327145,-296.082377,-919.314598
3324.750471,-9622.677246,-148.041188,-1455.581446
3324.750808,-11917.315666,-1110.308913,-1762.019645
3324.751146,-11917.315666,-1480.411884,-1378.971896
3324.751483,-8734.430116,-1850.514855,-1685.410096
3324.751820,-8142.265362,-2220.617826,919.314598
3324.752158,-11325.150913,-2738.761985,2528.115143
3324.752495,-11621.233289,-2368.659014,1378.971896
3324.752833,-9326.594869,-1850.514855,0.000000
3324.753170,-8956.491898,-222.061783,612.876398
3324.753507,-11029.068536,-1480.411884,536.266849
3324.753845,-11399.171507,-592.164754,536.266849
3324.754182,-8956.491898,-444.123565,-153.219100
3324.754519,-8068.244768,0.000000,2374.896044
3324.754857,-10584.944971,-666.185348,2987.772442
3324.755194,-11473.192101,-518.144159,2374.896044
3324.755531,-9400.615463,1332.370696,1532.190996
3324.755869,-8734.430116,1776.494261,1915.238745
3324.756206,-10362.883188,962.267725,842.705048
3324.756544,-11843.295072,1850.514855,76.609550
3324.756881,-9400.615463,2220.617826,-689.485948
3324.757218,-7105.977043,962.267725,-612.876398
3324.757556,-9326.594869,0.000000,229.828649
3324.757893,-11917.315666,148.041188,842.705048
3324.758230,-10362.883188,296.082377,-689.485948
3324.758568,-8586.388927,1332.370696,-1455.581446
3324.758905,-9844.739029,148.041188,-1915.238745
3324.759242,-11399.171507,-814.226536,-1608.800546
3324.759580,-9992.780217,-1406.391290,-1838.629195
3324.759917,-7994.224174,-1554.432478,0.000000
3324.760255,-9030.512492,-1776.494261,1532.190996
3324.760592,-12435.459826,-2590.720797,1991.848295
3324.760929,-11547.212695,-1332.370696,1838.629195
3324.761267,-9252.574275,-888.247130,1225.752797
3324.761604,-10140.821405,-518.144159,2068.457845
3324.761941,-11991.336260,-1184.329507,1685.410096
3324.762279,-10881.027347,-1184.329507,0.000000
3324.762616,-7698.141797,-666.185348,-612.876398
3324.762953,-8438.347739,-1184.329507,1225.752797
3324.763291,-11399.171507,-888.247130,1149.143247
3324.763628,-11103.089130,-444.123565,0.000000
3324.763966,-8586.388927,1110.308913,-919.314598
3324.764303,-9030.512492,888.247130,-689.485948
3324.764640,-12065.356855,0.000000,0.000000
3324.764978,-12435.459826,0.000000,-689.485948
3324.765315,-8808.450710,0.000000,-766.095498
3324.765652,-8586.388927,0.000000,1455.581446
3324.765990,-11177.109724,-962.267725,2374.896044
3324.766327,-11843.295072,-444.123565,995.924147
3324.766664,-10140.821405,370.102971,-229.828649
3324.767002,-9918.759623,1184.329507,153.219100
3324.767339,-11029.068536,444.123565,-229.828649
3324.767677,-11399.171507,0.000000,-1685.410096
3324.768014,-7254.018232,1332.370696,-1532.190996
3324.768351,-6883.915261,222.061783,459.657299
3324.768689,-9992.780217,0.000000,3524.039291
3324.769026,-11769.274478,-296.082377,2604.724693
3324.769363,-9844.739029,1776.494261,1608.800546
3324.769701,-9474.636058,2368.659014,1149.143247
3324.770038,-10881.027347,1110.308913,229.828649
3324.770375,-11621.233289,74.020594,0.000000
3324.770713,-8956.491898,296.082377,-689.485948
3324.771050,-6883.915261,444.123565,229.828649
3324.771388,-8512.368333,-814.226536,689.485948
3324.771725,-11547.212695,-962.267725,-306.438199
3324.772062,-11621.233289,-74.020594,-1838.629195
3324.772400,-9252.574275,370.102971,-2604.724693
3324.772737,-9326.594869,-814.226536,-2451.505594
3324.773074,-11991.336260,-1998.556043,-1378.971896
3324.773412,-10362.883188,-1998.556043,-1225.752797
3324.773749,-8364.327145,-1184.329507,-536.266849
3324.774086,-9992.780217,-2220.617826,1302.362347
3324.774424,-12287.418637,-2812.782580,1608.800546
3324.774761,-12361.439231,-2368.659014,1532.190996
3324.775099,-9622.677246,-1036.288319,0.000000
3324.775436,-9252.574275,-1184.329507,1302.362347
3324.775773,-11769.274478,-1110.308913,1762.019645
3324.776111,-10436.903782,-518.144159,-229.828649
3324.776448,-8142.265362,592.164754,229.828649
3324.776785,-8734.430116,222.061783,1762.019645
3324.777123,-11029.068536,-1110.308913,2221.676944
3324.777460,-11991.336260,148.041188,2145.067394
3324.777797,-8734.430116,518.144159,1149.143247
3324.778135,-8586.388927,1628.453072,919.314598
3324.778472,-10584.944971,444.123565,612.876398
3324.778810,-11029.068536,592.164754,-766.095498
3324.779147,-8364.327145,666.185348,-1991.848295
3324.779484,-7624.121203,222.061783,0.000000
3324.779822,-9918.759623,222.061783,612.876398
3324.780159,-11621.233289,-1110.308913,0.000000
3324.780496,-9474.636058,592.164754,-459.657299
3324.780834,-7920.203579,1332.370696,76.609550
3324.781171,-10436.903782,1258.350101,1072.533697
3324.781508,-11917.315666,-592.164754,-306.438199
3324.781846,-9918.759623,-444.123565,0.000000
3324.782183,-8216.285956,148.041188,766.095498
3324.782521,-9770.718434,-444.123565,2145.067394
3324.782858,-12065.356855,-1924.535449,2681.334243
3324.783195,-10362.883188,296.082377,76.609550
3324.783533,-8438.347739,222.061783,-383.047749
3324.783870,-9844.739029,-296.082377,153.219100
3324.784207,-11251.130318,-1184.329507,-229.828649
3324.784545,-9326.594869,-444.123565,-383.047749
3324.784882,-7550.100608,-592.164754,-1455.581446
3324.785219,-9030.512492,-2072.576638,1072.533697
3324.785557,-12287.418637,-2146.597232,1149.143247
3324.785894,-10584.944971,-1702.473667,-842.705048
3324.786232,-8290.306550,-740.205942,-1915.238745
3324.786569,-10658.965565,-1480.411884,-383.047749
3324.786906,-12509.480420,-2738.761985,-1072.533697
3324.787244,-11103.089130,-2664.741391,-1915.238745
3324.787581,-8290.306550,-888.247130,-1149.143247
3324.787918,-8438.347739,-1332.370696,995.924147
3324.788256,-12805.562797,-2146.597232,2068.457845
3324.788593,-12805.562797,-1258.350101,689.485948
3324.788930,-9252.574275,0.000000,76.609550
3324.789268,-9696.697840,740.205942,1685.410096
3324.789605,-12657.521608,-222.061783,2528.115143
3324.789943,-11917.315666,518.144159,842.705048
3324.790280,-8068.244768,518.144159,306.438199
3324.790617,-7105.977043,1184.329507,2374.896044
3324.790955,-10584.944971,740.205942,3064.381992
3324.791292,-11769.274478,518.144159,1991.848295
3324.791629,-8290.306550,1406.391290,-766.095498
3324.791967,-7624.121203,2368.659014,153.219100
3324.792304,-10658.965565,2146.597232,842.705048
3324.792641,-11325.150913,740.205942,-383.047749
3324.792979,-7846.182985,888.247130,-1991.848295
3324.793316,-6439.791695,1110.308913,-766.095498
3324.793654,-10362.883188,-148.041188,919.314598
3324.793991,-12213.398043,-1332.370696,153.219100
3324.794328,-9178.553681,-888.247130,-2298.286494
3324.794666,-8364.327145,0.000000,-536.266849
3324.795003,-10510.924376,-814.226536,0.000000
3324.795340,-12213.398043,-1850.514855,-612.876398
3324.795678,-9992.780217,-1850.514855,-1225.752797
3324.796015,-7179.997637,-1184.329507,0.000000
3324.796352,-10881.027347,-1554.432478,2298.286494
3324.796690,-14211.954086,-2442.679609,2451.505594
3324.797027,-11695.253884,-592.164754,0.000000
3324.797365,-8882.471304,518.144159,-306.438199
3324.797702,-10066.800811,74.020594,689.485948
3324.798039,-12953.603985,-1258.350101,612.876398
3324.798377,-10881.027347,-740.205942,-1455.581446
3324.798714,-7254.018232,-296.082377,-766.095498
3324.799051,-8660.409521,-370.102971,1225.752797
3324.799389,-12509.480420,-1702.473667,1378.971896
3324.799726,-11473.192101,-592.164754,-306.438199
3324.800063,-7328.038826,0.000000,-383.047749
3324.800401,-8734.430116,0.000000,919.314598
3324.800738,-11843.295072,-222.061783,689.485948
3324.801076,-11103.089130,-370.102971,-2911.162892
3324.801413,-7476.080014,0.000000,-2221.676944
3324.801750,-8438.347739,-814.226536,842.705048
3324.802088,-11251.130318,-666.185348,2145.067394
3324.802425,-11547.212695,-296.082377,0.000000
3324.802762,-7994.224174,592.164754,-536.266849
3324.803100,-8290.306550,1776.494261,1378.971896
3324.803437,-11251.130318,222.061783,1838.629195
3324.803774,-12435.459826,666.185348,536.266849
3324.804112,-8808.450710,1776.494261,0.000000
3324.804449,-8142.265362,1628.453072,3370.820191
3324.804787,-11621.233289,1776.494261,3064.381992
3324.805124,-12731.542202,518.144159,919.314598
3324.805461,-10066.800811,1554.432478,0.000000
3324.805799,-8438.347739,1850.514855,689.485948
3324.806136,-11029.068536,74.020594,1072.533697
3324.806473,-11917.315666,-148.041188,-842.705048
3324.806811,-8290.306550,-370.102971,-2374.896044
3324.807148,-7402.059420,74.020594,-76.609550
3324.807485,-10362.883188,-1480.411884,1225.752797
3324.807823,-12213.398043,-1702.473667,-383.047749
3324.808160,-10214.842000,-1480.411884,-2374.896044
3324.808498,-8216.285956,-888.247130,-689.485948
3324.808835,-9770.718434,-2812.782580,76.609550
3324.809172,-11843.295072,-3256.906145,229.828649
3324.809510,-9474.636058,-2812.782580,-1149.143247
3324.809847,-7402.059420,-2442.679609,-383.047749
3324.810184,-9844.739029,-3182.885551,1608.800546
3324.810522,-12213.398043,-3330.926739,766.095498
3324.810859,-11103.089130,-1554.432478,-536.266849
3324.811196,-8216.285956,-1110.308913,0.000000
3324.811534,-9400.615463,-666.185348,2145.067394
3324.811871,-11843.295072,-592.164754,2451.505594
3324.812209,-11251.130318,-148.041188,1149.143247
3324.812546,-9030.512492,0.000000,1455.581446
3324.812883,-9548.656652,-444.123565,2451.505594
3324.813221,-11843.295072,518.144159,2681.334243
3324.813558,-11769.274478,370.102971,0.000000
3324.813895,-8364.327145,1184.329507,-1072.533697
3324.814233,-8364.327145,1110.308913,-766.095498
3324.814570,-11399.171507,0.000000,-689.485948
3324.814907,-10362.883188,740.205942,-2451.505594
3324.815245,-7179.997637,1036.288319,-2374.896044
3324.815582,-8364.327145,74.020594,306.438199
3324.815920,-11177.109724,-592.164754,995.924147
3324.816257,-11917.315666,-518.144159,766.095498
3324.816594,-8512.368333,666.185348,0.000000
3324.816932,-8068.244768,518.144159,1225.752797
3324.817269,-11103.089130,0.000000,2145.067394
3324.817606,-11695.253884,-1036.288319,0.000000
3324.817944,-8660.409521,296.082377,459.657299
3324.818281,-8216.285956,-148.041188,2221.676944
3324.818619,-10362.883188,-518.144159,2374.896044
3324.818956,-12435.459826,0.000000,306.438199
3324.819293,-9992.780217,666.185348,-612.876398
3324.819631,-8438.347739,1184.329507,-306.438199
3324.819968,-10658.965565,-222.061783,536.266849
3324.820305,-12065.356855,-666.185348,-153.219100
3324.820643,-9178.553681,-148.041188,-1915.238745
3324.820980,-8290.306550,-296.082377,-383.047749
3324.821317,-10140.821405,-1924.535449,1302.362347
3324.821655,-12361.439231,-2146.597232,459.657299
3324.821992,-11103.089130,-518.144159,-1149.143247
3324.822330,-8808.450710,-592.164754,-1378.971896
3324.822667,-10510.924376,-1850.514855,-229.828649
3324.823004,-12139.377449,-2516.700203,-153.219100
3324.823342,-9770.718434,-666.185348,-689.485948
3324.823679,-7920.203579,-666.185348,-459.657299
3324.824016,-9548.656652,-1110.308913,689.485948
3324.824354,-12213.398043,-1036.288319,766.095498
3324.824691,-10955.047942,-222.061783,153.219100
3324.825028,-7994.224174,370.102971,536.266849
3324.825366,-9696.697840,222.061783,2374.896044
3324.825703,-11843.295072,666.185348,2451.505594
3324.826041,-10214.842000,1406.391290,1302.362347
3324.826378,-8364.327145,1702.473667,612.876398
3324.826715,-9178.553681,1628.453072,2298.286494
3324.827053,-12879.583391,1332.370696,2374.896044
3324.827390,-11325.150913,1776.494261,-306.438199
3324.827727,-7846.182985,2368.659014,-2374.896044
3324.828065,-7920.203579,2294.638420,-1762.019645
3324.828402,-10807.006753,592.164754,-1991.848295
3324.828739,-10140.821405,666.185348,-2451.505594
3324.829077,-8068.244768,1110.308913,-2374.896044
3324.829414,-8808.450710,-888.247130,-383.047749
3324.829752,-12139.377449,-1480.411884,842.705048
3324.830089,-11991.336260,-2294.638420,689.485948
3324.830426,-8068.244768,-1036.288319,0.000000
3324.830764,-7994.224174,-1110.308913,536.266849
3324.831101,-11695.253884,-1554.432478,1991.848295
3324.831438,-12139.377449,-2960.823768,536.266849
3324.831776,-8882.471304,-1998.556043,-612.876398
3324.832113,-9030.512492,-962.267725,1149.143247
3324.832450,-11325.150913,-1628.453072,2298.286494
3324.832788,-12361.439231,-1998.556043,1532.190996
3324.833125,-9844.739029,-148.041188,-229.828649
3324.833463,-8586.388927,-592.164754,1072.533697
3324.833800,-11251.130318,-444.123565,1378.971896
3324.834137,-12583.501014,-1850.514855,995.924147
3324.834475,-10214.842000,-296.082377,306.438199
3324.834812,-8660.409521,-962.267725,383.047749
3324.835149,-9770.718434,-1184.329507,1762.019645
3324.835487,-12139.377449,-1702.473667,1302.362347
3324.835824,-10066.800811,-666.185348,-995.924147
3324.836161,-7476.080014,0.000000,-1762.019645
3324.836499,-8956.491898,0.000000,-1072.533697
3324.836836,-10955.047942,-962.267725,-536.266849
3324.837174,-10214.842000,-1406.391290,-1225.752797
3324.837511,-7698.141797,0.000000,-995.924147
3324.837848,-9326.594869,-592.164754,1532.190996
3324.838186,-11917.315666,-962.267725,2374.896044
3324.838523,-10510.924376,-74.020594,1532.190996
3324.838860,-8290.306550,0.000000,1378.971896
3324.839198,-9252.574275,1554.432478,2681.334243
3324.839535,-11695.253884,740.205942,2221.676944
3324.839872,-11621.233289,1480.411884,919.314598
3324.840210,-8660.409521,1850.514855,-612.876398
3324.840547,-8660.409521,2590.720797,612.876398
3324.840885,-11621.233289,1110.308913,1685.410096
3324.841222,-11695.253884,148.041188,229.828649
3324.841559,-8364.327145,1258.350101,-1455.581446
3324.841897,-7920.203579,1036.288319,-919.314598
3324.842234,-10732.986159,74.020594,-1072.533697
3324.842571,-10658.965565,-814.226536,-2374.896044
3324.842909,-9178.553681,-1110.308913,-1915.238745
3324.843246,-8586.388927,-962.267725,-919.314598
3324.843583,-10140.821405,-1480.411884,306.438199
3324.843921,-12139.377449,-2294.638420,0.000000
3324.844258,-10140.821405,-2146.597232,-1072.533697
3324.844596,-8956.491898,-1332.370696,0.000000
3324.844933,-10955.047942,-1702.473667,766.095498
3324.845270,-12213.398043,-2146.597232,919.314598
3324.845608,-9770.718434,-1406.391290,-306.438199
3324.845945,-8660.409521,-1332.370696,536.266849
3324.846282,-10066.800811,-962.267725,2221.676944
3324.846620,-12361.439231,-1998.556043,2604.724693
3324.846957,-11325.150913,-222.061783,1455.581446
3324.847294,-8290.306550,1036.288319,766.095498
3324.847632,-10066.800811,1184.329507,1838.629195
3324.847969,-12139.377449,370.102971,1302.362347
3324.848307,-10510.924376,148.041188,-306.438199
3324.848644,-8734.430116,1628.453072,1225.752797
3324.848982,-8808.450710,592.164754,2145.067394
3324.849319,-11103.089130,740.205942,1762.019645
3324.849657,-11177.109724,962.267725,-766.095498
3324.849994,-8364.327145,1776.494261,-1762.019645
3324.850331,-9326.594869,888.247130,-1608.800546
3324.850669,-10436.903782,222.061783,-1378.971896
3324.851006,-9474.636058,74.020594,-2298.286494
3324.851344,-6513.812290,-370.102971,-1378.971896
3324.851681,-7476.080014,222.061783,1225.752797
3324.852019,-12509.480420,-1110.308913,2834.553343
3324.852356,-13323.706956,0.000000,1225.752797
3324.852694,-8586.388927,0.000000,-1072.533697
3324.853031,-9178.553681,444.123565,995.924147
3324.853369,-10881.027347,-222.061783,1915.238745
3324.853706,-11325.150913,-740.205942,153.219100
3324.854044,-8290.306550,-444.123565,-536.266849
3324.854381,-7846.182985,148.041188,766.095498
3324.854718,-11769.274478,-444.123565,1608.800546
3324.855056,-13101.645173,-518.144159,-766.095498
3324.855393,-8882.471304,-666.185348,-1608.800546
3324.855731,-8512.368333,444.123565,-153.219100
3324.856068,-10214.842000,-814.226536,-536.266849
3324.856406,-12361.439231,-740.205942,-229.828649
3324.856743,-9918.759623,-740.205942,-1838.629195
3324.857081,-8586.388927,-666.185348,-1149.143247
3324.857418,-11029.068536,-1480.411884,689.485948
3324.857756,-13027.624579,-2812.782580,612.876398
3324.858093,-9474.636058,-1332.370696,-1455.581446
3324.858431,-7476.080014,-1110.308913,-1225.752797
3324.858768,-9474.636058,-1036.288319,306.438199
3324.859105,-11843.295072,-1776.494261,0.000000
3324.859443,-9992.780217,-1554.432478,-459.657299
3324.859780,-7698.141797,-740.205942,536.266849
3324.860118,-9474.636058,-1480.411884,3677.258390
3324.860455,-12139.377449,-296.082377,3600.648841
3324.860793,-10658.965565,592.164754,1762.019645
3324.861130,-8216.285956,1998.556043,842.705048
3324.861468,-8956.491898,1258.350101,1225.752797
3324.861805,-12139.377449,962.267725,1685.410096
3324.862143,-10732.986159,1702.473667,76.609550
3324.862480,-7105.977043,2368.659014,0.000000
3324.862818,-8660.409521,1036.288319,1991.848295
3324.863155,-11991.336260,1110.308913,1302.362347
3324.863492,-11325.150913,1554.432478,0.000000
3324.863830,-8734.430116,1628.453072,-1762.019645
3324.864167,-8290.306550,1406.391290,-995.924147
3324.864505,-11695.253884,370.102971,-306.438199
3324.864842,-11473.192101,-222.061783,-2068.457845
3324.865180,-7698.141797,-370.102971,-1762.019645
3324.865517,-8364.327145,-1924.535449,1685.410096
3324.865855,-11769.274478,-2220.617826,2987.772442
3324.866192,-11917.315666,-2294.638420,766.095498
3324.866530,-9474.636058,-962.267725,-153.219100
3324.866867,-8956.491898,-740.205942,1225.752797
3324.867205,-11547.212695,-2072.576638,1149.143247
3324.867542,-11547.212695,-1184.329507,0.000000
3324.867879,-8142.265362,-888.247130,-612.876398
3324.868217,-8364.327145,-666.185348,1838.629195
3324.868554,-11103.089130,-1406.391290,2604.724693
3324.868892,-12657.521608,-1554.432478,1532.190996
3324.869229,-10214.842000,518.144159,-383.047749
3324.869567,-9030.512492,592.164754,0.000000
3324.869904,-10510.924376,0.000000,-612.876398
3324.870242,-11177.109724,-1332.370696,-1225.752797
3324.870579,-7994.224174,-296.082377,-2757.943793
3324.870917,-7179.997637,-592.164754,-995.924147
3324.871254,-10436.903782,-888.247130,995.924147
3324.871592,-12953.603985,-1480.411884,0.000000
3324.871929,-10214.842000,-222.061783,-1685.410096
3324.872266,-7698.141797,666.185348,-766.095498
3324.872604,-9770.718434,-296.082377,1225.752797
3324.872941,-12213.398043,-1406.391290,0.000000
3324.873279,-9030.512492,518.144159,-1608.800546
3324.873616,-7402.059420,-296.082377,536.266849
3324.873954,-9252.574275,-1480.411884,2757.943793
3324.874291,-11917.315666,-1554.432478,2298.286494
3324.874629,-11177.109724,1406.391290,1838.629195
3324.874966,-8734.430116,1554.432478,919.314598
3324.875304,-9326.594869,1480.411884,1149.143247
3324.875641,-12435.459826,666.185348,1225.752797
3324.875978,-10510.924376,1850.514855,0.000000
3324.876316,-8068.244768,1924.535449,229.828649
3324.876653,-9326.594869,518.144159,1302.362347
3324.876991,-11843.295072,148.041188,1149.143247
3324.877328,-11695.253884,0.000000,0.000000
3324.877666,-8068.244768,592.164754,-1532.190996
3324.878003,-8882.471304,-148.041188,-1378.971896
3324.878341,-11917.315666,-1406.391290,-306.438199
3324.878678,-10732.986159,-1184.329507,-1762.019645
3324.879016,-7328.038826,-888.247130,-2221.676944
3324.879353,-8290.306550,-1332.370696,1072.533697
3324.879691,-11621.233289,-2960.823768,1838.629195
3324.880028,-12657.521608,-2590.720797,689.485948
3324.880365,-8956.491898,-1702.473667,-766.095498
3324.880703,-7920.203579,-1480.411884,306.438199
3324.881040,-10658.965565,-2368.659014,919.314598
3324.881378,-10881.027347,-2294.638420,229.828649
3324.881715,-8290.306550,-518.144159,-689.485948
3324.882053,-8216.285956,222.061783,1072.533697
3324.882390,-11547.212695,-1036.288319,2298.286494
3324.882728,-13027.624579,-444.123565,2374.896044
3324.883065,-10658.965565,1776.494261,459.657299
3324.883403,-9400.615463,2294.638420,612.876398
3324.883740,-11547.212695,1702.473667,612.876398
3324.884078,-12139.377449,1110.308913,-1302.362347
3324.884415,-8660.409521,1332.370696,-1608.800546
3324.884752,-7550.100608,1702.473667,-306.438199
3324.885090,-10288.862594,518.144159,919.314598
3324.885427,-12805.562797,444.123565,306.438199
3324.885765,-10510.924376,1406.391290,-2528.115143
3324.886102,-7550.100608,1702.473667,-1532.190996
3324.886440,-9474.636058,592.164754,459.657299
3324.886777,-11325.150913,0.000000,842.705048
3324.887115,-9844.739029,1036.288319,229.828649
3324.887452,-7624.121203,666.185348,766.095498
3324.887790,-9252.574275,-296.082377,842.705048
3324.888127,-11843.295072,-1850.514855,1838.629195
3324.888465,-10140.821405,-814.226536,1072.533697
3324.888802,-7105.977043,0.000000,1455.581446
3324.889139,-9400.615463,0.000000,1455.581446
3324.889477,-11843.295072,-888.247130,536.266849
3324.889814,-10288.862594,-444.123565,-689.485948
3324.890152,-8364.327145,-74.020594,153.219100
3324.890489,-9030.512492,-444.123565,1762.019645
3324.890827,-11695.253884,-1776.494261,2298.286494
3324.891164,-11991.336260,-1110.308913,919.314598
3324.891502,-8660.409521,-592.164754,-306.438199
3324.891839,-9474.636058,-814.226536,76.609550
3324.892177,-11843.295072,-962.267725,0.000000
3324.892514,-12065.356855,-1332.370696,-2145.067394
3324.892852,-8734.430116,-1628.453072,-2451.505594
3324.893189,-8586.388927,-2072.576638,-612.876398
3324.893526,-11399.171507,-3256.906145,1149.143247
3324.893864,-11769.274478,-2812.782580,306.438199
3324.894201,-9474.636058,-1184.329507,0.000000
3324.894539,-9474.636058,-888.247130,689.485948
3324.894876,-11103.089130,-1184.329507,689.485948
3324.895214,-12139.377449,-1110.308913,689.485948
3324.895551,-9326.594869,-370.102971,612.876398
3324.895889,-7772.162391,0.000000,2068.457845
3324.896226,-10436.903782,-814.226536,3217.601092
3324.896564,-10362.883188,-444.123565,1455.581446
3324.896901,-9400.615463,888.247130,536.266849
3324.897239,-8290.306550,1702.473667,306.438199
3324.897576,-9918.759623,1998.556043,0.000000
3324.897913,-11769.274478,1184.329507,0.000000
3324.898251,-9252.574275,1998.556043,-1378.971896
3324.898588,-6883.915261,1628.453072,-689.485948
3324.898926,-9104.533087,962.267725,842.705048
3324.899263,-11695.253884,444.123565,689.485948
3324.899601,-10658.965565,814.226536,-766.095498
3324.899938,-8808.450710,1110.308913,-689.485948
3324.900276,-10658.965565,296.082377,229.828649
3324.900613,-11029.068536,222.061783,-612.876398
3324.900951,-9844.739029,0.000000,-1378.971896
3324.901288,-7698.141797,-296.082377,-306.438199
3324.901625,-9252.574275,-1184.329507,383.047749
3324.901963,-12361.439231,-1480.411884,1762.019645
3324.902300,-12805.562797,-1258.350101,919.314598
3324.902638,-9400.615463,-888.247130,0.000000
3324.902975,-9548.656652,-592.164754,459.657299
3324.903313,-11029.068536,222.061783,842.705048
3324.903650,-10510.924376,-814.226536,-383.047749
3324.903988,-8512.368333,-814.226536,0.000000
3324.904325,-9178.553681,-444.123565,1225.752797
3324.904663,-11177.109724,-1554.432478,2068.457845
3324.905000,-12065.356855,-1110.308913,766.095498
3324.905338,-9030.512492,-592.164754,-306.438199
3324.905675,-8734.430116,0.000000,306.438199
3324.906012,-10436.903782,-666.185348,612.876398
3324.906350,-11325.150913,-814.226536,-612.876398
3324.906687,-7846.182985,-296.082377,-1685.410096
3324.907025,-8290.306550,74.020594,-842.705048
3324.907362,-10658.965565,-1776.494261,76.609550
3324.907700,-12361.439231,-1480.411884,-306.438199
3324.908037,-9252.574275,-888.247130,0.000000
3324.908375,-7772.162391,0.000000,306.438199
3324.908712,-9770.718434,370.102971,1225.752797
3324.909050,-12213.398043,148.041188,766.095498
3324.909387,-10436.903782,296.082377,0.000000
3324.909725,-9030.512492,962.267725,1149.143247
3324.910062,-10658.965565,296.082377,3370.820191
3324.910399,-11621.233289,296.082377,2145.067394
3324.910737,-10140.821405,1998.556043,0.000000
3324.911074,-8660.409521,2442.679609,153.219100
3324.911412,-9844.739029,1258.350101,383.047749
3324.911749,-11843.295072,518.144159,306.438199
3324.912087,-10436.903782,1406.391290,-536.266849
3324.912424,-8142.265362,962.267725,-1072.533697
3324.912762,-8882.471304,-592.164754,76.609550
3324.913099,-10807.006753,-1480.411884,153.219100
3324.913437,-9770.718434,-1776.494261,153.219100
3324.913774,-8068.244768,-296.082377,-919.314598
3324.914112,-8882.471304,-1480.411884,-842.705048
3324.914449,-11029.068536,-1628.453072,-1072.533697
3324.914786,-11547.212695,-1924.535449,-1838.629195
3324.915124,-8660.409521,-2072.576638,-2068.457845
3324.915461,-7994.224174,-2442.679609,0.000000
3324.915799,-11621.233289,-2590.720797,2068.457845
3324.916136,-11991.336260,-2442.679609,766.095498
3324.916474,-9918.759623,-592.164754,-229.828649
3324.916811,-10066.800811,-592.164754,1608.800546
3324.917149,-12361.439231,-1258.350101,1532.190996
3324.917486,-12509.480420,-74.020594,1149.143247
3324.917824,-9252.574275,-296.082377,229.828649
3324.918161,-8512.368333,148.041188,2374.896044
3324.918499,-11251.130318,-814.226536,2221.676944
3324.918836,-12435.459826,74.020594,1378.971896
3324.919173,-9474.636058,1332.370696,0.000000
3324.919511,-8586.388927,1702.473667,-153.219100
3324.919848,-10140.821405,814.226536,536.266849
3324.920186,-10807.006753,0.000000,-76.609550
3324.920523,-7920.203579,592.164754,-1378.971896
3324.920861,-6957.935855,518.144159,0.000000
3324.921198,-9622.677246,-518.144159,383.047749
3324.921536,-11695.253884,-1184.329507,689.485948
3324.921873,-9252.574275,0.000000,-995.924147
3324.922211,-7105.977043,888.247130,229.828649
3324.922548,-9622.677246,74.020594,1149.143247
3324.922886,-12065.356855,-814.226536,1149.143247
3324.923223,-9844.739029,0.000000,-383.047749
3324.923560,-7402.059420,666.185348,1455.581446
3324.923898,-9918.759623,222.061783,2528.115143
3324.924235,-12953.603985,-888.247130,2068.457845
3324.924573,-11547.212695,296.082377,0.000000
3324.924910,-8290.306550,1406.391290,76.609550
3324.925248,-9844.739029,74.020594,842.705048
3324.925585,-12509.480420,-814.226536,536.266849
3324.925923,-11251.130318,0.000000,0.000000
3324.926260,-8142.265362,1110.308913,0.000000
3324.926598,-10140.821405,-74.020594,1225.752797
3324.926935,-12509.480420,-1110.308913,919.314598
3324.927273,-11399.171507,-1332.370696,-995.924147
3324.927610,-8882.471304,0.000000,-689.485948
3324.927947,-9474.636058,-666.185348,0.000000
3324.928285,-11769.274478,-2146.597232,-459.657299
3324.928622,-11843.295072,-2072.576638,-1685.410096
3324.928960,-7846.182985,-1850.514855,-1838.629195
3324.929297,-7031.956449,-1480.411884,76.609550
3324.929635,-11325.150913,-2368.659014,1685.410096
3324.929972,-11917.315666,-1628.453072,383.047749
3324.930310,-8882.471304,-1036.288319,-1532.190996
3324.930647,-7994.224174,0.000000,153.219100
3324.930985,-11251.130318,-1258.350101,1532.190996
3324.931322,-11621.233289,-1184.329507,995.924147
3324.931659,-7846.182985,888.247130,229.828649
3324.931997,-7698.141797,1258.350101,2298.286494
3324.932334,-10732.986159,1110.308913,2681.334243
3324.932672,-12879.583391,222.061783,995.924147
3324.933009,-10584.944971,1628.453072,-536.266849
3324.933347,-7994.224174,2664.741391,-536.266849
3324.933684,-10214.842000,592.164754,306.438199
3324.934022,-10807.006753,-592.164754,-153.219100
3324.934359,-7846.182985,1110.308913,-1991.848295
3324.934697,-7772.162391,1184.329507,0.000000
3324.935034,-10658.965565,518.144159,0.000000
3324.935372,-12879.583391,-1332.370696,-459.657299
3324.935709,-11325.150913,-296.082377,-1455.581446
3324.936046,-7402.059420,0.000000,-1072.533697
3324.936384,-9104.533087,-1480.411884,766.095498
3324.936721,-11473.192101,-2960.823768,536.266849
3324.937059,-9030.512492,-1924.535449,-689.485948
3324.937396,-6957.935855,-1184.329507,536.266849
3324.937734,-10510.924376,-1998.556043,2528.115143
3324.938071,-13175.665768,-1702.473667,2681.334243
3324.938409,-12139.377449,-1184.329507,536.266849
3324.938746,-8068.244768,444.123565,1455.581446
3324.939084,-9252.574275,-370.102971,1225.752797
3324.939421,-11991.336260,-962.267725,1608.800546
3324.939759,-10584.944971,74.020594,-612.876398
3324.940096,-7846.182985,444.123565,-612.876398
3324.940433,-9474.636058,370.102971,842.705048
3324.940771,-12953.603985,-740.205942,689.485948
3324.941108,-11325.150913,-370.102971,-229.828649
3324.941446,-7254.018232,-666.185348,-1302.362347
3324.941783,-8660.409521,222.061783,766.095498
3324.942121,-11251.130318,-740.205942,229.828649
3324.942458,-11399.171507,222.061783,-995.924147
3324.942796,-8734.430116,444.123565,-1149.143247
3324.943133,-9474.636058,740.205942,0.000000
3324.943471,-11695.253884,-1480.411884,1455.581446
3324.943808,-11991.336260,-814.226536,306.438199
3324.944146,-7402.059420,296.082377,-383.047749
3324.944483,-7624.121203,592.164754,1072.533697
3324.944820,-10732.986159,-296.082377,1838.629195
3324.945158,-11917.315666,0.000000,689.485948
3324.945495,-9548.656652,888.247130,689.485948
3324.945833,-8364.327145,2294.638420,2374.896044
3324.946170,-10214.842000,444.123565,2911.162892
3324.946507,-12805.562797,222.061783,2528.115143
3324.946845,-9400.615463,1480.411884,229.828649
3324.947182,-8216.285956,1850.514855,536.266849
3324.947520,-11251.130318,1628.453072,842.705048
3324.947857,-11991.336260,-296.082377,-1685.410096
3324.948194,-8586.388927,0.000000,-2528.115143
3324.948532,-6883.915261,-1036.288319,-1149.143247
3324.948869,-9178.553681,-1628.453072,0.000000
3324.949206,-11991.336260,-1702.473667,-1685.410096
3324.949544,-10510.924376,-1924.535449,-2757.943793
3324.949881,-8068.244768,-666.185348,-2374.896044
3324.950218,-10436.903782,-2368.659014,153.219100
3324.950556,-12139.377449,-2590.720797,766.095498
3324.950893,-10214.842000,-2516.700203,0.000000
3324.951230,-8364.327145,-1924.535449,1225.752797
3324.951568,-10066.800811,-2664.741391,2298.286494
3324.951905,-12805.562797,-2590.720797,2221.676944
3324.952243,-11695.253884,-962.267725,383.047749
3324.952580,-9178.553681,-1110.308913,153.219100
3324.952917,-9918.759623,-740.205942,1608.800546
3324.953255,-11251.130318,-222.061783,459.657299
3324.953592,-11177.109724,-296.082377,76.609550
3324.953929,-8068.244768,518.144159,383.047749
3324.954267,-9104.533087,888.247130,1685.410096
3324.954604,-12509.480420,74.020594,2757.943793
3324.954941,-12287.418637,370.102971,76.609550
3324.955279,-7994.224174,962.267725,-842.705048
3324.955616,-9104.533087,74.020594,1225.752797
3324.955953,-10140.821405,74.020594,766.095498
3324.956291,-9770.718434,666.185348,-995.924147
3324.956628,-7994.224174,370.102971,-1838.629195
3324.956966,-8586.388927,222.061783,0.000000
3324.957303,-11177.109724,-1332.370696,383.047749
3324.957640,-11251.130318,222.061783,383.047749
3324.957978,-8364.327145,740.205942,0.000000
3324.958315,-8660.409521,814.226536,612.876398
3324.958652,-10288.862594,0.000000,153.219100
3324.958990,-11695.253884,-296.082377,612.876398
3324.959327,-9622.677246,740.205942,995.924147
3324.959664,-8438.347739,222.061783,1608.800546
3324.960002,-10658.965565,0.000000,2451.505594
3324.960339,-11917.315666,-962.267725,1149.143247
3324.960676,-9252.574275,518.144159,536.266849
3324.961014,-8734.430116,370.102971,153.219100
3324.961351,-10510.924376,148.041188,689.485948
3324.961689,-11917.315666,-296.082377,-766.095498
3324.962026,-10140.821405,0.000000,-1455.581446
3324.962363,-8364.327145,148.041188,-1225.752797
3324.962701,-9474.636058,-1554.432478,-919.314598
3324.963038,-12213.398043,-1628.453072,-919.314598
3324.963375,-10807.006753,-962.267725,-2757.943793
3324.963713,-8364.327145,-1110.308913,-2145.067394
3324.964050,-9770.718434,-1850.514855,-459.657299
3324.964387,-12065.356855,-2886.803174,536.266849
3324.964725,-10214.842000,-1184.329507,-612.876398
3324.965062,-9030.512492,-1258.350101,0.000000
3324.965399,-10288.862594,-1480.411884,2221.676944
3324.965737,-12139.377449,-1184.329507,1838.629195
3324.966074,-10510.924376,-666.185348,842.705048
3324.966412,-9030.512492,222.061783,1072.533697
3324.966749,-9622.677246,222.061783,2145.067394
3324.967086,-11251.130318,1036.288319,1608.800546
3324.967424,-11251.130318,1036.288319,842.705048
3324.967761,-8290.306550,1776.494261,0.000000
3324.968098,-9030.512492,1702.473667,1685.410096
3324.968436,-11473.192101,666.185348,1991.848295
3324.968773,-11103.089130,1184.329507,995.924147
3324.969110,-9030.512492,1332.370696,0.000000
3324.969448,-8808.450710,1850.514855,459.657299
3324.969785,-10510.924376,666.185348,0.000000
3324.970122,-11695.253884,814.226536,-306.438199
3324.970460,-8808.450710,1110.308913,-1532.190996
3324.970797,-8142.265362,296.082377,-1149.143247
3324.971135,-10214.842000,-1332.370696,536.266849
3324.971472,-11325.150913,-2220.617826,0.000000
3324.971809,-9252.574275,-962.267725,-612.876398
3324.972147,-8808.450710,-962.267725,383.047749
3324.972484,-10288.862594,-1924.535449,689.485948
3324.972821,-11769.274478,-2368.659014,612.876398
3324.973159,-9400.615463,-1628.453072,459.657299
3324.973496,-8586.388927,-1036.288319,1838.629195
3324.973833,-11103.089130,-2146.597232,2451.505594
3324.974171,-12509.480420,-1924.535449,2374.896044
3324.974508,-10732.986159,-888.247130,-459.657299
3324.974845,-8660.409521,0.000000,0.000000
3324.975183,-9696.697840,-592.164754,153.219100
3324.975520,-11177.109724,-1258.350101,-612.876398
3324.975858,-9844.739029,-592.164754,-2068.457845
3324.976195,-9400.615463,-518.144159,-919.314598
3324.976532,-9844.739029,-740.205942,0.000000
3324.976870,-12139.377449,-1702.473667,995.924147
3324.977207,-11621.233289,-444.123565,0.000000
3324.977544,-8586.388927,666.185348,-1608.800546
3324.977882,-9474.636058,74.020594,-689.485948
3324.978219,-11251.130318,-1258.350101,0.000000
3324.978556,-10214.842000,-1184.329507,-536.266849
3324.978894,-8142.265362,74.020594,76.609550
3324.979231,-9474.636058,-296.082377,1915.238745
3324.979568,-11325.150913,-814.226536,1762.019645
3324.979906,-11251.130318,-370.102971,536.266849
3324.980243,-8068.244768,592.164754,536.266849
3324.980580,-8068.244768,1480.411884,1225.752797
3324.980918,-11399.171507,444.123565,1762.019645
3324.981255,-11177.109724,1406.391290,1225.752797
3324.981593,-7846.182985,1628.453072,0.000000
3324.981930,-8512.368333,2220.617826,2604.724693
3324.982267,-11769.274478,888.247130,3217.601092
3324.982605,-12583.501014,740.205942,842.705048
3324.982942,-9252.574275,1184.329507,-536.266849
3324.983279,-8290.306550,2516.700203,229.828649
3324.983617,-10584.944971,518.144159,229.828649
3324.983954,-10955.047942,-814.226536,-1455.581446
3324.984291,-8956.491898,0.000000,-2298.286494
3324.984629,-8068.244768,0.000000,-842.705048
3324.984966,-9918.759623,-2072.576638,306.438199
3324.985303,-12509.480420,-2738.761985,536.266849
3324.985641,-10584.944971,-2294.638420,-842.705048
3324.985978,-8364.327145,-1184.329507,76.609550
3324.986316,-10510.924376,-1850.514855,1149.143247
3324.986653,-12509.480420,-2146.597232,1225.752797
3324.986990,-9992.780217,-2146.597232,-536.266849
3324.987328,-8364.327145,-1998.556043,919.314598
3324.987665,-10510.924376,-1702.473667,2145.067394
3324.988002,-13249.686362,-1924.535449,2374.896044
3324.988340,-11103.089130,-740.205942,0.000000
3324.988677,-8364.327145,0.000000,-383.047749
3324.989014,-9696.697840,814.226536,1225.752797
3324.989352,-11695.253884,0.000000,536.266849
3324.989689,-10658.965565,592.164754,0.000000
3324.990026,-8290.306550,1258.350101,0.000000
3324.990364,-8956.491898,444.123565,612.876398
3324.990701,-11843.295072,148.041188,842.705048
3324.991039,-11251.130318,296.082377,-995.924147
3324.991376,-7846.182985,1110.308913,-2911.162892
3324.991713,-7624.121203,1554.432478,-2757.943793
3324.992051,-10658.965565,296.082377,-1532.190996
3324.992388,-10807.006753,-592.164754,-1838.629195
3324.992725,-6513.812290,-1406.391290,-1838.629195
3324.993063,-7476.080014,740.205942,2145.067394
3324.993400,-11991.336260,0.000000,4060.306139
3324.993737,-12435.459826,-296.082377,689.485948
3324.994075,-9104.533087,0.000000,-1532.190996
3324.994412,-8068.244768,1184.329507,1149.143247
3324.994749,-11029.068536,592.164754,2451.505594
3324.995087,-11843.295072,0.000000,-919.314598
3324.995424,-8438.347739,444.123565,-1378.971896
3324.995762,-9252.574275,518.144159,1378.971896
3324.996099,-11547.212695,0.000000,2834.553343
3324.996436,-12657.521608,-666.185348,1149.143247
3324.996774,-9844.739029,0.000000,0.000000
3324.997111,-8216.285956,518.144159,306.438199
3324.997448,-10066.800811,0.000000,459.657299
3324.997786,-12435.459826,-1184.329507,0.000000
3324.998123,-9992.780217,-1406.391290,-1149.143247
3324.998460,-8438.347739,-814.226536,0.000000
3324.998798,-9844.739029,-2072.576638,1225.752797
3324.999135,-12509.480420,-2886.803174,842.705048
3324.999472,-9918.759623,-1850.514855,-1378.971896
3324.999810,-7476.080014,-1258.350101,-842.705048
3325.000147,-9252.574275,-2146.597232,0.000000
3325.000485,-11769.274478,-3108.864956,0.000000
3325.000822,-9400.615463,-1628.453072,-689.485948
3325.001159,-7105.977043,-1406.391290,995.924147
3325.001497,-9622.677246,-1850.514855,4136.915689
3325.001834,-12435.459826,-1110.308913,4136.915689
3325.002171,-11399.171507,444.123565,1991.848295
3325.002509,-9770.718434,2516.700203,1762.019645
3325.002846,-10288.862594,2220.617826,1608.800546
3325.003183,-12139.377449,1258.350101,-306.438199
3325.003521,-10436.903782,1184.329507,-2374.896044
3325.003858,-6735.874072,1850.514855,-1225.752797
3325.004195,-7846.182985,592.164754,1225.752797
3325.004533,-11621.233289,0.000000,842.705048
3325.004870,-11621.233289,1850.514855,-689.485948
3325.005208,-9326.594869,1924.535449,-1302.362347
3325.005545,-9252.574275,2368.659014,0.000000
3325.005882,-11547.212695,518.144159,76.609550
3325.006220,-11473.192101,296.082377,-1991.848295
3325.006557,-8216.285956,-518.144159,-1455.581446
3325.006894,-7772.162391,-1406.391290,1532.190996
3325.007232,-10140.821405,-2442.679609,2145.067394
3325.007569,-12139.377449,-2294.638420,995.924147
3325.007906,-8586.388927,-1036.288319,-995.924147
3325.008244,-7698.141797,-1110.308913,-383.047749
3325.008581,-11177.109724,-2294.638420,689.485948
3325.008918,-11621.233289,-1924.535449,-766.095498
3325.009256,-8290.306550,-666.185348,-995.924147
3325.009593,-7994.224174,-666.185348,1685.410096
3325.009931,-10584.944971,-1110.308913,2834.553343
3325.010268,-13471.748144,-1628.453072,2451.505594
3325.010605,-10881.027347,-296.082377,0.000000
3325.010943,-9622.677246,-222.061783,306.438199
3325.011280,-11621.233289,-666.185348,1149.143247
3325.011617,-12139.377449,-444.123565,-76.609550
3325.011955,-9548.656652,74.020594,-1915.238745
3325.012292,-7476.080014,148.041188,-689.485948
3325.012629,-10436.903782,-1480.411884,0.000000
3325.012967,-12879.583391,-1924.535449,229.828649
3325.013304,-9992.780217,0.000000,-1455.581446
3325.013641,-8438.347739,518.144159,0.000000
3325.013979,-9918.759623,-296.082377,612.876398
3325.014316,-11399.171507,0.000000,-536.266849
3325.014654,-10066.800811,0.000000,0.000000
3325.014991,-7476.080014,518.144159,306.438199
3325.015328,-8586.388927,-888.247130,2451.505594
3325.015666,-12139.377449,-1110.308913,3294.210641
3325.016003,-10288.862594,814.226536,919.314598
3325.016340,-7994.224174,1628.453072,612.876398
3325.016678,-9326.594869,1258.350101,1302.362347
3325.017015,-10362.883188,1998.556043,459.657299
3325.017352,-10510.924376,2072.576638,-1225.752797
3325.017690,-7846.182985,1850.514855,-842.705048
3325.018027,-8438.347739,1998.556043,459.657299
3325.018364,-11843.295072,0.000000,766.095498
3325.018702,-11547.212695,444.123565,0.000000
3325.019039,-7698.141797,962.267725,-1915.238745
3325.019377,-8586.388927,370.102971,-76.609550
3325.019714,-11251.130318,-740.205942,-612.876398
3325.020051,-11177.109724,-1258.350101,-2451.505594
3325.020389,-8438.347739,-962.267725,-2221.676944
3325.020726,-8956.491898,-1850.514855,1225.752797
3325.021063,-11695.253884,-2220.617826,1685.410096
3325.021401,-12953.603985,-2442.679609,612.876398
3325.021738,-9992.780217,-1110.308913,0.000000
3325.022075,-8956.491898,-148.041188,1072.533697
3325.022413,-11621.233289,-1924.535449,459.657299
3325.022750,-11621.233289,-2368.659014,-306.438199
3325.023087,-8956.491898,0.000000,-1225.752797
3325.023425,-8290.306550,-1036.288319,1838.629195
3325.023762,-10807.006753,-1554.432478,2451.505594
3325.024100,-11917.315666,-1628.453072,2451.505594
3325.024437,-9992.780217,222.061783,919.314598
3325.024774,-8734.430116,1332.370696,766.095498
3325.025112,-10584.944971,444.123565,383.047749
3325.025449,-11843.295072,370.102971,0.000000
3325.025786,-9030.512492,1036.288319,-1378.971896
3325.026124,-7105.977043,592.164754,229.828649
3325.026461,-9770.718434,222.061783,1838.629195
3325.026798,-11991.336260,0.000000,306.438199
3325.027136,-10732.986159,814.226536,-1302.362347
3325.027473,-8068.244768,1332.370696,-995.924147
3325.027810,-8956.491898,0.000000,-459.657299
3325.028148,-11325.150913,-222.061783,0.000000
3325.028485,-9918.759623,148.041188,-919.314598
3325.028823,-7105.977043,0.000000,0.000000
3325.029160,-8734.430116,0.000000,2298.286494
3325.029497,-12361.439231,-1036.288319,2681.334243
3325.029835,-11621.233289,888.247130,1378.971896
3325.030172,-9548.656652,814.226536,919.314598
3325.030509,-10510.924376,1332.370696,995.924147
3325.030847,-11843.295072,74.020594,229.828649
3325.031184,-10658.965565,-148.041188,-306.438199
3325.031521,-6883.915261,-444.123565,-919.314598
3325.031859,-7698.141797,-666.185348,1225.752797
3325.032196,-11473.192101,-962.267725,1532.190996
3325.032533,-12805.562797,-1332.370696,153.219100
3325.032871,-9474.636058,-1036.288319,-1608.800546
3325.033208,-8882.471304,-74.020594,-689.485948
3325.033546,-11103.089130,-1258.350101,153.219100
3325.033883,-10362.883188,-2072.576638,-1608.800546
3325.034220,-7920.203579,-1628.453072,-2911.162892
3325.034558,-7698.141797,-2220.617826,-612.876398
3325.034895,-10362.883188,-3034.844362,76.609550
3325.035232,-11843.295072,-3034.844362,76.609550
3325.035570,-10362.883188,-1702.473667,-689.485948
3325.035907,-8808.450710,-296.082377,-153.219100
3325.036244,-10658.965565,-962.267725,229.828649
3325.036582,-11621.233289,-962.267725,0.000000
3325.036919,-9548.656652,0.000000,153.219100
3325.037256,-9030.512492,0.000000,2145.067394
3325.037594,-11029.068536,148.041188,3447.429741
3325.037931,-12657.521608,444.123565,2834.553343
3325.038269,-10807.006753,888.247130,1685.410096
3325.038606,-8216.285956,2072.576638,1225.752797
3325.038943,-10066.800811,1850.514855,1685.410096
3325.039281,-11473.192101,1850.514855,1149.143247
3325.039618,-9622.677246,1480.411884,-1838.629195
3325.039955,-7624.121203,1554.432478,-919.314598
3325.040293,-8734.430116,592.164754,76.609550
3325.040630,-10436.903782,148.041188,995.924147
3325.040967,-10288.862594,148.041188,-766.095498
3325.041305,-7920.203579,1258.350101,-229.828649
3325.041642,-8956.491898,518.144159,-766.095498
3325.041979,-11177.109724,-1332.370696,-459.657299
3325.042317,-11029.068536,-370.102971,-536.266849
3325.042654,-7550.100608,-1184.329507,-842.705048
3325.042992,-8438.347739,-1628.453072,1072.533697
3325.043329,-11325.150913,-1924.535449,1838.629195
3325.043666,-11769.274478,-2294.638420,919.314598
3325.044004,-8956.491898,-1332.370696,0.000000
3325.044341,-10066.800811,-296.082377,1302.362347
3325.044678,-11547.212695,-222.061783,1302.362347
3325.045016,-12361.439231,-518.144159,0.000000
3325.045353,-9400.615463,-296.082377,-766.095498
3325.045690,-8882.471304,-222.061783,459.657299
3325.046028,-10807.006753,-1184.329507,1378.971896
3325.046365,-12953.603985,-1184.329507,612.876398
3325.046702,-10362.883188,-222.061783,-1378.971896
3325.047041,-8956.491898,148.041188,-842.705048
3325.047378,-10510.924376,-962.267725,-612.876398
3325.047715,-11103.089130,-814.226536,-1532.190996
3325.048053,-8882.471304,-592.164754,-1915.238745
3325.048390,-7920.203579,-1110.308913,-1455.581446
3325.048727,-9992.780217,-1702.473667,995.924147
3325.049065,-11843.295072,-1850.514855,1378.971896
3325.049402,-10066.800811,-444.123565,689.485948
3325.049739,-8882.471304,518.144159,229.828649
3325.050077,-10140.821405,148.041188,919.314598
3325.050414,-11621.233289,-370.102971,76.609550
3325.050751,-9548.656652,666.185348,-1225.752797
3325.051089,-7328.038826,962.267725,153.219100
3325.051426,-8882.471304,592.164754,1455.581446
3325.051763,-11695.253884,1110.308913,1455.581446
3325.052100,-10658.965565,1702.473667,0.000000
3325.052438,-8216.285956,1998.556043,689.485948
3325.052775,-9326.594869,2072.576638,1838.629195
3325.053112,-11621.233289,1258.350101,1685.410096
3325.053450,-11029.068536,1776.494261,0.000000
3325.053787,-8586.388927,1110.308913,-689.485948
3325.054124,-9326.594869,296.082377,1685.410096
3325.054462,-11325.150913,-1702.473667,1302.362347
3325.054799,-10881.027347,-518.144159,76.609550
3325.055136,-8216.285956,-370.102971,-1225.752797
3325.055474,-8734.430116,-592.164754,-919.314598
3325.055811,-11103.089130,-1628.453072,-1378.971896
3325.056148,-12065.356855,-2072.576638,-2221.676944
3325.056485,-8438.347739,-1406.391290,-1302.362347
3325.056823,-8364.327145,-2886.803174,1838.629195
3325.057160,-10955.047942,-3256.906145,2987.772442
3325.057497,-11547.212695,-2516.700203,1838.629195
3325.057835,-10140.821405,-1332.370696,1302.362347
3325.058172,-9696.697840,-1258.350101,1915.238745
3325.058509,-11843.295072,-1850.514855,1455.581446
3325.058847,-13175.665768,-1184.329507,689.485948
3325.059184,-9104.533087,-296.082377,-1072.533697
3325.059521,-7550.100608,0.000000,1072.533697
3325.059859,-10214.842000,-592.164754,1685.410096
3325.060196,-12731.542202,-1184.329507,1072.533697
3325.060533,-9474.636058,518.144159,-536.266849
3325.060871,-8586.388927,592.164754,229.828649
3325.061208,-10881.027347,370.102971,1762.019645
3325.061545,-12213.398043,-148.041188,0.000000
3325.061882,-9844.739029,1258.350101,-1838.629195
3325.062220,-7994.224174,518.144159,-689.485948
3325.062557,-9252.574275,-370.102971,459.657299
3325.062894,-11769.274478,-1850.514855,76.609550
3325.063232,-9770.718434,74.020594,-1608.800546
3325.063569,-7105.977043,1554.432478,-1149.143247
3325.063906,-8956.491898,0.000000,229.828649
3325.064244,-11843.295072,-222.061783,-153.219100
3325.064581,-9844.739029,1110.308913,-1532.190996
3325.064918,-7476.080014,666.185348,536.266849
3325.065256,-9400.615463,740.205942,2911.162892
3325.065593,-12583.501014,-592.164754,3294.210641
3325.065930,-11843.295072,1406.391290,1455.581446
3325.066268,-9252.574275,1406.391290,-229.828649
3325.066605,-10214.842000,962.267725,1302.362347
3325.066942,-11399.171507,-666.185348,612.876398
3325.067279,-9770.718434,-814.226536,-383.047749
3325.067617,-7105.977043,888.247130,-536.266849
3325.067954,-8364.327145,-74.020594,153.219100
3325.068291,-11621.233289,-1258.350101,-612.876398
3325.068629,-11843.295072,-1480.411884,-1302.362347
3325.068966,-9474.636058,0.000000,-1302.362347
3325.069303,-8364.327145,-592.164754,-766.095498
3325.069641,-10732.986159,-2146.597232,-689.485948
3325.069978,-11325.150913,-2368.659014,-1302.362347
3325.070315,-8142.265362,-2664.741391,-1991.848295
3325.070653,-7920.203579,-1406.391290,1378.971896
3325.070990,-11769.274478,-2738.761985,2757.943793
3325.071327,-12805.562797,-1998.556043,1685.410096
3325.071664,-10066.800811,-814.226536,-612.876398
3325.072002,-9918.759623,518.144159,1149.143247
3325.072339,-10955.047942,-296.082377,1378.971896
3325.072676,-12287.418637,-1332.370696,1455.581446
3325.073014,-9474.636058,592.164754,1072.533697
3325.073351,-7846.182985,1258.350101,1991.848295
3325.073688,-10807.006753,666.185348,2604.724693
3325.074026,-13175.665768,74.020594,995.924147
3325.074363,-9918.759623,1850.514855,-306.438199
3325.074700,-7772.162391,2442.679609,689.485948
3325.075038,-9622.677246,888.247130,306.438199
3325.075375,-11769.274478,444.123565,-306.438199
3325.075712,-9770.718434,814.226536,-2068.457845
3325.076050,-6735.874072,1258.350101,-1685.410096
3325.076387,-8438.347739,592.164754,-229.828649
3325.076724,-11769.274478,-1036.288319,383.047749
3325.077061,-10066.800811,222.061783,-1455.581446
3325.077399,-7698.141797,444.123565,-1455.581446
3325.077736,-9252.574275,518.144159,383.047749
3325.078073,-11917.315666,-1776.494261,-383.047749
3325.078411,-10362.883188,-740.205942,-1532.190996
3325.078748,-7179.997637,-222.061783,-383.047749
3325.079085,-9400.615463,-1776.494261,2298.286494
3325.079423,-12139.377449,-1776.494261,1378.971896
3325.079760,-12213.398043,-1184.329507,995.924147
3325.080097,-8660.409521,148.041188,229.828649
3325.080435,-9770.718434,-370.102971,919.314598
3325.080772,-12213.398043,-740.205942,1302.362347
3325.081109,-11621.233289,-518.144159,0.000000
3325.081446,-8734.430116,-518.144159,-536.266849
3325.081784,-9400.615463,-740.205942,1378.971896
3325.082121,-11843.295072,-1628.453072,229.828649
3325.082458,-11843.295072,-370.102971,-459.657299
3325.082796,-8586.388927,-1036.288319,-995.924147
3325.083133,-8512.368333,-814.226536,-306.438199
3325.083470,-11547.212695,-1998.556043,0.000000
3325.083808,-11917.315666,-1554.432478,-1225.752797
3325.084145,-7846.182985,-962.267725,-1378.971896
3325.084482,-7994.224174,-1110.308913,1149.143247
3325.084820,-11251.130318,-1628.453072,2528.115143
3325.085157,-12287.418637,-1776.494261,995.924147
3325.085494,-8808.450710,-1332.370696,306.438199
3325.085832,-8068.244768,-222.061783,1762.019645
3325.086169,-9474.636058,-888.247130,2221.676944
3325.086506,-11695.253884,74.020594,2374.896044
3325.086843,-9474.636058,814.226536,536.266849
3325.087181,-8438.347739,1184.329507,1915.238745
3325.087518,-10510.924376,814.226536,2681.334243
3325.087855,-12065.356855,1332.370696,1762.019645
3325.088193,-9918.759623,2812.782580,383.047749
3325.088530,-8290.306550,2368.659014,-459.657299
3325.088867,-9770.718434,1998.556043,-689.485948
3325.089205,-11695.253884,1036.288319,-766.095498
3325.089542,-10140.821405,1998.556043,-689.485948
3325.089879,-7994.224174,1110.308913,-1532.190996
3325.090217,-10362.883188,444.123565,1225.752797
3325.090554,-11251.130318,-148.041188,0.000000
3325.090891,-10584.944971,-444.123565,-1991.848295
3325.091228,-8142.265362,-518.144159,-2221.676944
3325.091566,-8808.450710,-1332.370696,-689.485948
3325.091903,-11029.068536,-1702.473667,612.876398
3325.092240,-10436.903782,-1258.350101,-842.705048
3325.092578,-7994.224174,-1184.329507,-1072.533697
3325.092915,-9474.636058,-2442.679609,1225.752797
3325.093252,-11769.274478,-1998.556043,1532.190996
3325.093590,-11547.212695,-1924.535449,1149.143247
3325.093927,-8660.409521,-1036.288319,459.657299
3325.094264,-8882.471304,-518.144159,1225.752797
3325.094602,-12139.377449,-1554.432478,1225.752797
3325.094939,-10807.006753,-444.123565,-766.095498
3325.095276,-8290.306550,-148.041188,-766.095498
3325.095614,-9474.636058,0.000000,1838.629195
3325.095951,-10955.047942,-222.061783,842.705048
3325.096288,-12731.542202,296.082377,919.314598
3325.096625,-10584.944971,1480.411884,-1455.581446
3325.096963,-9252.574275,1184.329507,-689.485948
3325.097300,-11399.171507,74.020594,0.000000
3325.097637,-11399.171507,-370.102971,-1072.533697
3325.097975,-8364.327145,222.061783,-919.314598
3325.098312,-7994.224174,-296.082377,995.924147
3325.098649,-10140.821405,-1332.370696,1455.581446
3325.098987,-11843.295072,-592.164754,995.924147
3325.099324,-9178.553681,0.000000,-229.828649
3325.099661,-7920.203579,222.061783,536.266849
3325.099999,-9844.739029,-370.102971,1608.800546
3325.100336,-10881.027347,-370.102971,1532.190996
3325.100673,-9030.512492,962.267725,919.314598
3325.101010,-8364.327145,1258.350101,1455.581446
3325.101348,-10658.965565,370.102971,2298.286494
3325.101685,-12435.459826,0.000000,1608.800546
3325.102022,-10140.821405,666.185348,76.609550
3325.102360,-7550.100608,666.185348,-383.047749
3325.102697,-8586.388927,-370.102971,689.485948
3325.103034,-10658.965565,-370.102971,-229.828649
3325.103372,-9770.718434,-814.226536,-1302.362347
3325.103709,-8142.265362,1036.288319,-1378.971896
3325.104046,-10510.924376,-592.164754,383.047749
3325.104384,-13397.727550,-1258.350101,383.047749
3325.104721,-11621.233289,-740.205942,-2374.896044
3325.105058,-8808.450710,-962.267725,-2451.505594
3325.105396,-8438.347739,-1850.514855,0.000000
3325.105733,-10732.986159,-3034.844362,-383.047749
3325.106070,-10214.842000,-2146.597232,-919.314598
3325.106407,-9252.574275,-1554.432478,-536.266849
3325.106745,-9918.759623,-2146.597232,612.876398
3325.107082,-11991.336260,-2738.761985,1225.752797
3325.107419,-11843.295072,-1258.350101,1225.752797
3325.107757,-8142.265362,-222.061783,153.219100
3325.108094,-8956.491898,-74.020594,2451.505594
3325.108431,-11399.171507,-666.185348,2221.676944
3325.108769,-11251.130318,-222.061783,1685.410096
3325.109106,-9252.574275,1110.308913,842.705048
3325.109443,-9252.574275,814.226536,1762.019645
3325.109781,-11177.109724,222.061783,1915.238745
3325.110118,-11695.253884,592.164754,612.876398
3325.110455,-8808.450710,1184.329507,-995.924147
3325.110792,-7624.121203,2220.617826,0.000000
3325.111130,-9992.780217,1036.288319,-383.047749
3325.111467,-11029.068536,666.185348,-2451.505594
3325.111804,-8364.327145,1184.329507,-3064.381992
3325.112142,-7772.162391,1406.391290,-919.314598
3325.112479,-9548.656652,-592.164754,383.047749
3325.112816,-11325.150913,-1406.391290,306.438199
3325.113154,-9400.615463,444.123565,0.000000
3325.113491,-9030.512492,370.102971,689.485948
3325.113828,-10658.965565,74.020594,1532.190996
3325.114166,-11769.274478,-1036.288319,842.705048
3325.114503,-10066.800811,-1332.370696,612.876398
3325.114840,-6957.935855,0.000000,1302.362347
3325.115178,-9400.615463,-148.041188,2451.505594
3325.115515,-12509.480420,-444.123565,1608.800546
3325.115852,-11399.171507,222.061783,-1225.752797
3325.116189,-8586.388927,814.226536,-2145.067394
3325.116527,-9770.718434,296.082377,-76.609550
3325.116864,-12139.377449,-666.185348,229.828649
3325.117201,-10436.903782,-962.267725,-995.924147
3325.117539,-8216.285956,-222.061783,-383.047749
3325.117876,-9474.636058,-888.247130,1762.019645
3325.118213,-12731.542202,-2072.576638,2068.457845
3325.118551,-11769.274478,-1332.370696,-306.438199
3325.118888,-8586.388927,-1110.308913,-1532.190996
3325.119225,-8660.409521,-888.247130,229.828649
3325.119563,-10584.944971,-1998.556043,536.266849
3325.119900,-10066.800811,-1184.329507,-995.924147
3325.120237,-8216.285956,-1332.370696,-1302.362347
3325.120574,-8660.409521,-962.267725,612.876398
3325.120912,-12065.356855,-1480.411884,1532.190996
3325.121249,-11917.315666,-1480.411884,1991.848295
3325.121586,-8512.368333,0.000000,689.485948
3325.121924,-9104.533087,1036.288319,2757.943793
3325.122261,-12065.356855,1258.350101,2528.115143
3325.122598,-12139.377449,1184.329507,459.657299
3325.122936,-8808.450710,592.164754,-306.438199
3325.123273,-7624.121203,1628.453072,1378.971896
3325.123610,-10140.821405,1110.308913,2145.067394
3325.123948,-11621.233289,740.205942,459.657299
3325.124285,-9474.636058,1998.556043,-2298.286494
3325.124622,-7550.100608,2146.597232,-1532.190996
3325.124960,-10214.842000,814.226536,-689.485948
3325.125297,-11769.274478,0.000000,-1302.362347
3325.125634,-9770.718434,222.061783,-1532.190996
3325.125971,-7846.182985,-370.102971,0.000000
3325.126309,-10214.842000,-1776.494261,1532.190996
3325.126646,-11769.274478,-2220.617826,1072.533697
3325.126983,-9992.780217,-1480.411884,76.609550
3325.127321,-7772.162391,-1036.288319,-76.609550
3325.127658,-9918.759623,-1184.329507,612.876398
3325.127995,-12139.377449,-1480.411884,-76.609550
3325.128333,-9918.759623,-1850.514855,-2451.505594
3325.128670,-7846.182985,-888.247130,766.095498
3325.129007,-10140.821405,-1406.391290,3064.381992
3325.129345,-12583.501014,-1998.556043,2528.115143
3325.129682,-11251.130318,-888.247130,229.828649
3325.130019,-8512.368333,-222.061783,919.314598
3325.130356,-9326.594869,-296.082377,1378.971896
3325.130694,-11399.171507,-814.226536,766.095498
3325.131031,-11547.212695,-222.061783,-459.657299
3325.131368,-7920.203579,-370.102971,-919.314598
3325.131706,-8882.471304,0.000000,1378.971896
3325.132043,-11473.192101,-592.164754,1225.752797
3325.132380,-11917.315666,0.000000,-612.876398
3325.132718,-9178.553681,0.000000,-2298.286494
3325.133055,-9030.512492,296.082377,-1072.533697
3325.133392,-10510.924376,-1036.288319,-229.828649
3325.133730,-10658.965565,-1110.308913,-689.485948
3325.134067,-7476.080014,0.000000,-383.047749
3325.134404,-7994.224174,-222.061783,2374.896044
3325.134742,-11991.336260,-1258.350101,2298.286494
3325.135079,-12879.583391,74.020594,766.095498
3325.135416,-9178.553681,888.247130,-153.219100
3325.135753,-7920.203579,1110.308913,1378.971896
3325.136091,-10436.903782,296.082377,1225.752797
3325.136428,-11917.315666,1184.329507,153.219100
3325.136765,-8660.409521,1776.494261,-689.485948
3325.137103,-8734.430116,1480.411884,1302.362347
3325.137440,-11399.171507,814.226536,2451.505594
3325.137777,-12657.521608,296.082377,306.438199
3325.138115,-9326.594869,1332.370696,-1685.410096
3325.138452,-7698.141797,740.205942,-842.705048
3325.138789,-9770.718434,0.000000,306.438199
3325.139127,-11399.171507,-666.185348,-1225.752797
3325.139464,-9622.677246,0.000000,-2145.067394
3325.139801,-7994.224174,74.020594,-1149.143247
3325.140138,-9622.677246,-2072.576638,459.657299
3325.140476,-12139.377449,-2294.638420,383.047749
3325.140813,-11029.068536,-1776.494261,-612.876398
3325.141150,-8586.388927,-1332.370696,-153.219100
3325.141488,-9548.656652,-2220.617826,-229.828649
3325.141825,-11843.295072,-2072.576638,306.438199
3325.142162,-9696.697840,-1850.514855,229.828649
3325.142500,-7476.080014,-1184.329507,536.266849
3325.142837,-10214.842000,-1776.494261,2911.162892
3325.143174,-13101.645173,-1258.350101,3217.601092
3325.143512,-11843.295072,-296.082377,2451.505594
3325.143849,-8660.409521,592.164754,1072.533697
3325.144186,-9548.656652,1406.391290,1915.238745
3325.144524,-12065.356855,444.123565,2145.067394
3325.144861,-11917.315666,740.205942,536.266849
3325.145198,-7328.038826,1036.288319,-1838.629195
3325.145535,-7846.182985,0.000000,1072.533697
3325.145873,-10362.883188,-888.247130,1838.629195
3325.146210,-10584.944971,74.020594,0.000000
3325.146547,-8956.491898,888.247130,-2145.067394
3325.146885,-8660.409521,1258.350101,-1225.752797
3325.147222,-10658.965565,-740.205942,-459.657299
3325.147559,-11991.336260,-592.164754,-306.438199
3325.147897,-7846.182985,0.000000,-689.485948
3325.148234,-7994.224174,74.020594,2374.896044
3325.148571,-11547.212695,-740.205942,2757.943793
3325.148909,-12879.583391,-888.247130,459.657299
3325.149246,-9178.553681,370.102971,-919.314598
3325.149584,-8438.347739,0.000000,383.047749
3325.149921,-11177.109724,0.000000,919.314598
3325.150259,-11843.295072,-1110.308913,-689.485948
3325.150596,-8586.388927,1258.350101,-919.314598
3325.150933,-8364.327145,592.164754,1225.752797
3325.151271,-11029.068536,-296.082377,2528.115143
3325.151608,-13545.768739,-740.205942,1685.410096
3325.151946,-10955.047942,370.102971,612.876398
3325.152283,-8660.409521,740.205942,153.219100
3325.152621,-9918.759623,-888.247130,153.219100
3325.152958,-11473.192101,-1776.494261,-612.876398
3325.153295,-8586.388927,-1036.288319,-2604.724693
3325.153633,-7402.059420,-1036.288319,-766.095498
3325.153970,-9326.594869,-1776.494261,0.000000
3325.154308,-12213.398043,-2664.741391,-153.219100
3325.154645,-11103.089130,-2072.576638,-1378.971896
3325.154982,-7254.018232,-1332.370696,-2604.724693
3325.155320,-8734.430116,-1036.288319,612.876398
3325.155657,-11843.295072,-1628.453072,766.095498
3325.155995,-10140.821405,-1110.308913,-995.924147
3325.156332,-8660.409521,74.020594,0.000000
3325.156670,-9992.780217,-962.267725,2987.772442
3325.157007,-12583.501014,-518.144159,2911.162892
3325.157344,-12065.356855,0.000000,1608.800546
3325.157682,-9548.656652,1480.411884,612.876398
3325.158019,-9474.636058,1480.411884,1378.971896
3325.158357,-11251.130318,1406.391290,995.924147
3325.158694,-10881.027347,1924.535449,-459.657299
3325.159031,-8956.491898,2294.638420,-919.314598
3325.159369,-9030.512492,2072.576638,689.485948
3325.159706,-11547.212695,814.226536,0.000000
3325.160044,-11769.274478,888.247130,0.000000
3325.160381,-8808.450710,592.164754,-995.924147
3325.160719,-8216.285956,888.247130,-306.438199
3325.161056,-10436.903782,74.020594,-612.876398
3325.161393,-11177.109724,-518.144159,-1302.362347
3325.161731,-7846.182985,-888.247130,-1991.848295
3325.162068,-6883.915261,-1332.370696,306.438199
3325.162406,-10288.862594,-1258.350101,1685.410096
3325.162743,-11917.315666,-2442.679609,536.266849
3325.163081,-9400.615463,-518.144159,-1072.533697
3325.163418,-7920.203579,-740.205942,459.657299
3325.163755,-9992.780217,-740.205942,1455.581446
3325.164093,-11621.233289,-1480.411884,459.657299
3325.164430,-10066.800811,0.000000,-306.438199
3325.164768,-9474.636058,74.020594,1378.971896
3325.165105,-11399.171507,-518.144159,2298.286494
3325.165442,-12509.480420,-1258.350101,2528.115143
3325.165780,-10362.883188,0.000000,153.219100
3325.166117,-7994.224174,0.000000,1072.533697
3325.166455,-10510.924376,444.123565,1608.800546
3325.166792,-11621.233289,0.000000,-842.705048
3325.167130,-10140.821405,0.000000,-1378.971896
3325.167467,-8512.368333,-148.041188,-995.924147
3325.167804,-9252.574275,-1110.308913,0.000000
3325.168142,-11103.089130,-1110.308913,689.485948
3325.168479,-10658.965565,-1406.391290,306.438199
3325.168817,-7920.203579,-1036.288319,153.219100
3325.169154,-9030.512492,-1258.350101,306.438199
3325.169492,-11103.089130,-1258.350101,842.705048
3325.169829,-11399.171507,-666.185348,0.000000
3325.170166,-8660.409521,-1480.411884,-306.438199
3325.170504,-8068.244768,-1036.288319,919.314598
3325.170841,-10214.842000,-1406.391290,1915.238745
3325.171179,-11177.109724,518.144159,2451.505594
3325.171516,-9104.533087,666.185348,229.828649
3325.171853,-10362.883188,1850.514855,153.219100
3325.172191,-11399.171507,1036.288319,-766.095498
3325.172528,-11251.130318,1036.288319,-1225.752797
3325.172866,-7402.059420,0.000000,-1991.848295
3325.173203,-7105.977043,518.144159,153.219100
3325.173541,-10214.842000,-666.185348,1378.971896
3325.173878,-11769.274478,-666.185348,842.705048
3325.174215,-9474.636058,444.123565,-842.705048
3325.174553,-9474.636058,444.123565,0.000000
3325.174890,-10955.047942,74.020594,0.000000
3325.175228,-11917.315666,-592.164754,-1532.190996
3325.175565,-9030.512492,-518.144159,-2987.772442
3325.175902,-7179.997637,-962.267725,-1225.752797
3325.176240,-9400.615463,-2294.638420,306.438199
3325.176577,-11843.295072,-2368.659014,536.266849
3325.176915,-10510.924376,-1776.494261,-383.047749
3325.177252,-9030.512492,-1776.494261,689.485948
3325.177590,-9918.759623,-1554.432478,995.924147
3325.177927,-11103.089130,-1554.432478,1149.143247
3325.178264,-10140.821405,-518.144159,842.705048
3325.178602,-8438.347739,-666.185348,1455.581446
3325.178939,-10584.944971,-444.123565,3294.210641
3325.179277,-11769.274478,0.000000,3064.381992
3325.179614,-10807.006753,814.226536,1302.362347
3325.179952,-9252.574275,1036.288319,1378.971896
3325.180289,-10140.821405,296.082377,1378.971896
3325.180626,-11103.089130,666.185348,842.705048
3325.180964,-10214.842000,1332.370696,-536.266849
3325.181301,-8216.285956,1110.308913,-766.095498
3325.181639,-9474.636058,518.144159,0.000000
3325.181976,-11251.130318,518.144159,0.000000
3325.182313,-11177.109724,1258.350101,-459.657299
3325.182651,-8956.491898,296.082377,-1149.143247
3325.182988,-9474.636058,888.247130,-153.219100
3325.183326,-11251.130318,-518.144159,-995.924147
3325.183663,-10362.883188,0.000000,-1302.362347
3325.184001,-7550.100608,-370.102971,-1149.143247
3325.184338,-8586.388927,-740.205942,1072.533697
3325.184675,-10436.903782,-1110.308913,1378.971896
3325.185013,-12139.377449,-666.185348,919.314598
3325.185350,-9844.739029,222.061783,306.438199
3325.185688,-9474.636058,0.000000,306.438199
3325.186025,-10214.842000,0.000000,995.924147
3325.186363,-10732.986159,222.061783,0.000000
3325.186700,-8512.368333,518.144159,-612.876398
3325.187037,-8808.450710,518.144159,995.924147
3325.187375,-10881.027347,0.000000,1225.752797
3325.187712,-12435.459826,222.061783,153.219100
3325.188050,-10584.944971,592.164754,-1762.019645
3325.188387,-8956.491898,222.061783,-1149.143247
3325.188724,-10288.862594,-518.144159,-459.657299
3325.189062,-11325.150913,-1258.350101,-536.266849
3325.189399,-9252.574275,-592.164754,-2757.943793
3325.189737,-8290.306550,-888.247130,-1378.971896
3325.190074,-9548.656652,-1998.556043,919.314598
3325.190412,-11917.315666,-2664.741391,383.047749
3325.190749,-10658.965565,-1258.350101,0.000000
3325.191086,-8586.388927,-666.185348,306.438199
3325.191424,-9474.636058,-1406.391290,995.924147
3325.191761,-10881.027347,-1850.514855,612.876398
3325.192099,-10362.883188,-962.267725,1149.143247
3325.192436,-8882.471304,-296.082377,1378.971896
3325.192773,-9400.615463,-1184.329507,2911.162892
3325.193111,-11399.171507,-666.185348,2451.505594
3325.193448,-10510.924376,444.123565,2145.067394
3325.193786,-8956.491898,740.205942,612.876398
3325.194123,-9548.656652,666.185348,1532.190996
3325.194461,-11547.212695,592.164754,1149.143247
3325.194798,-10881.027347,1036.288319,0.000000
3325.195135,-7994.224174,518.144159,-1302.362347
3325.195473,-8216.285956,666.185348,842.705048
3325.195810,-12065.356855,-740.205942,459.657299
3325.196148,-11473.192101,-962.267725,-766.095498
3325.196485,-8586.388927,444.123565,-1762.019645
3325.196823,-8660.409521,148.041188,-919.314598
3325.197160,-10584.944971,-1628.453072,-689.485948
3325.197497,-11325.150913,-1036.288319,-1532.190996
3325.197835,-8586.388927,-740.205942,-1762.019645
3325.198172,-7846.182985,-1702.473667,1072.533697
3325.198510,-11029.068536,-2220.617826,2145.067394
3325.198847,-12509.480420,-1480.411884,1378.971896
3325.199184,-9474.636058,-370.102971,-1072.533697
3325.199522,-8512.368333,-74.020594,842.705048
3325.199859,-11547.212695,-592.164754,1225.752797
3325.200197,-11917.315666,-1332.370696,536.266849
3325.200534,-8290.306550,0.000000,-919.314598
3325.200872,-8290.306550,666.185348,919.314598
3325.201209,-10955.047942,0.000000,1378.971896
3325.201546,-11843.295072,-740.205942,76.609550
3325.201884,-10807.006753,296.082377,0.000000
3325.202221,-8660.409521,296.082377,459.657299
3325.202559,-9474.636058,222.061783,536.266849
3325.202896,-11991.336260,-518.144159,-306.438199
3325.203234,-9252.574275,888.247130,-1685.410096
3325.203571,-7105.977043,444.123565,-1072.533697
3325.203908,-10140.821405,-592.164754,1072.533697
3325.204246,-12509.480420,-148.041188,1149.143247
3325.204583,-11547.212695,-296.082377,0.000000
3325.204921,-8512.368333,370.102971,0.000000
3325.205258,-8660.409521,222.061783,1302.362347
3325.205595,-11917.315666,-740.205942,1838.629195
3325.205933,-10362.883188,592.164754,229.828649
3325.206270,-7476.080014,888.247130,0.000000
3325.206608,-9696.697840,740.205942,2834.553343
3325.206945,-12213.398043,222.061783,1915.238745
3325.207283,-11325.150913,666.185348,919.314598
3325.207620,-8512.368333,962.267725,459.657299
3325.207957,-9104.533087,740.205942,1762.019645
3325.208295,-10732.986159,0.000000,1532.190996
3325.208632,-11177.109724,-148.041188,-153.219100
3325.208970,-8068.244768,74.020594,-1072.533697
3325.209307,-8068.244768,0.000000,0.000000
3325.209644,-11325.150913,-666.185348,229.828649
3325.209982,-11843.295072,-814.226536,-1762.019645
3325.210319,-8216.285956,-814.226536,-2604.724693
3325.210657,-7698.141797,-148.041188,-842.705048
3325.210994,-10658.965565,-1702.473667,-919.314598
3325.211332,-12509.480420,-2220.617826,-459.657299
3325.211669,-9844.739029,-1628.453072,-1685.410096
3325.212006,-8586.388927,-1184.329507,612.876398
3325.212344,-11251.130318,-1850.514855,1532.190996
3325.212681,-12805.562797,-2146.597232,2145.067394
3325.213019,-10288.862594,-1702.473667,0.000000
3325.213356,-8512.368333,-740.205942,766.095498
3325.213694,-10436.903782,-1110.308913,1991.848295
3325.214031,-12435.459826,-888.247130,1072.533697
3325.214368,-9992.780217,444.123565,-306.438199
3325.214706,-7846.182985,1110.308913,842.705048
3325.215043,-9844.739029,148.041188,1455.581446
3325.215381,-12287.418637,740.205942,1302.362347
3325.215718,-11843.295072,1406.391290,229.828649
3325.216055,-8290.306550,1628.453072,-689.485948
3325.216393,-9104.533087,296.082377,0.000000
3325.216730,-10881.027347,0.000000,306.438199
3325.217068,-9104.533087,888.247130,-1072.533697
3325.217405,-7550.100608,962.267725,-919.314598
3325.217743,-9104.533087,296.082377,-306.438199
3325.218080,-11103.089130,-740.205942,-536.266849
3325.218417,-11177.109724,370.102971,-306.438199
3325.218755,-7698.141797,74.020594,-612.876398
3325.219092,-8438.347739,0.000000,383.047749
3325.219430,-11103.089130,-1702.473667,919.314598
3325.219767,-10732.986159,-518.144159,0.000000
3325.220105,-7920.203579,148.041188,306.438199
3325.220442,-9178.553681,-666.185348,2145.067394
3325.220779,-12213.398043,-962.267725,2528.115143
3325.221117,-12731.542202,148.041188,842.705048
3325.221454,-9104.533087,518.144159,-612.876398
3325.221792,-9030.512492,-296.082377,1302.362347
3325.222129,-10732.986159,-814.226536,1225.752797
3325.222466,-11621.233289,0.000000,0.000000
3325.222804,-8734.430116,-592.164754,-919.314598
3325.223141,-8808.450710,-518.144159,459.657299
3325.223479,-11473.192101,-2072.576638,842.705048
3325.223816,-11991.336260,-1924.535449,459.657299
3325.224154,-9326.594869,-740.205942,-1685.410096
3325.224491,-9252.574275,-1110.308913,0.000000
3325.224828,-9844.739029,-1406.391290,-2068.457845
3325.225166,-10658.965565,-2516.700203,-1762.019645
3325.225503,-8956.491898,-2368.659014,-612.876398
3325.225841,-6883.915261,-2072.576638,689.485948
3325.226178,-10436.903782,-2368.659014,2221.676944
3325.226515,-12805.562797,-1998.556043,2145.067394
3325.226853,-9844.739029,-370.102971,0.000000
3325.227190,-8882.471304,0.000000,766.095498
3325.227528,-10881.027347,-74.020594,2374.896044
3325.227865,-11621.233289,74.020594,1915.238745
3325.228203,-9622.677246,1332.370696,842.705048
3325.228540,-8364.327145,1702.473667,1225.752797
3325.228877,-10584.944971,962.267725,2374.896044
3325.229215,-12879.583391,1258.350101,1991.848295
3325.229552,-10214.842000,1702.473667,0.000000
3325.229890,-7994.224174,2516.700203,-383.047749
3325.230227,-9770.718434,1702.473667,919.314598
3325.230565,-11177.109724,666.185348,459.657299
3325.230902,-9770.718434,1258.350101,-689.485948
3325.231239,-8216.285956,888.247130,-612.876398
3325.231577,-9992.780217,222.061783,689.485948
3325.231914,-11547.212695,-518.144159,0.000000
3325.232252,-10510.924376,0.000000,-1608.800546
3325.232589,-7550.100608,-666.185348,-2451.505594
3325.232926,-8364.327145,-1036.288319,0.000000
3325.233264,-10066.800811,-1776.494261,-612.876398
3325.233601,-10066.800811,-962.267725,-1072.533697
3325.233939,-7402.059420,-1184.329507,-1302.362347
3325.234276,-9622.677246,-962.267725,919.314598
3325.234614,-12287.418637,-2368.659014,919.314598
3325.234951,-11769.274478,-1406.391290,1072.533697
3325.235288,-8586.388927,-666.185348,612.876398
3325.235626,-9326.594869,-296.082377,2298.286494
3325.235963,-11399.171507,-888.247130,1762.019645
3325.236301,-12953.603985,-1036.288319,766.095498
3325.236638,-8956.491898,-1110.308913,-306.438199
3325.236976,-9252.574275,-444.123565,1149.143247
3325.237313,-11399.171507,-740.205942,1302.362347
3325.237650,-11473.192101,-962.267725,-459.657299
3325.237988,-8882.471304,148.041188,-1685.410096
3325.238325,-9178.553681,518.144159,-612.876398
3325.238663,-10658.965565,-666.185348,-766.095498
3325.239000,-11695.253884,-814.226536,-612.876398
3325.239337,-9252.574275,-666.185348,-842.705048
3325.239675,-8290.306550,-296.082377,689.485948
3325.240012,-10584.944971,-1110.308913,2757.943793
3325.240350,-11325.150913,-1406.391290,2604.724693
3325.240687,-9104.533087,74.020594,0.000000
3325.241025,-8734.430116,518.144159,383.047749
3325.241362,-9918.759623,222.061783,842.705048
3325.241699,-10732.986159,222.061783,459.657299
3325.242037,-9548.656652,1776.494261,76.609550
3325.242374,-8438.347739,2590.720797,306.438199
3325.242712,-10807.006753,1776.494261,1532.190996
3325.243049,-13101.645173,1110.308913,1072.533697
3325.243386,-11103.089130,2072.576638,536.266849
3325.243724,-8438.347739,2294.638420,-612.876398
3325.244061,-9178.553681,1110.308913,0.000000
3325.244399,-10881.027347,0.000000,0.000000
3325.244736,-9696.697840,518.144159,-1225.752797
3325.245074,-7772.162391,296.082377,-842.705048
3325.245411,-10288.862594,666.185348,612.876398
3325.245748,-11843.295072,-296.082377,-1532.190996
3325.246086,-11473.192101,-222.061783,-2834.553343
3325.246423,-8512.368333,-888.247130,-3140.991542
3325.246761,-8438.347739,-1258.350101,-536.266849
3325.247098,-10362.883188,-2442.679609,689.485948
3325.247436,-10658.965565,-2220.617826,536.266849
3325.247773,-8216.285956,-2072.576638,-536.266849
3325.248110,-9770.718434,-2146.597232,2374.896044
3325.248448,-11769.274478,-2590.720797,1762.019645
3325.248785,-12287.418637,-1924.535449,2374.896044
3325.249123,-9696.697840,-814.226536,995.924147
3325.249460,-8660.409521,-1184.329507,1762.019645
3325.249797,-10510.924376,-666.185348,1762.019645
3325.250135,-11547.212695,-666.185348,1838.629195
3325.250472,-8734.430116,-222.061783,0.000000
3325.250809,-8956.491898,0.000000,1072.533697
3325.251147,-11917.315666,0.000000,2145.067394
3325.251484,-12509.480420,0.000000,842.705048
3325.251821,-9770.718434,740.205942,-1072.533697
3325.252159,-8290.306550,888.247130,-459.657299
3325.252496,-9326.594869,0.000000,-459.657299
3325.252833,-10436.903782,-1184.329507,-1608.800546
3325.253170,-8808.450710,222.061783,-1991.848295
3325.253508,-8216.285956,-296.082377,-383.047749
3325.253845,-10288.862594,0.000000,1149.143247
3325.254182,-12731.542202,-370.102971,1072.533697
3325.254520,-11325.150913,444.123565,306.438199
3325.254857,-8882.471304,592.164754,-306.438199
3325.255194,-9474.636058,-592.164754,1225.752797
3325.255532,-10362.883188,-1480.411884,2068.457845
3325.255869,-9474.636058,-888.247130,1532.190996
3325.256206,-7846.182985,-296.082377,842.705048
3325.256544,-9400.615463,0.000000,1762.019645
3325.256881,-11769.274478,444.123565,1608.800546
3325.257218,-11843.295072,592.164754,-766.095498
3325.257556,-8290.306550,1702.473667,-1608.800546
3325.257893,-9326.594869,1110.308913,-612.876398
3325.258230,-10658.965565,0.000000,0.000000
3325.258568,-10436.903782,0.000000,-842.705048
3325.258905,-8586.388927,-296.082377,-842.705048
3325.259242,-9844.739029,-444.123565,919.314598
3325.259580,-11177.109724,-1184.329507,536.266849
3325.259917,-11991.336260,-666.185348,153.219100
3325.260254,-9400.615463,-592.164754,-2451.505594
3325.260592,-9030.512492,-1036.288319,-689.485948
3325.260929,-10584.944971,-1776.494261,-689.485948
3325.261266,-10955.047942,-1554.432478,-919.314598
3325.261604,-8882.471304,-1332.370696,0.000000
3325.261941,-8586.388927,-1258.350101,1608.800546
3325.262278,-10436.903782,-1850.514855,2528.115143
3325.262615,-12139.377449,-1110.308913,2068.457845
3325.262953,-10140.821405,370.102971,919.314598
3325.263290,-9474.636058,962.267725,1302.362347
3325.263627,-10436.903782,-222.061783,1608.800546
3325.263965,-11325.150913,-148.041188,2145.067394
3325.264302,-8660.409521,1036.288319,766.095498
3325.264639,-7402.059420,1554.432478,2145.067394
3325.264977,-9770.718434,814.226536,2298.286494
3325.265314,-12731.542202,1258.350101,1072.533697
3325.265651,-10066.800811,2590.720797,-1762.019645
3325.265989,-8364.327145,1998.556043,-1225.752797
3325.266326,-9992.780217,1554.432478,-306.438199
3325.266663,-11251.130318,296.082377,-1532.190996
3325.267001,-9252.574275,370.102971,-2834.553343
3325.267338,-7254.018232,-222.061783,-1302.362347
3325.267675,-9400.615463,-1998.556043,1455.581446
3325.268013,-11843.295072,-2294.638420,1072.533697
3325.268350,-10362.883188,-962.267725,-536.266849
3325.268687,-8364.327145,-148.041188,-919.314598
3325.269025,-9992.780217,-1332.370696,0.000000
3325.269362,-11029.068536,-1628.453072,0.000000
3325.269699,-10881.027347,-1258.350101,-306.438199
3325.270037,-7772.162391,-888.247130,-383.047749
3325.270374,-9178.553681,-518.144159,1225.752797
3325.270711,-12213.398043,-1332.370696,2068.457845
3325.271049,-12509.480420,-148.041188,995.924147
3325.271386,-8586.388927,0.000000,-1225.752797
3325.271723,-9030.512492,740.205942,383.047749
3325.272060,-11621.233289,-1406.391290,766.095498
3325.272398,-11621.233289,-222.061783,-153.219100
3325.272735,-7994.224174,0.000000,-1149.143247
3325.273072,-9400.615463,0.000000,919.314598
3325.273410,-11991.336260,-1480.411884,2068.457845
3325.273747,-12287.418637,-1036.288319,229.828649
3325.274084,-8660.409521,0.000000,-1838.629195
3325.274422,-8216.285956,-370.102971,-919.314598
3325.274759,-10807.006753,-1628.453072,-306.438199
3325.275096,-11399.171507,-888.247130,-1608.800546
3325.275434,-7846.182985,-444.123565,-1915.238745
3325.275771,-8216.285956,666.185348,919.314598
3325.276108,-10955.047942,-962.267725,1685.410096
3325.276446,-13471.748144,-1332.370696,2451.505594
3325.276783,-9918.759623,592.164754,1455.581446
3325.277120,-7550.100608,888.247130,2068.457845
3325.277458,-10362.883188,1258.350101,2757.943793
3325.277795,-11843.295072,74.020594,1532.190996
3325.278132,-8808.450710,1702.473667,-536.266849
3325.278470,-7179.997637,1184.329507,383.047749
3325.278807,-11325.150913,1036.288319,2374.896044
3325.279144,-13249.686362,370.102971,612.876398
3325.279482,-10584.944971,888.247130,-1762.019645
3325.279819,-7254.018232,1554.432478,-1225.752797
3325.280156,-9252.574275,-74.020594,995.924147
3325.280494,-10732.986159,-444.123565,-153.219100
3325.280831,-10362.883188,-1110.308913,-1762.019645
3325.281168,-7476.080014,0.000000,-1302.362347
3325.281505,-9696.697840,-1258.350101,76.609550
3325.281843,-13249.686362,-2220.617826,1378.971896
3325.282180,-11177.109724,-1332.370696,-689.485948
3325.282517,-7994.224174,-666.185348,-1915.238745
3325.282855,-9622.677246,-1776.494261,383.047749
3325.283192,-11399.171507,-1702.473667,-383.047749
3325.283529,-10955.047942,-2442.679609,76.609550
3325.283867,-7846.182985,-1258.350101,76.609550
3325.284204,-9178.553681,-370.102971,2834.553343
3325.284541,-13101.645173,-1628.453072,4136.915689
3325.284879,-12509.480420,-740.205942,1685.410096
3325.285216,-8216.285956,740.205942,-306.438199
3325.285553,-9326.594869,1258.350101,1072.533697
3325.285891,-11843.295072,-296.082377,459.657299
3325.286228,-11177.109724,0.000000,-383.047749
3325.286565,-7772.162391,1036.288319,-1302.362347
3325.286903,-7994.224174,592.164754,536.266849
3325.287240,-11177.109724,-1036.288319,383.047749
3325.287577,-12287.418637,148.041188,0.000000
3325.287915,-8068.244768,444.123565,-2451.505594
3325.288252,-8364.327145,814.226536,-766.095498
3325.288589,-10510.924376,-814.226536,-766.095498
3325.288927,-10807.006753,-1332.370696,-995.924147
3325.289264,-7994.224174,0.000000,-919.314598
3325.289601,-7920.203579,-888.247130,766.095498
3325.289939,-10732.986159,-222.061783,2145.067394
3325.290276,-13175.665768,-1850.514855,1685.410096
3325.290613,-10658.965565,0.000000,0.000000
3325.290950,-7994.224174,-296.082377,919.314598
3325.291288,-9844.739029,-666.185348,2451.505594
3325.291625,-11621.233289,-444.123565,1762.019645
3325.291962,-9622.677246,444.123565,0.000000
3325.292300,-8660.409521,1184.329507,689.485948
3325.292637,-11325.150913,-1184.329507,1991.848295
3325.292974,-12953.603985,-444.123565,2145.067394
3325.293312,-10510.924376,1480.411884,-229.828649
3325.293649,-8512.368333,1110.308913,76.609550
3325.293986,-9918.759623,-370.102971,-229.828649
3325.294324,-11399.171507,-444.123565,-1149.143247
3325.294661,-10658.965565,0.000000,-1762.019645
3325.294998,-7994.224174,-296.082377,-2834.553343
3325.295336,-9622.677246,-1110.308913,-306.438199
3325.295673,-11991.336260,-962.267725,-1072.533697
3325.296010,-10362.883188,-888.247130,-1685.410096
3325.296348,-7920.203579,-666.185348,-995.924147
3325.296685,-9030.512492,-1480.411884,459.657299
3325.297022,-11103.089130,-1554.432478,995.924147
3325.297360,-11399.171507,-962.267725,383.047749
3325.297697,-7994.224174,-1184.329507,536.266849
3325.298034,-8364.327145,-740.205942,3294.210641
3325.298372,-11695.253884,-1258.350101,3524.039291
3325.298709,-11843.295072,592.164754,2604.724693
3325.299046,-9178.553681,1406.391290,0.000000
3325.299384,-9548.656652,1924.535449,1072.533697
3325.299721,-11029.068536,888.247130,-153.219100
3325.300058,-11177.109724,1554.432478,-459.657299
3325.300395,-7772.162391,1628.453072,-1915.238745
3325.300733,-7994.224174,666.185348,0.000000
3325.301070,-10214.842000,740.205942,1455.581446
3325.301407,-11325.150913,0.000000,536.266849
3325.301745,-10214.842000,1110.308913,-995.924147
3325.302082,-9474.636058,518.144159,-689.485948
3325.302419,-11843.295072,370.102971,-153.219100
3325.302757,-11399.171507,-1628.453072,-1455.581446
3325.303094,-8512.368333,-370.102971,-1685.410096
3325.303431,-7920.203579,-1184.329507,1302.362347
3325.303769,-10436.903782,-1850.514855,1455.581446
3325.304106,-11843.295072,-1924.535449,229.828649
3325.304443,-10732.986159,-962.267725,-689.485948
3325.304781,-8364.327145,-814.226536,383.047749
3325.305118,-10584.944971,-1628.453072,1455.581446
3325.305455,-11399.171507,-1776.494261,1608.800546
3325.305793,-9548.656652,0.000000,689.485948
3325.306130,-8734.430116,-962.267725,919.314598
3325.306467,-11029.068536,-888.247130,2374.896044
3325.306805,-11843.295072,-1406.391290,2068.457845
3325.307142,-10955.047942,-666.185348,1072.533697
3325.307479,-8216.285956,0.000000,-153.219100
3325.307817,-9696.697840,-370.102971,0.000000
3325.308154,-10732.986159,-888.247130,0.000000
3325.308491,-9474.636058,-296.082377,-1838.629195
3325.308829,-7994.224174,148.041188,-1455.581446
3325.309166,-9844.739029,-518.144159,383.047749
3325.309503,-12065.356855,-1406.391290,76.609550
3325.309840,-11769.274478,-444.123565,-229.828649
3325.310178,-9178.553681,-296.082377,0.000000
3325.310515,-9178.553681,-592.164754,1072.533697
3325.310852,-10436.903782,-962.267725,689.485948
3325.311190,-10658.965565,0.000000,919.314598
3325.311527,-9252.574275,-74.020594,0.000000
3325.311864,-9918.759623,0.000000,2068.457845
3325.312202,-12361.439231,222.061783,2604.724693
3325.312539,-11547.212695,444.123565,1072.533697
3325.312876,-8734.430116,2294.638420,0.000000
3325.313214,-8882.471304,1406.391290,842.705048
3325.313551,-10362.883188,1036.288319,689.485948
3325.313888,-10362.883188,148.041188,0.000000
3325.314226,-8808.450710,814.226536,-306.438199
3325.314563,-9252.574275,1110.308913,153.219100
