#time,accel_x,accel_y,accel_z
3217.737588,-10140.821405,0.000000,2298.286494
3217.737926,-9104.533087,-148.041188,1149.143247
3217.738264,-9326.594869,-814.226536,1225.752797
3217.738602,-9474.636058,-518.144159,689.485948
3217.738939,-10066.800811,-370.102971,536.266849
3217.739277,-9622.677246,-1036.288319,919.314598
3217.739615,-8734.430116,-1850.514855,536.266849
3217.739953,-9030.512492,-1924.535449,0.000000
3217.740291,-9400.615463,-2146.597232,0.000000
3217.740629,-9992.780217,-3330.926739,0.000000
3217.740966,-10214.842000,-1628.453072,153.219100
3217.741304,-10584.944971,-2590.720797,0.000000
3217.741642,-10288.862594,-1850.514855,383.047749
3217.741980,-11251.130318,-3034.844362,766.095498
3217.742318,-11251.130318,-2442.679609,689.485948
3217.742656,-10140.821405,-2368.659014,383.047749
3217.742993,-10140.821405,-2516.700203,1225.752797
3217.743331,-10214.842000,-2516.700203,2451.505594
3217.743669,-10732.986159,-2516.700203,1838.629195
3217.744007,-10658.965565,-1554.432478,2604.724693
3217.744345,-11103.089130,-888.247130,3600.648841
3217.744683,-10732.986159,-370.102971,3677.258390
3217.745021,-10955.047942,-962.267725,3907.087040
3217.745358,-10955.047942,-444.123565,3983.696590
3217.745696,-10214.842000,-814.226536,4136.915689
3217.746034,-9696.697840,-592.164754,4443.353888
3217.746372,-9030.512492,-74.020594,4290.134789
3217.746710,-8882.471304,-888.247130,3064.381992
3217.747048,-9696.697840,-1110.308913,3370.820191
3217.747385,-9474.636058,-2294.638420,2604.724693
3217.747723,-9178.553681,-666.185348,2681.334243
3217.748061,-8734.430116,-370.102971,2528.115143
3217.748399,-9178.553681,-2294.638420,995.924147
3217.748737,-9252.574275,-3182.885551,2221.676944
3217.749075,-9548.656652,-3997.112087,3600.648841
3217.749413,-9178.553681,-3701.029710,4519.963438
3217.749750,-9104.533087,-2960.823768,5439.278036
3217.750088,-10658.965565,-3552.988522,5439.278036
3217.750426,-11917.315666,-3330.926739,4749.792088
3217.750764,-10881.027347,-1998.556043,2911.162892
3217.751102,-10066.800811,-296.082377,1762.019645
3217.751440,-10584.944971,-2442.679609,766.095498
3217.751777,-10362.883188,-3478.967927,-153.219100
3217.752115,-9770.718434,-4293.194464,306.438199
3217.752453,-9252.574275,-3849.070898,1149.143247
3217.752791,-9474.636058,-2960.823768,689.485948
3217.753129,-11325.150913,-4071.132681,-383.047749
3217.753467,-11695.253884,-3034.844362,-1072.533697
3217.753804,-9548.656652,-2812.782580,-995.924147
3217.754142,-9474.636058,-2886.803174,229.828649
3217.754480,-10288.862594,-3034.844362,383.047749
3217.754818,-11177.109724,-3404.947333,-1455.581446
3217.755156,-10881.027347,-2664.741391,-2834.553343
3217.755494,-9992.780217,-2960.823768,-4673.182538
3217.755832,-9844.739029,-3775.050304,-3600.648841
3217.756169,-9326.594869,-4293.194464,-2757.943793
3217.756507,-7624.121203,-2812.782580,-2528.115143
3217.756845,-8660.409521,-1924.535449,-1455.581446
3217.757183,-10881.027347,-592.164754,-153.219100
3217.757521,-11473.192101,-814.226536,-612.876398
3217.757859,-10362.883188,518.144159,0.000000
3217.758196,-9474.636058,1554.432478,2068.457845
3217.758534,-10658.965565,2590.720797,4136.915689
3217.758872,-12287.418637,2442.679609,3524.039291
3217.759210,-11621.233289,1924.535449,1838.629195
3217.759548,-9696.697840,2812.782580,459.657299
3217.759886,-9844.739029,2812.782580,1532.190996
3217.760223,-10584.944971,2442.679609,1378.971896
3217.760561,-9178.553681,2812.782580,0.000000
3217.760899,-8364.327145,2590.720797,383.047749
3217.761237,-9918.759623,4367.215058,842.705048
3217.761574,-9844.739029,4145.153275,-1532.190996
3217.761912,-9548.656652,3330.926739,-2604.724693
3217.762249,-9770.718434,2368.659014,-1072.533697
3217.762587,-9770.718434,814.226536,2911.162892
3217.762924,-10584.944971,-74.020594,4596.572988
3217.763262,-9474.636058,-222.061783,2987.772442
3217.763600,-9474.636058,592.164754,1608.800546
3217.763937,-10214.842000,148.041188,1608.800546
3217.764275,-11251.130318,-1184.329507,536.266849
3217.764612,-10066.800811,-1110.308913,689.485948
3217.764950,-9178.553681,-518.144159,1991.848295
3217.765288,-9400.615463,814.226536,1455.581446
3217.765625,-10807.006753,518.144159,919.314598
3217.765963,-10436.903782,444.123565,536.266849
3217.766300,-9474.636058,-296.082377,2374.896044
3217.766638,-10732.986159,-222.061783,4136.915689
3217.766975,-12435.459826,0.000000,3830.477490
3217.767313,-11695.253884,0.000000,995.924147
3217.767651,-10510.924376,296.082377,-689.485948
3217.767988,-10510.924376,-1480.411884,-919.314598
3217.768326,-10362.883188,-1850.514855,-1685.410096
3217.768663,-9252.574275,-1998.556043,-1915.238745
3217.769001,-8660.409521,-888.247130,-2298.286494
3217.769339,-9252.574275,-74.020594,-2451.505594
3217.769676,-10807.006753,-592.164754,-3600.648841
3217.770014,-10288.862594,-962.267725,-3447.429741
3217.770351,-9400.615463,-1850.514855,-919.314598
3217.770689,-10510.924376,-1332.370696,1762.019645
3217.771026,-10955.047942,-740.205942,1838.629195
3217.771364,-9622.677246,-370.102971,0.000000
3217.771702,-9326.594869,-1406.391290,-306.438199
3217.772039,-10658.965565,-2072.576638,459.657299
3217.772377,-10362.883188,-1332.370696,0.000000
3217.772714,-8660.409521,-592.164754,229.828649
3217.773052,-8808.450710,74.020594,842.705048
3217.773390,-9844.739029,370.102971,0.000000
3217.773727,-10658.965565,814.226536,-383.047749
3217.774065,-10140.821405,666.185348,-383.047749
3217.774402,-9474.636058,0.000000,995.924147
3217.774740,-10732.986159,-740.205942,1915.238745
3217.775078,-10807.006753,-444.123565,689.485948
3217.775415,-9400.615463,-370.102971,-536.266849
3217.775753,-9548.656652,-1850.514855,-1072.533697
3217.776090,-10510.924376,-3256.906145,-612.876398
3217.776428,-10436.903782,-3108.864956,-459.657299
3217.776765,-9030.512492,-2812.782580,153.219100
3217.777103,-8956.491898,-2368.659014,0.000000
3217.777441,-10732.986159,-1924.535449,-153.219100
3217.777778,-11547.212695,-1998.556043,0.000000
3217.778116,-9252.574275,-2664.741391,229.828649
3217.778453,-9326.594869,-2220.617826,2145.067394
3217.778791,-11103.089130,-2072.576638,3370.820191
3217.779129,-11473.192101,-1480.411884,2145.067394
3217.779466,-9844.739029,-1184.329507,995.924147
3217.779804,-10436.903782,-1332.370696,1838.629195
3217.780141,-11251.130318,-2590.720797,1838.629195
3217.780479,-9474.636058,-1110.308913,1378.971896
3217.780816,-8586.388927,-222.061783,1838.629195
3217.781154,-9474.636058,1184.329507,1455.581446
3217.781492,-10807.006753,1406.391290,459.657299
3217.781829,-10510.924376,1702.473667,-689.485948
3217.782167,-8734.430116,1480.411884,76.609550
3217.782504,-9918.759623,1998.556043,1532.190996
3217.782842,-11843.295072,1850.514855,536.266849
3217.783180,-10140.821405,2442.679609,-1915.238745
3217.783517,-8734.430116,888.247130,-1685.410096
3217.783855,-9918.759623,0.000000,-766.095498
3217.784192,-9400.615463,-888.247130,-1302.362347
3217.784530,-9326.594869,296.082377,153.219100
3217.784867,-9178.553681,1554.432478,0.000000
3217.785205,-10288.862594,1406.391290,-919.314598
3217.785543,-11473.192101,2368.659014,-1225.752797
3217.785880,-10066.800811,1332.370696,-536.266849
3217.786218,-9474.636058,1110.308913,1149.143247
3217.786555,-10807.006753,1110.308913,1838.629195
3217.786893,-11177.109724,1998.556043,689.485948
3217.787231,-10140.821405,1924.535449,-383.047749
3217.787568,-10066.800811,0.000000,-459.657299
3217.787906,-10288.862594,-888.247130,-612.876398
3217.788243,-9918.759623,-1258.350101,-153.219100
3217.788581,-8512.368333,592.164754,-76.609550
3217.788919,-9252.574275,0.000000,-76.609550
3217.789256,-11029.068536,74.020594,-995.924147
3217.789594,-10436.903782,0.000000,-1762.019645
3217.789931,-10066.800811,-222.061783,76.609550
3217.790269,-10362.883188,-1702.473667,1378.971896
3217.790606,-11029.068536,-1702.473667,229.828649
3217.790944,-10881.027347,-1924.535449,-536.266849
3217.791282,-9178.553681,-1332.370696,-1762.019645
3217.791619,-10510.924376,-3849.070898,-459.657299
3217.791957,-11177.109724,-3701.029710,-229.828649
3217.792294,-8956.491898,-2664.741391,-383.047749
3217.792632,-8956.491898,-1850.514855,1455.581446
3217.792970,-9992.780217,-1036.288319,919.314598
3217.793307,-11103.089130,-814.226536,229.828649
3217.793645,-10732.986159,222.061783,1302.362347
3217.793982,-9474.636058,444.123565,2604.724693
3217.794320,-10955.047942,518.144159,3677.258390
3217.794657,-11843.295072,592.164754,2757.943793
3217.794995,-9696.697840,1480.411884,459.657299
3217.795333,-9104.533087,222.061783,612.876398
3217.795670,-10140.821405,-592.164754,842.705048
3217.796008,-9474.636058,-814.226536,229.828649
3217.796345,-8734.430116,0.000000,-229.828649
3217.796683,-7772.162391,592.164754,-689.485948
3217.797021,-10362.883188,592.164754,-766.095498
3217.797358,-11251.130318,1036.288319,-1685.410096
3217.797696,-8512.368333,222.061783,-1608.800546
3217.798033,-8734.430116,-296.082377,536.266849
3217.798371,-10732.986159,-1776.494261,2451.505594
3217.798708,-9992.780217,-1258.350101,1072.533697
3217.799046,-9178.553681,-1480.411884,-459.657299
3217.799384,-9770.718434,-2368.659014,0.000000
3217.799721,-10955.047942,-3552.988522,153.219100
3217.800059,-10214.842000,-3404.947333,0.000000
3217.800396,-8734.430116,-1776.494261,0.000000
3217.800734,-9178.553681,-1702.473667,1302.362347
3217.801072,-11251.130318,0.000000,0.000000
3217.801409,-10807.006753,-518.144159,-1762.019645
3217.801747,-10510.924376,-592.164754,153.219100
3217.802084,-10436.903782,-1332.370696,2298.286494
3217.802422,-11177.109724,-592.164754,1838.629195
3217.802760,-11103.089130,0.000000,383.047749
3217.803097,-10214.842000,-740.205942,-1149.143247
3217.803435,-10214.842000,-2072.576638,-919.314598
3217.803772,-11399.171507,-2442.679609,-1149.143247
3217.804110,-9474.636058,-1628.453072,-1302.362347
3217.804447,-8586.388927,-444.123565,-766.095498
3217.804785,-9844.739029,-370.102971,-612.876398
3217.805123,-10807.006753,-222.061783,-1915.238745
3217.805460,-10584.944971,-148.041188,-612.876398
3217.805798,-9178.553681,-1036.288319,1685.410096
3217.806135,-9918.759623,-370.102971,2681.334243
3217.806473,-11991.336260,518.144159,2145.067394
3217.806811,-9696.697840,962.267725,383.047749
3217.807148,-9030.512492,296.082377,766.095498
3217.807486,-10214.842000,-1184.329507,1685.410096
3217.807823,-10288.862594,296.082377,995.924147
3217.808161,-9030.512492,2146.597232,1455.581446
3217.808498,-8882.471304,2812.782580,229.828649
3217.808836,-10288.862594,2590.720797,0.000000
3217.809174,-10584.944971,3404.947333,-919.314598
3217.809511,-9252.574275,3034.844362,0.000000
3217.809849,-9622.677246,2368.659014,2528.115143
3217.810186,-10436.903782,1628.453072,2068.457845
3217.810524,-10214.842000,2368.659014,306.438199
3217.810862,-9548.656652,888.247130,-306.438199
3217.811199,-9622.677246,0.000000,-995.924147
3217.811537,-10732.986159,-1924.535449,-459.657299
3217.811874,-9696.697840,-1332.370696,-1532.190996
3217.812212,-8068.244768,-592.164754,-1072.533697
3217.812549,-9918.759623,-962.267725,0.000000
3217.812887,-10807.006753,0.000000,-1532.190996
3217.813225,-10732.986159,-518.144159,-1608.800546
3217.813562,-10510.924376,-1110.308913,842.705048
3217.813900,-9844.739029,-1776.494261,2911.162892
3217.814237,-11547.212695,-1850.514855,3524.039291
3217.814575,-10807.006753,-1332.370696,1685.410096
3217.814913,-9696.697840,-1258.350101,1072.533697
3217.815250,-11029.068536,-2146.597232,1455.581446
3217.815588,-11473.192101,-2516.700203,995.924147
3217.815925,-9104.533087,-1258.350101,459.657299
3217.816263,-9030.512492,-518.144159,919.314598
3217.816601,-10140.821405,592.164754,459.657299
3217.816938,-10881.027347,296.082377,-1455.581446
3217.817276,-9844.739029,444.123565,-689.485948
3217.817613,-8660.409521,0.000000,1685.410096
3217.817951,-10288.862594,0.000000,2451.505594
3217.818288,-11695.253884,370.102971,995.924147
3217.818626,-9918.759623,296.082377,-1149.143247
3217.818964,-9622.677246,-370.102971,-1072.533697
3217.819301,-9622.677246,-2368.659014,-536.266849
3217.819639,-9474.636058,-2294.638420,-612.876398
3217.819976,-8364.327145,-592.164754,306.438199
3217.820314,-8808.450710,-296.082377,-229.828649
3217.820652,-10955.047942,222.061783,-842.705048
3217.820989,-10807.006753,740.205942,-689.485948
3217.821327,-9474.636058,296.082377,1455.581446
3217.821664,-9770.718434,-296.082377,3064.381992
3217.822002,-10955.047942,-370.102971,3524.039291
3217.822339,-11177.109724,1184.329507,2298.286494
3217.822677,-9252.574275,-370.102971,383.047749
3217.823015,-9770.718434,-962.267725,383.047749
3217.823352,-10584.944971,-2590.720797,383.047749
3217.823690,-9326.594869,-1406.391290,-536.266849
3217.824027,-7772.162391,0.000000,-995.924147
3217.824365,-9918.759623,-296.082377,-689.485948
3217.824703,-10436.903782,0.000000,-2987.772442
3217.825040,-9844.739029,-740.205942,-3064.381992
3217.825378,-8956.491898,-296.082377,-229.828649
3217.825715,-9844.739029,-2220.617826,1225.752797
3217.826053,-11547.212695,-1480.411884,766.095498
3217.826390,-10584.944971,-1110.308913,-919.314598
3217.826728,-9548.656652,-1850.514855,-995.924147
3217.827066,-11325.150913,-2664.741391,0.000000
3217.827403,-11695.253884,-3330.926739,153.219100
3217.827741,-9326.594869,-888.247130,229.828649
3217.828078,-9104.533087,-518.144159,919.314598
3217.828416,-11029.068536,222.061783,842.705048
3217.828754,-11029.068536,296.082377,153.219100
3217.829091,-9918.759623,814.226536,1838.629195
3217.829429,-9622.677246,1332.370696,4290.134789
3217.829766,-11399.171507,1480.411884,4673.182538
3217.830104,-11991.336260,2442.679609,3370.820191
3217.830442,-9844.739029,2146.597232,1532.190996
3217.830779,-8586.388927,1776.494261,919.314598
3217.831117,-9992.780217,518.144159,76.609550
3217.831454,-9474.636058,148.041188,766.095498
3217.831792,-7550.100608,1332.370696,229.828649
3217.832129,-8216.285956,2220.617826,-766.095498
3217.832467,-10214.842000,2590.720797,-1685.410096
3217.832805,-10140.821405,2072.576638,-3217.601092
3217.833142,-8142.265362,1332.370696,-1991.848295
3217.833480,-8956.491898,370.102971,995.924147
3217.833817,-10362.883188,74.020594,1991.848295
3217.834155,-10214.842000,222.061783,153.219100
3217.834493,-9474.636058,-370.102971,-612.876398
3217.834830,-10140.821405,-1258.350101,0.000000
3217.835168,-11399.171507,-2146.597232,0.000000
3217.835505,-10288.862594,-1554.432478,229.828649
3217.835843,-8956.491898,-740.205942,229.828649
3217.836180,-10881.027347,0.000000,1378.971896
3217.836518,-11843.295072,962.267725,-1302.362347
3217.836856,-11103.089130,0.000000,-766.095498
3217.837193,-10510.924376,222.061783,1532.190996
3217.837531,-10881.027347,-592.164754,2374.896044
3217.837868,-11621.233289,222.061783,1991.848295
3217.838206,-10658.965565,0.000000,76.609550
3217.838544,-9474.636058,-1332.370696,-1149.143247
3217.838881,-10658.965565,-2886.803174,-536.266849
3217.839219,-10807.006753,-2960.823768,-919.314598
3217.839556,-8660.409521,-2072.576638,-1532.190996
3217.839894,-8290.306550,-814.226536,-995.924147
3217.840232,-10436.903782,-888.247130,-1532.190996
3217.840569,-10436.903782,-1110.308913,-2604.724693
3217.840907,-9178.553681,-1110.308913,-1149.143247
3217.841244,-8808.450710,-592.164754,2298.286494
3217.841582,-10732.986159,-962.267725,2911.162892
3217.841919,-10807.006753,222.061783,1532.190996
3217.842257,-9104.533087,0.000000,612.876398
3217.842595,-9474.636058,-888.247130,2068.457845
3217.842932,-10584.944971,-1776.494261,1838.629195
3217.843270,-9548.656652,-518.144159,1685.410096
3217.843607,-8142.265362,1554.432478,1532.190996
3217.843945,-9474.636058,2146.597232,1225.752797
3217.844283,-11251.130318,2072.576638,229.828649
3217.844620,-11103.089130,2368.659014,76.609550
3217.844958,-9474.636058,2812.782580,1149.143247
3217.845295,-9992.780217,1332.370696,2681.334243
3217.845633,-11103.089130,1406.391290,2298.286494
3217.845970,-10214.842000,888.247130,766.095498
3217.846308,-9252.574275,0.000000,0.000000
3217.846646,-9770.718434,-1258.350101,-383.047749
3217.846983,-10955.047942,-2294.638420,-1685.410096
3217.847321,-9104.533087,-1702.473667,-1608.800546
3217.847658,-7920.203579,-1480.411884,-1838.629195
3217.847996,-9474.636058,-962.267725,-1532.190996
3217.848334,-11029.068536,-518.144159,-2834.553343
3217.848671,-10584.944971,-1036.288319,-1915.238745
3217.849009,-9474.636058,-1258.350101,0.000000
3217.849346,-9844.739029,-2146.597232,1608.800546
3217.849684,-11103.089130,-1924.535449,1455.581446
3217.850021,-10436.903782,-1406.391290,1608.800546
3217.850359,-10066.800811,-1924.535449,995.924147
3217.850697,-10955.047942,-2146.597232,842.705048
3217.851034,-11547.212695,-1924.535449,153.219100
3217.851372,-9474.636058,0.000000,0.000000
3217.851709,-8734.430116,74.020594,612.876398
3217.852047,-10807.006753,1628.453072,306.438199
3217.852385,-11325.150913,1628.453072,-1072.533697
3217.852722,-9844.739029,1554.432478,0.000000
3217.853060,-9622.677246,814.226536,1838.629195
3217.853397,-11325.150913,740.205942,2145.067394
3217.853735,-11399.171507,1924.535449,612.876398
3217.854073,-9548.656652,1110.308913,-383.047749
3217.854410,-9252.574275,148.041188,-612.876398
3217.854748,-9844.739029,-1850.514855,-306.438199
3217.855085,-9548.656652,-740.205942,0.000000
3217.855423,-8216.285956,592.164754,-306.438199
3217.855760,-9400.615463,1184.329507,-612.876398
3217.856098,-10955.047942,1554.432478,-995.924147
3217.856436,-9844.739029,1480.411884,-919.314598
3217.856773,-8512.368333,1258.350101,1455.581446
3217.857111,-9474.636058,222.061783,3600.648841
3217.857448,-10436.903782,1036.288319,3140.991542
3217.857786,-10436.903782,1332.370696,1378.971896
3217.858124,-9474.636058,592.164754,766.095498
3217.858461,-10066.800811,-444.123565,0.000000
3217.858798,-10140.821405,-1554.432478,-306.438199
3217.859136,-8882.471304,0.000000,0.000000
3217.859473,-8068.244768,148.041188,0.000000
3217.859810,-10288.862594,888.247130,-995.924147
3217.860147,-11251.130318,222.061783,-2834.553343
3217.860485,-10584.944971,296.082377,-2145.067394
3217.860822,-9992.780217,-666.185348,612.876398
3217.861159,-11177.109724,-1184.329507,1532.190996
3217.861496,-10362.883188,-1924.535449,0.000000
3217.861834,-10214.842000,-1628.453072,-1532.190996
3217.862171,-10436.903782,-2812.782580,-1225.752797
3217.862508,-11325.150913,-3478.967927,-459.657299
3217.862845,-10955.047942,-4145.153275,-229.828649
3217.863183,-9104.533087,-2146.597232,-536.266849
3217.863520,-8882.471304,-1406.391290,536.266849
3217.863857,-10807.006753,-740.205942,0.000000
3217.864194,-10510.924376,-592.164754,-1225.752797
3217.864532,-9400.615463,-296.082377,1225.752797
3217.864869,-9548.656652,-148.041188,4213.525239
3217.865206,-11843.295072,-148.041188,4519.963438
3217.865543,-11103.089130,1036.288319,2681.334243
3217.865881,-9622.677246,518.144159,689.485948
3217.866218,-9252.574275,0.000000,0.000000
3217.866555,-10066.800811,-888.247130,229.828649
3217.866892,-9104.533087,0.000000,0.000000
3217.867230,-7698.141797,888.247130,-306.438199
3217.867567,-8660.409521,1406.391290,-459.657299
3217.867904,-10955.047942,2368.659014,-1838.629195
3217.868241,-10510.924376,1036.288319,-2451.505594
3217.868579,-9178.553681,1184.329507,-536.266849
3217.868916,-9548.656652,74.020594,2604.724693
3217.869253,-10732.986159,74.020594,1915.238745
3217.869590,-9770.718434,-296.082377,153.219100
3217.869928,-10066.800811,-592.164754,306.438199
3217.870265,-10955.047942,-1998.556043,766.095498
3217.870602,-10955.047942,-2220.617826,0.000000
3217.870939,-9770.718434,-1702.473667,612.876398
3217.871277,-8216.285956,592.164754,536.266849
3217.871614,-10732.986159,0.000000,766.095498
3217.871951,-11251.130318,518.144159,-1225.752797
3217.872288,-9622.677246,740.205942,-995.924147
3217.872626,-10436.903782,0.000000,2145.067394
3217.872963,-10807.006753,-370.102971,2451.505594
3217.873300,-10288.862594,-148.041188,766.095498
3217.873637,-9696.697840,0.000000,76.609550
3217.873975,-9548.656652,-1258.350101,-1149.143247
3217.874312,-10955.047942,-2442.679609,-995.924147
3217.874649,-10658.965565,-1998.556043,-842.705048
3217.874986,-8512.368333,-222.061783,-1378.971896
3217.875324,-8956.491898,74.020594,-1378.971896
3217.875661,-10658.965565,74.020594,-1838.629195
3217.875998,-10658.965565,-222.061783,-1762.019645
3217.876335,-9770.718434,-370.102971,153.219100
3217.876673,-9770.718434,-148.041188,2298.286494
3217.877010,-11325.150913,-222.061783,2221.676944
3217.877347,-11251.130318,666.185348,995.924147
3217.877684,-9844.739029,0.000000,1072.533697
3217.878021,-9474.636058,-444.123565,1225.752797
3217.878359,-10584.944971,-1776.494261,1455.581446
3217.878696,-9548.656652,222.061783,1532.190996
3217.879033,-8438.347739,1258.350101,612.876398
3217.879370,-9844.739029,2442.679609,766.095498
3217.879708,-11251.130318,2960.823768,-536.266849
3217.880045,-9992.780217,2072.576638,-766.095498
3217.880382,-8956.491898,2368.659014,919.314598
3217.880719,-9622.677246,1406.391290,2451.505594
3217.881057,-10807.006753,1184.329507,1149.143247
3217.881394,-9104.533087,814.226536,0.000000
3217.881731,-9400.615463,-444.123565,0.000000
3217.882068,-10436.903782,-1480.411884,-536.266849
3217.882406,-10214.842000,-1924.535449,-1685.410096
3217.882743,-8660.409521,-1332.370696,-1532.190996
3217.883080,-8586.388927,-1184.329507,-1149.143247
3217.883417,-9770.718434,-518.144159,-995.924147
3217.883755,-11843.295072,-888.247130,-1838.629195
3217.884092,-10288.862594,-962.267725,-459.657299
3217.884429,-9770.718434,-2220.617826,1302.362347
3217.884766,-10807.006753,-2368.659014,2604.724693
3217.885104,-10807.006753,-1406.391290,1991.848295
3217.885441,-11103.089130,-1332.370696,1762.019645
3217.885778,-10584.944971,-2812.782580,689.485948
3217.886115,-11029.068536,-2220.617826,919.314598
3217.886453,-11103.089130,-1776.494261,766.095498
3217.886790,-9030.512492,-740.205942,383.047749
3217.887127,-9474.636058,74.020594,536.266849
3217.887464,-10955.047942,370.102971,-459.657299
3217.887802,-10807.006753,1036.288319,-1455.581446
3217.888139,-9252.574275,444.123565,383.047749
3217.888476,-9992.780217,0.000000,1149.143247
3217.888813,-10732.986159,-296.082377,1532.190996
3217.889151,-10362.883188,296.082377,0.000000
3217.889488,-9030.512492,0.000000,-1149.143247
3217.889825,-9326.594869,-1628.453072,-1225.752797
3217.890162,-9696.697840,-2294.638420,-1072.533697
3217.890500,-8512.368333,-1110.308913,-995.924147
3217.890837,-8512.368333,-74.020594,229.828649
3217.891174,-9548.656652,1110.308913,-612.876398
3217.891511,-10881.027347,740.205942,-842.705048
3217.891849,-10066.800811,1036.288319,0.000000
3217.892186,-8660.409521,666.185348,2374.896044
3217.892523,-10658.965565,-296.082377,4596.572988
3217.892860,-10881.027347,370.102971,3294.210641
3217.893198,-9992.780217,518.144159,1685.410096
3217.893535,-9918.759623,666.185348,1378.971896
3217.893872,-10807.006753,-740.205942,76.609550
3217.894209,-10807.006753,-1258.350101,76.609550
3217.894547,-9030.512492,148.041188,0.000000
3217.894884,-8956.491898,814.226536,-229.828649
3217.895221,-10955.047942,888.247130,-1608.800546
3217.895558,-10732.986159,444.123565,-2757.943793
3217.895896,-9252.574275,222.061783,-1532.190996
3217.896233,-10214.842000,-1036.288319,842.705048
3217.896570,-11325.150913,-1110.308913,1762.019645
3217.896907,-10584.944971,-1554.432478,-229.828649
3217.897245,-9770.718434,-1702.473667,-306.438199
3217.897582,-9770.718434,-2738.761985,-612.876398
3217.897919,-11029.068536,-2960.823768,-612.876398
3217.898256,-10658.965565,-2590.720797,-229.828649
3217.898594,-8438.347739,-1702.473667,-383.047749
3217.898931,-9252.574275,-370.102971,76.609550
3217.899268,-10510.924376,-444.123565,153.219100
3217.899605,-10658.965565,148.041188,536.266849
3217.899943,-9548.656652,-296.082377,2298.286494
3217.900280,-10288.862594,0.000000,4366.744339
3217.900617,-11621.233289,814.226536,4136.915689
3217.900954,-11029.068536,1332.370696,1915.238745
3217.901292,-9622.677246,1406.391290,459.657299
3217.901629,-10140.821405,222.061783,153.219100
3217.901966,-10288.862594,-370.102971,0.000000
3217.902303,-8956.491898,888.247130,0.000000
3217.902641,-8660.409521,1406.391290,-306.438199
3217.902978,-9622.677246,2590.720797,-995.924147
3217.903315,-10658.965565,2590.720797,-3064.381992
3217.903652,-9844.739029,1924.535449,-3064.381992
3217.903990,-8734.430116,518.144159,-459.657299
3217.904327,-10436.903782,-518.144159,2528.115143
3217.904664,-10288.862594,0.000000,995.924147
3217.905001,-9474.636058,-518.144159,0.000000
3217.905339,-9844.739029,-814.226536,153.219100
3217.905676,-10881.027347,-2368.659014,0.000000
3217.906013,-10732.986159,-2294.638420,76.609550
3217.906350,-8808.450710,-1406.391290,76.609550
3217.906688,-8956.491898,-370.102971,1455.581446
3217.907025,-10658.965565,-370.102971,76.609550
3217.907362,-11177.109724,-222.061783,-612.876398
3217.907699,-9696.697840,444.123565,0.000000
3217.908037,-10214.842000,-814.226536,2681.334243
3217.908374,-11251.130318,-1110.308913,2757.943793
3217.908711,-10658.965565,-296.082377,383.047749
3217.909048,-9844.739029,-148.041188,-383.047749
3217.909386,-10362.883188,-1628.453072,-536.266849
3217.909723,-10732.986159,-2960.823768,-1225.752797
3217.910060,-9992.780217,-1998.556043,-612.876398
3217.910397,-8660.409521,-814.226536,-612.876398
3217.910735,-9474.636058,-592.164754,-842.705048
3217.911072,-11177.109724,-814.226536,-2757.943793
3217.911409,-9992.780217,-888.247130,-1455.581446
3217.911746,-9400.615463,-1110.308913,612.876398
3217.912084,-9696.697840,-1258.350101,2451.505594
3217.912421,-11251.130318,-592.164754,2298.286494
3217.912758,-10658.965565,-222.061783,612.876398
3217.913095,-9474.636058,-592.164754,766.095498
3217.913433,-10066.800811,-1184.329507,1149.143247
3217.913770,-10436.903782,-1110.308913,1608.800546
3217.914107,-9104.533087,-74.020594,1225.752797
3217.914444,-8660.409521,1332.370696,1762.019645
3217.914782,-9474.636058,2294.638420,766.095498
3217.915119,-11473.192101,2442.679609,0.000000
3217.915456,-10288.862594,1924.535449,306.438199
3217.915793,-9400.615463,1332.370696,1838.629195
3217.916131,-10362.883188,1258.350101,3140.991542
3217.916468,-10214.842000,1406.391290,689.485948
3217.916805,-9178.553681,370.102971,-536.266849
3217.917142,-9622.677246,0.000000,-689.485948
3217.917480,-10732.986159,-1924.535449,-1762.019645
3217.917817,-10510.924376,-1036.288319,-1762.019645
3217.918154,-8586.388927,-1036.288319,-1455.581446
3217.918491,-8364.327145,-888.247130,-1838.629195
3217.918829,-10066.800811,-592.164754,-2604.724693
3217.919166,-11251.130318,-370.102971,-2145.067394
3217.919503,-10066.800811,-814.226536,-459.657299
3217.919840,-9992.780217,-1924.535449,1378.971896
3217.920177,-11177.109724,-1998.556043,2451.505594
3217.920515,-10955.047942,-1480.411884,1225.752797
3217.920852,-10214.842000,-1258.350101,1149.143247
3217.921189,-10288.862594,-1924.535449,766.095498
3217.921526,-11473.192101,-2442.679609,1225.752797
3217.921864,-10066.800811,-1036.288319,306.438199
3217.922201,-9030.512492,0.000000,766.095498
3217.922538,-9770.718434,296.082377,536.266849
3217.922875,-11029.068536,518.144159,-459.657299
3217.923213,-10288.862594,740.205942,-612.876398
3217.923550,-8956.491898,370.102971,1149.143247
3217.923887,-10436.903782,222.061783,2298.286494
3217.924224,-11399.171507,370.102971,1225.752797
3217.924562,-10066.800811,740.205942,-383.047749
3217.924899,-9548.656652,814.226536,-153.219100
3217.925236,-9622.677246,-2146.597232,-689.485948
3217.925573,-9548.656652,-1480.411884,-842.705048
3217.925911,-8290.306550,-1036.288319,-612.876398
3217.926248,-8956.491898,888.247130,0.000000
3217.926585,-10658.965565,1258.350101,-842.705048
3217.926922,-10955.047942,740.205942,-1915.238745
3217.927260,-9622.677246,1184.329507,0.000000
3217.927597,-8882.471304,370.102971,2374.896044
3217.927934,-10362.883188,0.000000,4596.572988
3217.928271,-11177.109724,370.102971,2834.553343
3217.928609,-10140.821405,1184.329507,1608.800546
3217.928946,-9844.739029,1036.288319,919.314598
3217.929283,-11177.109724,-592.164754,536.266849
3217.929620,-10584.944971,-444.123565,0.000000
3217.929958,-8808.450710,222.061783,229.828649
3217.930295,-9252.574275,666.185348,306.438199
3217.930632,-10362.883188,740.205942,-1685.410096
3217.930969,-10881.027347,370.102971,-2221.676944
3217.931307,-9918.759623,-222.061783,-689.485948
3217.931644,-9696.697840,-1702.473667,1455.581446
3217.931981,-11029.068536,-1184.329507,1991.848295
3217.932318,-10288.862594,-1554.432478,-536.266849
3217.932656,-9992.780217,-2146.597232,-919.314598
3217.932993,-10584.944971,-3330.926739,-689.485948
3217.933330,-11103.089130,-3330.926739,0.000000
3217.933667,-9622.677246,-2146.597232,-612.876398
3217.934005,-8586.388927,-1850.514855,-229.828649
3217.934342,-9622.677246,-888.247130,-536.266849
3217.934679,-10732.986159,-962.267725,-383.047749
3217.935016,-10288.862594,-296.082377,536.266849
3217.935354,-9400.615463,-666.185348,1838.629195
3217.935691,-10807.006753,0.000000,4366.744339
3217.936028,-11769.274478,814.226536,3830.477490
3217.936365,-10658.965565,1406.391290,1225.752797
3217.936703,-9770.718434,1184.329507,229.828649
3217.937040,-10066.800811,-814.226536,-383.047749
3217.937377,-10584.944971,74.020594,229.828649
3217.937714,-9252.574275,888.247130,0.000000
3217.938052,-8216.285956,1628.453072,229.828649
3217.938389,-9992.780217,1702.473667,-689.485948
3217.938726,-10732.986159,1406.391290,-1838.629195
3217.939063,-9696.697840,1258.350101,-1685.410096
3217.939401,-9400.615463,-222.061783,153.219100
3217.939738,-9918.759623,0.000000,1915.238745
3217.940075,-10436.903782,-444.123565,1072.533697
3217.940412,-9548.656652,296.082377,-689.485948
3217.940750,-9548.656652,-962.267725,-766.095498
3217.941087,-10732.986159,-2368.659014,-612.876398
3217.941424,-9548.656652,-2738.761985,0.000000
3217.941761,-8438.347739,-1184.329507,153.219100
3217.942099,-9178.553681,-444.123565,612.876398
3217.942436,-10955.047942,74.020594,-919.314598
3217.942773,-11103.089130,0.000000,-1149.143247
3217.943110,-9474.636058,370.102971,-153.219100
3217.943448,-10066.800811,-666.185348,2604.724693
3217.943785,-11547.212695,-592.164754,3064.381992
3217.944122,-10214.842000,-518.144159,76.609550
3217.944459,-9770.718434,0.000000,-383.047749
3217.944797,-10214.842000,-1480.411884,-459.657299
3217.945134,-11177.109724,-2220.617826,-612.876398
3217.945471,-9992.780217,-1332.370696,-536.266849
3217.945808,-8586.388927,-1036.288319,-383.047749
3217.946146,-9474.636058,222.061783,-536.266849
3217.946483,-10955.047942,-962.267725,-1455.581446
3217.946820,-10510.924376,-740.205942,-459.657299
3217.947157,-9326.594869,-1628.453072,1915.238745
3217.947495,-10584.944971,-888.247130,3524.039291
3217.947832,-11399.171507,296.082377,2145.067394
3217.948169,-10584.944971,-222.061783,842.705048
3217.948506,-9474.636058,-222.061783,995.924147
3217.948844,-10066.800811,-1850.514855,1762.019645
3217.949181,-10510.924376,-814.226536,2068.457845
3217.949518,-8734.430116,74.020594,1302.362347
3217.949855,-9030.512492,1258.350101,1532.190996
3217.950193,-9992.780217,1702.473667,76.609550
3217.950530,-10510.924376,2590.720797,-995.924147
3217.950867,-9622.677246,1554.432478,0.000000
3217.951204,-8808.450710,1702.473667,1225.752797
3217.951542,-10288.862594,592.164754,1991.848295
3217.951879,-10436.903782,1258.350101,153.219100
3217.952216,-8956.491898,592.164754,-919.314598
3217.952553,-10436.903782,-296.082377,-383.047749
3217.952891,-10881.027347,-1850.514855,-1532.190996
3217.953228,-9474.636058,-1258.350101,-1762.019645
3217.953565,-8660.409521,-1406.391290,-1225.752797
3217.953902,-8660.409521,-1184.329507,-995.924147
3217.954240,-10658.965565,-1258.350101,-1685.410096
3217.954577,-11769.274478,-962.267725,-1149.143247
3217.954914,-9548.656652,-592.164754,-229.828649
3217.955251,-10510.924376,-2146.597232,1915.238745
3217.955589,-11325.150913,-1628.453072,2145.067394
3217.955926,-10510.924376,-1554.432478,459.657299
3217.956263,-10288.862594,-1258.350101,842.705048
3217.956600,-10584.944971,-2294.638420,995.924147
3217.956938,-11251.130318,-2590.720797,842.705048
3217.957275,-10214.842000,-1258.350101,919.314598
3217.957612,-8956.491898,0.000000,1072.533697
3217.957949,-9696.697840,592.164754,0.000000
3217.958287,-11103.089130,0.000000,-766.095498
3217.958624,-9400.615463,962.267725,-766.095498
3217.958961,-8512.368333,592.164754,1225.752797
3217.959298,-10362.883188,296.082377,2528.115143
3217.959636,-11547.212695,592.164754,1455.581446
3217.959976,-9918.759623,814.226536,-306.438199
3217.960313,-9400.615463,814.226536,-766.095498
3217.960650,-10140.821405,-1406.391290,0.000000
3217.960988,-10066.800811,-1332.370696,383.047749
3217.961325,-7994.224174,-666.185348,0.000000
3217.961663,-8882.471304,962.267725,2145.067394
3217.962000,-10881.027347,666.185348,459.657299
3217.962337,-11029.068536,1480.411884,-536.266849
3217.962675,-10066.800811,1406.391290,1149.143247
3217.963012,-9400.615463,592.164754,2298.286494
3217.963349,-10066.800811,1036.288319,4213.525239
3217.963687,-11399.171507,1258.350101,2451.505594
3217.964024,-9474.636058,1110.308913,919.314598
3217.964362,-10288.862594,370.102971,536.266849
3217.964699,-10807.006753,-1258.350101,536.266849
3217.965036,-9844.739029,0.000000,229.828649
3217.965374,-8882.471304,0.000000,383.047749
3217.965711,-8956.491898,518.144159,-1302.362347
3217.966048,-9918.759623,518.144159,-3370.820191
3217.966386,-10584.944971,0.000000,-3064.381992
3217.966723,-9104.533087,-296.082377,-995.924147
3217.967061,-9918.759623,-1702.473667,76.609550
3217.967398,-10955.047942,-1036.288319,766.095498
3217.967735,-10214.842000,-1258.350101,-1915.238745
3217.968073,-9918.759623,-2220.617826,-1149.143247
3217.968410,-10140.821405,-3330.926739,-1608.800546
3217.968748,-10510.924376,-3552.988522,0.000000
3217.969085,-10214.842000,-2442.679609,612.876398
3217.969422,-9474.636058,-1776.494261,536.266849
3217.969760,-10436.903782,-1406.391290,306.438199
3217.970097,-11325.150913,-888.247130,0.000000
3217.970434,-10362.883188,74.020594,766.095498
3217.970772,-9548.656652,-370.102971,2757.943793
3217.971109,-10288.862594,444.123565,4060.306139
3217.971447,-11399.171507,888.247130,3370.820191
3217.971784,-10955.047942,1998.556043,1225.752797
3217.972121,-10066.800811,1332.370696,459.657299
3217.972459,-10881.027347,-814.226536,766.095498
3217.972796,-9474.636058,0.000000,919.314598
3217.973134,-7994.224174,962.267725,536.266849
3217.973471,-8586.388927,1702.473667,459.657299
3217.973808,-10140.821405,1258.350101,-1225.752797
3217.974146,-10584.944971,1184.329507,-2834.553343
3217.974483,-9474.636058,2294.638420,-1991.848295
3217.974820,-9178.553681,888.247130,536.266849
3217.975158,-10436.903782,0.000000,2451.505594
3217.975495,-10066.800811,0.000000,766.095498
3217.975833,-8808.450710,0.000000,0.000000
3217.976170,-9992.780217,-1110.308913,459.657299
3217.976507,-10881.027347,-2368.659014,76.609550
3217.976845,-9622.677246,-2072.576638,459.657299
3217.977182,-8660.409521,-1184.329507,919.314598
3217.977519,-9400.615463,148.041188,1762.019645
3217.977857,-11251.130318,296.082377,0.000000
3217.978194,-10955.047942,444.123565,-612.876398
3217.978532,-9548.656652,-222.061783,1072.533697
3217.978869,-10066.800811,-296.082377,3370.820191
3217.979206,-11251.130318,0.000000,2451.505594
3217.979544,-10214.842000,-148.041188,0.000000
3217.979881,-9992.780217,-740.205942,-612.876398
3217.980219,-10658.965565,-2146.597232,-459.657299
3217.980556,-10955.047942,-2442.679609,-536.266849
3217.980893,-9474.636058,-1554.432478,-1225.752797
3217.981231,-8438.347739,-1110.308913,-1225.752797
3217.981568,-10214.842000,-222.061783,-2451.505594
3217.981905,-10807.006753,-1184.329507,-2987.772442
3217.982243,-9474.636058,-740.205942,-689.485948
3217.982580,-8956.491898,-1332.370696,1149.143247
3217.982918,-10288.862594,-1184.329507,3064.381992
3217.983255,-12065.356855,0.000000,2451.505594
3217.983592,-10807.006753,592.164754,689.485948
3217.983930,-9622.677246,-518.144159,459.657299
3217.984267,-10584.944971,-1628.453072,1378.971896
3217.984604,-9696.697840,-370.102971,1838.629195
3217.984942,-8882.471304,1036.288319,1915.238745
3217.985279,-8734.430116,1628.453072,1455.581446
3217.985617,-10362.883188,2442.679609,0.000000
3217.985954,-11029.068536,2442.679609,-153.219100
3217.986291,-9548.656652,2220.617826,766.095498
3217.986629,-9474.636058,1924.535449,2911.162892
3217.986966,-10436.903782,1998.556043,3064.381992
3217.987304,-10510.924376,1628.453072,766.095498
3217.987641,-9178.553681,1702.473667,-306.438199
3217.987978,-10362.883188,-592.164754,-612.876398
3217.988316,-11103.089130,-1998.556043,-1225.752797
3217.988653,-9178.553681,-518.144159,-1378.971896
3217.988990,-7920.203579,-296.082377,-1915.238745
3217.989328,-9252.574275,-592.164754,-1991.848295
3217.989665,-10584.944971,-814.226536,-3524.039291
3217.990003,-10510.924376,-296.082377,-2604.724693
3217.990340,-9770.718434,-962.267725,229.828649
3217.990677,-9696.697840,-2220.617826,1838.629195
3217.991015,-11843.295072,-1406.391290,2451.505594
3217.991352,-10955.047942,-1480.411884,1455.581446
3217.991689,-10140.821405,-1332.370696,689.485948
3217.992027,-10658.965565,-2368.659014,995.924147
3217.992364,-11399.171507,-2146.597232,919.314598
3217.992702,-9548.656652,-1406.391290,689.485948
3217.993039,-8956.491898,-592.164754,612.876398
3217.993376,-9992.780217,444.123565,0.000000
3217.993714,-11103.089130,0.000000,-1072.533697
3217.994051,-9696.697840,0.000000,76.609550
3217.994389,-8660.409521,0.000000,1915.238745
3217.994726,-10584.944971,222.061783,3064.381992
3217.995063,-11843.295072,296.082377,1838.629195
3217.995401,-10732.986159,296.082377,-306.438199
3217.995738,-9326.594869,-148.041188,-1072.533697
3217.996075,-9918.759623,-1924.535449,0.000000
3217.996413,-9326.594869,-1628.453072,0.000000
3217.996750,-7772.162391,-888.247130,0.000000
3217.997088,-8660.409521,444.123565,153.219100
3217.997425,-10807.006753,740.205942,-1532.190996
3217.997762,-11473.192101,1110.308913,-1532.190996
3217.998100,-9252.574275,888.247130,1225.752797
3217.998437,-9252.574275,0.000000,3294.210641
3217.998774,-10436.903782,740.205942,4519.963438
3217.999112,-10955.047942,1554.432478,3217.601092
3217.999449,-10140.821405,1480.411884,842.705048
3217.999787,-10066.800811,0.000000,383.047749
3218.000124,-11399.171507,-888.247130,919.314598
3218.000461,-9844.739029,74.020594,0.000000
3218.000799,-8364.327145,0.000000,612.876398
3218.001136,-9400.615463,814.226536,-536.266849
3218.001474,-10214.842000,296.082377,-2374.896044
3218.001811,-10510.924376,222.061783,-2221.676944
3218.002148,-9844.739029,-518.144159,383.047749
3218.002486,-10362.883188,-1776.494261,2834.553343
3218.002823,-11325.150913,-740.205942,1455.581446
3218.003160,-10362.883188,-1406.391290,-1378.971896
3218.003498,-9622.677246,-2368.659014,-1225.752797
3218.003835,-10732.986159,-4145.153275,-1149.143247
3218.004173,-10510.924376,-4145.153275,-766.095498
3218.004510,-9178.553681,-2294.638420,-766.095498
3218.004847,-9326.594869,-1628.453072,0.000000
3218.005185,-10584.944971,-1036.288319,-1685.410096
3218.005522,-11029.068536,-888.247130,-1608.800546
3218.005860,-9474.636058,-148.041188,306.438199
3218.006197,-9474.636058,-518.144159,2987.772442
3218.006534,-11473.192101,0.000000,4060.306139
3218.006872,-11843.295072,888.247130,2451.505594
3218.007209,-10288.862594,1332.370696,766.095498
3218.007546,-10214.842000,1110.308913,-306.438199
3218.007884,-10955.047942,-740.205942,0.000000
3218.008221,-9548.656652,222.061783,689.485948
3218.008559,-7698.141797,962.267725,-536.266849
3218.008896,-8216.285956,1998.556043,-919.314598
3218.009233,-10510.924376,1406.391290,-1915.238745
3218.009571,-11029.068536,962.267725,-2374.896044
3218.009908,-9178.553681,1554.432478,-383.047749
3218.010245,-9400.615463,296.082377,1455.581446
3218.010583,-10881.027347,1110.308913,2451.505594
3218.010920,-10066.800811,148.041188,919.314598
3218.011258,-9252.574275,0.000000,-229.828649
3218.011595,-10214.842000,-1332.370696,0.000000
3218.011932,-11695.253884,-1998.556043,1149.143247
3218.012270,-9474.636058,-1554.432478,306.438199
3218.012607,-7994.224174,-962.267725,536.266849
3218.012945,-9696.697840,444.123565,306.438199
3218.013282,-10807.006753,962.267725,-1838.629195
3218.013619,-10288.862594,814.226536,-1762.019645
3218.013957,-9622.677246,0.000000,1225.752797
3218.014294,-10140.821405,-148.041188,3294.210641
3218.014631,-11251.130318,74.020594,2911.162892
3218.014969,-10214.842000,0.000000,229.828649
3218.015306,-9918.759623,-962.267725,0.000000
3218.015644,-10881.027347,-2368.659014,-229.828649
3218.015981,-10881.027347,-2220.617826,-383.047749
3218.016318,-9474.636058,-1258.350101,-459.657299
3218.016656,-9326.594869,-1036.288319,-153.219100
3218.016993,-9918.759623,-296.082377,-2374.896044
3218.017330,-11103.089130,-888.247130,-2451.505594
3218.017668,-10288.862594,-592.164754,0.000000
3218.018005,-9252.574275,-1628.453072,2145.067394
3218.018343,-10658.965565,-962.267725,2911.162892
3218.018680,-11843.295072,0.000000,2374.896044
3218.019017,-10362.883188,-518.144159,536.266849
3218.019355,-9992.780217,-962.267725,153.219100
3218.019692,-10362.883188,-2220.617826,1532.190996
3218.020030,-9918.759623,-1332.370696,1915.238745
3218.020367,-8438.347739,1184.329507,1378.971896
3218.020704,-8586.388927,1184.329507,153.219100
3218.021042,-11029.068536,1702.473667,-1455.581446
3218.021379,-10584.944971,1480.411884,-1455.581446
3218.021716,-9030.512492,2960.823768,612.876398
3218.022054,-9400.615463,1480.411884,2298.286494
3218.022391,-10214.842000,1554.432478,2068.457845
3218.022729,-10214.842000,1110.308913,0.000000
3218.023066,-8512.368333,1036.288319,-1225.752797
3218.023403,-10066.800811,-1258.350101,-1072.533697
3218.023741,-11769.274478,-1702.473667,-1149.143247
3218.024078,-8216.285956,-1184.329507,-1532.190996
3218.024415,-7994.224174,-444.123565,-766.095498
3218.024753,-9474.636058,-962.267725,-1072.533697
3218.025090,-10658.965565,-1036.288319,-2528.115143
3218.025428,-10955.047942,-518.144159,-1149.143247
3218.025765,-9844.739029,-1554.432478,1149.143247
3218.026102,-11103.089130,-1184.329507,3447.429741
3218.026440,-11769.274478,-1332.370696,2068.457845
3218.026777,-10510.924376,-1406.391290,612.876398
3218.027115,-10140.821405,-1850.514855,766.095498
3218.027452,-11103.089130,-2738.761985,919.314598
3218.027789,-10881.027347,-2368.659014,459.657299
3218.028127,-9474.636058,-1628.453072,459.657299
3218.028464,-9400.615463,148.041188,0.000000
3218.028801,-11029.068536,222.061783,-995.924147
3218.029139,-11103.089130,444.123565,-1455.581446
3218.029476,-9178.553681,74.020594,-459.657299
3218.029814,-9326.594869,-222.061783,2145.067394
3218.030151,-10510.924376,0.000000,2068.457845
3218.030488,-11103.089130,814.226536,536.266849
3218.030826,-10214.842000,0.000000,-1072.533697
3218.031163,-9252.574275,74.020594,-1608.800546
3218.031500,-10066.800811,-2294.638420,-459.657299
3218.031838,-9400.615463,-962.267725,-153.219100
3218.032175,-7698.141797,0.000000,0.000000
3218.032513,-9400.615463,518.144159,995.924147
3218.032850,-11029.068536,1110.308913,-766.095498
3218.033187,-11029.068536,1406.391290,-306.438199
3218.033525,-9844.739029,1406.391290,2681.334243
3218.033862,-9696.697840,222.061783,3907.087040
3218.034200,-11103.089130,1184.329507,4136.915689
3218.034537,-10732.986159,1406.391290,2374.896044
3218.034874,-9770.718434,1406.391290,1149.143247
3218.035212,-10362.883188,-1110.308913,689.485948
3218.035549,-11251.130318,-888.247130,306.438199
3218.035886,-9178.553681,296.082377,-995.924147
3218.036224,-8512.368333,888.247130,-153.219100
3218.036561,-9474.636058,814.226536,-2221.676944
3218.036899,-9844.739029,666.185348,-3753.867940
3218.037236,-9696.697840,592.164754,-2757.943793
3218.037573,-9770.718434,-592.164754,0.000000
3218.037911,-10140.821405,-1110.308913,1378.971896
3218.038248,-11325.150913,-1628.453072,689.485948
3218.038586,-9622.677246,-1554.432478,-1762.019645
3218.038923,-9770.718434,-3034.844362,-995.924147
3218.039260,-10955.047942,-3923.091493,-229.828649
3218.039598,-10214.842000,-3701.029710,-919.314598
3218.039935,-9178.553681,-1406.391290,-306.438199
3218.040272,-9474.636058,-518.144159,0.000000
3218.040610,-11621.233289,-1258.350101,-383.047749
3218.040947,-11473.192101,-444.123565,229.828649
3218.041285,-9622.677246,0.000000,2528.115143
3218.041622,-10214.842000,0.000000,5132.839837
3218.041959,-11473.192101,222.061783,4826.401637
3218.042297,-11547.212695,1332.370696,2604.724693
3218.042634,-10658.965565,888.247130,1149.143247
3218.042971,-9844.739029,0.000000,612.876398
3218.043309,-10584.944971,-1332.370696,612.876398
3218.043646,-9030.512492,296.082377,-153.219100
3218.043984,-6883.915261,444.123565,-919.314598
3218.044321,-8734.430116,1628.453072,-919.314598
3218.044658,-10288.862594,1628.453072,-3447.429741
3218.044996,-9770.718434,1924.535449,-2987.772442
3218.045333,-9326.594869,518.144159,-919.314598
3218.045671,-8956.491898,-444.123565,1762.019645
3218.046008,-10066.800811,444.123565,2451.505594
3218.046345,-9326.594869,-666.185348,919.314598
3218.046683,-8512.368333,-1110.308913,0.000000
3218.047020,-10881.027347,-2368.659014,153.219100
3218.047357,-11251.130318,-2146.597232,153.219100
3218.047695,-9474.636058,-1258.350101,0.000000
3218.048032,-8956.491898,-518.144159,766.095498
3218.048370,-10214.842000,-370.102971,612.876398
3218.048707,-10658.965565,148.041188,-995.924147
3218.049044,-10362.883188,296.082377,306.438199
3218.049382,-10214.842000,-888.247130,2757.943793
3218.049719,-11251.130318,-666.185348,3677.258390
3218.050056,-11843.295072,-296.082377,2068.457845
3218.050394,-10584.944971,370.102971,229.828649
3218.050731,-9844.739029,-1850.514855,-612.876398
3218.051069,-11325.150913,-2368.659014,-536.266849
3218.051406,-10436.903782,-2960.823768,-842.705048
3218.051743,-8660.409521,-666.185348,-1762.019645
3218.052081,-9400.615463,-592.164754,-1608.800546
3218.052418,-10881.027347,-444.123565,-2834.553343
3218.052756,-10288.862594,-888.247130,-2987.772442
3218.053093,-8808.450710,-962.267725,-459.657299
3218.053430,-9252.574275,-1184.329507,2757.943793
3218.053768,-10510.924376,-962.267725,3064.381992
3218.054105,-11325.150913,0.000000,1762.019645
3218.054442,-9918.759623,74.020594,306.438199
3218.054780,-10066.800811,-888.247130,612.876398
3218.055117,-10881.027347,-1850.514855,1838.629195
3218.055455,-9030.512492,0.000000,1455.581446
3218.055792,-7402.059420,1406.391290,1685.410096
3218.056129,-9326.594869,2072.576638,1455.581446
3218.056467,-11251.130318,1702.473667,0.000000
3218.056804,-10881.027347,2368.659014,0.000000
3218.057141,-9696.697840,3108.864956,2451.505594
3218.057479,-10436.903782,1702.473667,2834.553343
3218.057816,-11103.089130,1702.473667,1532.190996
3218.058154,-9548.656652,1258.350101,0.000000
3218.058491,-8882.471304,222.061783,-459.657299
3218.058828,-10584.944971,-1184.329507,-919.314598
3218.059166,-11177.109724,-1332.370696,-1991.848295
3218.059503,-8734.430116,-1184.329507,-2451.505594
3218.059841,-8586.388927,-296.082377,-2451.505594
3218.060178,-9992.780217,-444.123565,-2451.505594
3218.060515,-10658.965565,-592.164754,-3370.820191
3218.060853,-9844.739029,-888.247130,-1072.533697
3218.061190,-9400.615463,-1924.535449,1838.629195
3218.061527,-10881.027347,-1480.411884,2451.505594
3218.061864,-11547.212695,-1628.453072,1455.581446
3218.062202,-10658.965565,-1998.556043,1225.752797
3218.062539,-9918.759623,-2368.659014,919.314598
3218.062876,-11177.109724,-2664.741391,995.924147
3218.063213,-10658.965565,-1924.535449,536.266849
3218.063551,-9104.533087,-740.205942,383.047749
3218.063888,-9548.656652,296.082377,689.485948
3218.064225,-11695.253884,592.164754,-995.924147
3218.064562,-10658.965565,814.226536,-766.095498
3218.064899,-9474.636058,0.000000,1532.190996
3218.065237,-9548.656652,-444.123565,2987.772442
3218.065574,-10881.027347,296.082377,2528.115143
3218.065911,-10881.027347,814.226536,-229.828649
3218.066248,-9622.677246,74.020594,-1072.533697
3218.066586,-10140.821405,-1258.350101,-766.095498
3218.066923,-10510.924376,-2220.617826,-153.219100
3218.067260,-8734.430116,-1110.308913,-842.705048
3218.067597,-7550.100608,0.000000,-459.657299
3218.067935,-10214.842000,962.267725,-689.485948
3218.068272,-11399.171507,296.082377,-2068.457845
3218.068609,-9474.636058,1480.411884,-1149.143247
3218.068946,-9178.553681,740.205942,2221.676944
3218.069283,-10140.821405,-74.020594,4290.134789
3218.069621,-10436.903782,814.226536,3064.381992
3218.069958,-9548.656652,1406.391290,1838.629195
3218.070295,-9696.697840,518.144159,612.876398
3218.070632,-10436.903782,-888.247130,306.438199
3218.070970,-11177.109724,-518.144159,306.438199
3218.071307,-8660.409521,74.020594,0.000000
3218.071644,-8438.347739,814.226536,0.000000
3218.071981,-10140.821405,592.164754,-1838.629195
3218.072318,-9770.718434,222.061783,-2681.334243
3218.072656,-9622.677246,0.000000,-383.047749
3218.072993,-10214.842000,-962.267725,2221.676944
3218.073330,-10955.047942,-814.226536,2298.286494
3218.073667,-11029.068536,-1554.432478,0.000000
3218.074005,-9844.739029,-1924.535449,-1225.752797
3218.074342,-9844.739029,-2812.782580,-689.485948
3218.074679,-11251.130318,-3849.070898,0.000000
3218.075016,-9548.656652,-3182.885551,-459.657299
3218.075354,-8734.430116,-1924.535449,-919.314598
3218.075691,-9696.697840,-962.267725,-842.705048
3218.076028,-11399.171507,-1480.411884,-995.924147
3218.076365,-10288.862594,-296.082377,-919.314598
3218.076702,-9178.553681,-444.123565,1302.362347
3218.077040,-9918.759623,-370.102971,4136.915689
3218.077377,-11843.295072,148.041188,4060.306139
3218.077714,-10955.047942,1036.288319,1915.238745
3218.078051,-9548.656652,666.185348,383.047749
3218.078389,-9992.780217,74.020594,229.828649
3218.078726,-10584.944971,296.082377,612.876398
3218.079063,-8956.491898,444.123565,-383.047749
3218.079400,-7402.059420,1554.432478,-766.095498
3218.079738,-9030.512492,1702.473667,-536.266849
3218.080075,-11029.068536,1924.535449,-1838.629195
3218.080412,-9474.636058,2516.700203,-2068.457845
3218.080749,-9104.533087,888.247130,842.705048
3218.081086,-10066.800811,222.061783,2374.896044
3218.081424,-9844.739029,148.041188,1838.629195
3218.081761,-9696.697840,518.144159,842.705048
3218.082098,-9400.615463,-740.205942,-306.438199
3218.082435,-10584.944971,-2368.659014,383.047749
3218.082773,-11177.109724,-1776.494261,306.438199
3218.083110,-8438.347739,-814.226536,-76.609550
3218.083447,-9104.533087,0.000000,919.314598
3218.083784,-11029.068536,296.082377,-995.924147
3218.084122,-10288.862594,148.041188,-2221.676944
3218.084459,-9992.780217,222.061783,0.000000
3218.084796,-10214.842000,-740.205942,2987.772442
3218.085133,-10658.965565,-814.226536,3064.381992
3218.085470,-10807.006753,-296.082377,766.095498
3218.085808,-9474.636058,-222.061783,-612.876398
3218.086145,-10214.842000,-2072.576638,-1072.533697
3218.086482,-11251.130318,-2516.700203,-536.266849
3218.086819,-9770.718434,-2442.679609,-1149.143247
3218.087157,-8734.430116,-740.205942,-766.095498
3218.087494,-10140.821405,-666.185348,-995.924147
3218.087831,-10881.027347,-1110.308913,-2451.505594
3218.088168,-10288.862594,-962.267725,-1149.143247
3218.088505,-9326.594869,-1480.411884,919.314598
3218.088843,-9918.759623,-1480.411884,2911.162892
3218.089180,-11325.150913,-666.185348,2221.676944
3218.089517,-11103.089130,-444.123565,766.095498
3218.089854,-10140.821405,-444.123565,383.047749
3218.090192,-9844.739029,-1924.535449,919.314598
3218.090529,-10732.986159,-962.267725,1685.410096
3218.090866,-9104.533087,-592.164754,1225.752797
3218.091203,-8068.244768,2072.576638,689.485948
3218.091541,-10140.821405,2146.597232,306.438199
3218.091878,-11325.150913,2072.576638,-229.828649
3218.092215,-9474.636058,2886.803174,0.000000
3218.092552,-9178.553681,2146.597232,2374.896044
3218.092889,-10140.821405,1776.494261,2451.505594
3218.093227,-9992.780217,2146.597232,919.314598
3218.093564,-9104.533087,1258.350101,0.000000
3218.093901,-8882.471304,370.102971,-1225.752797
3218.094238,-10214.842000,-962.267725,-995.924147
3218.094576,-10362.883188,-518.144159,-1532.190996
3218.094913,-8142.265362,-592.164754,-2145.067394
3218.095250,-8734.430116,-666.185348,-1455.581446
3218.095587,-10436.903782,-148.041188,-1762.019645
3218.095925,-10658.965565,-666.185348,-1608.800546
3218.096262,-9770.718434,-1184.329507,153.219100
3218.096599,-9844.739029,-2146.597232,2451.505594
3218.096936,-11251.130318,-1776.494261,2451.505594
3218.097273,-11399.171507,-1702.473667,1378.971896
3218.097611,-10214.842000,-1406.391290,842.705048
3218.097948,-10140.821405,-2886.803174,995.924147
3218.098285,-11621.233289,-2812.782580,1225.752797
3218.098622,-9696.697840,-1480.411884,306.438199
3218.098960,-9104.533087,-740.205942,76.609550
3218.099297,-9992.780217,0.000000,-153.219100
3218.099634,-11399.171507,0.000000,-1149.143247
3218.099971,-10732.986159,592.164754,-459.657299
3218.100309,-8956.491898,-296.082377,919.314598
3218.100646,-9548.656652,-666.185348,1991.848295
3218.100983,-10881.027347,-518.144159,1532.190996
3218.101320,-10288.862594,296.082377,-76.609550
3218.101657,-9992.780217,296.082377,-1225.752797
3218.101995,-9844.739029,-1036.288319,-1685.410096
3218.102332,-9548.656652,-1628.453072,-842.705048
3218.102669,-8882.471304,-666.185348,-76.609550
3218.103006,-8216.285956,518.144159,-153.219100
3218.103344,-10066.800811,814.226536,153.219100
3218.103681,-10955.047942,888.247130,-689.485948
3218.104018,-9992.780217,888.247130,76.609550
3218.104355,-9992.780217,1554.432478,3677.258390
3218.104692,-10510.924376,370.102971,4060.306139
3218.105030,-10732.986159,1110.308913,3677.258390
3218.105367,-9844.739029,1628.453072,2145.067394
3218.105704,-9178.553681,888.247130,306.438199
3218.106041,-10881.027347,0.000000,1072.533697
3218.106379,-10955.047942,74.020594,229.828649
3218.106716,-8438.347739,444.123565,0.000000
3218.107053,-8956.491898,1628.453072,0.000000
3218.107390,-10288.862594,962.267725,-2834.553343
3218.107728,-9474.636058,666.185348,-3600.648841
3218.108065,-9474.636058,-592.164754,-995.924147
3218.108402,-9548.656652,-740.205942,1532.190996
3218.108739,-10955.047942,-1332.370696,1072.533697
3218.109076,-10807.006753,-1258.350101,-1762.019645
3218.109414,-9474.636058,-2146.597232,-1915.238745
3218.109751,-10214.842000,-3478.967927,-995.924147
3218.110088,-10436.903782,-3923.091493,-383.047749
3218.110425,-9548.656652,-3108.864956,-459.657299
3218.110763,-9030.512492,-2220.617826,76.609550
3218.111100,-10066.800811,-1036.288319,-459.657299
3218.111437,-11843.295072,-1702.473667,-153.219100
3218.111774,-10362.883188,-370.102971,459.657299
3218.112112,-9696.697840,-888.247130,2451.505594
3218.112449,-10955.047942,-592.164754,4903.011187
3218.112786,-11103.089130,0.000000,3217.601092
3218.113123,-10510.924376,1036.288319,1991.848295
3218.113460,-10066.800811,444.123565,76.609550
3218.113798,-10214.842000,-444.123565,0.000000
3218.114135,-10881.027347,0.000000,383.047749
3218.114472,-8956.491898,666.185348,153.219100
3218.114809,-7772.162391,1776.494261,0.000000
3218.115147,-9622.677246,1036.288319,-995.924147
3218.115484,-10288.862594,2146.597232,-2528.115143
3218.115821,-9326.594869,1998.556043,-1762.019645
3218.116158,-9844.739029,592.164754,1072.533697
3218.116496,-9622.677246,222.061783,2068.457845
3218.116833,-9844.739029,592.164754,1378.971896
3218.117170,-8882.471304,740.205942,536.266849
3218.117507,-9622.677246,-814.226536,-229.828649
3218.117844,-10584.944971,-1258.350101,612.876398
3218.118182,-10436.903782,-1036.288319,1302.362347
3218.118519,-8808.450710,-370.102971,919.314598
3218.118856,-9844.739029,296.082377,1455.581446
3218.119193,-11029.068536,370.102971,0.000000
3218.119531,-9844.739029,370.102971,-919.314598
3218.119868,-9770.718434,518.144159,1149.143247
3218.120205,-10288.862594,0.000000,3677.258390
3218.120542,-11695.253884,-592.164754,2834.553343
3218.120879,-11103.089130,-222.061783,612.876398
3218.121217,-9622.677246,222.061783,-766.095498
3218.121554,-10732.986159,-2368.659014,-459.657299
3218.121891,-10658.965565,-2886.803174,-153.219100
3218.122228,-9104.533087,-1850.514855,-995.924147
3218.122566,-8438.347739,-1184.329507,-459.657299
3218.122903,-9992.780217,-370.102971,-2681.334243
3218.123240,-10955.047942,-1406.391290,-3753.867940
3218.123577,-9918.759623,-1184.329507,-2451.505594
3218.123915,-8660.409521,-2220.617826,0.000000
3218.124252,-9992.780217,-1850.514855,1991.848295
3218.124589,-10807.006753,-1480.411884,1455.581446
3218.124926,-10288.862594,-814.226536,383.047749
3218.125263,-9918.759623,-1258.350101,0.000000
3218.125601,-10288.862594,-1850.514855,766.095498
3218.125938,-11029.068536,-814.226536,1915.238745
3218.126275,-9770.718434,-444.123565,1991.848295
3218.126612,-8364.327145,1332.370696,2068.457845
3218.126950,-10140.821405,1702.473667,612.876398
3218.127287,-11103.089130,2294.638420,76.609550
3218.127624,-9992.780217,2590.720797,229.828649
3218.127961,-9844.739029,1924.535449,2221.676944
3218.128299,-10658.965565,1924.535449,1915.238745
3218.128636,-9918.759623,2072.576638,612.876398
3218.128973,-9104.533087,2072.576638,-229.828649
3218.129310,-9474.636058,-444.123565,-689.485948
3218.129647,-10066.800811,-370.102971,-459.657299
3218.129985,-9696.697840,-592.164754,-229.828649
3218.130322,-8956.491898,0.000000,-919.314598
3218.130659,-8512.368333,-592.164754,-1225.752797
3218.130996,-10362.883188,-74.020594,-2298.286494
3218.131334,-10584.944971,-518.144159,-1149.143247
3218.131671,-9474.636058,-740.205942,229.828649
3218.132008,-10214.842000,-2664.741391,2451.505594
3218.132345,-10955.047942,-1036.288319,1838.629195
3218.132683,-10955.047942,-1258.350101,842.705048
3218.133020,-10510.924376,-740.205942,229.828649
3218.133357,-10066.800811,-2368.659014,76.609550
3218.133694,-10732.986159,-2146.597232,995.924147
3218.134031,-9474.636058,-1480.411884,612.876398
3218.134369,-9252.574275,0.000000,1225.752797
3218.134706,-10955.047942,0.000000,76.609550
3218.135043,-11399.171507,222.061783,-842.705048
3218.135380,-10288.862594,666.185348,-842.705048
3218.135718,-9326.594869,-370.102971,919.314598
3218.136055,-10807.006753,-148.041188,3064.381992
3218.136392,-10658.965565,222.061783,306.438199
3218.136729,-10362.883188,518.144159,-995.924147
3218.137067,-10362.883188,0.000000,-1608.800546
3218.137404,-10658.965565,-1776.494261,-1685.410096
3218.137741,-10140.821405,-1480.411884,-995.924147
3218.138078,-8586.388927,-1036.288319,76.609550
3218.138415,-8586.388927,518.144159,383.047749
3218.138753,-10510.924376,444.123565,-536.266849
3218.139090,-10732.986159,296.082377,-1762.019645
3218.139427,-9178.553681,888.247130,306.438199
3218.139764,-9400.615463,518.144159,2987.772442
3218.140102,-10436.903782,814.226536,3064.381992
3218.140439,-9844.739029,666.185348,1608.800546
3218.140776,-9178.553681,1480.411884,689.485948
3218.141113,-9474.636058,370.102971,766.095498
3218.141450,-10214.842000,-148.041188,459.657299
3218.141788,-10510.924376,148.041188,689.485948
3218.142125,-9178.553681,666.185348,919.314598
3218.142462,-9326.594869,814.226536,306.438199
3218.142799,-9992.780217,592.164754,-1991.848295
3218.143137,-9474.636058,222.061783,-2451.505594
3218.143474,-8956.491898,-592.164754,0.000000
3218.143811,-10140.821405,-1036.288319,2374.896044
3218.144148,-11325.150913,-370.102971,1072.533697
3218.144486,-10436.903782,-1184.329507,-1915.238745
3218.144823,-9992.780217,-1924.535449,-1838.629195
3218.145160,-10658.965565,-3330.926739,-842.705048
3218.145497,-10732.986159,-3404.947333,306.438199
3218.145834,-9474.636058,-2368.659014,0.000000
3218.146172,-9400.615463,-1776.494261,76.609550
3218.146509,-11029.068536,-962.267725,-766.095498
3218.146846,-12139.377449,-1258.350101,-1378.971896
3218.147183,-10362.883188,-74.020594,-612.876398
3218.147521,-9622.677246,-1184.329507,2221.676944
3218.147858,-10362.883188,-74.020594,3907.087040
3218.148195,-11399.171507,-370.102971,2451.505594
3218.148532,-10288.862594,1554.432478,1072.533697
3218.148870,-10288.862594,666.185348,-536.266849
3218.149207,-10732.986159,-518.144159,-229.828649
3218.149544,-10066.800811,518.144159,0.000000
3218.149881,-8882.471304,888.247130,689.485948
3218.150218,-8290.306550,1554.432478,76.609550
3218.150556,-9474.636058,1110.308913,-1149.143247
3218.150893,-10955.047942,1332.370696,-1072.533697
3218.151230,-8882.471304,1480.411884,-689.485948
3218.151567,-9548.656652,-222.061783,1762.019645
3218.151905,-10436.903782,518.144159,3064.381992
3218.152242,-9622.677246,740.205942,995.924147
3218.152579,-9326.594869,740.205942,459.657299
3218.152916,-9770.718434,-740.205942,-306.438199
3218.153254,-10214.842000,-1924.535449,1072.533697
3218.153591,-10584.944971,-1036.288319,1762.019645
3218.153928,-8734.430116,-148.041188,1378.971896
3218.154265,-9770.718434,1036.288319,1532.190996
3218.154602,-11399.171507,74.020594,-1072.533697
3218.154940,-10214.842000,518.144159,-1991.848295
3218.155277,-9030.512492,-370.102971,689.485948
3218.155614,-10510.924376,-666.185348,3753.867940
3218.155951,-11325.150913,-74.020594,2681.334243
3218.156289,-10658.965565,-148.041188,-766.095498
3218.156626,-9622.677246,0.000000,-1378.971896
3218.156963,-10732.986159,-1850.514855,-1225.752797
3218.157300,-10732.986159,-2368.659014,-229.828649
3218.157637,-9252.574275,-1998.556043,-842.705048
3218.157975,-8808.450710,-1480.411884,0.000000
3218.158312,-10066.800811,-814.226536,-2145.067394
3218.158649,-10881.027347,-1184.329507,-3064.381992
3218.158986,-10066.800811,-2072.576638,-1302.362347
3218.159324,-9400.615463,-2442.679609,1455.581446
3218.159661,-10362.883188,-1406.391290,2604.724693
3218.159998,-11177.109724,-1036.288319,1762.019645
3218.160335,-10214.842000,-592.164754,0.000000
3218.160673,-9622.677246,-1258.350101,-459.657299
3218.161010,-11177.109724,-1850.514855,76.609550
3218.161347,-10436.903782,-962.267725,1149.143247
3218.161684,-9992.780217,444.123565,2145.067394
3218.162021,-8660.409521,1776.494261,1072.533697
3218.162359,-10362.883188,1702.473667,-383.047749
3218.162696,-10881.027347,1850.514855,-383.047749
3218.163033,-9326.594869,1184.329507,229.828649
3218.163370,-9474.636058,962.267725,2298.286494
3218.163708,-10732.986159,2368.659014,2068.457845
3218.164045,-9622.677246,1702.473667,-459.657299
3218.164382,-9178.553681,1850.514855,-1608.800546
3218.164719,-9474.636058,-518.144159,-1072.533697
3218.165057,-9918.759623,-888.247130,-919.314598
3218.165394,-9622.677246,-222.061783,-919.314598
3218.165731,-8808.450710,-740.205942,-459.657299
3218.166068,-9400.615463,-444.123565,-383.047749
3218.166405,-10436.903782,-814.226536,-2068.457845
3218.166743,-9844.739029,-962.267725,-689.485948
3218.167080,-9474.636058,-1480.411884,1762.019645
3218.167417,-10732.986159,-1850.514855,3600.648841
3218.167754,-11251.130318,-1332.370696,2068.457845
3218.168092,-10955.047942,-962.267725,842.705048
3218.168429,-10362.883188,-1184.329507,306.438199
3218.168766,-11103.089130,-2960.823768,536.266849
3218.169103,-10732.986159,-1850.514855,1225.752797
3218.169441,-9400.615463,-1036.288319,995.924147
3218.169778,-9548.656652,222.061783,919.314598
3218.170115,-11029.068536,148.041188,-612.876398
3218.170452,-11991.336260,740.205942,-689.485948
3218.170789,-10066.800811,-296.082377,-383.047749
3218.171127,-8586.388927,222.061783,1762.019645
3218.171464,-10214.842000,-296.082377,2834.553343
3218.171801,-10955.047942,518.144159,919.314598
3218.172138,-9770.718434,962.267725,-1762.019645
3218.172476,-9992.780217,0.000000,-1378.971896
3218.172813,-10732.986159,-1480.411884,-1455.581446
3218.173150,-9178.553681,-1258.350101,-383.047749
3218.173487,-8216.285956,-962.267725,995.924147
3218.173825,-8068.244768,444.123565,842.705048
3218.174162,-9844.739029,0.000000,76.609550
3218.174499,-10732.986159,740.205942,153.219100
3218.174836,-9696.697840,592.164754,1378.971896
3218.175174,-10140.821405,444.123565,3830.477490
3218.175511,-11103.089130,1628.453072,3600.648841
3218.175848,-10214.842000,1628.453072,1149.143247
3218.176185,-9474.636058,1776.494261,383.047749
3218.176522,-9622.677246,222.061783,0.000000
3218.176860,-10362.883188,0.000000,459.657299
3218.177197,-10066.800811,518.144159,306.438199
3218.177534,-9622.677246,1110.308913,0.000000
3218.177871,-9844.739029,1036.288319,-1149.143247
3218.178209,-11103.089130,148.041188,-3524.039291
3218.178546,-8734.430116,592.164754,-3370.820191
3218.178883,-8734.430116,-1702.473667,-536.266849
3218.179220,-9992.780217,-1406.391290,1685.410096
3218.179558,-11251.130318,-1258.350101,0.000000
3218.179895,-10436.903782,-962.267725,-2451.505594
3218.180232,-9844.739029,-2072.576638,-2987.772442
3218.180569,-10584.944971,-4145.153275,-1149.143247
3218.180906,-10510.924376,-3552.988522,-153.219100
3218.181244,-8956.491898,-2590.720797,383.047749
3218.181581,-9474.636058,-2738.761985,842.705048
3218.181918,-11325.150913,-1850.514855,76.609550
3218.182255,-11843.295072,-1480.411884,0.000000
3218.182593,-10436.903782,-740.205942,1225.752797
3218.182930,-9770.718434,-1184.329507,3217.601092
3218.183267,-10732.986159,-518.144159,4826.401637
3218.183604,-11177.109724,592.164754,3064.381992
3218.183942,-9548.656652,1110.308913,689.485948
3218.184279,-10584.944971,962.267725,76.609550
3218.184616,-10732.986159,-666.185348,-383.047749
3218.184953,-10066.800811,518.144159,766.095498
3218.185290,-8956.491898,814.226536,1455.581446
3218.185628,-7772.162391,1406.391290,0.000000
3218.185965,-10436.903782,1406.391290,-766.095498
3218.186302,-10584.944971,1184.329507,-1685.410096
3218.186639,-8956.491898,1110.308913,-536.266849
3218.186977,-9548.656652,1036.288319,1838.629195
3218.187314,-10584.944971,666.185348,2068.457845
3218.187651,-9622.677246,666.185348,-459.657299
3218.187988,-8808.450710,296.082377,-1149.143247
3218.188326,-9030.512492,-888.247130,-842.705048
3218.188663,-10288.862594,-1776.494261,919.314598
3218.189000,-9548.656652,-1332.370696,1225.752797
3218.189337,-9400.615463,-222.061783,2068.457845
3218.189674,-10658.965565,296.082377,1762.019645
3218.190012,-11399.171507,518.144159,0.000000
3218.190349,-10214.842000,296.082377,0.000000
3218.190686,-9474.636058,-666.185348,1915.238745
3218.191023,-9844.739029,0.000000,3600.648841
3218.191361,-11695.253884,-962.267725,2451.505594
3218.191698,-10140.821405,148.041188,-1072.533697
3218.192035,-9844.739029,-592.164754,-2068.457845
3218.192372,-11251.130318,-1924.535449,-1072.533697
3218.192710,-10658.965565,-2072.576638,-1072.533697
3218.193047,-9178.553681,-1776.494261,-612.876398
3218.193384,-8956.491898,-1184.329507,-689.485948
3218.193721,-10362.883188,-740.205942,-1915.238745
3218.194058,-11843.295072,-962.267725,-2528.115143
3218.194396,-9844.739029,-1628.453072,-1378.971896
3218.194733,-9400.615463,-1850.514855,1762.019645
3218.195070,-10658.965565,-1406.391290,2451.505594
3218.195407,-10436.903782,-148.041188,229.828649
3218.195745,-9770.718434,-148.041188,-612.876398
3218.196082,-10066.800811,-888.247130,-766.095498
3218.196419,-10658.965565,-1184.329507,0.000000
3218.196756,-10140.821405,-444.123565,1378.971896
3218.197094,-8956.491898,814.226536,2451.505594
3218.197431,-9474.636058,1702.473667,1762.019645
3218.197768,-10436.903782,2220.617826,306.438199
3218.198105,-10584.944971,2220.617826,995.924147
3218.198442,-9326.594869,2368.659014,1838.629195
3218.198780,-9918.759623,1776.494261,3064.381992
3218.199117,-10214.842000,2294.638420,1915.238745
3218.199454,-9252.574275,2146.597232,-306.438199
3218.199791,-8660.409521,1850.514855,-995.924147
3218.200129,-9474.636058,-592.164754,-995.924147
3218.200466,-9992.780217,-1258.350101,-459.657299
3218.200803,-8882.471304,-814.226536,-1072.533697
3218.201140,-8438.347739,518.144159,0.000000
3218.201478,-10066.800811,-740.205942,-689.485948
3218.201815,-10955.047942,-740.205942,-1685.410096
3218.202152,-9622.677246,-518.144159,-995.924147
3218.202489,-9252.574275,-1924.535449,2298.286494
3218.202827,-10140.821405,-1924.535449,3294.210641
3218.203164,-11547.212695,-1850.514855,1915.238745
3218.203501,-10584.944971,-1332.370696,459.657299
3218.203838,-10066.800811,-1850.514855,0.000000
3218.204175,-11325.150913,-2960.823768,0.000000
3218.204513,-10510.924376,-2664.741391,0.000000
3218.204850,-9474.636058,-1628.453072,1225.752797
3218.205187,-9548.656652,-740.205942,1532.190996
3218.205524,-11399.171507,0.000000,0.000000
3218.205862,-11473.192101,-518.144159,-612.876398
3218.206199,-10066.800811,-888.247130,383.047749
3218.206536,-9474.636058,-444.123565,2451.505594
3218.206873,-10658.965565,-518.144159,2145.067394
3218.207211,-10362.883188,74.020594,-459.657299
3218.207548,-9178.553681,592.164754,-2298.286494
3218.207885,-9622.677246,-518.144159,-2451.505594
3218.208222,-10362.883188,-2368.659014,-1685.410096
3218.208559,-8956.491898,-1480.411884,-919.314598
3218.208897,-8586.388927,-74.020594,383.047749
3218.209234,-9252.574275,222.061783,919.314598
3218.209571,-10584.944971,888.247130,-1072.533697
3218.209908,-10436.903782,1036.288319,-459.657299
3218.210246,-9548.656652,888.247130,1915.238745
3218.210583,-9844.739029,296.082377,3447.429741
3218.210920,-11251.130318,2220.617826,3140.991542
3218.211257,-10214.842000,2664.741391,1072.533697
3218.211595,-9474.636058,1924.535449,-459.657299
3218.211932,-10288.862594,0.000000,689.485948
3218.212269,-10214.842000,592.164754,766.095498
3218.212606,-9474.636058,814.226536,1149.143247
3218.212943,-9548.656652,1406.391290,1302.362347
3218.213281,-10066.800811,1110.308913,-612.876398
3218.213618,-10658.965565,1110.308913,-1991.848295
3218.213955,-9252.574275,222.061783,-1991.848295
3218.214292,-8956.491898,-888.247130,1378.971896
3218.214630,-10214.842000,-1406.391290,2451.505594
3218.214967,-10584.944971,-1258.350101,383.047749
3218.215304,-9326.594869,-888.247130,-2145.067394
3218.215641,-9696.697840,-2960.823768,-2374.896044
3218.215979,-11251.130318,-3849.070898,-766.095498
3218.216316,-10288.862594,-3849.070898,-766.095498
3218.216653,-9104.533087,-2220.617826,536.266849
3218.216990,-9548.656652,-1480.411884,459.657299
3218.217327,-11547.212695,-1332.370696,-612.876398
3218.217665,-11695.253884,-1110.308913,-689.485948
3218.218002,-9992.780217,-592.164754,842.705048
3218.218339,-9992.780217,-740.205942,3753.867940
3218.218676,-11547.212695,-296.082377,4213.525239
3218.219014,-10881.027347,148.041188,2145.067394
3218.219351,-9474.636058,1258.350101,-842.705048
3218.219688,-10288.862594,222.061783,-1302.362347
3218.220025,-11325.150913,-592.164754,-306.438199
3218.220363,-9770.718434,222.061783,459.657299
3218.220700,-8512.368333,1554.432478,1149.143247
3218.221037,-9178.553681,1406.391290,0.000000
3218.221374,-10658.965565,1332.370696,-1378.971896
3218.221711,-10362.883188,1702.473667,-1762.019645
3218.222049,-8956.491898,740.205942,459.657299
3218.222386,-9252.574275,222.061783,2451.505594
3218.222723,-9992.780217,888.247130,1685.410096
3218.223060,-9474.636058,444.123565,-919.314598
3218.223398,-8586.388927,74.020594,-1072.533697
3218.223735,-9844.739029,-1036.288319,-229.828649
3218.224072,-10362.883188,-962.267725,153.219100
3218.224409,-9252.574275,-888.247130,766.095498
3218.224747,-9400.615463,296.082377,1762.019645
3218.225084,-10436.903782,1110.308913,689.485948
3218.225421,-11769.274478,1332.370696,-459.657299
3218.225758,-10362.883188,444.123565,-229.828649
3218.226095,-9400.615463,-814.226536,2374.896044
3218.226433,-10510.924376,-296.082377,3370.820191
3218.226770,-11399.171507,0.000000,1685.410096
3218.227107,-9622.677246,148.041188,-1838.629195
3218.227444,-9992.780217,-1258.350101,-2604.724693
3218.227782,-11029.068536,-1924.535449,-1608.800546
3218.228119,-10288.862594,-2590.720797,-383.047749
3218.228456,-8734.430116,-1184.329507,-689.485948
3218.228793,-9400.615463,-1480.411884,-536.266849
3218.229131,-11325.150913,-1184.329507,-1302.362347
3218.229468,-10881.027347,-1406.391290,-1762.019645
3218.229805,-9918.759623,-2072.576638,612.876398
3218.230142,-9844.739029,-2294.638420,3217.601092
3218.230480,-10510.924376,-2072.576638,2145.067394
3218.230817,-10955.047942,-740.205942,383.047749
3218.231154,-9326.594869,-148.041188,-1149.143247
3218.231491,-10214.842000,-1850.514855,-536.266849
3218.231828,-11103.089130,-2072.576638,306.438199
3218.232166,-9104.533087,0.000000,919.314598
3218.232503,-9400.615463,1258.350101,3140.991542
3218.232840,-10288.862594,1628.453072,1378.971896
3218.233177,-10066.800811,1554.432478,229.828649
3218.233515,-10732.986159,2294.638420,459.657299
3218.233852,-9326.594869,2664.741391,2911.162892
3218.234189,-10362.883188,2220.617826,3217.601092
3218.234526,-10436.903782,2146.597232,766.095498
3218.234864,-9030.512492,2368.659014,-1302.362347
3218.235201,-8660.409521,1184.329507,-1532.190996
3218.235538,-9770.718434,-370.102971,-1455.581446
3218.235875,-9474.636058,-1110.308913,-1608.800546
3218.236212,-8660.409521,-370.102971,-919.314598
3218.236550,-9104.533087,444.123565,0.000000
3218.236887,-10510.924376,-148.041188,-1608.800546
3218.237224,-11029.068536,74.020594,-1072.533697
3218.237561,-9770.718434,-444.123565,0.000000
3218.237899,-9400.615463,-1702.473667,2757.943793
3218.238236,-10732.986159,-2146.597232,2834.553343
3218.238573,-10807.006753,-1332.370696,1608.800546
3218.238910,-10214.842000,-1332.370696,-612.876398
3218.239248,-10288.862594,-2072.576638,-766.095498
3218.239585,-11769.274478,-2516.700203,-536.266849
3218.239922,-10510.924376,-2516.700203,536.266849
3218.240259,-9030.512492,-1036.288319,612.876398
3218.240596,-9770.718434,-740.205942,536.266849
3218.240934,-11843.295072,222.061783,-612.876398
3218.241271,-11103.089130,0.000000,-1225.752797
3218.241608,-10214.842000,-888.247130,919.314598
3218.241945,-9252.574275,-666.185348,2374.896044
3218.242283,-10658.965565,-740.205942,1532.190996
3218.242620,-11177.109724,370.102971,-229.828649
3218.242957,-9548.656652,-296.082377,-3064.381992
3218.243294,-10214.842000,-1258.350101,-1991.848295
3218.243632,-10288.862594,-2072.576638,-1991.848295
3218.243969,-8290.306550,-1258.350101,-842.705048
3218.244306,-8586.388927,0.000000,766.095498
3218.244643,-9622.677246,0.000000,0.000000
3218.244980,-10732.986159,740.205942,-766.095498
3218.245318,-10066.800811,1110.308913,459.657299
3218.245655,-9696.697840,814.226536,2834.553343
3218.245992,-10955.047942,740.205942,4596.572988
3218.246329,-10955.047942,1850.514855,2145.067394
3218.246667,-9474.636058,2738.761985,612.876398
3218.247004,-8956.491898,1184.329507,0.000000
3218.247341,-9992.780217,-444.123565,919.314598
3218.247678,-10214.842000,296.082377,459.657299
3218.248016,-9178.553681,1406.391290,766.095498
3218.248353,-9770.718434,2294.638420,229.828649
3218.248690,-10584.944971,1924.535449,-1991.848295
3218.249027,-10066.800811,1554.432478,-2757.943793
3218.249364,-9178.553681,518.144159,-1532.190996
3218.249702,-9030.512492,-1184.329507,2068.457845
3218.250039,-10066.800811,-1480.411884,1991.848295
3218.250376,-10807.006753,-518.144159,-229.828649
3218.250713,-9474.636058,-1702.473667,-2987.772442
3218.251051,-9770.718434,-2368.659014,-2068.457845
3218.251388,-11103.089130,-3775.050304,-306.438199
3218.251725,-9918.759623,-3404.947333,76.609550
3218.252062,-8438.347739,-2072.576638,459.657299
3218.252400,-10140.821405,-1850.514855,1149.143247
3218.252737,-12361.439231,-1554.432478,306.438199
3218.253074,-11029.068536,-1480.411884,76.609550
3218.253411,-9770.718434,-1702.473667,3064.381992
3218.253748,-9770.718434,-740.205942,4443.353888
3218.254086,-11621.233289,-1184.329507,3753.867940
3218.254423,-10881.027347,296.082377,1378.971896
3218.254760,-9252.574275,74.020594,-689.485948
3218.255097,-10955.047942,-592.164754,-995.924147
3218.255435,-11177.109724,-444.123565,-536.266849
3218.255772,-8882.471304,222.061783,153.219100
3218.256109,-8734.430116,1406.391290,995.924147
3218.256446,-9326.594869,1628.453072,-842.705048
3218.256784,-10140.821405,1184.329507,-2221.676944
3218.257121,-9992.780217,888.247130,-1225.752797
3218.257458,-9178.553681,592.164754,1302.362347
3218.257795,-9770.718434,518.144159,1225.752797
3218.258132,-10362.883188,814.226536,306.438199
3218.258470,-8734.430116,1036.288319,-1378.971896
3218.258807,-8438.347739,-962.267725,-1685.410096
3218.259144,-9696.697840,-1184.329507,0.000000
3218.259481,-10066.800811,-1332.370696,76.609550
3218.259819,-9622.677246,296.082377,1149.143247
3218.260156,-10066.800811,740.205942,1685.410096
3218.260493,-11103.089130,518.144159,536.266849
3218.260830,-11029.068536,888.247130,-229.828649
3218.261168,-9474.636058,518.144159,1302.362347
3218.261505,-9844.739029,-888.247130,4136.915689
3218.261842,-10807.006753,0.000000,3524.039291
3218.262179,-11103.089130,666.185348,536.266849
3218.262517,-9992.780217,370.102971,-1838.629195
3218.262854,-10436.903782,-1850.514855,-2451.505594
3218.263191,-11103.089130,-2664.741391,-842.705048
3218.263528,-9178.553681,-2072.576638,-995.924147
3218.263866,-8216.285956,-1258.350101,0.000000
3218.264203,-10288.862594,-814.226536,-612.876398
3218.264541,-11547.212695,-1184.329507,-2451.505594
3218.264878,-10584.944971,-1406.391290,-2221.676944
3218.265215,-9622.677246,-2368.659014,1225.752797
3218.265553,-9548.656652,-2294.638420,2528.115143
3218.265890,-10510.924376,-2072.576638,1838.629195
3218.266228,-10214.842000,-814.226536,-306.438199
3218.266565,-9326.594869,-1184.329507,-1302.362347
3218.266902,-10807.006753,-1480.411884,-153.219100
3218.267240,-11029.068536,-1776.494261,153.219100
3218.267577,-9178.553681,-444.123565,1149.143247
3218.267915,-9178.553681,1406.391290,2681.334243
3218.268252,-10214.842000,1702.473667,1685.410096
3218.268589,-11029.068536,1776.494261,536.266849
3218.268927,-9844.739029,1554.432478,1072.533697
3218.269264,-9696.697840,2368.659014,3064.381992
3218.269602,-10955.047942,2220.617826,2681.334243
3218.269939,-10362.883188,2294.638420,459.657299
3218.270276,-8586.388927,2294.638420,-919.314598
3218.270614,-8290.306550,1036.288319,-1838.629195
3218.270951,-10066.800811,74.020594,-919.314598
3218.271289,-9770.718434,-1036.288319,-1072.533697
3218.271626,-8438.347739,518.144159,-306.438199
3218.271963,-9474.636058,592.164754,-689.485948
3218.272301,-10658.965565,444.123565,-1302.362347
3218.272638,-10436.903782,0.000000,-1532.190996
3218.272975,-8956.491898,-962.267725,995.924147
3218.273313,-9474.636058,-1480.411884,3064.381992
3218.273650,-10732.986159,-1554.432478,2145.067394
3218.273988,-10955.047942,-1480.411884,995.924147
3218.274325,-9992.780217,-962.267725,0.000000
3218.274662,-10658.965565,-2146.597232,229.828649
3218.275000,-11177.109724,-2294.638420,536.266849
3218.275337,-9622.677246,-1776.494261,766.095498
3218.275675,-9030.512492,-814.226536,1915.238745
3218.276012,-10510.924376,-370.102971,459.657299
3218.276349,-11695.253884,0.000000,-459.657299
3218.276687,-10955.047942,0.000000,-383.047749
3218.277024,-9548.656652,-1036.288319,1608.800546
3218.277362,-9622.677246,-1332.370696,2757.943793
3218.277699,-10584.944971,-888.247130,612.876398
3218.278036,-9992.780217,0.000000,-842.705048
3218.278374,-9844.739029,-888.247130,-3140.991542
3218.278711,-10584.944971,-2146.597232,-2221.676944
3218.279049,-10362.883188,-2220.617826,-1532.190996
3218.279386,-7994.224174,-1554.432478,-919.314598
3218.279723,-8216.285956,-296.082377,76.609550
3218.280061,-10658.965565,-444.123565,0.000000
3218.280398,-10658.965565,444.123565,-1149.143247
3218.280736,-9474.636058,296.082377,-306.438199
3218.281073,-9770.718434,1332.370696,2528.115143
3218.281410,-11473.192101,222.061783,3217.601092
3218.281748,-10510.924376,1702.473667,1762.019645
3218.282085,-9178.553681,2294.638420,689.485948
3218.282423,-9178.553681,740.205942,919.314598
3218.282760,-10288.862594,-148.041188,153.219100
3218.283097,-9992.780217,0.000000,0.000000
3218.283435,-8734.430116,1998.556043,536.266849
3218.283772,-9474.636058,1850.514855,459.657299
3218.284110,-10732.986159,1628.453072,-1991.848295
3218.284447,-9326.594869,1258.350101,-2757.943793
3218.284784,-8586.388927,222.061783,0.000000
3218.285122,-8808.450710,-962.267725,2757.943793
3218.285459,-10140.821405,-814.226536,1149.143247
3218.285797,-10140.821405,-1036.288319,-536.266849
3218.286134,-9326.594869,-1998.556043,-1838.629195
3218.286471,-10732.986159,-2886.803174,0.000000
3218.286809,-10807.006753,-3404.947333,536.266849
3218.287146,-9474.636058,-2812.782580,766.095498
3218.287484,-8956.491898,-1702.473667,1378.971896
3218.287821,-10881.027347,-1332.370696,612.876398
3218.288158,-11991.336260,-1480.411884,-306.438199
3218.288496,-10288.862594,-1036.288319,76.609550
3218.288833,-9400.615463,-1184.329507,2681.334243
3218.289171,-10955.047942,-1258.350101,4213.525239
3218.289508,-11029.068536,-444.123565,2145.067394
3218.289845,-10436.903782,296.082377,1149.143247
3218.290183,-9918.759623,0.000000,-229.828649
3218.290520,-10732.986159,-296.082377,306.438199
3218.290858,-11547.212695,-222.061783,383.047749
3218.291195,-9030.512492,518.144159,229.828649
3218.291532,-8734.430116,1036.288319,766.095498
3218.291870,-10362.883188,444.123565,306.438199
3218.292207,-10362.883188,1924.535449,-1608.800546
3218.292545,-9918.759623,740.205942,-919.314598
3218.292882,-9770.718434,296.082377,536.266849
3218.293219,-9696.697840,0.000000,459.657299
3218.293557,-9918.759623,370.102971,153.219100
3218.293894,-8586.388927,296.082377,-1685.410096
3218.294232,-8882.471304,-814.226536,-766.095498
3218.294569,-10510.924376,-1184.329507,536.266849
3218.294906,-9992.780217,-888.247130,612.876398
3218.295244,-9104.533087,444.123565,1302.362347
3218.295581,-10140.821405,518.144159,1225.752797
3218.295919,-11103.089130,1258.350101,153.219100
3218.296256,-10658.965565,1110.308913,-919.314598
3218.296593,-9030.512492,148.041188,766.095498
3218.296931,-9918.759623,0.000000,2987.772442
3218.297268,-10584.944971,-592.164754,2145.067394
3218.297605,-10510.924376,592.164754,153.219100
3218.297943,-9918.759623,296.082377,-2068.457845
3218.298280,-10584.944971,-1184.329507,-1608.800546
3218.298618,-11103.089130,-1480.411884,-536.266849
3218.298955,-9030.512492,-1776.494261,-842.705048
3218.299292,-8586.388927,-518.144159,766.095498
3218.299630,-10510.924376,-740.205942,-459.657299
3218.299967,-11547.212695,-962.267725,-2145.067394
3218.300305,-10288.862594,-1406.391290,-1838.629195
3218.300642,-9622.677246,-1702.473667,1302.362347
3218.300979,-10658.965565,-2368.659014,2834.553343
3218.301317,-10436.903782,-1554.432478,612.876398
3218.301654,-9474.636058,-888.247130,-459.657299
3218.301992,-10066.800811,-1850.514855,-689.485948
3218.302329,-10881.027347,-2072.576638,153.219100
3218.302666,-10658.965565,-1924.535449,1225.752797
3218.303004,-9178.553681,-444.123565,2681.334243
3218.303341,-8660.409521,1406.391290,2145.067394
3218.303679,-10955.047942,1332.370696,919.314598
3218.304016,-10658.965565,1776.494261,-76.609550
3218.304353,-9474.636058,1332.370696,1378.971896
3218.304691,-9622.677246,1998.556043,2911.162892
3218.305028,-10658.965565,1776.494261,1838.629195
3218.305366,-10510.924376,2146.597232,-306.438199
3218.305703,-8586.388927,1850.514855,-1762.019645
3218.306040,-8438.347739,0.000000,-1225.752797
3218.306378,-10140.821405,-74.020594,-689.485948
3218.306715,-9918.759623,-518.144159,-536.266849
3218.307053,-8734.430116,740.205942,0.000000
3218.307390,-9918.759623,74.020594,-689.485948
3218.307727,-10807.006753,592.164754,-2068.457845
3218.308065,-10436.903782,0.000000,-1225.752797
3218.308402,-9104.533087,-888.247130,842.705048
3218.308740,-9474.636058,-1480.411884,2911.162892
3218.309077,-10807.006753,-1776.494261,1991.848295
3218.309414,-10362.883188,-518.144159,0.000000
3218.309752,-10584.944971,-1554.432478,-459.657299
3218.310089,-10658.965565,-2590.720797,0.000000
3218.310427,-10584.944971,-2146.597232,536.266849
3218.310764,-9844.739029,-1258.350101,1762.019645
3218.311101,-8882.471304,518.144159,842.705048
3218.311439,-10881.027347,-370.102971,0.000000
3218.311776,-11399.171507,370.102971,-1225.752797
3218.312114,-9992.780217,592.164754,-995.924147
3218.312451,-9696.697840,-814.226536,2221.676944
3218.312788,-10362.883188,-962.267725,2528.115143
3218.313126,-10066.800811,-592.164754,153.219100
3218.313463,-9992.780217,74.020594,-1072.533697
3218.313801,-9696.697840,-296.082377,-2221.676944
3218.314138,-10658.965565,-1850.514855,-1838.629195
3218.314475,-10140.821405,-2220.617826,-536.266849
3218.314813,-8586.388927,-888.247130,306.438199
3218.315150,-9252.574275,-222.061783,766.095498
3218.315488,-10881.027347,0.000000,229.828649
3218.315825,-10288.862594,370.102971,-612.876398
3218.316162,-9548.656652,0.000000,1225.752797
3218.316500,-10362.883188,518.144159,3830.477490
3218.316837,-11177.109724,74.020594,2911.162892
3218.317175,-10436.903782,1110.308913,2068.457845
3218.317512,-9326.594869,1776.494261,0.000000
3218.317849,-9326.594869,222.061783,153.219100
3218.318187,-10362.883188,222.061783,459.657299
3218.318524,-9326.594869,666.185348,766.095498
3218.318862,-8882.471304,1406.391290,842.705048
3218.319199,-10140.821405,1998.556043,-766.095498
3218.319536,-10955.047942,2220.617826,-2451.505594
3218.319874,-9400.615463,740.205942,-2911.162892
3218.320211,-8142.265362,-518.144159,-306.438199
3218.320549,-8956.491898,-1480.411884,2374.896044
3218.320886,-10066.800811,-666.185348,1225.752797
3218.321223,-9474.636058,-814.226536,-1762.019645
3218.321561,-10140.821405,-1702.473667,-2374.896044
3218.321898,-11251.130318,-2516.700203,-919.314598
3218.322235,-10881.027347,-2368.659014,229.828649
3218.322573,-9326.594869,-2146.597232,689.485948
3218.322910,-8956.491898,-1702.473667,995.924147
3218.323248,-10955.047942,-1332.370696,995.924147
3218.323585,-12361.439231,-814.226536,-153.219100
3218.323922,-10288.862594,-1406.391290,689.485948
3218.324260,-10881.027347,-1406.391290,3370.820191
3218.324597,-10881.027347,-888.247130,3907.087040
3218.324935,-10807.006753,-74.020594,2298.286494
3218.325272,-10140.821405,740.205942,766.095498
3218.325609,-10066.800811,-740.205942,-612.876398
3218.325947,-11473.192101,-518.144159,383.047749
3218.326284,-10362.883188,0.000000,0.000000
3218.326622,-8808.450710,740.205942,153.219100
3218.326959,-8660.409521,1184.329507,-76.609550
3218.327296,-10288.862594,370.102971,-1378.971896
3218.327634,-9770.718434,1480.411884,-2298.286494
3218.327971,-9326.594869,592.164754,-459.657299
3218.328309,-9474.636058,444.123565,1149.143247
3218.328646,-10288.862594,0.000000,612.876398
3218.328983,-9548.656652,518.144159,229.828649
3218.329321,-8512.368333,0.000000,-995.924147
3218.329658,-9030.512492,-666.185348,-229.828649
3218.329996,-10140.821405,-1110.308913,306.438199
3218.330333,-9770.718434,74.020594,995.924147
3218.330670,-9474.636058,518.144159,1762.019645
3218.331008,-10658.965565,1406.391290,612.876398
3218.331345,-11843.295072,1332.370696,306.438199
3218.331683,-10362.883188,1036.288319,459.657299
3218.332020,-9252.574275,-148.041188,2068.457845
3218.332357,-10214.842000,-444.123565,3907.087040
3218.332695,-11029.068536,0.000000,1532.190996
3218.333032,-9548.656652,592.164754,-766.095498
3218.333370,-10362.883188,-148.041188,-1532.190996
3218.333707,-10510.924376,-1628.453072,-1685.410096
3218.334044,-10288.862594,-2368.659014,-1685.410096
3218.334382,-8586.388927,-1702.473667,-842.705048
3218.334719,-8660.409521,-666.185348,-459.657299
3218.335057,-10732.986159,-1184.329507,-1838.629195
3218.335394,-11177.109724,-1184.329507,-3447.429741
3218.335731,-9178.553681,-1998.556043,-1608.800546
3218.336069,-9622.677246,-2812.782580,1608.800546
3218.336406,-10362.883188,-2516.700203,2374.896044
3218.336744,-10362.883188,-1702.473667,383.047749
3218.337081,-9770.718434,-1110.308913,-689.485948
3218.337418,-10214.842000,-1776.494261,-766.095498
3218.337756,-11029.068536,-1628.453072,612.876398
3218.338093,-10732.986159,-1628.453072,1685.410096
3218.338431,-9030.512492,148.041188,2451.505594
3218.338768,-9400.615463,518.144159,1991.848295
3218.339105,-10955.047942,1702.473667,1532.190996
3218.339443,-11177.109724,1628.453072,536.266849
3218.339780,-10140.821405,1776.494261,2298.286494
3218.340118,-10066.800811,1702.473667,3447.429741
3218.340455,-10955.047942,1554.432478,2298.286494
3218.340792,-10288.862594,2072.576638,0.000000
3218.341130,-8512.368333,1924.535449,-1455.581446
3218.341467,-9474.636058,-592.164754,-689.485948
3218.341805,-9326.594869,0.000000,-766.095498
3218.342142,-9178.553681,74.020594,0.000000
3218.342479,-8734.430116,888.247130,-383.047749
3218.342817,-9548.656652,-74.020594,-2068.457845
3218.343154,-10362.883188,148.041188,-1915.238745
3218.343492,-9474.636058,-444.123565,-1149.143247
3218.343829,-8364.327145,-1184.329507,1532.190996
3218.344166,-9992.780217,-1480.411884,3064.381992
3218.344504,-10436.903782,-1628.453072,1608.800546
3218.344841,-10066.800811,-74.020594,-306.438199
3218.345179,-10658.965565,-1332.370696,-689.485948
3218.345516,-11103.089130,-1850.514855,-383.047749
3218.345853,-10732.986159,-1628.453072,1072.533697
3218.346191,-9474.636058,-814.226536,1378.971896
3218.346528,-9178.553681,148.041188,1302.362347
3218.346865,-11843.295072,74.020594,76.609550
3218.347203,-11843.295072,0.000000,-842.705048
3218.347540,-9918.759623,-296.082377,0.000000
3218.347878,-9696.697840,-740.205942,2145.067394
3218.348215,-10584.944971,-592.164754,2068.457845
3218.348552,-10510.924376,-296.082377,0.000000
3218.348890,-9844.739029,0.000000,-2145.067394
3218.349227,-10066.800811,-1110.308913,-2068.457845
3218.349565,-10807.006753,-2072.576638,-1915.238745
3218.349902,-9548.656652,-1998.556043,-919.314598
3218.350239,-8512.368333,-814.226536,0.000000
3218.350577,-9400.615463,0.000000,0.000000
3218.350914,-10510.924376,0.000000,-612.876398
3218.351252,-9992.780217,0.000000,-1225.752797
3218.351589,-8808.450710,-222.061783,1378.971896
3218.351926,-10288.862594,0.000000,3907.087040
3218.352264,-11769.274478,740.205942,3140.991542
3218.352601,-10140.821405,1702.473667,1072.533697
3218.352939,-9252.574275,1554.432478,76.609550
3218.353276,-9474.636058,74.020594,459.657299
3218.353613,-10510.924376,148.041188,1149.143247
3218.353951,-9770.718434,592.164754,1302.362347
3218.354288,-8882.471304,2146.597232,1072.533697
3218.354626,-10658.965565,1924.535449,459.657299
3218.354963,-11325.150913,2294.638420,-1302.362347
3218.355300,-9326.594869,666.185348,-1915.238745
3218.355638,-9400.615463,-222.061783,1455.581446
3218.355975,-9474.636058,-666.185348,2987.772442
3218.356313,-10362.883188,-518.144159,1225.752797
3218.356650,-9844.739029,-666.185348,-1532.190996
3218.356987,-9918.759623,-2368.659014,-1762.019645
3218.357325,-10658.965565,-3552.988522,-1225.752797
3218.357662,-10955.047942,-2738.761985,0.000000
3218.358000,-9400.615463,-2294.638420,536.266849
3218.358337,-8956.491898,-1850.514855,0.000000
3218.358674,-11029.068536,-1924.535449,-612.876398
3218.359012,-11103.089130,-888.247130,-766.095498
3218.359349,-9992.780217,-1480.411884,383.047749
3218.359687,-10066.800811,-1184.329507,2987.772442
3218.360024,-11621.233289,-1110.308913,2987.772442
3218.360361,-11177.109724,740.205942,1455.581446
3218.360699,-9844.739029,0.000000,0.000000
3218.361036,-10140.821405,0.000000,-306.438199
3218.361374,-11177.109724,-962.267725,0.000000
3218.361711,-10288.862594,0.000000,536.266849
3218.362048,-8586.388927,888.247130,306.438199
3218.362386,-9474.636058,1332.370696,-153.219100
3218.362723,-10362.883188,888.247130,-1225.752797
3218.363061,-10288.862594,1480.411884,-1302.362347
3218.363398,-9474.636058,888.247130,306.438199
3218.363735,-9696.697840,296.082377,1838.629195
3218.364073,-10584.944971,814.226536,1072.533697
3218.364410,-9696.697840,1036.288319,-306.438199
3218.364747,-8808.450710,592.164754,-766.095498
3218.365085,-9474.636058,-1184.329507,-459.657299
3218.365422,-9918.759623,-962.267725,76.609550
3218.365760,-9252.574275,-592.164754,1072.533697
3218.366097,-8808.450710,592.164754,919.314598
3218.366434,-10658.965565,1110.308913,459.657299
3218.366772,-11473.192101,1184.329507,-689.485948
3218.367109,-9474.636058,740.205942,-689.485948
3218.367446,-9178.553681,148.041188,2451.505594
3218.367784,-10066.800811,0.000000,3600.648841
3218.368121,-10807.006753,-518.144159,1762.019645
3218.368458,-9252.574275,592.164754,-1532.190996
3218.368796,-9844.739029,-518.144159,-1532.190996
3218.369133,-11177.109724,-1776.494261,-459.657299
3218.369470,-10436.903782,-2072.576638,-1072.533697
3218.369808,-9030.512492,-1628.453072,76.609550
3218.370145,-9252.574275,-1332.370696,0.000000
3218.370482,-10955.047942,-1184.329507,-1378.971896
3218.370820,-11473.192101,-1776.494261,-2145.067394
3218.371157,-9548.656652,-1924.535449,-306.438199
3218.371494,-10288.862594,-2442.679609,2757.943793
3218.371832,-11399.171507,-2294.638420,3294.210641
3218.372169,-10584.944971,-518.144159,76.609550
3218.372506,-9844.739029,-1554.432478,-689.485948
3218.372844,-10584.944971,-2368.659014,0.000000
3218.373181,-10362.883188,-2442.679609,1378.971896
3218.373518,-10807.006753,-962.267725,2451.505594
3218.373856,-9474.636058,296.082377,2068.457845
3218.374193,-9622.677246,1258.350101,689.485948
3218.374530,-11029.068536,1406.391290,0.000000
3218.374868,-9548.656652,1480.411884,0.000000
3218.375205,-9030.512492,1776.494261,2604.724693
3218.375542,-9696.697840,1258.350101,2987.772442
3218.375880,-11103.089130,2294.638420,842.705048
3218.376217,-10066.800811,2886.803174,-1455.581446
3218.376555,-8808.450710,1850.514855,-1302.362347
3218.376892,-9178.553681,-444.123565,-1455.581446
3218.377229,-9474.636058,-518.144159,-995.924147
3218.377567,-8660.409521,74.020594,0.000000
3218.377904,-8808.450710,814.226536,-383.047749
3218.378241,-10140.821405,148.041188,-1608.800546
3218.378579,-10881.027347,296.082377,-2145.067394
3218.378916,-9918.759623,-74.020594,-842.705048
3218.379253,-9474.636058,-1036.288319,2451.505594
3218.379591,-9918.759623,-1554.432478,2834.553343
3218.379928,-10362.883188,-1480.411884,1225.752797
3218.380265,-10140.821405,-888.247130,-766.095498
3218.380603,-11103.089130,-962.267725,229.828649
3218.380940,-11695.253884,-2368.659014,306.438199
3218.381277,-10362.883188,-2072.576638,536.266849
3218.381615,-9104.533087,-444.123565,995.924147
3218.381952,-9474.636058,-148.041188,153.219100
3218.382289,-11399.171507,-296.082377,-1072.533697
3218.382627,-11473.192101,-74.020594,-1072.533697
3218.382964,-9770.718434,-518.144159,229.828649
3218.383301,-9548.656652,-962.267725,1991.848295
3218.383639,-11325.150913,-740.205942,2068.457845
3218.383976,-10140.821405,-444.123565,-612.876398
3218.384313,-9548.656652,-222.061783,-2145.067394
3218.384651,-9992.780217,-1036.288319,-2068.457845
3218.384988,-10362.883188,-2294.638420,-1762.019645
3218.385325,-9770.718434,-1702.473667,-459.657299
3218.385663,-8586.388927,-740.205942,306.438199
3218.386000,-9252.574275,74.020594,842.705048
3218.386337,-11251.130318,814.226536,0.000000
3218.386675,-10214.842000,0.000000,0.000000
3218.387012,-9178.553681,444.123565,2911.162892
3218.387349,-10881.027347,592.164754,4903.011187
3218.387687,-11473.192101,2442.679609,3753.867940
3218.388024,-10732.986159,2368.659014,1149.143247
3218.388362,-9474.636058,1480.411884,-229.828649
3218.388699,-9548.656652,296.082377,612.876398
3218.389036,-9918.759623,518.144159,1072.533697
3218.389374,-8512.368333,1406.391290,383.047749
3218.389711,-8956.491898,1036.288319,306.438199
3218.390048,-10955.047942,2368.659014,-1378.971896
3218.390386,-10436.903782,2368.659014,-3524.039291
3218.390723,-9474.636058,814.226536,-2451.505594
3218.391060,-8068.244768,-74.020594,306.438199
3218.391398,-9548.656652,-1480.411884,1991.848295
3218.391735,-9992.780217,-296.082377,536.266849
3218.392072,-9178.553681,-888.247130,-2451.505594
3218.392410,-10288.862594,-2960.823768,-1378.971896
3218.392747,-11325.150913,-3627.009116,-995.924147
3218.393084,-9918.759623,-3182.885551,-459.657299
3218.393422,-9178.553681,-2146.597232,1072.533697
3218.393759,-9474.636058,-1332.370696,536.266849
3218.394096,-11695.253884,-1480.411884,-153.219100
3218.394434,-11621.233289,-1184.329507,-383.047749
3218.394771,-10214.842000,-1628.453072,1455.581446
3218.395108,-10510.924376,-1480.411884,3830.477490
3218.395446,-11621.233289,-1184.329507,4136.915689
3218.395783,-10584.944971,0.000000,1532.190996
3218.396120,-9992.780217,-518.144159,153.219100
3218.396458,-10807.006753,-666.185348,0.000000
3218.396795,-11325.150913,-1776.494261,-76.609550
3218.397132,-10066.800811,74.020594,306.438199
3218.397470,-8290.306550,888.247130,0.000000
3218.397807,-9178.553681,962.267725,-842.705048
3218.398144,-10436.903782,666.185348,-1915.238745
3218.398482,-8808.450710,1036.288319,-1685.410096
3218.398819,-9104.533087,814.226536,76.609550
3218.399156,-10140.821405,592.164754,1378.971896
3218.399494,-10584.944971,666.185348,689.485948
3218.399831,-8956.491898,370.102971,-612.876398
3218.400169,-8438.347739,148.041188,-766.095498
3218.400506,-9474.636058,-1406.391290,229.828649
3218.400843,-10362.883188,-1332.370696,612.876398
3218.401181,-8586.388927,148.041188,1455.581446
3218.401518,-9770.718434,592.164754,1685.410096
3218.401855,-10732.986159,1258.350101,1149.143247
3218.402193,-11991.336260,1554.432478,0.000000
3218.402530,-9918.759623,666.185348,842.705048
3218.402867,-9400.615463,296.082377,3064.381992
3218.403205,-10362.883188,0.000000,4290.134789
3218.403542,-11251.130318,814.226536,1991.848295
3218.403879,-8956.491898,74.020594,-459.657299
3218.404217,-10658.965565,-740.205942,-919.314598
3218.404554,-11177.109724,-2294.638420,-1302.362347
3218.404891,-9992.780217,-1850.514855,-995.924147
3218.405229,-8512.368333,-1036.288319,153.219100
3218.405566,-8956.491898,-1258.350101,-1225.752797
3218.405903,-10732.986159,-444.123565,-2451.505594
3218.406241,-10658.965565,-1258.350101,-3447.429741
3218.406578,-9548.656652,-1924.535449,-459.657299
3218.406915,-9696.697840,-2590.720797,2068.457845
3218.407253,-10807.006753,-2072.576638,1225.752797
3218.407590,-10288.862594,-666.185348,-612.876398
3218.407927,-9844.739029,-1628.453072,0.000000
3218.408265,-10658.965565,-2294.638420,383.047749
3218.408602,-11399.171507,-2442.679609,766.095498
3218.408939,-9992.780217,-592.164754,1838.629195
3218.409277,-9178.553681,444.123565,1838.629195
3218.409614,-9918.759623,1036.288319,1225.752797
3218.409951,-10807.006753,1628.453072,306.438199
3218.410289,-10066.800811,1850.514855,842.705048
3218.410626,-9844.739029,1998.556043,2911.162892
3218.410964,-10955.047942,1998.556043,2374.896044
3218.411301,-10732.986159,2442.679609,1149.143247
3218.411638,-9400.615463,2146.597232,-842.705048
3218.411976,-8512.368333,444.123565,-995.924147
3218.412313,-9326.594869,-814.226536,-766.095498
3218.412650,-9696.697840,-888.247130,-842.705048
3218.412988,-8512.368333,666.185348,-919.314598
3218.413325,-9474.636058,296.082377,-612.876398
3218.413662,-9844.739029,740.205942,-2681.334243
3218.414000,-10510.924376,222.061783,-3524.039291
3218.414337,-9326.594869,74.020594,-842.705048
3218.414674,-9030.512492,-1036.288319,2528.115143
3218.415012,-10362.883188,-1850.514855,2757.943793
3218.415349,-10658.965565,-1110.308913,612.876398
3218.415686,-9696.697840,-1184.329507,-689.485948
3218.416024,-10955.047942,-1850.514855,842.705048
3218.416361,-11473.192101,-2516.700203,229.828649
3218.416698,-9770.718434,-1850.514855,536.266849
3218.417036,-8882.471304,-814.226536,1532.190996
3218.417373,-10140.821405,-222.061783,1225.752797
3218.417710,-12139.377449,444.123565,229.828649
3218.418048,-11547.212695,-518.144159,-383.047749
3218.418385,-9474.636058,-370.102971,1455.581446
3218.418722,-10140.821405,-1036.288319,2987.772442
3218.419060,-11177.109724,-148.041188,2834.553343
3218.419397,-10362.883188,-666.185348,-689.485948
3218.419734,-9770.718434,-592.164754,-1991.848295
3218.420072,-10658.965565,-1776.494261,-1378.971896
3218.420409,-10732.986159,-2442.679609,-1378.971896
3218.420746,-8586.388927,-2294.638420,-689.485948
3218.421084,-7698.141797,-370.102971,0.000000
3218.421421,-10140.821405,-370.102971,306.438199
3218.421758,-10066.800811,518.144159,-1072.533697
3218.422096,-9252.574275,148.041188,-306.438199
3218.422433,-9178.553681,222.061783,2987.772442
3218.422771,-10732.986159,518.144159,3447.429741
3218.423108,-10658.965565,2146.597232,2757.943793
3218.423445,-9474.636058,1480.411884,536.266849
3218.423783,-8956.491898,888.247130,1072.533697
3218.424120,-9844.739029,-296.082377,689.485948
3218.424457,-9918.759623,592.164754,383.047749
3218.424795,-9030.512492,2146.597232,612.876398
3218.425132,-9770.718434,1406.391290,383.047749
3218.425469,-11103.089130,2812.782580,-1838.629195
3218.425807,-10362.883188,1850.514855,-2911.162892
3218.426144,-9770.718434,1110.308913,-229.828649
3218.426481,-9252.574275,-148.041188,2528.115143
3218.426819,-10436.903782,-888.247130,1915.238745
3218.427156,-10140.821405,0.000000,-383.047749
3218.427493,-9400.615463,-1184.329507,-2451.505594
3218.427831,-10584.944971,-2812.782580,-1455.581446
3218.428168,-11029.068536,-3997.112087,-1302.362347
3218.428505,-9474.636058,-2590.720797,-842.705048
3218.428843,-8660.409521,-1998.556043,153.219100
3218.429180,-10066.800811,-1554.432478,-383.047749
3218.429517,-11621.233289,-1406.391290,-1685.410096
3218.429855,-10584.944971,-1258.350101,-766.095498
3218.430192,-9474.636058,-1480.411884,1225.752797
3218.430529,-10140.821405,-1850.514855,3217.601092
3218.430867,-11251.130318,-962.267725,2911.162892
3218.431204,-10214.842000,0.000000,766.095498
3218.431541,-9474.636058,-148.041188,0.000000
3218.431879,-11473.192101,-740.205942,229.828649
3218.432216,-11621.233289,-1184.329507,0.000000
3218.432553,-9178.553681,0.000000,536.266849
3218.432891,-8512.368333,814.226536,766.095498
3218.433228,-9844.739029,962.267725,0.000000
3218.433565,-10510.924376,1036.288319,-995.924147
3218.433903,-9548.656652,888.247130,-229.828649
3218.434240,-8956.491898,962.267725,1762.019645
3218.434578,-10584.944971,370.102971,2374.896044
3218.434915,-10732.986159,888.247130,1149.143247
3218.435252,-8808.450710,222.061783,-612.876398
3218.435590,-8734.430116,-518.144159,0.000000
3218.435927,-9696.697840,-1258.350101,459.657299
3218.436264,-9548.656652,-1332.370696,153.219100
3218.436602,-8882.471304,222.061783,1072.533697
3218.436939,-9474.636058,222.061783,842.705048
3218.437276,-10955.047942,1702.473667,76.609550
3218.437614,-10955.047942,1702.473667,-1608.800546
3218.437951,-9474.636058,1628.453072,306.438199
3218.438288,-9326.594869,0.000000,1915.238745
3218.438626,-10584.944971,-370.102971,2757.943793
3218.438963,-10362.883188,666.185348,689.485948
3218.439300,-9178.553681,-518.144159,-1149.143247
3218.439638,-10510.924376,-1036.288319,-1302.362347
3218.439975,-11769.274478,-2146.597232,-766.095498
3218.440312,-9474.636058,-888.247130,-1072.533697
3218.440650,-8808.450710,-1258.350101,153.219100
3218.440987,-10658.965565,-444.123565,-459.657299
3218.441324,-11251.130318,-1332.370696,-2298.286494
3218.441662,-11029.068536,-1258.350101,-1915.238745
3218.441999,-9474.636058,-2294.638420,1302.362347
3218.442336,-9918.759623,-2442.679609,2681.334243
3218.442674,-11251.130318,-1850.514855,1302.362347
3218.443011,-10362.883188,-1258.350101,-689.485948
3218.443348,-9918.759623,-2146.597232,0.000000
3218.443686,-11399.171507,-2886.803174,766.095498
3218.444023,-10732.986159,-2960.823768,383.047749
3218.444360,-9252.574275,-666.185348,1685.410096
3218.444698,-9104.533087,518.144159,2145.067394
3218.445035,-10362.883188,814.226536,459.657299
3218.445373,-10066.800811,1554.432478,-383.047749
3218.445710,-9474.636058,1628.453072,1149.143247
3218.446047,-9548.656652,1850.514855,3064.381992
3218.446385,-11103.089130,1406.391290,2145.067394
3218.446722,-10436.903782,2664.741391,766.095498
3218.447059,-8956.491898,1998.556043,-995.924147
3218.447397,-9030.512492,592.164754,-842.705048
3218.447734,-10066.800811,-74.020594,-1378.971896
3218.448071,-9548.656652,-666.185348,-842.705048
3218.448409,-8142.265362,1184.329507,-229.828649
3218.448746,-9474.636058,444.123565,76.609550
3218.449083,-10807.006753,1036.288319,-1149.143247
3218.449421,-10362.883188,592.164754,-2298.286494
3218.449758,-9474.636058,222.061783,1838.629195
3218.450095,-9992.780217,-814.226536,3753.867940
3218.450433,-10658.965565,-1332.370696,2374.896044
3218.450770,-10807.006753,-1258.350101,689.485948
3218.451107,-9474.636058,-814.226536,0.000000
3218.451445,-11325.150913,-1998.556043,612.876398
3218.451782,-11695.253884,-2220.617826,-383.047749
3218.452119,-9252.574275,-962.267725,-689.485948
3218.452457,-9474.636058,-444.123565,995.924147
3218.452794,-10732.986159,0.000000,0.000000
3218.453131,-10955.047942,666.185348,-1608.800546
3218.453469,-10881.027347,0.000000,-1378.971896
3218.453806,-9178.553681,-666.185348,919.314598
3218.454143,-9770.718434,-1036.288319,2068.457845
3218.454481,-10955.047942,-370.102971,1302.362347
3218.454818,-9696.697840,-518.144159,-1685.410096
3218.455155,-9844.739029,-1628.453072,-2068.457845
3218.455493,-10807.006753,-2220.617826,-1608.800546
3218.455830,-10214.842000,-2368.659014,-689.485948
3218.456167,-8438.347739,-1480.411884,229.828649
3218.456505,-8808.450710,-888.247130,842.705048
3218.456842,-10214.842000,-370.102971,0.000000
3218.457180,-10732.986159,296.082377,-689.485948
3218.457517,-9548.656652,222.061783,1225.752797
3218.457854,-9770.718434,370.102971,3370.820191
3218.458192,-11325.150913,370.102971,3830.477490
3218.458529,-10881.027347,1776.494261,2604.724693
3218.458866,-9474.636058,1406.391290,919.314598
3218.459204,-9770.718434,740.205942,995.924147
3218.459541,-10658.965565,0.000000,383.047749
3218.459878,-9844.739029,370.102971,536.266849
3218.460216,-9252.574275,1998.556043,1149.143247
3218.460553,-10584.944971,2590.720797,995.924147
3218.460890,-11103.089130,2516.700203,-2451.505594
3218.461228,-9474.636058,2072.576638,-3830.477490
3218.461565,-9474.636058,1184.329507,153.219100
3218.461902,-9474.636058,-444.123565,2068.457845
3218.462240,-9992.780217,-444.123565,612.876398
3218.462577,-9252.574275,-148.041188,-536.266849
3218.462914,-9474.636058,-1554.432478,-2221.676944
3218.463252,-10436.903782,-2590.720797,-1838.629195
3218.463589,-10955.047942,-3849.070898,-689.485948
3218.463926,-8142.265362,-2442.679609,-459.657299
3218.464264,-9400.615463,-1776.494261,1149.143247
3218.464601,-10658.965565,-1480.411884,536.266849
3218.464938,-11251.130318,-1332.370696,-1149.143247
3218.465276,-10807.006753,-1480.411884,995.924147
3218.465613,-9548.656652,-1702.473667,3140.991542
3218.465950,-10807.006753,-1332.370696,3830.477490
3218.466288,-11621.233289,-888.247130,2374.896044
3218.466625,-10214.842000,-666.185348,383.047749
3218.466962,-9770.718434,-666.185348,-383.047749
3218.467300,-11547.212695,-1406.391290,0.000000
3218.467637,-11029.068536,-666.185348,0.000000
3218.467974,-9474.636058,296.082377,76.609550
3218.468312,-9400.615463,1184.329507,0.000000
3218.468649,-10214.842000,1110.308913,-1225.752797
3218.468987,-10362.883188,1110.308913,-2145.067394
3218.469324,-9030.512492,888.247130,-842.705048
3218.469661,-9474.636058,0.000000,1378.971896
3218.469999,-10362.883188,0.000000,919.314598
3218.470336,-10214.842000,888.247130,-306.438199
3218.470673,-8808.450710,-370.102971,-383.047749
3218.471011,-9104.533087,-592.164754,-919.314598
3218.471348,-9918.759623,-1702.473667,536.266849
3218.471685,-9474.636058,-370.102971,766.095498
3218.472023,-8290.306550,0.000000,1149.143247
3218.472360,-10066.800811,370.102971,2298.286494
3218.472697,-11177.109724,1776.494261,919.314598
3218.473035,-10658.965565,1554.432478,383.047749
3218.473372,-9918.759623,1036.288319,2604.724693
3218.473709,-9326.594869,0.000000,3064.381992
3218.474047,-10658.965565,0.000000,2681.334243
3218.474384,-10288.862594,666.185348,383.047749
3218.474721,-9992.780217,74.020594,-995.924147
3218.475059,-10955.047942,-1480.411884,-919.314598
3218.475396,-10881.027347,-1850.514855,-459.657299
3218.475733,-8882.471304,-814.226536,-383.047749
3218.476071,-9104.533087,-370.102971,0.000000
3218.476408,-10658.965565,-148.041188,-842.705048
3218.476745,-10955.047942,-888.247130,-3294.210641
3218.477083,-10214.842000,-1184.329507,-2145.067394
3218.477420,-9178.553681,-1998.556043,1225.752797
3218.477757,-10214.842000,-2368.659014,2068.457845
3218.478095,-10584.944971,-2220.617826,459.657299
3218.478432,-10066.800811,-1406.391290,-766.095498
3218.478769,-10658.965565,-1998.556043,-766.095498
3218.479107,-11029.068536,-2664.741391,76.609550
3218.479444,-10362.883188,-2072.576638,0.000000
3218.479781,-9104.533087,-740.205942,2298.286494
3218.480119,-9474.636058,740.205942,2145.067394
3218.480456,-10658.965565,592.164754,689.485948
3218.480794,-10658.965565,1332.370696,229.828649
3218.481131,-9696.697840,1776.494261,1455.581446
3218.481468,-10436.903782,1184.329507,2911.162892
3218.481806,-10881.027347,1628.453072,1762.019645
3218.482143,-10214.842000,1998.556043,459.657299
3218.482480,-8956.491898,1036.288319,-612.876398
3218.482818,-8956.491898,0.000000,-1762.019645
3218.483155,-9770.718434,-814.226536,-1149.143247
3218.483492,-9400.615463,-444.123565,-1225.752797
3218.483830,-7772.162391,370.102971,-229.828649
3218.484167,-10140.821405,1036.288319,-306.438199
3218.484504,-10732.986159,1110.308913,-2451.505594
3218.484842,-10066.800811,740.205942,-2374.896044
3218.485179,-10066.800811,0.000000,1149.143247
3218.485516,-9548.656652,-1406.391290,2374.896044
3218.485854,-10584.944971,-962.267725,2374.896044
3218.486191,-9992.780217,-962.267725,229.828649
3218.486528,-9474.636058,-1554.432478,229.828649
3218.486866,-11325.150913,-1554.432478,0.000000
3218.487203,-11325.150913,-1406.391290,536.266849
3218.487540,-8956.491898,-592.164754,536.266849
3218.487878,-9548.656652,-666.185348,2145.067394
3218.488215,-11177.109724,296.082377,1378.971896
3218.488552,-10955.047942,444.123565,-153.219100
3218.488890,-10362.883188,148.041188,689.485948
3218.489227,-9918.759623,-962.267725,2145.067394
3218.489564,-9918.759623,-1332.370696,2528.115143
3218.489902,-10140.821405,-592.164754,1072.533697
3218.490239,-9770.718434,-518.144159,-842.705048
3218.490576,-9918.759623,-2072.576638,-1991.848295
3218.490914,-11029.068536,-2368.659014,-1991.848295
3218.491251,-9548.656652,-2294.638420,-1072.533697
3218.491589,-8586.388927,-1036.288319,0.000000
3218.491926,-8956.491898,-592.164754,536.266849
3218.492263,-10807.006753,-370.102971,-459.657299
3218.492601,-10436.903782,74.020594,-459.657299
3218.492938,-9400.615463,0.000000,1225.752797
3218.493275,-10510.924376,-666.185348,3447.429741
3218.493613,-11399.171507,0.000000,3753.867940
3218.493950,-10658.965565,518.144159,2068.457845
3218.494287,-9548.656652,1110.308913,536.266849
3218.494625,-9548.656652,74.020594,-229.828649
3218.494962,-10510.924376,-370.102971,0.000000
3218.495299,-9548.656652,1110.308913,689.485948
3218.495637,-8586.388927,1776.494261,842.705048
3218.495974,-10214.842000,2146.597232,919.314598
3218.496311,-10658.965565,1850.514855,-1915.238745
3218.496649,-9326.594869,1480.411884,-1762.019645
3218.496986,-9622.677246,518.144159,842.705048
3218.497323,-10288.862594,-888.247130,1991.848295
3218.497661,-10288.862594,-592.164754,766.095498
3218.497998,-9474.636058,-888.247130,-1072.533697
3218.498335,-8882.471304,-1776.494261,-2068.457845
3218.498673,-10362.883188,-3108.864956,-1838.629195
3218.499010,-10807.006753,-2368.659014,-612.876398
3218.499347,-9252.574275,-1998.556043,-306.438199
3218.499685,-9474.636058,-888.247130,0.000000
3218.500022,-11177.109724,-296.082377,-1072.533697
3218.500359,-11325.150913,-592.164754,-1991.848295
3218.500697,-10288.862594,-1924.535449,536.266849
3218.501034,-9474.636058,-1184.329507,2911.162892
3218.501371,-11103.089130,-1332.370696,3524.039291
3218.501709,-11177.109724,-296.082377,995.924147
3218.502046,-10436.903782,-148.041188,76.609550
3218.502383,-10140.821405,-592.164754,229.828649
3218.502721,-11325.150913,-740.205942,-306.438199
3218.503058,-10510.924376,222.061783,306.438199
3218.503396,-8882.471304,370.102971,842.705048
3218.503733,-9400.615463,1036.288319,689.485948
3218.504070,-9992.780217,666.185348,-383.047749
3218.504408,-9918.759623,740.205942,-229.828649
3218.504745,-9548.656652,592.164754,995.924147
3218.505082,-9770.718434,-666.185348,1838.629195
3218.505420,-10288.862594,296.082377,1378.971896
3218.505757,-9622.677246,222.061783,459.657299
3218.506094,-8882.471304,-222.061783,-612.876398
3218.506432,-9252.574275,-1628.453072,-153.219100
3218.506769,-10214.842000,-1406.391290,76.609550
3218.507106,-9252.574275,0.000000,842.705048
3218.507444,-8734.430116,518.144159,842.705048
3218.507781,-10436.903782,1184.329507,995.924147
3218.508118,-10658.965565,1406.391290,-919.314598
3218.508456,-9918.759623,1702.473667,536.266849
3218.508793,-9770.718434,370.102971,2528.115143
3218.509130,-10510.924376,-370.102971,2757.943793
3218.509468,-10732.986159,296.082377,1532.190996
3218.509805,-10066.800811,444.123565,-612.876398
3218.510142,-9918.759623,-296.082377,-1072.533697
3218.510480,-10658.965565,-1332.370696,-1378.971896
3218.510817,-10510.924376,-1480.411884,-383.047749
3218.511154,-9474.636058,-740.205942,-459.657299
3218.511492,-9548.656652,-518.144159,-229.828649
3218.511829,-11325.150913,-296.082377,-1302.362347
3218.512166,-11029.068536,-962.267725,-2145.067394
3218.512504,-9622.677246,-1628.453072,0.000000
3218.512841,-9770.718434,-2220.617826,2068.457845
3218.513178,-10658.965565,-2516.700203,1991.848295
3218.513516,-10658.965565,-1628.453072,0.000000
3218.513853,-10140.821405,-1628.453072,-689.485948
3218.514190,-10362.883188,-1924.535449,-1302.362347
3218.514528,-11103.089130,-2664.741391,0.000000
3218.514865,-9992.780217,-1924.535449,995.924147
3218.515203,-8586.388927,-370.102971,1532.190996
3218.515540,-9770.718434,1036.288319,1915.238745
3218.515877,-10807.006753,962.267725,0.000000
3218.516215,-10066.800811,1258.350101,0.000000
3218.516552,-9548.656652,1554.432478,1532.190996
3218.516889,-10436.903782,1036.288319,2911.162892
3218.517227,-10732.986159,1998.556043,1378.971896
3218.517564,-10214.842000,1850.514855,-919.314598
3218.517901,-9104.533087,1184.329507,-1149.143247
3218.518239,-9326.594869,0.000000,-2068.457845
3218.518576,-9844.739029,222.061783,-1302.362347
3218.518913,-9104.533087,370.102971,0.000000
3218.519251,-8290.306550,74.020594,0.000000
3218.519588,-10066.800811,888.247130,0.000000
3218.519925,-10732.986159,666.185348,-612.876398
3218.520263,-10140.821405,592.164754,0.000000
3218.520600,-9770.718434,-740.205942,2298.286494
3218.520937,-10732.986159,-814.226536,3370.820191
3218.521275,-10510.924376,-1628.453072,2451.505594
3218.521612,-9770.718434,-592.164754,229.828649
3218.521949,-9918.759623,-1702.473667,0.000000
3218.522287,-11103.089130,-2072.576638,459.657299
3218.522624,-10510.924376,-1258.350101,153.219100
3218.522961,-9474.636058,-666.185348,383.047749
3218.523299,-9474.636058,0.000000,1149.143247
3218.523636,-10732.986159,0.000000,76.609550
3218.523973,-10807.006753,518.144159,-1072.533697
3218.524311,-9548.656652,74.020594,153.219100
3218.524648,-9918.759623,-1332.370696,1608.800546
3218.524985,-10436.903782,-1332.370696,1685.410096
3218.525323,-9992.780217,0.000000,153.219100
3218.525660,-9918.759623,-518.144159,-1378.971896
3218.525997,-10362.883188,-1332.370696,-2451.505594
3218.526335,-10881.027347,-2146.597232,-1915.238745
3218.526672,-9474.636058,-1554.432478,-1149.143247
3218.527010,-8734.430116,-666.185348,0.000000
3218.527347,-10140.821405,-222.061783,766.095498
3218.527684,-10955.047942,148.041188,-459.657299
3218.528022,-10214.842000,148.041188,-153.219100
3218.528359,-9474.636058,222.061783,1225.752797
3218.528696,-10955.047942,-148.041188,3600.648841
3218.529034,-11547.212695,74.020594,3753.867940
3218.529371,-10066.800811,1110.308913,1532.190996
3218.529708,-9400.615463,1258.350101,612.876398
3218.530046,-10436.903782,74.020594,0.000000
3218.530383,-10140.821405,296.082377,0.000000
3218.530720,-9178.553681,222.061783,766.095498
3218.531058,-7994.224174,2072.576638,842.705048
3218.531395,-9548.656652,1924.535449,0.000000
3218.531732,-10658.965565,1776.494261,-2451.505594
3218.532070,-8734.430116,1998.556043,-2451.505594
3218.532407,-9474.636058,0.000000,995.924147
3218.532744,-10066.800811,-222.061783,1762.019645
3218.533082,-9696.697840,-888.247130,0.000000
3218.533419,-9178.553681,-962.267725,-1378.971896
3218.533756,-9104.533087,-2220.617826,-1762.019645
3218.534094,-10436.903782,-3034.844362,-1838.629195
3218.534431,-10732.986159,-2664.741391,-536.266849
3218.534768,-9474.636058,-1924.535449,383.047749
3218.535106,-10066.800811,-1406.391290,919.314598
3218.535443,-11251.130318,-1110.308913,-229.828649
3218.535780,-11177.109724,-1110.308913,-306.438199
3218.536118,-10584.944971,-1628.453072,2374.896044
3218.536455,-10362.883188,-1998.556043,3830.477490
3218.536792,-11103.089130,-1036.288319,3294.210641
3218.537130,-10807.006753,0.000000,1455.581446
3218.537467,-10214.842000,74.020594,0.000000
3218.537804,-10584.944971,-1332.370696,-459.657299
3218.538142,-11251.130318,-1258.350101,-153.219100
3218.538479,-9696.697840,0.000000,306.438199
3218.538817,-8734.430116,296.082377,-76.609550
3218.539154,-9326.594869,962.267725,0.000000
3218.539491,-10066.800811,666.185348,-2145.067394
3218.539829,-9474.636058,888.247130,-1225.752797
3218.540166,-8808.450710,222.061783,0.000000
3218.540503,-10288.862594,296.082377,1838.629195
3218.540841,-10807.006753,592.164754,536.266849
3218.541178,-9622.677246,1110.308913,-459.657299
3218.541515,-8882.471304,296.082377,-766.095498
3218.541853,-9918.759623,-1110.308913,76.609550
3218.542190,-9918.759623,-740.205942,0.000000
3218.542527,-9326.594869,222.061783,1302.362347
3218.542865,-9474.636058,814.226536,1762.019645
3218.543202,-10140.821405,1850.514855,995.924147
3218.543539,-11325.150913,1554.432478,459.657299
3218.543877,-9548.656652,1998.556043,1225.752797
3218.544214,-9992.780217,814.226536,2911.162892
3218.544551,-11251.130318,444.123565,3140.991542
3218.544889,-10658.965565,814.226536,1149.143247
3218.545226,-9918.759623,666.185348,-306.438199
3218.545563,-9770.718434,0.000000,-1378.971896
3218.545901,-10140.821405,-1776.494261,-1302.362347
3218.546238,-9770.718434,-1850.514855,-1072.533697
3218.546575,-8734.430116,-1554.432478,-1149.143247
3218.546913,-8882.471304,-370.102971,-995.924147
3218.547250,-11251.130318,-814.226536,-2987.772442
3218.547587,-10807.006753,-1036.288319,-3217.601092
3218.547925,-9622.677246,-2294.638420,-766.095498
3218.548262,-10140.821405,-2516.700203,1149.143247
3218.548599,-10362.883188,-2590.720797,1762.019645
3218.548937,-10066.800811,-2294.638420,-536.266849
3218.549274,-9548.656652,-1924.535449,-842.705048
3218.549612,-10658.965565,-2812.782580,0.000000
3218.549949,-11251.130318,-2812.782580,76.609550
3218.550286,-10140.821405,-1480.411884,1302.362347
3218.550624,-9474.636058,-666.185348,1838.629195
3218.550961,-10066.800811,1332.370696,1838.629195
3218.551298,-11103.089130,740.205942,842.705048
3218.551636,-10584.944971,1406.391290,995.924147
3218.551973,-9696.697840,962.267725,2374.896044
3218.552310,-11029.068536,740.205942,4519.963438
3218.552648,-11177.109724,2294.638420,2298.286494
3218.552985,-9622.677246,1628.453072,-536.266849
3218.553322,-8956.491898,888.247130,-766.095498
3218.553660,-9474.636058,-222.061783,-1225.752797
3218.553997,-9326.594869,148.041188,-459.657299
3218.554334,-8660.409521,296.082377,-306.438199
3218.554672,-7994.224174,518.144159,0.000000
3218.555009,-9844.739029,518.144159,-919.314598
3218.555346,-10140.821405,1184.329507,-1608.800546
3218.555684,-9104.533087,888.247130,-1302.362347
3218.556021,-9622.677246,-1036.288319,2221.676944
3218.556358,-10066.800811,-888.247130,3370.820191
3218.556696,-9918.759623,-1184.329507,1225.752797
3218.557033,-9622.677246,-370.102971,-229.828649
3218.557370,-10288.862594,-1702.473667,-536.266849
3218.557708,-11251.130318,-2294.638420,-306.438199
3218.558045,-10732.986159,-1480.411884,0.000000
3218.558382,-8808.450710,-666.185348,689.485948
3218.558720,-10362.883188,222.061783,1149.143247
3218.559057,-11547.212695,0.000000,-306.438199
3218.559394,-10955.047942,666.185348,-1685.410096
3218.559732,-10362.883188,0.000000,383.047749
3218.560069,-10807.006753,-1184.329507,1991.848295
3218.560406,-10807.006753,-1110.308913,1838.629195
3218.560744,-10658.965565,-1110.308913,76.609550
3218.561081,-9400.615463,-222.061783,-1608.800546
3218.561419,-11251.130318,-2368.659014,-2451.505594
3218.561756,-10658.965565,-2368.659014,-1915.238745
