#time,accel_x,accel_y,accel_z
2904.187323,-8438.347739,-4885.359217,-3140.991542
2904.187661,-8216.285956,-5403.503377,-1991.848295
2904.187999,-9474.636058,-4367.215058,-1072.533697
2904.188337,-9622.677246,-3330.926739,-1838.629195
2904.188675,-10140.821405,-814.226536,-1072.533697
2904.189012,-11769.274478,0.000000,-1378.971896
2904.189350,-11991.336260,148.041188,-1378.971896
2904.189688,-11103.089130,370.102971,-842.705048
2904.190026,-9474.636058,0.000000,-842.705048
2904.190364,-9474.636058,-740.205942,919.314598
2904.190701,-9326.594869,-1332.370696,1455.581446
2904.191039,-9030.512492,-1480.411884,2298.286494
2904.191377,-9696.697840,0.000000,459.657299
2904.191715,-10955.047942,1406.391290,459.657299
2904.192053,-11251.130318,2590.720797,-689.485948
2904.192390,-10955.047942,2442.679609,-2528.115143
2904.192728,-10584.944971,2590.720797,-2528.115143
2904.193066,-10140.821405,1406.391290,-4290.134789
2904.193404,-10140.821405,-148.041188,-3983.696590
2904.193742,-9178.553681,-1850.514855,-3907.087040
2904.194079,-8586.388927,-2442.679609,-3064.381992
2904.194417,-8660.409521,-4589.276840,-1991.848295
2904.194755,-8512.368333,-3997.112087,-1149.143247
2904.195093,-9474.636058,-3478.967927,0.000000
2904.195431,-10362.883188,-2442.679609,-1072.533697
2904.195768,-10584.944971,-1554.432478,-2451.505594
2904.196106,-11473.192101,-1628.453072,-2757.943793
2904.196444,-10955.047942,-2368.659014,-3064.381992
2904.196782,-9252.574275,-3182.885551,-3140.991542
2904.197120,-9548.656652,-4293.194464,-2451.505594
2904.197457,-9548.656652,-4367.215058,-3217.601092
2904.197795,-9548.656652,-6069.688724,-3140.991542
2904.198133,-10066.800811,-6439.791695,-2451.505594
2904.198471,-8808.450710,-5773.606348,-2221.676944
2904.198809,-10066.800811,-4145.153275,-1072.533697
2904.199146,-10807.006753,-2368.659014,-1762.019645
2904.199484,-11177.109724,-1258.350101,-2528.115143
2904.199822,-11843.295072,-888.247130,-3524.039291
2904.200160,-11547.212695,-2590.720797,-4366.744339
2904.200498,-10807.006753,-3701.029710,-3677.258390
2904.200835,-9474.636058,-5255.462188,-1915.238745
2904.201173,-9030.512492,-5255.462188,-1225.752797
2904.201511,-9252.574275,-4885.359217,-1762.019645
2904.201849,-9770.718434,-5699.585753,-2757.943793
2904.202187,-9844.739029,-5329.482782,-2911.162892
2904.202524,-10140.821405,-5403.503377,-2451.505594
2904.202862,-9252.574275,-2442.679609,-76.609550
2904.203200,-9474.636058,-1332.370696,-995.924147
2904.203538,-10584.944971,-370.102971,-306.438199
2904.203876,-10362.883188,-2220.617826,-1225.752797
2904.204213,-10288.862594,-2368.659014,0.000000
2904.204551,-10140.821405,-2516.700203,2145.067394
2904.204889,-9252.574275,-1702.473667,2757.943793
2904.205227,-9844.739029,-2886.803174,1532.190996
2904.205565,-10214.842000,-3256.906145,-1225.752797
2904.205902,-10807.006753,-2886.803174,-2604.724693
2904.206240,-10288.862594,-1480.411884,-3294.210641
2904.206578,-8068.244768,-1036.288319,-4290.134789
2904.206916,-8068.244768,-1258.350101,-2757.943793
2904.207254,-10510.924376,-1776.494261,-1915.238745
2904.207591,-10955.047942,-666.185348,-1991.848295
2904.207929,-10362.883188,-740.205942,-2451.505594
2904.208267,-9622.677246,-2146.597232,-1991.848295
2904.208605,-11029.068536,-3552.988522,-459.657299
2904.208942,-11695.253884,-4811.338623,-612.876398
2904.209280,-8586.388927,-4515.256246,-2145.067394
2904.209618,-7698.141797,-4663.297435,-1608.800546
2904.209956,-10288.862594,-3552.988522,-1532.190996
2904.210294,-10584.944971,-1998.556043,-3983.696590
2904.210631,-10140.821405,-1184.329507,-3524.039291
2904.210969,-9918.759623,-888.247130,-1532.190996
2904.211307,-11029.068536,222.061783,-536.266849
2904.211645,-12213.398043,518.144159,-689.485948
2904.211983,-11177.109724,-592.164754,-76.609550
2904.212320,-10066.800811,-1258.350101,2681.334243
2904.212658,-9770.718434,-666.185348,2604.724693
2904.212995,-10732.986159,296.082377,1838.629195
2904.213333,-10584.944971,0.000000,-536.266849
2904.213670,-10066.800811,0.000000,-2374.896044
2904.214008,-8512.368333,888.247130,-2757.943793
2904.214346,-8438.347739,1998.556043,-1225.752797
2904.214683,-9474.636058,3627.009116,-1608.800546
2904.215021,-10658.965565,1480.411884,-4596.572988
2904.215358,-9770.718434,1110.308913,-4903.011187
2904.215696,-9548.656652,-444.123565,-1762.019645
2904.216033,-9178.553681,-962.267725,1455.581446
2904.216371,-8438.347739,-1554.432478,1608.800546
2904.216709,-8364.327145,-1110.308913,1378.971896
2904.217046,-9030.512492,-814.226536,2221.676944
2904.217384,-9474.636058,0.000000,2604.724693
2904.217721,-11103.089130,1850.514855,2298.286494
2904.218059,-11251.130318,2294.638420,0.000000
2904.218396,-11843.295072,2220.617826,-306.438199
2904.218734,-11399.171507,2442.679609,612.876398
2904.219071,-10066.800811,1036.288319,153.219100
2904.219409,-10510.924376,-888.247130,1149.143247
2904.219747,-10066.800811,-2146.597232,229.828649
2904.220084,-9770.718434,-2368.659014,0.000000
2904.220422,-9844.739029,-2516.700203,459.657299
2904.220759,-9030.512492,-2368.659014,1532.190996
2904.221097,-9696.697840,-1184.329507,1455.581446
2904.221434,-11103.089130,-148.041188,229.828649
2904.221772,-11177.109724,740.205942,-1532.190996
2904.222109,-10288.862594,-592.164754,-2604.724693
2904.222447,-9770.718434,-2368.659014,-766.095498
2904.222785,-9770.718434,-2886.803174,-383.047749
2904.223122,-9622.677246,-4515.256246,-766.095498
2904.223460,-9474.636058,-5329.482782,-689.485948
2904.223797,-8734.430116,-5699.585753,0.000000
2904.224135,-9400.615463,-4219.173869,842.705048
2904.224472,-9844.739029,-2960.823768,995.924147
2904.224810,-10732.986159,-962.267725,919.314598
2904.225147,-10955.047942,-444.123565,612.876398
2904.225485,-10584.944971,1110.308913,1072.533697
2904.225823,-10955.047942,1480.411884,2451.505594
2904.226160,-11177.109724,888.247130,3140.991542
2904.226498,-10807.006753,592.164754,2298.286494
2904.226835,-11621.233289,-518.144159,842.705048
2904.227173,-10881.027347,-962.267725,0.000000
2904.227510,-9178.553681,-2072.576638,-1072.533697
2904.227848,-8364.327145,-1850.514855,-1225.752797
2904.228185,-7624.121203,-814.226536,-1302.362347
2904.228523,-8068.244768,962.267725,-766.095498
2904.228861,-10214.842000,1776.494261,-1302.362347
2904.229198,-9844.739029,2590.720797,-2451.505594
2904.229536,-10955.047942,2368.659014,-1455.581446
2904.229873,-10955.047942,666.185348,153.219100
2904.230211,-9622.677246,0.000000,1762.019645
2904.230548,-10140.821405,-1628.453072,1455.581446
2904.230886,-10140.821405,-3330.926739,306.438199
2904.231224,-9178.553681,-3923.091493,-612.876398
2904.231561,-8438.347739,-3923.091493,-842.705048
2904.231899,-9252.574275,-2812.782580,0.000000
2904.232236,-8216.285956,-592.164754,-459.657299
2904.232574,-10140.821405,962.267725,-153.219100
2904.232911,-11695.253884,2072.576638,612.876398
2904.233249,-10955.047942,1998.556043,-76.609550
2904.233586,-11769.274478,1258.350101,2757.943793
2904.233924,-11991.336260,296.082377,3524.039291
2904.234262,-11843.295072,-740.205942,2834.553343
2904.234599,-11695.253884,-2072.576638,1685.410096
2904.234937,-10140.821405,-2960.823768,153.219100
2904.235274,-8364.327145,-3627.009116,-1532.190996
2904.235612,-9104.533087,-2442.679609,-1838.629195
2904.235949,-8438.347739,666.185348,-2374.896044
2904.236287,-9178.553681,962.267725,-1532.190996
2904.236624,-10732.986159,1998.556043,-536.266849
2904.236962,-10362.883188,2220.617826,-995.924147
2904.237300,-11473.192101,1702.473667,612.876398
2904.237637,-10955.047942,0.000000,3370.820191
2904.237975,-10807.006753,-518.144159,3677.258390
2904.238312,-10288.862594,-1628.453072,2911.162892
2904.238650,-9548.656652,-3182.885551,2451.505594
2904.238987,-8882.471304,-2590.720797,383.047749
2904.239325,-8216.285956,-1702.473667,-459.657299
2904.239662,-8290.306550,1258.350101,306.438199
2904.240000,-7698.141797,2812.782580,-612.876398
2904.240338,-9696.697840,3849.070898,76.609550
2904.240675,-11621.233289,5033.400406,0.000000
2904.241013,-11473.192101,4441.235652,536.266849
2904.241350,-10881.027347,3627.009116,2834.553343
2904.241688,-11029.068536,1776.494261,3447.429741
2904.242025,-10436.903782,370.102971,2374.896044
2904.242363,-10140.821405,-2146.597232,766.095498
2904.242701,-9400.615463,-3182.885551,-612.876398
2904.243038,-7846.182985,-2664.741391,-2451.505594
2904.243376,-9104.533087,-1258.350101,-3753.867940
2904.243713,-8216.285956,-296.082377,-3064.381992
2904.244051,-8956.491898,-296.082377,-3600.648841
2904.244388,-10214.842000,1110.308913,-2451.505594
2904.244726,-11251.130318,0.000000,-995.924147
2904.245063,-11251.130318,-740.205942,1991.848295
2904.245401,-11029.068536,-2220.617826,4060.306139
2904.245739,-11621.233289,-3701.029710,2834.553343
2904.246076,-11769.274478,-4589.276840,1991.848295
2904.246414,-11029.068536,-6217.729913,1225.752797
2904.246751,-8882.471304,-5403.503377,0.000000
2904.247089,-8734.430116,-3034.844362,-1302.362347
2904.247426,-9104.533087,-962.267725,-995.924147
2904.247764,-9474.636058,1036.288319,-536.266849
2904.248101,-11547.212695,1924.535449,0.000000
2904.248439,-11695.253884,2368.659014,-536.266849
2904.248777,-11399.171507,1554.432478,1225.752797
2904.249114,-11325.150913,222.061783,3830.477490
2904.249452,-11325.150913,-444.123565,4060.306139
2904.249789,-11029.068536,-1480.411884,1838.629195
2904.250127,-10732.986159,-2368.659014,-76.609550
2904.250464,-8512.368333,-3404.947333,-1991.848295
2904.250802,-7254.018232,-2146.597232,-2145.067394
2904.251139,-7328.038826,-1702.473667,-1532.190996
2904.251477,-7550.100608,518.144159,-1455.581446
2904.251815,-9770.718434,1480.411884,-766.095498
2904.252152,-11103.089130,2664.741391,-1608.800546
2904.252490,-11029.068536,2442.679609,383.047749
2904.252827,-10955.047942,1110.308913,3983.696590
2904.253165,-10362.883188,518.144159,4596.572988
2904.253502,-10955.047942,-666.185348,3983.696590
2904.253840,-10584.944971,-2368.659014,2451.505594
2904.254177,-9474.636058,-2442.679609,919.314598
2904.254515,-8364.327145,-2516.700203,-229.828649
2904.254853,-8586.388927,-888.247130,-1378.971896
2904.255190,-7920.203579,0.000000,-1608.800546
2904.255528,-9178.553681,1554.432478,-612.876398
2904.255865,-11029.068536,2368.659014,-1302.362347
2904.256203,-11769.274478,2294.638420,-1608.800546
2904.256540,-12065.356855,518.144159,459.657299
2904.256878,-11325.150913,-888.247130,2451.505594
2904.257216,-11547.212695,-1998.556043,2834.553343
2904.257553,-10436.903782,-3627.009116,306.438199
2904.257891,-9918.759623,-5477.523971,-995.924147
2904.258228,-8660.409521,-5551.544565,-2374.896044
2904.258566,-8586.388927,-3330.926739,-2834.553343
2904.258903,-8290.306550,-2294.638420,-2681.334243
2904.259241,-9474.636058,-296.082377,-1455.581446
2904.259578,-10732.986159,296.082377,-1762.019645
2904.259916,-11103.089130,1406.391290,-995.924147
2904.260254,-10881.027347,962.267725,2068.457845
2904.260591,-10955.047942,148.041188,4826.401637
2904.260929,-11399.171507,0.000000,5745.716235
2904.261266,-12065.356855,-518.144159,3753.867940
2904.261604,-10955.047942,-666.185348,1915.238745
2904.261941,-9474.636058,-1776.494261,229.828649
2904.262279,-8660.409521,0.000000,-689.485948
2904.262616,-8364.327145,1110.308913,-689.485948
2904.262954,-8290.306550,2960.823768,-459.657299
2904.263292,-10214.842000,3997.112087,-1532.190996
2904.263629,-11103.089130,4367.215058,-2145.067394
2904.263967,-10658.965565,4071.132681,-1302.362347
2904.264304,-10807.006753,2368.659014,1685.410096
2904.264642,-10881.027347,1924.535449,2757.943793
2904.264979,-9992.780217,740.205942,1378.971896
2904.265317,-10584.944971,-2442.679609,689.485948
2904.265654,-9030.512492,-2590.720797,76.609550
2904.265992,-8734.430116,-2368.659014,-76.609550
2904.266330,-9326.594869,-1036.288319,-612.876398
2904.266667,-7920.203579,-444.123565,-2757.943793
2904.267005,-8882.471304,518.144159,-1378.971896
2904.267342,-10658.965565,1554.432478,-1302.362347
2904.267680,-9622.677246,1480.411884,0.000000
2904.268017,-11103.089130,1184.329507,3140.991542
2904.268355,-11917.315666,296.082377,4366.744339
2904.268693,-11991.336260,296.082377,2604.724693
2904.269030,-11695.253884,-1776.494261,1455.581446
2904.269368,-10807.006753,-3034.844362,919.314598
2904.269705,-9252.574275,-3775.050304,-306.438199
2904.270043,-9400.615463,-2442.679609,-1302.362347
2904.270380,-8586.388927,-1110.308913,-2068.457845
2904.270718,-9474.636058,0.000000,-2987.772442
2904.271055,-10214.842000,444.123565,-2604.724693
2904.271393,-10436.903782,1332.370696,-2451.505594
2904.271731,-10732.986159,666.185348,842.705048
2904.272068,-10807.006753,-666.185348,2298.286494
2904.272406,-10510.924376,-814.226536,2221.676944
2904.272743,-10955.047942,-2294.638420,1378.971896
2904.273081,-10955.047942,-3108.864956,1302.362347
2904.273418,-10140.821405,-3627.009116,306.438199
2904.273756,-8512.368333,-3330.926739,-612.876398
2904.274093,-8142.265362,-1184.329507,-1072.533697
2904.274431,-7179.997637,-444.123565,-766.095498
2904.274769,-9548.656652,1332.370696,0.000000
2904.275106,-10214.842000,1776.494261,-153.219100
2904.275444,-10658.965565,2886.803174,1225.752797
2904.275781,-11029.068536,3256.906145,3064.381992
2904.276119,-11399.171507,3404.947333,3677.258390
2904.276456,-11769.274478,1036.288319,2987.772442
2904.276794,-10436.903782,-444.123565,1838.629195
2904.277131,-9548.656652,-1554.432478,1302.362347
2904.277469,-8808.450710,-1110.308913,-766.095498
2904.277807,-8586.388927,-1110.308913,-1685.410096
2904.278144,-7920.203579,0.000000,-2604.724693
2904.278482,-8364.327145,0.000000,-2528.115143
2904.278819,-10436.903782,592.164754,-2604.724693
2904.279157,-9622.677246,1480.411884,-1991.848295
2904.279494,-10140.821405,0.000000,153.219100
2904.279832,-10881.027347,222.061783,2528.115143
2904.280170,-11843.295072,-1110.308913,2528.115143
2904.280507,-11177.109724,-2294.638420,383.047749
2904.280845,-10510.924376,-4589.276840,459.657299
2904.281182,-10140.821405,-5107.421000,1149.143247
2904.281520,-9474.636058,-3701.029710,-459.657299
2904.281857,-7920.203579,-2368.659014,-919.314598
2904.282195,-8216.285956,-1184.329507,-919.314598
2904.282532,-10881.027347,74.020594,0.000000
2904.282870,-11399.171507,1998.556043,842.705048
2904.283208,-11103.089130,1702.473667,1072.533697
2904.283545,-11769.274478,1998.556043,3370.820191
2904.283883,-11843.295072,1110.308913,2681.334243
2904.284220,-11843.295072,1110.308913,2068.457845
2904.284558,-11251.130318,-1406.391290,1225.752797
2904.284895,-9622.677246,-1184.329507,-919.314598
2904.285233,-9326.594869,-1332.370696,-1762.019645
2904.285570,-8364.327145,0.000000,-2298.286494
2904.285908,-7179.997637,592.164754,-2834.553343
2904.286246,-9844.739029,1332.370696,-2374.896044
2904.286583,-9696.697840,2146.597232,-2528.115143
2904.286921,-9474.636058,2442.679609,-766.095498
2904.287258,-10658.965565,2368.659014,2528.115143
2904.287596,-10510.924376,2516.700203,2757.943793
2904.287933,-11177.109724,1480.411884,2451.505594
2904.288271,-10955.047942,-1036.288319,2221.676944
2904.288608,-10140.821405,-1480.411884,2298.286494
2904.288946,-9252.574275,-1554.432478,1532.190996
2904.289284,-7994.224174,-370.102971,229.828649
2904.289621,-7550.100608,148.041188,-919.314598
2904.289959,-9178.553681,1554.432478,-612.876398
2904.290296,-10658.965565,2368.659014,-995.924147
2904.290634,-10732.986159,2886.803174,-612.876398
2904.290971,-11029.068536,3182.885551,1225.752797
2904.291309,-10658.965565,2368.659014,1838.629195
2904.291646,-11695.253884,1258.350101,1991.848295
2904.291984,-11621.233289,-666.185348,1915.238745
2904.292322,-10732.986159,-3182.885551,1302.362347
2904.292659,-9918.759623,-3923.091493,-612.876398
2904.292997,-9104.533087,-3330.926739,-1378.971896
2904.293334,-8290.306550,-3330.926739,-2221.676944
2904.293672,-8216.285956,-2294.638420,-2145.067394
2904.294009,-9918.759623,-962.267725,-2374.896044
2904.294347,-10066.800811,296.082377,-1991.848295
2904.294685,-10362.883188,888.247130,536.266849
2904.295022,-11325.150913,-444.123565,2221.676944
2904.295360,-11325.150913,-370.102971,2604.724693
2904.295697,-11325.150913,-2294.638420,2681.334243
2904.296035,-11251.130318,-2516.700203,4366.744339
2904.296372,-10362.883188,-3256.906145,2834.553343
2904.296710,-9252.574275,-2072.576638,842.705048
2904.297047,-8882.471304,-666.185348,-383.047749
2904.297385,-8364.327145,370.102971,-1455.581446
2904.297723,-10214.842000,1554.432478,-995.924147
2904.298060,-10288.862594,2072.576638,-1302.362347
2904.298398,-9326.594869,3627.009116,-1225.752797
2904.298735,-10214.842000,3256.906145,766.095498
2904.299073,-11103.089130,2886.803174,1532.190996
2904.299410,-11399.171507,1850.514855,995.924147
2904.299748,-11399.171507,296.082377,1378.971896
2904.300085,-10066.800811,-1184.329507,383.047749
2904.300423,-8438.347739,-2146.597232,-689.485948
2904.300761,-8660.409521,-2220.617826,0.000000
2904.301098,-7254.018232,-2072.576638,-1762.019645
2904.301436,-8364.327145,222.061783,-1838.629195
2904.301773,-10584.944971,1406.391290,-2221.676944
2904.302111,-9770.718434,1628.453072,-2987.772442
2904.302448,-9696.697840,1110.308913,-76.609550
2904.302786,-10510.924376,444.123565,2604.724693
2904.303123,-11029.068536,0.000000,2911.162892
2904.303461,-10436.903782,-1554.432478,2145.067394
2904.303799,-10881.027347,-2812.782580,3064.381992
2904.304136,-10288.862594,-3478.967927,1838.629195
2904.304474,-9474.636058,-3034.844362,1149.143247
2904.304811,-8956.491898,-1406.391290,-536.266849
2904.305149,-8660.409521,-814.226536,-1762.019645
2904.305486,-10140.821405,1036.288319,-2528.115143
2904.305824,-9844.739029,1332.370696,-3294.210641
2904.306162,-10584.944971,1776.494261,-1532.190996
2904.306499,-11103.089130,592.164754,1378.971896
2904.306837,-12287.418637,-148.041188,1072.533697
2904.307174,-11843.295072,-518.144159,536.266849
2904.307512,-10955.047942,-3552.988522,1685.410096
2904.307849,-9622.677246,-4589.276840,1608.800546
2904.308187,-8660.409521,-4145.153275,612.876398
2904.308524,-8586.388927,-2516.700203,0.000000
2904.308862,-8438.347739,-1110.308913,-1455.581446
2904.309200,-9622.677246,-148.041188,-1225.752797
2904.309537,-10066.800811,1110.308913,-995.924147
2904.309875,-9770.718434,888.247130,842.705048
2904.310212,-10140.821405,2220.617826,3217.601092
2904.310550,-11177.109724,2442.679609,3907.087040
2904.310887,-11769.274478,2590.720797,3753.867940
2904.311224,-11547.212695,444.123565,2298.286494
2904.311562,-10658.965565,74.020594,1991.848295
2904.311899,-9474.636058,-666.185348,919.314598
2904.312237,-8216.285956,444.123565,689.485948
2904.312574,-7920.203579,1776.494261,-689.485948
2904.312912,-9104.533087,2294.638420,-1991.848295
2904.313249,-10362.883188,2960.823768,-3830.477490
2904.313586,-10140.821405,2442.679609,-3677.258390
2904.313924,-10140.821405,1628.453072,-229.828649
2904.314261,-9326.594869,1776.494261,1455.581446
2904.314599,-10362.883188,222.061783,1378.971896
2904.314936,-10510.924376,-740.205942,1225.752797
2904.315274,-10584.944971,-3478.967927,459.657299
2904.315611,-9474.636058,-3701.029710,995.924147
2904.315948,-9178.553681,-2368.659014,766.095498
2904.316286,-9104.533087,-1998.556043,306.438199
2904.316623,-8512.368333,-1702.473667,-1608.800546
2904.316961,-9918.759623,-666.185348,-1991.848295
2904.317298,-10584.944971,370.102971,-612.876398
2904.317636,-9918.759623,222.061783,1532.190996
2904.317973,-10807.006753,222.061783,3370.820191
2904.318310,-11399.171507,814.226536,2834.553343
2904.318648,-11991.336260,0.000000,2528.115143
2904.318985,-11843.295072,-1406.391290,2221.676944
2904.319323,-10658.965565,-2442.679609,1455.581446
2904.319660,-9770.718434,-962.267725,1072.533697
2904.319998,-9548.656652,-148.041188,-689.485948
2904.320335,-8956.491898,1036.288319,-1302.362347
2904.320672,-9918.759623,814.226536,-2911.162892
2904.321010,-10510.924376,888.247130,-3447.429741
2904.321347,-9400.615463,888.247130,-2528.115143
2904.321685,-9474.636058,0.000000,536.266849
2904.322022,-9548.656652,666.185348,1838.629195
2904.322360,-10436.903782,0.000000,1149.143247
2904.322697,-10732.986159,-740.205942,1685.410096
2904.323034,-9992.780217,-1702.473667,1225.752797
2904.323372,-9252.574275,-1332.370696,1455.581446
2904.323709,-8956.491898,-592.164754,1762.019645
2904.324047,-8142.265362,222.061783,0.000000
2904.324384,-9326.594869,1480.411884,-306.438199
2904.324722,-11325.150913,1184.329507,-766.095498
2904.325059,-10214.842000,2294.638420,-919.314598
2904.325396,-10288.862594,1998.556043,612.876398
2904.325734,-10288.862594,2516.700203,2451.505594
2904.326071,-10584.944971,1480.411884,1302.362347
2904.326409,-11177.109724,-370.102971,919.314598
2904.326746,-10732.986159,-1554.432478,919.314598
2904.327084,-9622.677246,-1480.411884,229.828649
2904.327421,-9770.718434,-962.267725,383.047749
2904.327758,-9548.656652,-1184.329507,-1378.971896
2904.328096,-8956.491898,-962.267725,-2221.676944
2904.328433,-10214.842000,-1036.288319,-2604.724693
2904.328771,-9548.656652,-1332.370696,-2911.162892
2904.329108,-9770.718434,-1702.473667,-1149.143247
2904.329446,-9992.780217,-1850.514855,1149.143247
2904.329783,-9844.739029,-1480.411884,1072.533697
2904.330120,-10214.842000,-2072.576638,1225.752797
2904.330458,-11029.068536,-3256.906145,2068.457845
2904.330795,-10510.924376,-3256.906145,1685.410096
2904.331133,-10658.965565,-2516.700203,1608.800546
2904.331470,-9992.780217,-888.247130,1608.800546
2904.331808,-9400.615463,-592.164754,306.438199
2904.332145,-10732.986159,74.020594,-306.438199
2904.332482,-10140.821405,0.000000,-383.047749
2904.332820,-9474.636058,518.144159,612.876398
2904.333157,-9770.718434,962.267725,2221.676944
2904.333495,-10881.027347,2146.597232,2528.115143
2904.333832,-11695.253884,1628.453072,1072.533697
2904.334170,-11399.171507,962.267725,306.438199
2904.334507,-10436.903782,74.020594,459.657299
2904.334844,-8956.491898,0.000000,612.876398
2904.335182,-8882.471304,-814.226536,842.705048
2904.335519,-8142.265362,0.000000,-1072.533697
2904.335857,-8882.471304,-296.082377,-2757.943793
2904.336194,-10066.800811,74.020594,-2757.943793
2904.336532,-9326.594869,-296.082377,-1915.238745
2904.336869,-8808.450710,888.247130,-459.657299
2904.337206,-9918.759623,740.205942,995.924147
2904.337544,-10658.965565,444.123565,612.876398
2904.337881,-10881.027347,-740.205942,612.876398
2904.338219,-11103.089130,-1332.370696,2068.457845
2904.338556,-10288.862594,-1258.350101,1915.238745
2904.338894,-10214.842000,-888.247130,1991.848295
2904.339231,-9992.780217,74.020594,1378.971896
2904.339568,-9770.718434,-666.185348,-229.828649
2904.339906,-10955.047942,-370.102971,-1072.533697
2904.340243,-10732.986159,666.185348,-536.266849
2904.340581,-9844.739029,74.020594,-306.438199
2904.340918,-9918.759623,888.247130,536.266849
2904.341256,-9696.697840,814.226536,-459.657299
2904.341593,-10436.903782,444.123565,-536.266849
2904.341930,-10955.047942,-1628.453072,306.438199
2904.342268,-10510.924376,-1258.350101,0.000000
2904.342605,-9918.759623,-1998.556043,-689.485948
2904.342943,-8956.491898,-1480.411884,0.000000
2904.343280,-8660.409521,-1554.432478,-842.705048
2904.343618,-10214.842000,-1702.473667,-153.219100
2904.343955,-10066.800811,-814.226536,-1455.581446
2904.344292,-8956.491898,-518.144159,-383.047749
2904.344630,-10140.821405,-666.185348,1762.019645
2904.344967,-9918.759623,666.185348,1302.362347
2904.345305,-10881.027347,0.000000,2451.505594
2904.345642,-11029.068536,222.061783,2451.505594
2904.345980,-10658.965565,444.123565,2528.115143
2904.346317,-10436.903782,222.061783,2681.334243
2904.346654,-9770.718434,518.144159,1532.190996
2904.346992,-9252.574275,592.164754,1378.971896
2904.347329,-9992.780217,962.267725,-76.609550
2904.347667,-9770.718434,888.247130,-995.924147
2904.348004,-9252.574275,888.247130,-1378.971896
2904.348342,-9326.594869,592.164754,459.657299
2904.348679,-9548.656652,2368.659014,-383.047749
2904.349016,-10732.986159,1332.370696,-995.924147
2904.349354,-11325.150913,370.102971,-1072.533697
2904.349691,-10510.924376,-814.226536,-536.266849
2904.350029,-9992.780217,-1628.453072,-383.047749
2904.350366,-8956.491898,-1924.535449,995.924147
2904.350704,-8660.409521,-2886.803174,919.314598
2904.351041,-9252.574275,-2146.597232,306.438199
2904.351378,-10658.965565,-2146.597232,-919.314598
2904.351716,-10140.821405,-1258.350101,-1762.019645
2904.352053,-9918.759623,-1702.473667,-612.876398
2904.352391,-9770.718434,-1184.329507,1072.533697
2904.352728,-9770.718434,-296.082377,1072.533697
2904.353066,-10807.006753,-296.082377,1685.410096
2904.353403,-11547.212695,-1110.308913,1608.800546
2904.353740,-11029.068536,-1776.494261,1072.533697
2904.354078,-10436.903782,-888.247130,1378.971896
2904.354415,-10214.842000,-1036.288319,919.314598
2904.354753,-9770.718434,-740.205942,0.000000
2904.355090,-10066.800811,-1184.329507,-995.924147
2904.355428,-10140.821405,0.000000,-1149.143247
2904.355765,-8956.491898,-148.041188,-1532.190996
2904.356102,-9474.636058,222.061783,0.000000
2904.356440,-10362.883188,74.020594,0.000000
2904.356777,-10066.800811,296.082377,-1302.362347
2904.357115,-10362.883188,-1036.288319,0.000000
2904.357452,-10214.842000,-1406.391290,0.000000
2904.357790,-8808.450710,-2368.659014,612.876398
2904.358127,-8956.491898,-1776.494261,1838.629195
2904.358464,-8882.471304,-1184.329507,1149.143247
2904.358802,-9918.759623,-592.164754,612.876398
2904.359139,-10955.047942,-296.082377,0.000000
2904.359477,-9696.697840,-222.061783,-612.876398
2904.359814,-9400.615463,1184.329507,1685.410096
2904.360152,-10288.862594,1628.453072,2145.067394
2904.360489,-10807.006753,2072.576638,383.047749
2904.360826,-11547.212695,1036.288319,229.828649
2904.361164,-11103.089130,74.020594,766.095498
2904.361501,-10214.842000,-814.226536,229.828649
2904.361839,-10140.821405,-444.123565,1225.752797
2904.362176,-9178.553681,-222.061783,766.095498
2904.362514,-9474.636058,-962.267725,-689.485948
2904.362851,-10066.800811,-222.061783,-1072.533697
2904.363188,-10288.862594,0.000000,-1685.410096
2904.363526,-9770.718434,0.000000,-995.924147
2904.363863,-9696.697840,-666.185348,-612.876398
2904.364201,-10362.883188,0.000000,-766.095498
2904.364538,-10214.842000,-1850.514855,-919.314598
2904.364876,-10140.821405,-2072.576638,-459.657299
2904.365213,-10214.842000,-3552.988522,995.924147
2904.365550,-9548.656652,-3034.844362,919.314598
2904.365888,-9400.615463,-1850.514855,1378.971896
2904.366225,-10140.821405,-1850.514855,1378.971896
2904.366563,-10732.986159,-1332.370696,689.485948
2904.366900,-10955.047942,-296.082377,-306.438199
2904.367238,-9918.759623,370.102971,1225.752797
2904.367575,-10214.842000,518.144159,1838.629195
2904.367912,-10436.903782,592.164754,2374.896044
2904.368250,-11103.089130,1184.329507,1149.143247
2904.368587,-11029.068536,1258.350101,536.266849
2904.368925,-11029.068536,592.164754,459.657299
2904.369262,-9548.656652,74.020594,76.609550
2904.369600,-8956.491898,444.123565,766.095498
2904.369937,-8660.409521,444.123565,459.657299
2904.370274,-9770.718434,1184.329507,-536.266849
2904.370612,-10510.924376,1110.308913,-1915.238745
2904.370949,-9474.636058,1110.308913,-2298.286494
2904.371287,-9474.636058,592.164754,-612.876398
2904.371624,-9400.615463,592.164754,76.609550
2904.371962,-9696.697840,148.041188,229.828649
2904.372299,-9696.697840,-962.267725,0.000000
2904.372636,-9770.718434,-1406.391290,612.876398
2904.372974,-9844.739029,-1776.494261,766.095498
2904.373311,-10214.842000,-1406.391290,1455.581446
2904.373649,-9474.636058,-592.164754,1455.581446
2904.373986,-9622.677246,0.000000,919.314598
2904.374324,-11177.109724,148.041188,1072.533697
2904.374661,-10955.047942,592.164754,-153.219100
2904.374998,-10658.965565,0.000000,689.485948
2904.375336,-10510.924376,518.144159,1072.533697
2904.375673,-10214.842000,222.061783,689.485948
2904.376011,-10955.047942,296.082377,229.828649
2904.376348,-10584.944971,-1406.391290,0.000000
2904.376686,-9622.677246,-2072.576638,-689.485948
2904.377023,-9474.636058,-1924.535449,0.000000
2904.377360,-9400.615463,-1110.308913,-612.876398
2904.377698,-8956.491898,-666.185348,-1455.581446
2904.378035,-10140.821405,-740.205942,-766.095498
2904.378373,-10362.883188,-1036.288319,-1302.362347
2904.378710,-9622.677246,-1776.494261,-383.047749
2904.379048,-10066.800811,-1554.432478,1838.629195
2904.379385,-9844.739029,-1776.494261,1378.971896
2904.379722,-9844.739029,-1554.432478,1378.971896
2904.380060,-10362.883188,-1998.556043,689.485948
2904.380397,-9918.759623,-2368.659014,766.095498
2904.380735,-9548.656652,-1554.432478,995.924147
2904.381072,-9622.677246,-962.267725,1149.143247
2904.381410,-8734.430116,1628.453072,1685.410096
2904.381747,-10658.965565,1406.391290,1378.971896
2904.382084,-11917.315666,1702.473667,459.657299
2904.382422,-10807.006753,1924.535449,0.000000
2904.382759,-10066.800811,1776.494261,1685.410096
2904.383097,-10066.800811,1184.329507,2145.067394
2904.383434,-9474.636058,518.144159,536.266849
2904.383772,-9844.739029,370.102971,229.828649
2904.384109,-9770.718434,-740.205942,-1149.143247
2904.384446,-8808.450710,-740.205942,-1532.190996
2904.384784,-10066.800811,0.000000,-1532.190996
2904.385121,-9104.533087,-222.061783,-995.924147
2904.385459,-8808.450710,-370.102971,-1762.019645
2904.385796,-9918.759623,-962.267725,-1225.752797
2904.386134,-10510.924376,-888.247130,-383.047749
2904.386471,-9770.718434,-1480.411884,0.000000
2904.386808,-9844.739029,-1998.556043,1455.581446
2904.387146,-10436.903782,-1110.308913,1838.629195
2904.387483,-11547.212695,-1702.473667,1149.143247
2904.387821,-10955.047942,-2368.659014,306.438199
2904.388158,-9770.718434,-1924.535449,0.000000
2904.388496,-9548.656652,-1258.350101,0.000000
2904.388833,-9622.677246,-296.082377,689.485948
2904.389170,-9770.718434,888.247130,919.314598
2904.389508,-11251.130318,962.267725,689.485948
2904.389845,-11991.336260,666.185348,459.657299
2904.390183,-11029.068536,666.185348,0.000000
2904.390520,-10436.903782,-592.164754,2298.286494
2904.390858,-10362.883188,-74.020594,2757.943793
2904.391195,-10066.800811,-1036.288319,842.705048
2904.391532,-10362.883188,-222.061783,-919.314598
2904.391870,-9770.718434,-1628.453072,-1762.019645
2904.392207,-8956.491898,-888.247130,-1378.971896
2904.392545,-8660.409521,-1036.288319,-919.314598
2904.392882,-8142.265362,0.000000,229.828649
2904.393220,-9178.553681,518.144159,459.657299
2904.393557,-10807.006753,592.164754,0.000000
2904.393894,-11399.171507,888.247130,153.219100
2904.394232,-10436.903782,518.144159,2374.896044
2904.394569,-9770.718434,296.082377,3830.477490
2904.394907,-9622.677246,222.061783,2757.943793
2904.395244,-10658.965565,222.061783,1762.019645
2904.395582,-10436.903782,888.247130,919.314598
2904.395919,-9474.636058,296.082377,-306.438199
2904.396256,-9918.759623,1406.391290,153.219100
2904.396594,-9252.574275,2294.638420,0.000000
2904.396931,-9770.718434,3182.885551,153.219100
2904.397269,-11769.274478,2960.823768,-536.266849
2904.397606,-11399.171507,2072.576638,-1225.752797
2904.397944,-10362.883188,222.061783,-153.219100
2904.398281,-9178.553681,-1258.350101,1915.238745
2904.398618,-9474.636058,-740.205942,2374.896044
2904.398956,-10066.800811,-1332.370696,76.609550
2904.399293,-10288.862594,-1776.494261,-1532.190996
2904.399631,-9474.636058,-2960.823768,-2221.676944
2904.399968,-9326.594869,-2960.823768,-1991.848295
2904.400306,-8734.430116,-888.247130,-612.876398
2904.400643,-8512.368333,-740.205942,-689.485948
2904.400980,-10807.006753,-74.020594,0.000000
2904.401318,-11177.109724,-666.185348,-612.876398
2904.401655,-11103.089130,-1258.350101,995.924147
2904.401993,-10510.924376,-2146.597232,3907.087040
2904.402330,-11399.171507,-1998.556043,4749.792088
2904.402668,-10881.027347,-592.164754,2834.553343
2904.403005,-10362.883188,-1110.308913,919.314598
2904.403342,-10658.965565,-1110.308913,-383.047749
2904.403680,-9770.718434,-740.205942,-1149.143247
2904.404017,-9178.553681,444.123565,-689.485948
2904.404355,-8660.409521,1554.432478,0.000000
2904.404692,-9918.759623,1110.308913,-383.047749
2904.405030,-10288.862594,1480.411884,-1991.848295
2904.405367,-10288.862594,518.144159,-766.095498
2904.405704,-10362.883188,222.061783,1915.238745
2904.406042,-9844.739029,296.082377,2068.457845
2904.406379,-9548.656652,0.000000,612.876398
2904.406717,-10066.800811,-1480.411884,0.000000
2904.407054,-9548.656652,-2368.659014,-689.485948
2904.407392,-8364.327145,-1406.391290,-1455.581446
2904.407729,-9252.574275,-962.267725,-1072.533697
2904.408066,-8734.430116,444.123565,-842.705048
2904.408404,-9326.594869,518.144159,-842.705048
2904.408741,-10807.006753,740.205942,0.000000
2904.409079,-11177.109724,592.164754,689.485948
2904.409416,-10807.006753,-148.041188,2451.505594
2904.409754,-10066.800811,-518.144159,3447.429741
2904.410091,-10732.986159,0.000000,3677.258390
2904.410428,-11251.130318,-296.082377,1915.238745
2904.410766,-11325.150913,-1554.432478,76.609550
2904.411103,-9770.718434,-1628.453072,-1302.362347
2904.411441,-9474.636058,-962.267725,-1685.410096
2904.411778,-9030.512492,-222.061783,-1225.752797
2904.412115,-8216.285956,148.041188,-1532.190996
2904.412453,-9770.718434,222.061783,-1302.362347
2904.412790,-10881.027347,518.144159,-1532.190996
2904.413128,-11251.130318,0.000000,-536.266849
2904.413465,-10955.047942,-1110.308913,995.924147
2904.413802,-10436.903782,-1850.514855,2528.115143
2904.414140,-10807.006753,-1702.473667,536.266849
2904.414477,-10214.842000,-2886.803174,383.047749
2904.414815,-10214.842000,-2960.823768,-306.438199
2904.415152,-9030.512492,-3108.864956,-919.314598
2904.415489,-8956.491898,-1258.350101,0.000000
2904.415827,-8290.306550,296.082377,459.657299
2904.416164,-9770.718434,1480.411884,1608.800546
2904.416502,-11991.336260,1702.473667,1532.190996
2904.416839,-11103.089130,2590.720797,919.314598
2904.417176,-10955.047942,1628.453072,3677.258390
2904.417514,-10955.047942,2442.679609,5209.449386
2904.417851,-10510.924376,1554.432478,2451.505594
2904.418189,-10140.821405,740.205942,842.705048
2904.418526,-9696.697840,0.000000,-689.485948
2904.418863,-8290.306550,-592.164754,-1991.848295
2904.419201,-8068.244768,814.226536,-1762.019645
2904.419538,-8216.285956,444.123565,-2068.457845
2904.419875,-8734.430116,2516.700203,-1838.629195
2904.420213,-10807.006753,2220.617826,-2451.505594
2904.420550,-11177.109724,2368.659014,-1378.971896
2904.420888,-10436.903782,888.247130,612.876398
2904.421225,-10362.883188,-370.102971,2987.772442
2904.421562,-11251.130318,-74.020594,2757.943793
2904.421900,-11029.068536,-2294.638420,153.219100
2904.422237,-10066.800811,-2738.761985,-536.266849
2904.422575,-9400.615463,-4441.235652,-383.047749
2904.422912,-8438.347739,-2886.803174,-383.047749
2904.423249,-7476.080014,-1110.308913,-1149.143247
2904.423587,-8216.285956,518.144159,0.000000
2904.423924,-11029.068536,962.267725,0.000000
2904.424262,-11991.336260,2072.576638,-612.876398
2904.424599,-11917.315666,888.247130,1302.362347
2904.424936,-11029.068536,1184.329507,3524.039291
2904.425274,-11177.109724,-444.123565,4060.306139
2904.425611,-11029.068536,-592.164754,2451.505594
2904.425948,-9770.718434,-1850.514855,229.828649
2904.426286,-10510.924376,-2738.761985,-153.219100
2904.426623,-9178.553681,-2590.720797,-2451.505594
2904.426961,-8586.388927,-740.205942,-2221.676944
2904.427298,-8216.285956,444.123565,-2145.067394
2904.427635,-9474.636058,1110.308913,-2298.286494
2904.427973,-10807.006753,888.247130,-1608.800546
2904.428310,-10732.986159,592.164754,842.705048
2904.428648,-10955.047942,1036.288319,3524.039291
2904.428985,-11325.150913,222.061783,4060.306139
2904.429322,-11991.336260,0.000000,3140.991542
2904.429660,-11251.130318,-2146.597232,1915.238745
2904.429997,-9992.780217,-2960.823768,1685.410096
2904.430335,-7846.182985,-2294.638420,383.047749
2904.430672,-7624.121203,-962.267725,-383.047749
2904.431009,-7772.162391,1110.308913,-919.314598
2904.431347,-8956.491898,2368.659014,-995.924147
2904.431684,-11029.068536,3775.050304,-1455.581446
2904.432022,-11769.274478,2886.803174,-536.266849
2904.432359,-11177.109724,3108.864956,1762.019645
2904.432696,-10436.903782,1110.308913,2528.115143
2904.433034,-10584.944971,0.000000,3370.820191
2904.433371,-9918.759623,-2072.576638,1608.800546
2904.433708,-10214.842000,-3627.009116,76.609550
2904.434046,-9918.759623,-3330.926739,-2451.505594
2904.434383,-8956.491898,-2516.700203,-3447.429741
2904.434721,-8660.409521,-1480.411884,-3753.867940
2904.435058,-7179.997637,0.000000,-4136.915689
2904.435395,-9844.739029,0.000000,-2221.676944
2904.435733,-11103.089130,666.185348,-1149.143247
2904.436070,-11843.295072,740.205942,995.924147
2904.436408,-11991.336260,-222.061783,3983.696590
2904.436745,-12583.501014,-1406.391290,4519.963438
2904.437082,-11621.233289,-2368.659014,4673.182538
2904.437420,-11399.171507,-3923.091493,2451.505594
2904.437757,-9548.656652,-4293.194464,842.705048
2904.438095,-7994.224174,-2812.782580,-612.876398
2904.438432,-7698.141797,-1036.288319,-766.095498
2904.438769,-7476.080014,1110.308913,-1225.752797
2904.439107,-9696.697840,2368.659014,-1225.752797
2904.439444,-11103.089130,2664.741391,-1991.848295
2904.439781,-10732.986159,2960.823768,229.828649
2904.440119,-10955.047942,2442.679609,2987.772442
2904.440456,-10362.883188,2220.617826,4290.134789
2904.440794,-11843.295072,666.185348,3370.820191
2904.441131,-11547.212695,-1480.411884,1225.752797
2904.441468,-9918.759623,-1850.514855,-995.924147
2904.441806,-7624.121203,-2368.659014,-1838.629195
2904.442143,-7402.059420,-1628.453072,-1838.629195
2904.442481,-7254.018232,148.041188,-2374.896044
2904.442818,-8882.471304,1998.556043,-2528.115143
2904.443155,-11251.130318,3627.009116,-2604.724693
2904.443493,-11251.130318,3182.885551,-1608.800546
2904.443830,-10807.006753,2072.576638,2987.772442
2904.444168,-11103.089130,1406.391290,4596.572988
2904.444505,-11399.171507,222.061783,4673.182538
2904.444842,-11547.212695,-1110.308913,2451.505594
2904.445180,-11251.130318,-2960.823768,2528.115143
2904.445517,-9622.677246,-2960.823768,383.047749
2904.445855,-7994.224174,-1998.556043,-1532.190996
2904.446192,-7994.224174,-296.082377,-2145.067394
2904.446529,-7920.203579,1776.494261,-2451.505594
2904.446867,-9992.780217,2368.659014,-3217.601092
2904.447204,-10362.883188,2368.659014,-3140.991542
2904.447541,-11399.171507,1850.514855,-689.485948
2904.447879,-11399.171507,296.082377,2834.553343
2904.448216,-11547.212695,-814.226536,3753.867940
2904.448554,-11029.068536,-2146.597232,1455.581446
2904.448891,-10955.047942,-4219.173869,766.095498
2904.449228,-10288.862594,-4885.359217,306.438199
2904.449566,-8290.306550,-4737.318029,-766.095498
2904.449903,-8808.450710,-3182.885551,-1455.581446
2904.450241,-8660.409521,-296.082377,-2298.286494
2904.450578,-9770.718434,222.061783,-2604.724693
2904.450915,-10732.986159,1628.453072,-1915.238745
2904.451253,-9992.780217,1036.288319,459.657299
2904.451590,-10658.965565,1850.514855,3830.477490
2904.451928,-11695.253884,1480.411884,6052.154434
2904.452265,-12287.418637,0.000000,4519.963438
2904.452602,-12287.418637,-296.082377,3294.210641
2904.452940,-11103.089130,-2146.597232,2068.457845
2904.453277,-8068.244768,-1776.494261,229.828649
2904.453614,-7550.100608,-370.102971,-766.095498
2904.453952,-7624.121203,962.267725,-1532.190996
2904.454289,-7920.203579,2146.597232,-1991.848295
2904.454627,-10732.986159,2738.761985,-3907.087040
2904.454964,-10510.924376,3478.967927,-3064.381992
2904.455301,-10288.862594,1924.535449,-229.828649
2904.455639,-9548.656652,1184.329507,3064.381992
2904.455976,-11473.192101,296.082377,3983.696590
2904.456314,-10881.027347,-2146.597232,1378.971896
2904.456651,-10214.842000,-3997.112087,536.266849
2904.456988,-9548.656652,-4737.318029,306.438199
2904.457326,-8808.450710,-3182.885551,0.000000
2904.457663,-7772.162391,-2146.597232,-1915.238745
2904.458001,-8290.306550,-962.267725,-2298.286494
2904.458338,-9844.739029,518.144159,-2374.896044
2904.458675,-11029.068536,1480.411884,-1302.362347
2904.459013,-11769.274478,2294.638420,1225.752797
2904.459350,-11103.089130,666.185348,2451.505594
2904.459688,-11769.274478,296.082377,4826.401637
2904.460025,-11843.295072,-1628.453072,3753.867940
2904.460362,-11473.192101,-2516.700203,3907.087040
2904.460700,-11103.089130,-3404.947333,1915.238745
2904.461037,-9622.677246,-2812.782580,-842.705048
2904.461374,-8068.244768,-1332.370696,-2757.943793
2904.461712,-7550.100608,-222.061783,-2911.162892
2904.462049,-9474.636058,296.082377,-2604.724693
2904.462387,-9548.656652,888.247130,-4443.353888
2904.462724,-9918.759623,1110.308913,-3217.601092
2904.463061,-9918.759623,666.185348,306.438199
2904.463399,-10584.944971,444.123565,2987.772442
2904.463736,-11621.233289,0.000000,3140.991542
2904.464074,-11917.315666,-1998.556043,2451.505594
2904.464411,-11177.109724,-3552.988522,2451.505594
2904.464748,-9474.636058,-3256.906145,1532.190996
2904.465086,-8512.368333,-1998.556043,1378.971896
2904.465423,-7328.038826,-814.226536,-306.438199
2904.465761,-8068.244768,1776.494261,-1072.533697
2904.466098,-10732.986159,3404.947333,-919.314598
2904.466435,-11325.150913,3849.070898,-1762.019645
2904.466773,-10732.986159,3997.112087,-536.266849
2904.467110,-10881.027347,3256.906145,1532.190996
2904.467447,-11325.150913,2664.741391,2757.943793
2904.467785,-10584.944971,0.000000,2757.943793
2904.468122,-10658.965565,-1554.432478,2528.115143
2904.468460,-9252.574275,-2738.761985,1302.362347
2904.468797,-9474.636058,-2294.638420,0.000000
2904.469134,-9252.574275,-1184.329507,-1532.190996
2904.469472,-7698.141797,-444.123565,-3140.991542
2904.469809,-9252.574275,222.061783,-2834.553343
2904.470147,-9622.677246,1184.329507,-3830.477490
2904.470484,-9918.759623,888.247130,-1685.410096
2904.470821,-10584.944971,518.144159,766.095498
2904.471159,-10955.047942,-296.082377,1455.581446
2904.471496,-10955.047942,-1184.329507,1991.848295
2904.471834,-11177.109724,-3775.050304,2681.334243
2904.472171,-10807.006753,-4811.338623,2911.162892
2904.472508,-9326.594869,-4293.194464,2298.286494
2904.472846,-9326.594869,-2220.617826,2221.676944
2904.473183,-8956.491898,-814.226536,76.609550
2904.473521,-9770.718434,370.102971,-306.438199
2904.473858,-10658.965565,1776.494261,-536.266849
2904.474195,-10362.883188,2146.597232,-919.314598
2904.474533,-9992.780217,1924.535449,1072.533697
2904.474870,-10584.944971,2442.679609,2068.457845
2904.475207,-11769.274478,740.205942,2528.115143
2904.475545,-11695.253884,74.020594,1225.752797
2904.475882,-11103.089130,-1998.556043,919.314598
2904.476220,-9474.636058,-1554.432478,76.609550
2904.476557,-8512.368333,-1998.556043,-1378.971896
2904.476894,-7846.182985,-666.185348,-2068.457845
2904.477232,-7920.203579,-296.082377,-2298.286494
2904.477569,-9992.780217,740.205942,-2528.115143
2904.477907,-10140.821405,1480.411884,-2298.286494
2904.478244,-9548.656652,1776.494261,-459.657299
2904.478581,-10362.883188,1628.453072,1302.362347
2904.478919,-10807.006753,222.061783,1915.238745
2904.479256,-10732.986159,-296.082377,2145.067394
2904.479594,-10955.047942,-2664.741391,3140.991542
2904.479931,-10510.924376,-2886.803174,2374.896044
2904.480268,-9252.574275,-1776.494261,1149.143247
2904.480606,-8734.430116,-1184.329507,-306.438199
2904.480943,-7994.224174,0.000000,-1149.143247
2904.481280,-9770.718434,740.205942,-1991.848295
2904.481618,-10362.883188,2442.679609,-2145.067394
2904.481955,-10362.883188,1998.556043,-1225.752797
2904.482293,-10658.965565,1998.556043,919.314598
2904.482630,-11473.192101,740.205942,1838.629195
2904.482967,-11843.295072,-814.226536,1072.533697
2904.483305,-11177.109724,-2368.659014,1225.752797
2904.483642,-10436.903782,-3552.988522,1225.752797
2904.483980,-9474.636058,-3997.112087,-919.314598
2904.484317,-8660.409521,-3478.967927,-1378.971896
2904.484654,-8068.244768,-2368.659014,-1225.752797
2904.484992,-9770.718434,-1036.288319,-2145.067394
2904.485329,-10584.944971,-296.082377,-2528.115143
2904.485667,-9992.780217,296.082377,-1378.971896
2904.486004,-9548.656652,-296.082377,1532.190996
2904.486341,-9992.780217,74.020594,3907.087040
2904.486679,-11547.212695,148.041188,3983.696590
2904.487016,-11843.295072,-1184.329507,3830.477490
2904.487354,-11843.295072,-1406.391290,3064.381992
2904.487691,-10362.883188,-1998.556043,2374.896044
2904.488028,-8808.450710,-1332.370696,1532.190996
2904.488366,-7624.121203,-518.144159,76.609550
2904.488703,-7994.224174,1332.370696,-1455.581446
2904.489040,-9770.718434,2590.720797,-3370.820191
2904.489378,-10362.883188,3627.009116,-3447.429741
2904.489715,-9474.636058,2738.761985,-2145.067394
2904.490053,-9770.718434,2294.638420,306.438199
2904.490390,-11177.109724,2516.700203,2068.457845
2904.490727,-11621.233289,0.000000,1225.752797
2904.491065,-11103.089130,-962.267725,1149.143247
2904.491402,-10066.800811,-2960.823768,689.485948
2904.491740,-9696.697840,-2812.782580,842.705048
2904.492077,-8882.471304,-2516.700203,229.828649
2904.492414,-7846.182985,-1036.288319,-2068.457845
2904.492752,-9548.656652,-370.102971,-2451.505594
2904.493089,-9400.615463,0.000000,-3447.429741
2904.493427,-9474.636058,1406.391290,-1608.800546
2904.493764,-10732.986159,518.144159,1608.800546
2904.494101,-11399.171507,1480.411884,2145.067394
2904.494439,-11621.233289,74.020594,2068.457845
2904.494776,-11843.295072,-740.205942,2298.286494
2904.495113,-10510.924376,-2442.679609,2451.505594
2904.495451,-9622.677246,-3256.906145,1915.238745
2904.495788,-9400.615463,-2146.597232,1149.143247
2904.496126,-8142.265362,-666.185348,-995.924147
2904.496463,-9992.780217,296.082377,-1915.238745
2904.496800,-10510.924376,888.247130,-3600.648841
2904.497138,-8956.491898,518.144159,-3064.381992
2904.497475,-9918.759623,1036.288319,-689.485948
2904.497813,-9992.780217,444.123565,919.314598
2904.498150,-11251.130318,370.102971,995.924147
2904.498487,-11695.253884,-1554.432478,919.314598
2904.498825,-11251.130318,-2812.782580,1608.800546
2904.499162,-10066.800811,-3256.906145,1608.800546
2904.499500,-9548.656652,-3182.885551,1838.629195
2904.499837,-8068.244768,-1628.453072,1072.533697
2904.500174,-8364.327145,-740.205942,-612.876398
2904.500512,-9770.718434,592.164754,-995.924147
2904.500849,-9918.759623,1258.350101,-1532.190996
2904.501186,-9770.718434,2146.597232,306.438199
2904.501524,-10288.862594,2664.741391,2145.067394
2904.501861,-10881.027347,2146.597232,1915.238745
2904.502199,-11029.068536,1480.411884,1455.581446
2904.502536,-10362.883188,-1258.350101,2145.067394
2904.502873,-9474.636058,-1480.411884,2374.896044
2904.503211,-9474.636058,-1480.411884,1455.581446
2904.503548,-9844.739029,-148.041188,383.047749
2904.503886,-8808.450710,-444.123565,-1225.752797
2904.504223,-9548.656652,592.164754,-3370.820191
2904.504560,-9400.615463,0.000000,-3524.039291
2904.504898,-8734.430116,888.247130,-2911.162892
2904.505235,-9030.512492,-148.041188,-612.876398
2904.505573,-9918.759623,148.041188,459.657299
2904.505910,-10955.047942,-370.102971,0.000000
2904.506247,-11843.295072,-2442.679609,1225.752797
2904.506585,-11029.068536,-4441.235652,1302.362347
2904.506922,-9178.553681,-4071.132681,1378.971896
2904.507260,-9474.636058,-2738.761985,2221.676944
2904.507597,-8586.388927,-1702.473667,306.438199
2904.507934,-9992.780217,-1258.350101,-1378.971896
2904.508272,-11103.089130,-148.041188,-1608.800546
2904.508609,-9696.697840,222.061783,-1455.581446
2904.508946,-9844.739029,1110.308913,842.705048
2904.509284,-10362.883188,1850.514855,2068.457845
2904.509621,-10584.944971,962.267725,1608.800546
2904.509959,-11251.130318,-444.123565,1838.629195
2904.510296,-11251.130318,-814.226536,2221.676944
2904.510633,-10288.862594,-1184.329507,2221.676944
2904.510971,-9548.656652,-592.164754,2298.286494
2904.511308,-8882.471304,-666.185348,229.828649
2904.511646,-9030.512492,666.185348,-1838.629195
2904.511983,-10362.883188,370.102971,-2145.067394
2904.512320,-9178.553681,962.267725,-2911.162892
2904.512658,-9474.636058,222.061783,-2068.457845
2904.512995,-9918.759623,1406.391290,0.000000
2904.513332,-9770.718434,1480.411884,689.485948
2904.513670,-10510.924376,-296.082377,1149.143247
2904.514007,-10436.903782,-1258.350101,1685.410096
2904.514344,-10066.800811,-1850.514855,2451.505594
2904.514682,-10066.800811,-2294.638420,2757.943793
2904.515019,-9326.594869,-296.082377,1532.190996
2904.515356,-9474.636058,0.000000,459.657299
2904.515694,-10436.903782,0.000000,-306.438199
2904.516031,-9622.677246,740.205942,-1685.410096
2904.516368,-9252.574275,518.144159,-459.657299
2904.516706,-9400.615463,592.164754,459.657299
2904.517043,-9622.677246,1258.350101,0.000000
2904.517380,-10955.047942,888.247130,0.000000
2904.517718,-10881.027347,-444.123565,306.438199
2904.518055,-10658.965565,-1406.391290,689.485948
2904.518392,-9992.780217,-2146.597232,995.924147
2904.518730,-9252.574275,-1110.308913,459.657299
2904.519067,-9548.656652,-888.247130,-995.924147
2904.519404,-10510.924376,-1776.494261,-2374.896044
2904.519742,-10214.842000,-1924.535449,-2834.553343
2904.520079,-9548.656652,-814.226536,-2145.067394
2904.520416,-8956.491898,-962.267725,-766.095498
2904.520754,-9400.615463,-370.102971,612.876398
2904.521091,-10584.944971,-962.267725,1149.143247
2904.521428,-11843.295072,-1184.329507,1455.581446
2904.521766,-11251.130318,-1554.432478,2374.896044
2904.522103,-10658.965565,-1332.370696,2911.162892
2904.522440,-10436.903782,-592.164754,3064.381992
2904.522778,-9474.636058,0.000000,2374.896044
2904.523115,-9400.615463,1110.308913,612.876398
2904.523452,-10140.821405,222.061783,-612.876398
2904.523790,-9992.780217,1036.288319,-689.485948
2904.524127,-9030.512492,1480.411884,-153.219100
2904.524464,-9474.636058,1998.556043,766.095498
2904.524802,-9696.697840,2812.782580,-306.438199
2904.525139,-10436.903782,1332.370696,76.609550
2904.525476,-10658.965565,0.000000,229.828649
2904.525814,-9474.636058,-370.102971,0.000000
2904.526151,-9326.594869,-666.185348,689.485948
2904.526488,-9474.636058,-666.185348,0.000000
2904.526826,-9104.533087,-1110.308913,-689.485948
2904.527163,-10881.027347,-1184.329507,-612.876398
2904.527500,-9992.780217,-814.226536,-2145.067394
2904.527838,-9178.553681,-1184.329507,-689.485948
2904.528175,-9622.677246,-296.082377,919.314598
2904.528512,-9326.594869,0.000000,919.314598
2904.528850,-10732.986159,0.000000,995.924147
2904.529187,-12213.398043,-740.205942,2068.457845
2904.529524,-11029.068536,-888.247130,1378.971896
2904.529862,-10510.924376,-1110.308913,2068.457845
2904.530199,-9918.759623,-592.164754,2681.334243
2904.530536,-9474.636058,-444.123565,1072.533697
2904.530874,-11029.068536,-74.020594,76.609550
2904.531211,-10510.924376,-814.226536,-1302.362347
2904.531548,-9178.553681,0.000000,-1455.581446
2904.531886,-9770.718434,0.000000,306.438199
2904.532223,-9696.697840,518.144159,-153.219100
2904.532560,-10066.800811,74.020594,-612.876398
2904.532898,-10214.842000,-666.185348,-612.876398
2904.533235,-10140.821405,-1184.329507,-229.828649
2904.533572,-9992.780217,-1628.453072,229.828649
2904.533910,-10066.800811,-1850.514855,995.924147
2904.534247,-9548.656652,-1258.350101,0.000000
2904.534584,-9696.697840,-1036.288319,0.000000
2904.534922,-10140.821405,-444.123565,-689.485948
2904.535259,-9992.780217,-962.267725,-459.657299
2904.535596,-8882.471304,-444.123565,689.485948
2904.535934,-9474.636058,740.205942,1685.410096
2904.536271,-10955.047942,1332.370696,1762.019645
2904.536608,-11325.150913,888.247130,612.876398
2904.536946,-11251.130318,1258.350101,1532.190996
2904.537283,-10362.883188,740.205942,1532.190996
2904.537620,-9622.677246,888.247130,2528.115143
2904.537958,-9844.739029,814.226536,1915.238745
2904.538295,-9474.636058,592.164754,0.000000
2904.538632,-10436.903782,962.267725,-1225.752797
2904.538970,-10066.800811,518.144159,-1991.848295
2904.539307,-8956.491898,444.123565,-1838.629195
2904.539644,-8808.450710,0.000000,-612.876398
2904.539982,-8882.471304,518.144159,-995.924147
2904.540319,-9548.656652,148.041188,-1302.362347
2904.540656,-10510.924376,-1258.350101,-612.876398
2904.540994,-10362.883188,-2146.597232,919.314598
2904.541331,-10066.800811,-2146.597232,1378.971896
2904.541668,-10584.944971,-1924.535449,2528.115143
2904.542006,-9992.780217,-1924.535449,1378.971896
2904.542343,-10140.821405,-1998.556043,0.000000
2904.542680,-10658.965565,-1998.556043,-383.047749
2904.543017,-9548.656652,-1998.556043,-229.828649
2904.543355,-9400.615463,-1110.308913,459.657299
2904.543692,-10140.821405,222.061783,1685.410096
2904.544029,-10732.986159,444.123565,1608.800546
2904.544367,-11695.253884,-296.082377,1378.971896
2904.544704,-11251.130318,-370.102971,1532.190996
2904.545041,-10288.862594,-296.082377,2374.896044
2904.545379,-10510.924376,-592.164754,2604.724693
2904.545716,-9548.656652,74.020594,1149.143247
2904.546053,-10214.842000,888.247130,0.000000
2904.546391,-11103.089130,592.164754,-919.314598
2904.546728,-9622.677246,370.102971,-2298.286494
2904.547065,-9178.553681,74.020594,-1685.410096
2904.547403,-9178.553681,888.247130,-919.314598
2904.547740,-9104.533087,740.205942,-1608.800546
2904.548077,-10658.965565,296.082377,-995.924147
2904.548415,-10066.800811,-1110.308913,-306.438199
2904.548752,-9992.780217,-962.267725,612.876398
2904.549089,-9696.697840,-518.144159,2528.115143
2904.549427,-9252.574275,-148.041188,2221.676944
2904.549764,-9252.574275,-370.102971,2298.286494
2904.550101,-10362.883188,-370.102971,842.705048
2904.550439,-9770.718434,814.226536,0.000000
2904.550776,-9918.759623,888.247130,0.000000
2904.551113,-10214.842000,518.144159,306.438199
2904.551451,-9548.656652,1480.411884,76.609550
2904.551788,-10214.842000,962.267725,-306.438199
2904.552125,-10436.903782,222.061783,-383.047749
2904.552463,-9770.718434,-814.226536,-229.828649
2904.552800,-9918.759623,-370.102971,842.705048
2904.553137,-10214.842000,-666.185348,766.095498
2904.553475,-9696.697840,0.000000,-229.828649
2904.553812,-10732.986159,-740.205942,0.000000
2904.554149,-11325.150913,-740.205942,-1532.190996
2904.554487,-9474.636058,-592.164754,-2221.676944
2904.554824,-9622.677246,-592.164754,-1302.362347
2904.555161,-9992.780217,-1332.370696,-459.657299
2904.555499,-10436.903782,-1036.288319,-1149.143247
2904.555836,-10881.027347,-2146.597232,-536.266849
2904.556173,-9548.656652,-1924.535449,0.000000
2904.556511,-9622.677246,-2516.700203,1685.410096
2904.556848,-10066.800811,-1998.556043,2757.943793
2904.557185,-9178.553681,-1480.411884,3217.601092
2904.557523,-10732.986159,-370.102971,3064.381992
2904.557860,-11695.253884,-222.061783,2451.505594
2904.558197,-10732.986159,444.123565,1072.533697
2904.558535,-9918.759623,814.226536,1455.581446
2904.558872,-9918.759623,666.185348,1915.238745
2904.559209,-9622.677246,1702.473667,306.438199
2904.559547,-10066.800811,370.102971,-306.438199
2904.559884,-10658.965565,1036.288319,0.000000
2904.560221,-9252.574275,444.123565,-766.095498
2904.560559,-9696.697840,444.123565,0.000000
2904.560896,-9474.636058,1110.308913,76.609550
2904.561233,-9474.636058,1110.308913,0.000000
2904.561571,-10288.862594,1480.411884,-612.876398
2904.561908,-10807.006753,0.000000,-1149.143247
2904.562245,-10140.821405,0.000000,-1149.143247
2904.562583,-9844.739029,-592.164754,459.657299
2904.562920,-10066.800811,-370.102971,459.657299
2904.563257,-9252.574275,-962.267725,-612.876398
2904.563595,-9844.739029,-1776.494261,-306.438199
2904.563932,-9178.553681,-2368.659014,-76.609550
2904.564269,-9178.553681,-2368.659014,612.876398
2904.564607,-9844.739029,-592.164754,1915.238745
2904.564944,-9548.656652,74.020594,1072.533697
2904.565281,-10510.924376,296.082377,766.095498
2904.565619,-11251.130318,296.082377,306.438199
2904.565956,-10732.986159,222.061783,689.485948
2904.566293,-9918.759623,0.000000,995.924147
2904.566631,-10584.944971,74.020594,1225.752797
2904.566968,-10288.862594,0.000000,0.000000
2904.567305,-10436.903782,-518.144159,-995.924147
2904.567643,-10732.986159,-1036.288319,-766.095498
2904.567980,-9474.636058,-666.185348,-1762.019645
2904.568317,-9844.739029,-444.123565,-689.485948
2904.568655,-9030.512492,518.144159,-612.876398
2904.568992,-9548.656652,74.020594,-1225.752797
2904.569329,-10807.006753,0.000000,229.828649
2904.569667,-10584.944971,-74.020594,536.266849
2904.570004,-10214.842000,-1110.308913,842.705048
2904.570341,-10288.862594,-74.020594,1991.848295
2904.570679,-10214.842000,-740.205942,2298.286494
2904.571016,-9844.739029,-592.164754,2068.457845
2904.571353,-9770.718434,-1258.350101,1455.581446
2904.571691,-9252.574275,74.020594,1225.752797
2904.572028,-9696.697840,0.000000,766.095498
2904.572365,-8956.491898,1924.535449,153.219100
2904.572703,-9104.533087,2294.638420,459.657299
2904.573040,-10214.842000,1924.535449,689.485948
2904.573377,-10584.944971,2516.700203,229.828649
2904.573715,-11029.068536,1480.411884,76.609550
2904.574052,-10510.924376,888.247130,766.095498
2904.574389,-9474.636058,148.041188,689.485948
2904.574727,-10436.903782,-296.082377,612.876398
2904.575064,-10140.821405,-1184.329507,-229.828649
2904.575401,-9622.677246,-1850.514855,-1532.190996
2904.575739,-9326.594869,-1628.453072,-1302.362347
2904.576076,-9252.574275,-1036.288319,-1302.362347
2904.576413,-9548.656652,0.000000,-842.705048
2904.576751,-10807.006753,-814.226536,-1378.971896
2904.577088,-11399.171507,-518.144159,-1225.752797
2904.577425,-11547.212695,-740.205942,-612.876398
2904.577763,-10362.883188,-2072.576638,689.485948
2904.578100,-9548.656652,-2146.597232,2528.115143
2904.578437,-9918.759623,-2516.700203,2451.505594
2904.578775,-10658.965565,-1998.556043,1685.410096
2904.579112,-10732.986159,-1554.432478,842.705048
2904.579449,-10362.883188,-1554.432478,459.657299
2904.579787,-10066.800811,-370.102971,689.485948
2904.580124,-9104.533087,518.144159,459.657299
2904.580461,-9400.615463,1406.391290,842.705048
2904.580799,-10807.006753,1036.288319,536.266849
2904.581136,-11103.089130,888.247130,-383.047749
2904.581473,-9992.780217,0.000000,0.000000
2904.581811,-10066.800811,-296.082377,1455.581446
2904.582148,-10288.862594,-148.041188,995.924147
2904.582485,-10066.800811,-518.144159,76.609550
2904.582823,-9844.739029,-962.267725,-459.657299
2904.583160,-8438.347739,-1480.411884,-995.924147
2904.583497,-8808.450710,-592.164754,229.828649
2904.583835,-8956.491898,0.000000,153.219100
2904.584172,-9326.594869,1110.308913,-306.438199
2904.584509,-10436.903782,888.247130,153.219100
2904.584847,-11103.089130,1332.370696,76.609550
2904.585184,-10288.862594,296.082377,1149.143247
2904.585521,-10288.862594,-592.164754,2834.553343
2904.585859,-9252.574275,148.041188,2757.943793
2904.586196,-10510.924376,0.000000,2374.896044
2904.586533,-11029.068536,-740.205942,919.314598
2904.586871,-9474.636058,-592.164754,-612.876398
2904.587208,-9474.636058,-370.102971,-153.219100
2904.587545,-9400.615463,666.185348,0.000000
2904.587883,-8512.368333,1036.288319,-842.705048
2904.588220,-10140.821405,1406.391290,-459.657299
2904.588557,-10955.047942,592.164754,-1149.143247
2904.588895,-10732.986159,444.123565,-995.924147
2904.589232,-11177.109724,-148.041188,459.657299
2904.589569,-10140.821405,-1554.432478,459.657299
2904.589907,-10214.842000,-1628.453072,0.000000
2904.590244,-10510.924376,-2590.720797,-612.876398
2904.590581,-9474.636058,-3034.844362,-1302.362347
2904.590918,-9030.512492,-2664.741391,-1455.581446
2904.591256,-9400.615463,-2294.638420,-536.266849
2904.591593,-9252.574275,74.020594,-1225.752797
2904.591930,-9474.636058,-74.020594,0.000000
2904.592268,-11029.068536,296.082377,536.266849
2904.592605,-11103.089130,-222.061783,1302.362347
2904.592942,-10807.006753,74.020594,2834.553343
2904.593280,-10955.047942,444.123565,3907.087040
2904.593617,-11103.089130,296.082377,3753.867940
2904.593954,-11029.068536,-444.123565,2145.067394
2904.594292,-10658.965565,-592.164754,766.095498
2904.594629,-8808.450710,-444.123565,-689.485948
2904.594966,-8438.347739,962.267725,-689.485948
2904.595304,-8142.265362,1258.350101,0.000000
2904.595641,-8586.388927,1332.370696,-229.828649
2904.595978,-10214.842000,2442.679609,-766.095498
2904.596316,-11473.192101,1924.535449,-306.438199
2904.596653,-10362.883188,888.247130,-306.438199
2904.596990,-9326.594869,962.267725,766.095498
2904.597328,-10140.821405,-370.102971,1991.848295
2904.597665,-10066.800811,-444.123565,383.047749
2904.598002,-10807.006753,-2220.617826,-612.876398
2904.598340,-10140.821405,-2442.679609,-995.924147
2904.598677,-9030.512492,-1998.556043,-766.095498
2904.599014,-9326.594869,-1110.308913,-306.438199
2904.599352,-8660.409521,0.000000,-612.876398
2904.599689,-9474.636058,74.020594,-306.438199
2904.600026,-11103.089130,888.247130,383.047749
2904.600364,-10955.047942,814.226536,842.705048
2904.600701,-11325.150913,518.144159,1762.019645
2904.601038,-11695.253884,74.020594,3064.381992
2904.601376,-11251.130318,-592.164754,1838.629195
2904.601713,-10658.965565,-1184.329507,1225.752797
2904.602050,-10140.821405,-2664.741391,383.047749
2904.602388,-8660.409521,-2368.659014,-536.266849
2904.602725,-8956.491898,-1332.370696,-1608.800546
2904.603062,-8734.430116,222.061783,-1762.019645
2904.603400,-9622.677246,518.144159,-2451.505594
2904.603737,-10807.006753,518.144159,-2298.286494
2904.604074,-10362.883188,0.000000,-1608.800546
2904.604412,-10140.821405,-1036.288319,1072.533697
2904.604749,-10288.862594,-666.185348,2451.505594
2904.605086,-10955.047942,-296.082377,2987.772442
2904.605424,-12583.501014,-1554.432478,2068.457845
2904.605761,-11029.068536,-2738.761985,229.828649
2904.606098,-9104.533087,-2812.782580,0.000000
2904.606436,-8512.368333,-1480.411884,766.095498
2904.606773,-7624.121203,-444.123565,612.876398
2904.607110,-8512.368333,1406.391290,1378.971896
2904.607448,-10807.006753,2516.700203,306.438199
2904.607785,-11621.233289,3478.967927,-536.266849
2904.608122,-12065.356855,3775.050304,1149.143247
2904.608460,-10732.986159,1924.535449,2374.896044
2904.608797,-9992.780217,1924.535449,3140.991542
2904.609134,-10584.944971,370.102971,2145.067394
2904.609472,-10140.821405,-814.226536,459.657299
2904.609809,-9104.533087,-1850.514855,-536.266849
2904.610146,-8956.491898,-1332.370696,-1685.410096
2904.610484,-8808.450710,-370.102971,-2221.676944
2904.610821,-8512.368333,296.082377,-2528.115143
2904.611158,-9104.533087,222.061783,-2834.553343
2904.611496,-10140.821405,444.123565,-2911.162892
2904.611833,-10807.006753,444.123565,-1378.971896
2904.612170,-10732.986159,0.000000,536.266849
2904.612508,-10881.027347,-1480.411884,2068.457845
2904.612845,-11621.233289,-2368.659014,1991.848295
2904.613182,-11473.192101,-3182.885551,1378.971896
2904.613520,-10807.006753,-4515.256246,1072.533697
2904.613857,-8734.430116,-4441.235652,0.000000
2904.614194,-8142.265362,-3256.906145,-306.438199
2904.614532,-7994.224174,-888.247130,-153.219100
2904.614869,-9474.636058,1184.329507,76.609550
2904.615206,-11695.253884,1628.453072,-229.828649
2904.615544,-11325.150913,2146.597232,-383.047749
2904.615881,-11473.192101,1406.391290,1072.533697
2904.616218,-11177.109724,592.164754,3294.210641
2904.616556,-10881.027347,-148.041188,2757.943793
2904.616893,-11399.171507,-1332.370696,1762.019645
2904.617230,-11177.109724,-2516.700203,842.705048
2904.617568,-8290.306550,-2442.679609,-1225.752797
2904.617905,-8438.347739,-1628.453072,-1608.800546
2904.618242,-7994.224174,-296.082377,-2145.067394
2904.618580,-7698.141797,518.144159,-1762.019645
2904.618917,-9770.718434,1258.350101,-1072.533697
2904.619254,-10658.965565,2368.659014,-1685.410096
2904.619592,-11103.089130,2368.659014,0.000000
2904.619929,-11029.068536,1184.329507,2757.943793
2904.620266,-10658.965565,-370.102971,3600.648841
2904.620604,-10658.965565,-1258.350101,3753.867940
2904.620941,-10807.006753,-3108.864956,3447.429741
2904.621278,-8734.430116,-2664.741391,1762.019645
2904.621616,-8216.285956,-1480.411884,229.828649
2904.621953,-8734.430116,222.061783,-766.095498
2904.622291,-8142.265362,1628.453072,-2068.457845
2904.622628,-10214.842000,2590.720797,-1302.362347
2904.622965,-10881.027347,2738.761985,-1762.019645
2904.623303,-10066.800811,2368.659014,-1915.238745
2904.623640,-10732.986159,1776.494261,1072.533697
2904.623977,-11251.130318,-148.041188,3140.991542
2904.624315,-11843.295072,-1554.432478,2451.505594
2904.624652,-11917.315666,-2738.761985,1608.800546
2904.624989,-10807.006753,-3256.906145,459.657299
2904.625327,-8808.450710,-4515.256246,-1455.581446
2904.625664,-7698.141797,-3701.029710,-1685.410096
2904.626001,-7402.059420,-1480.411884,-2451.505594
2904.626339,-8956.491898,0.000000,-2068.457845
2904.626676,-10584.944971,518.144159,-2604.724693
2904.627013,-11325.150913,1184.329507,-2221.676944
2904.627351,-11103.089130,888.247130,1149.143247
2904.627688,-11029.068536,-222.061783,3983.696590
2904.628025,-12139.377449,-1406.391290,4673.182538
2904.628363,-11695.253884,-2442.679609,4136.915689
2904.628700,-10881.027347,-2886.803174,3907.087040
2904.629037,-8808.450710,-2812.782580,1838.629195
2904.629375,-7698.141797,-1258.350101,0.000000
2904.629712,-8068.244768,592.164754,-612.876398
2904.630049,-8364.327145,2590.720797,-1762.019645
2904.630387,-10584.944971,4071.132681,-2145.067394
2904.630724,-11177.109724,4071.132681,-3677.258390
2904.631061,-10510.924376,3701.029710,-1838.629195
2904.631399,-10510.924376,1924.535449,1378.971896
2904.631736,-11399.171507,1406.391290,3064.381992
2904.632073,-11103.089130,-444.123565,1838.629195
2904.632411,-9992.780217,-2294.638420,1378.971896
2904.632748,-9252.574275,-4071.132681,766.095498
2904.633085,-8586.388927,-3404.947333,383.047749
2904.633423,-7846.182985,-962.267725,-383.047749
2904.633760,-8512.368333,592.164754,-1302.362347
2904.634097,-9548.656652,1776.494261,-2604.724693
2904.634435,-9770.718434,1628.453072,-3370.820191
2904.634772,-10807.006753,2294.638420,-1532.190996
2904.635109,-10362.883188,666.185348,1685.410096
2904.635447,-11547.212695,74.020594,3370.820191
2904.635784,-12731.542202,-1702.473667,3600.648841
2904.636121,-11547.212695,-2368.659014,3064.381992
2904.636459,-10066.800811,-4145.153275,3294.210641
2904.636796,-9252.574275,-4441.235652,1455.581446
2904.637133,-8512.368333,-1998.556043,0.000000
2904.637471,-8660.409521,148.041188,-2068.457845
2904.637808,-9400.615463,1480.411884,-2681.334243
2904.638145,-10807.006753,2220.617826,-4443.353888
2904.638483,-10732.986159,2072.576638,-3677.258390
2904.638820,-10881.027347,740.205942,-1455.581446
2904.639158,-10658.965565,148.041188,1149.143247
2904.639495,-11103.089130,-1924.535449,1838.629195
2904.639832,-11473.192101,-3108.864956,2221.676944
2904.640170,-10955.047942,-4811.338623,2145.067394
2904.640507,-9326.594869,-4885.359217,2374.896044
2904.640844,-9178.553681,-3404.947333,2298.286494
2904.641182,-8512.368333,-1628.453072,766.095498
2904.641519,-8142.265362,370.102971,0.000000
2904.641856,-9548.656652,1480.411884,-1302.362347
2904.642194,-10658.965565,2220.617826,-1302.362347
2904.642531,-11177.109724,2516.700203,383.047749
2904.642868,-10807.006753,1480.411884,1532.190996
2904.643206,-10732.986159,2516.700203,3140.991542
2904.643543,-11695.253884,1036.288319,2681.334243
2904.643880,-10807.006753,-1554.432478,2374.896044
2904.644218,-8882.471304,-2072.576638,1991.848295
2904.644555,-8808.450710,-1406.391290,1991.848295
2904.644892,-8956.491898,592.164754,0.000000
2904.645230,-8882.471304,1628.453072,-2451.505594
2904.645567,-9918.759623,2294.638420,-3064.381992
2904.645904,-10140.821405,2294.638420,-3294.210641
2904.646242,-9770.718434,2368.659014,-3370.820191
2904.646579,-9400.615463,962.267725,-1302.362347
2904.646916,-10436.903782,-518.144159,0.000000
2904.647254,-11103.089130,-1850.514855,459.657299
2904.647591,-10955.047942,-3330.926739,1225.752797
2904.647928,-10362.883188,-4071.132681,1455.581446
2904.648266,-9178.553681,-4885.359217,1685.410096
2904.648603,-9918.759623,-3478.967927,1532.190996
2904.648940,-8216.285956,-1776.494261,-306.438199
2904.649278,-9178.553681,74.020594,-153.219100
2904.649615,-10658.965565,1036.288319,-766.095498
2904.649952,-10807.006753,1480.411884,-919.314598
2904.650290,-11103.089130,1480.411884,919.314598
2904.650627,-11103.089130,592.164754,2068.457845
2904.650964,-11251.130318,814.226536,2528.115143
2904.651302,-11695.253884,-1702.473667,2221.676944
2904.651639,-11177.109724,-1702.473667,1608.800546
2904.651976,-9844.739029,-2368.659014,306.438199
2904.652314,-9252.574275,-888.247130,-229.828649
2904.652651,-8438.347739,-444.123565,-1378.971896
2904.652988,-8142.265362,222.061783,-1915.238745
2904.653326,-9400.615463,1332.370696,-2911.162892
2904.653663,-9844.739029,1110.308913,-2451.505594
2904.654000,-9992.780217,1480.411884,0.000000
2904.654338,-10288.862594,518.144159,1685.410096
2904.654675,-11991.336260,814.226536,2681.334243
2904.655012,-11473.192101,222.061783,1455.581446
2904.655350,-11177.109724,-2664.741391,2451.505594
2904.655687,-9030.512492,-3404.947333,2911.162892
2904.656024,-8068.244768,-2220.617826,1762.019645
2904.656362,-8734.430116,-740.205942,1762.019645
2904.656699,-8364.327145,1036.288319,-1149.143247
2904.657037,-9622.677246,1480.411884,-1532.190996
2904.657374,-10732.986159,3108.864956,-919.314598
2904.657711,-10214.842000,3256.906145,-995.924147
2904.658049,-11029.068536,2146.597232,1302.362347
2904.658386,-11251.130318,1480.411884,1608.800546
2904.658723,-11251.130318,222.061783,1149.143247
2904.659061,-11399.171507,-1258.350101,1225.752797
2904.659398,-10658.965565,-3182.885551,1991.848295
2904.659735,-9178.553681,-2886.803174,-153.219100
2904.660073,-9770.718434,-2368.659014,-1072.533697
2904.660410,-8438.347739,-1332.370696,-2298.286494
2904.660747,-8882.471304,-1184.329507,-3600.648841
2904.661085,-9992.780217,-222.061783,-3064.381992
2904.661422,-9548.656652,518.144159,-2451.505594
2904.661759,-10214.842000,-518.144159,0.000000
2904.662097,-10955.047942,0.000000,1915.238745
2904.662434,-11399.171507,-1406.391290,2604.724693
2904.662771,-11843.295072,-2960.823768,3064.381992
2904.663109,-10732.986159,-4219.173869,3064.381992
2904.663446,-9622.677246,-3552.988522,2451.505594
2904.663783,-9622.677246,-2516.700203,2374.896044
2904.664121,-8586.388927,-518.144159,766.095498
2904.664458,-7994.224174,444.123565,0.000000
2904.664795,-10140.821405,2072.576638,-842.705048
2904.665133,-9844.739029,2960.823768,-1762.019645
2904.665470,-10658.965565,2886.803174,-766.095498
2904.665807,-10436.903782,3108.864956,1072.533697
2904.666145,-10881.027347,2664.741391,1915.238745
2904.666482,-11843.295072,740.205942,1455.581446
2904.666819,-11251.130318,-1258.350101,1532.190996
2904.667157,-9548.656652,-2368.659014,1225.752797
2904.667494,-8808.450710,-2072.576638,536.266849
2904.667831,-7994.224174,-1702.473667,-612.876398
2904.668169,-8586.388927,-666.185348,-995.924147
2904.668506,-9400.615463,296.082377,-2528.115143
2904.668843,-10066.800811,1850.514855,-2911.162892
2904.669181,-10140.821405,2368.659014,-1685.410096
2904.669518,-9474.636058,888.247130,-536.266849
2904.669855,-10732.986159,1036.288319,1991.848295
2904.670193,-11991.336260,-370.102971,2374.896044
2904.670530,-11399.171507,-1554.432478,2604.724693
2904.670867,-11325.150913,-2220.617826,2681.334243
2904.671205,-9696.697840,-3256.906145,2604.724693
2904.671542,-8956.491898,-1776.494261,1072.533697
2904.671879,-8660.409521,-1036.288319,306.438199
2904.672217,-9104.533087,370.102971,-766.095498
2904.672554,-9844.739029,962.267725,-2451.505594
2904.672891,-10362.883188,2072.576638,-2451.505594
2904.673229,-9844.739029,1184.329507,-1455.581446
2904.673566,-10288.862594,1258.350101,229.828649
2904.673903,-11251.130318,0.000000,306.438199
2904.674241,-11325.150913,-1702.473667,612.876398
2904.674578,-10732.986159,-3182.885551,842.705048
2904.674916,-9770.718434,-3775.050304,-459.657299
2904.675253,-9474.636058,-3478.967927,1225.752797
2904.675590,-8364.327145,-2886.803174,229.828649
2904.675928,-8290.306550,-740.205942,-995.924147
2904.676265,-10658.965565,666.185348,-995.924147
2904.676602,-9992.780217,1110.308913,-1685.410096
2904.676940,-9400.615463,1480.411884,0.000000
2904.677277,-10436.903782,1184.329507,2911.162892
2904.677614,-11769.274478,2294.638420,3447.429741
2904.677952,-12583.501014,1184.329507,2911.162892
2904.678289,-12287.418637,-518.144159,2528.115143
2904.678626,-9844.739029,-1702.473667,2834.553343
2904.678964,-8512.368333,-1776.494261,2987.772442
2904.679301,-7846.182985,-296.082377,1991.848295
2904.679638,-7179.997637,518.144159,-459.657299
2904.679976,-9770.718434,1628.453072,-1838.629195
2904.680313,-9844.739029,2516.700203,-4136.915689
2904.680650,-9992.780217,3330.926739,-3064.381992
2904.680988,-9918.759623,2442.679609,-536.266849
2904.681325,-9770.718434,1850.514855,-229.828649
2904.681662,-11029.068536,1036.288319,-459.657299
2904.682000,-10955.047942,-1924.535449,0.000000
2904.682337,-9844.739029,-3701.029710,919.314598
2904.682674,-9474.636058,-4959.379811,689.485948
2904.683012,-9770.718434,-3108.864956,2068.457845
2904.683349,-8068.244768,-2146.597232,-229.828649
2904.683686,-9326.594869,-518.144159,-1378.971896
2904.684024,-10510.924376,74.020594,-2068.457845
2904.684361,-9918.759623,518.144159,-2451.505594
2904.684698,-9918.759623,1184.329507,306.438199
2904.685036,-10807.006753,1554.432478,2298.286494
2904.685373,-12361.439231,296.082377,2068.457845
2904.685710,-11843.295072,-666.185348,2298.286494
2904.686048,-11251.130318,-2516.700203,2068.457845
2904.686385,-9844.739029,-2516.700203,1838.629195
2904.686722,-9252.574275,-2368.659014,1225.752797
2904.687060,-8882.471304,-740.205942,383.047749
2904.687397,-8882.471304,222.061783,-1072.533697
2904.687734,-10066.800811,1332.370696,-2757.943793
2904.688072,-10066.800811,1628.453072,-3370.820191
2904.688409,-8808.450710,1110.308913,-2374.896044
2904.688746,-9548.656652,2072.576638,306.438199
2904.689084,-10881.027347,592.164754,842.705048
2904.689421,-11769.274478,0.000000,842.705048
2904.689758,-10955.047942,-2368.659014,1685.410096
2904.690096,-10288.862594,-3404.947333,2451.505594
2904.690433,-8586.388927,-2590.720797,2451.505594
2904.690770,-8142.265362,-2072.576638,1838.629195
2904.691108,-7624.121203,-370.102971,842.705048
2904.691445,-9548.656652,296.082377,-612.876398
2904.691783,-10436.903782,2368.659014,-1225.752797
2904.692120,-9992.780217,2886.803174,-1455.581446
2904.692457,-9918.759623,2590.720797,383.047749
2904.692795,-10658.965565,2664.741391,1762.019645
2904.693132,-10955.047942,1258.350101,1608.800546
2904.693469,-11547.212695,0.000000,2221.676944
2904.693807,-11177.109724,-1702.473667,1762.019645
2904.694144,-10066.800811,-2294.638420,1072.533697
2904.694481,-9696.697840,-1776.494261,766.095498
2904.694819,-8586.388927,-740.205942,-153.219100
2904.695156,-9178.553681,0.000000,-1915.238745
2904.695493,-10066.800811,370.102971,-2834.553343
2904.695831,-9622.677246,962.267725,-3140.991542
2904.696168,-9548.656652,370.102971,-2911.162892
2904.696505,-10807.006753,370.102971,-689.485948
2904.696843,-11621.233289,-814.226536,229.828649
2904.697180,-11399.171507,-2516.700203,536.266849
2904.697517,-10214.842000,-3627.009116,1762.019645
2904.697855,-9548.656652,-4663.297435,2451.505594
2904.698192,-9474.636058,-3256.906145,2757.943793
2904.698529,-9474.636058,-2294.638420,1915.238745
2904.698867,-9548.656652,-222.061783,1149.143247
2904.699204,-10807.006753,444.123565,459.657299
2904.699541,-10214.842000,1184.329507,-612.876398
2904.699879,-9622.677246,1480.411884,0.000000
2904.700216,-9622.677246,2294.638420,1302.362347
2904.700553,-10658.965565,2738.761985,1608.800546
2904.700891,-11399.171507,962.267725,612.876398
2904.701228,-11473.192101,-222.061783,766.095498
2904.701565,-10140.821405,-518.144159,1072.533697
2904.701903,-9992.780217,-592.164754,1608.800546
2904.702240,-9252.574275,-74.020594,459.657299
2904.702577,-8290.306550,296.082377,-995.924147
2904.702915,-9548.656652,666.185348,-1149.143247
2904.703252,-9918.759623,444.123565,-2834.553343
2904.703589,-9918.759623,1776.494261,-1685.410096
2904.703927,-9548.656652,666.185348,153.219100
2904.704264,-9696.697840,1480.411884,383.047749
2904.704601,-10288.862594,74.020594,306.438199
2904.704939,-10955.047942,-370.102971,459.657299
2904.705276,-10584.944971,-2442.679609,1608.800546
2904.705613,-9474.636058,-2368.659014,2451.505594
2904.705951,-9622.677246,-1184.329507,2451.505594
2904.706288,-9252.574275,-518.144159,1532.190996
2904.706625,-9548.656652,-444.123565,0.000000
2904.706963,-10288.862594,518.144159,-536.266849
2904.707300,-9844.739029,518.144159,-383.047749
2904.707637,-9696.697840,814.226536,536.266849
2904.707975,-9992.780217,666.185348,459.657299
2904.708312,-10807.006753,592.164754,153.219100
2904.708649,-10807.006753,-518.144159,-459.657299
2904.708987,-10658.965565,-2072.576638,-383.047749
2904.709324,-10066.800811,-2220.617826,306.438199
2904.709662,-9844.739029,-2442.679609,459.657299
2904.709999,-9178.553681,-1184.329507,-459.657299
2904.710336,-9178.553681,-1554.432478,-1455.581446
2904.710674,-11325.150913,-1258.350101,-1302.362347
2904.711011,-10436.903782,-1480.411884,-1838.629195
2904.711348,-9548.656652,-814.226536,0.000000
2904.711686,-9474.636058,0.000000,1762.019645
2904.712023,-10214.842000,296.082377,1378.971896
2904.712360,-11695.253884,370.102971,1378.971896
2904.712698,-11917.315666,-1184.329507,1685.410096
2904.713035,-10807.006753,-1184.329507,1991.848295
2904.713372,-9474.636058,-296.082377,1991.848295
2904.713710,-9252.574275,888.247130,2604.724693
2904.714047,-8290.306550,814.226536,1608.800546
2904.714384,-9844.739029,518.144159,306.438199
2904.714722,-10584.944971,1554.432478,-306.438199
2904.715059,-9252.574275,1924.535449,-995.924147
2904.715396,-10140.821405,1850.514855,0.000000
2904.715733,-9844.739029,1628.453072,0.000000
2904.716070,-9474.636058,1998.556043,-383.047749
2904.716408,-11029.068536,74.020594,153.219100
2904.716745,-9992.780217,-1036.288319,-1149.143247
2904.717082,-8512.368333,-1628.453072,-995.924147
2904.717419,-10436.903782,-1702.473667,0.000000
2904.717756,-9326.594869,-1702.473667,-153.219100
2904.718093,-9474.636058,-1702.473667,-766.095498
2904.718431,-10584.944971,-1776.494261,-383.047749
2904.718768,-9474.636058,-962.267725,-1072.533697
2904.719105,-9548.656652,-740.205942,0.000000
2904.719442,-10510.924376,0.000000,1302.362347
2904.719779,-11177.109724,-296.082377,1608.800546
2904.720117,-11769.274478,-814.226536,612.876398
2904.720454,-10658.965565,-962.267725,612.876398
2904.720791,-9844.739029,-1184.329507,1072.533697
2904.721128,-10066.800811,-962.267725,1532.190996
2904.721465,-9326.594869,-1258.350101,1532.190996
2904.721803,-9548.656652,-222.061783,459.657299
2904.722140,-11325.150913,-296.082377,-229.828649
2904.722477,-10214.842000,296.082377,-383.047749
2904.722814,-9030.512492,-148.041188,-536.266849
2904.723151,-9326.594869,518.144159,766.095498
2904.723488,-10066.800811,1110.308913,689.485948
2904.723826,-11029.068536,0.000000,-306.438199
2904.724163,-10732.986159,-444.123565,0.000000
2904.724500,-10214.842000,-1406.391290,383.047749
2904.724837,-9770.718434,-1036.288319,995.924147
2904.725174,-9252.574275,-962.267725,1149.143247
2904.725512,-9104.533087,-222.061783,0.000000
2904.725849,-9844.739029,-592.164754,-153.219100
2904.726186,-9918.759623,-148.041188,-1225.752797
2904.726523,-9400.615463,888.247130,306.438199
2904.726860,-9696.697840,1554.432478,1532.190996
2904.727198,-10584.944971,2516.700203,1915.238745
2904.727535,-11917.315666,2516.700203,995.924147
2904.727872,-10955.047942,1702.473667,229.828649
2904.728209,-10362.883188,296.082377,1149.143247
2904.728546,-9844.739029,-740.205942,1532.190996
2904.728883,-9104.533087,0.000000,1838.629195
2904.729221,-9178.553681,0.000000,383.047749
2904.729558,-9474.636058,-740.205942,-842.705048
2904.729895,-10066.800811,-370.102971,-1838.629195
2904.730232,-8956.491898,-222.061783,-1915.238745
2904.730569,-8956.491898,0.000000,-1302.362347
2904.730907,-9622.677246,296.082377,-1225.752797
2904.731244,-10658.965565,-296.082377,-1455.581446
2904.731581,-11029.068536,-1184.329507,-1608.800546
2904.731918,-10881.027347,-2442.679609,0.000000
2904.732255,-10140.821405,-2812.782580,383.047749
2904.732593,-9992.780217,-3256.906145,1302.362347
2904.732930,-9474.636058,-2738.761985,1455.581446
2904.733267,-9844.739029,-2368.659014,766.095498
2904.733604,-11251.130318,-1924.535449,919.314598
2904.733941,-10140.821405,-1480.411884,153.219100
2904.734278,-9104.533087,-222.061783,383.047749
2904.734616,-10066.800811,0.000000,2221.676944
2904.734953,-9622.677246,1258.350101,1225.752797
2904.735290,-11103.089130,518.144159,689.485948
2904.735627,-11103.089130,0.000000,1455.581446
2904.735964,-10066.800811,814.226536,1302.362347
2904.736302,-10881.027347,370.102971,2451.505594
2904.736639,-9770.718434,370.102971,1455.581446
2904.736976,-9030.512492,-222.061783,229.828649
2904.737313,-9992.780217,-148.041188,689.485948
2904.737650,-9252.574275,296.082377,-1072.533697
2904.737988,-8956.491898,518.144159,-1225.752797
2904.738325,-9474.636058,962.267725,-766.095498
2904.738662,-9548.656652,1110.308913,-1072.533697
2904.738999,-10807.006753,962.267725,-766.095498
2904.739336,-10658.965565,-296.082377,0.000000
2904.739673,-9252.574275,-1036.288319,76.609550
2904.740011,-9474.636058,-1702.473667,1378.971896
2904.740348,-9918.759623,-1184.329507,1991.848295
2904.740685,-9548.656652,-1036.288319,1838.629195
2904.741022,-10732.986159,-666.185348,1225.752797
2904.741359,-10584.944971,0.000000,153.219100
2904.741697,-9770.718434,74.020594,-1149.143247
2904.742034,-9474.636058,740.205942,229.828649
2904.742371,-9548.656652,1184.329507,229.828649
2904.742708,-10066.800811,1184.329507,-383.047749
2904.743045,-10881.027347,296.082377,-995.924147
2904.743383,-11325.150913,-74.020594,-383.047749
2904.743720,-10362.883188,-1184.329507,-229.828649
2904.744057,-9770.718434,-1036.288319,459.657299
2904.744394,-9474.636058,-1406.391290,919.314598
2904.744731,-10140.821405,-370.102971,-459.657299
2904.745068,-10732.986159,-1110.308913,-919.314598
2904.745406,-10658.965565,-666.185348,-1685.410096
2904.745743,-9474.636058,-1184.329507,-766.095498
2904.746080,-9844.739029,-740.205942,842.705048
2904.746417,-10288.862594,-370.102971,766.095498
2904.746754,-10436.903782,-1110.308913,76.609550
2904.747092,-10140.821405,-1628.453072,842.705048
2904.747429,-9770.718434,-1776.494261,1225.752797
2904.747766,-9622.677246,-1258.350101,2221.676944
2904.748103,-10140.821405,0.000000,3064.381992
2904.748440,-9104.533087,296.082377,1532.190996
2904.748778,-9918.759623,666.185348,1838.629195
2904.749115,-10436.903782,1110.308913,1225.752797
2904.749452,-9252.574275,1332.370696,306.438199
2904.749789,-9844.739029,1258.350101,1455.581446
2904.750126,-9474.636058,2072.576638,459.657299
2904.750463,-9474.636058,1998.556043,-306.438199
2904.750801,-10140.821405,740.205942,-612.876398
2904.751138,-9992.780217,-592.164754,-766.095498
2904.751475,-9252.574275,-370.102971,-459.657299
2904.751812,-9696.697840,-518.144159,612.876398
2904.752149,-9400.615463,-74.020594,-229.828649
2904.752487,-9474.636058,-1258.350101,-459.657299
2904.752824,-10955.047942,-1554.432478,-689.485948
2904.753161,-9400.615463,-1776.494261,-1225.752797
2904.753498,-9474.636058,-1850.514855,-612.876398
2904.753835,-10288.862594,-814.226536,153.219100
2904.754173,-10732.986159,-814.226536,-995.924147
2904.754510,-10807.006753,-1406.391290,-842.705048
2904.754847,-10881.027347,-2072.576638,0.000000
2904.755184,-10214.842000,-2442.679609,1072.533697
2904.755521,-9770.718434,-2220.617826,1302.362347
2904.755858,-9474.636058,-740.205942,1302.362347
2904.756196,-10362.883188,-518.144159,1455.581446
2904.756533,-11547.212695,74.020594,766.095498
2904.756870,-11103.089130,222.061783,0.000000
2904.757207,-10140.821405,-148.041188,229.828649
2904.757544,-9696.697840,592.164754,689.485948
2904.757882,-9770.718434,296.082377,306.438199
2904.758219,-10436.903782,-148.041188,-306.438199
2904.758556,-9918.759623,-888.247130,-995.924147
2904.758893,-9474.636058,-1110.308913,-919.314598
2904.759230,-9696.697840,-222.061783,-383.047749
2904.759568,-9178.553681,222.061783,-459.657299
2904.759905,-9474.636058,148.041188,229.828649
2904.760242,-9696.697840,296.082377,229.828649
2904.760579,-10955.047942,888.247130,153.219100
2904.760916,-10436.903782,666.185348,1378.971896
2904.761253,-10140.821405,-296.082377,1455.581446
2904.761591,-10436.903782,370.102971,2298.286494
2904.761928,-10436.903782,592.164754,1991.848295
2904.762265,-10066.800811,296.082377,1378.971896
2904.762602,-9696.697840,-148.041188,536.266849
2904.762939,-9474.636058,518.144159,689.485948
2904.763277,-9696.697840,1702.473667,536.266849
2904.763614,-9548.656652,1850.514855,76.609550
2904.763951,-10955.047942,1258.350101,383.047749
2904.764288,-11547.212695,1406.391290,-842.705048
2904.764625,-9770.718434,814.226536,-919.314598
2904.764963,-9030.512492,592.164754,76.609550
2904.765300,-9548.656652,-1036.288319,1072.533697
2904.765637,-9844.739029,-592.164754,229.828649
2904.765974,-10807.006753,-518.144159,-1225.752797
2904.766311,-10807.006753,-1110.308913,-1991.848295
2904.766648,-9918.759623,-2516.700203,-2374.896044
2904.766986,-9918.759623,-2738.761985,-1302.362347
2904.767323,-8290.306550,-1480.411884,-383.047749
2904.767660,-8882.471304,-740.205942,229.828649
2904.767997,-11177.109724,-1184.329507,229.828649
2904.768334,-11621.233289,-962.267725,-842.705048
2904.768672,-11325.150913,-1258.350101,919.314598
2904.769009,-10584.944971,-1850.514855,2298.286494
2904.769346,-10436.903782,-666.185348,2681.334243
2904.769683,-10658.965565,-962.267725,1915.238745
2904.770020,-10362.883188,-740.205942,1225.752797
2904.770358,-9474.636058,-370.102971,229.828649
2904.770695,-9770.718434,0.000000,1072.533697
2904.771032,-9770.718434,666.185348,1378.971896
2904.771369,-9400.615463,1628.453072,383.047749
2904.771706,-10288.862594,1628.453072,153.219100
2904.772043,-10510.924376,1998.556043,-1072.533697
2904.772381,-10288.862594,1110.308913,-383.047749
2904.772718,-9548.656652,222.061783,1302.362347
2904.773055,-9252.574275,0.000000,1302.362347
2904.773392,-10362.883188,74.020594,76.609550
2904.773729,-9622.677246,-666.185348,-612.876398
2904.774067,-8882.471304,-1998.556043,-229.828649
2904.774404,-8660.409521,-1554.432478,689.485948
2904.774741,-9474.636058,-222.061783,612.876398
2904.775078,-8882.471304,666.185348,0.000000
2904.775415,-9474.636058,296.082377,76.609550
2904.775753,-11843.295072,518.144159,536.266849
2904.776090,-11251.130318,-222.061783,-76.609550
2904.776427,-10066.800811,-740.205942,766.095498
2904.776764,-9992.780217,-814.226536,2374.896044
2904.777101,-9844.739029,-814.226536,1762.019645
2904.777438,-10362.883188,-888.247130,536.266849
2904.777776,-10658.965565,-2072.576638,76.609550
2904.778113,-9770.718434,-1628.453072,-383.047749
2904.778450,-10140.821405,-592.164754,-229.828649
2904.778787,-9770.718434,740.205942,76.609550
2904.779124,-9548.656652,888.247130,-919.314598
2904.779462,-10955.047942,444.123565,-1225.752797
2904.779799,-10955.047942,0.000000,-1838.629195
2904.780136,-10288.862594,-740.205942,-995.924147
2904.780473,-10436.903782,-1258.350101,995.924147
2904.780810,-10436.903782,-2072.576638,0.000000
2904.781148,-10510.924376,-2146.597232,76.609550
2904.781485,-10362.883188,-2738.761985,76.609550
2904.781822,-9178.553681,-2812.782580,459.657299
2904.782159,-8882.471304,-1702.473667,0.000000
2904.782496,-9104.533087,-962.267725,766.095498
2904.782833,-9178.553681,222.061783,1455.581446
2904.783171,-9696.697840,222.061783,612.876398
2904.783508,-11103.089130,2220.617826,766.095498
2904.783845,-11103.089130,1554.432478,1072.533697
2904.784182,-10584.944971,1776.494261,2451.505594
2904.784519,-9844.739029,1628.453072,2604.724693
2904.784857,-10436.903782,1702.473667,1762.019645
2904.785194,-10214.842000,74.020594,1455.581446
2904.785531,-9548.656652,0.000000,229.828649
2904.785868,-8660.409521,0.000000,-306.438199
2904.786205,-9178.553681,1258.350101,-536.266849
2904.786543,-8956.491898,1776.494261,-689.485948
2904.786880,-9770.718434,2368.659014,-1532.190996
2904.787217,-11177.109724,1184.329507,-1838.629195
2904.787554,-10955.047942,888.247130,-1915.238745
2904.787891,-9548.656652,-1184.329507,-766.095498
2904.788228,-10140.821405,-1184.329507,1685.410096
2904.788566,-10066.800811,-2072.576638,1685.410096
2904.788903,-10066.800811,-3034.844362,612.876398
2904.789240,-10288.862594,-2590.720797,229.828649
2904.789577,-9474.636058,-3552.988522,-229.828649
2904.789914,-9548.656652,-2368.659014,0.000000
2904.790252,-8882.471304,-1702.473667,0.000000
2904.790589,-9400.615463,148.041188,459.657299
2904.790926,-11029.068536,444.123565,383.047749
2904.791263,-11695.253884,888.247130,0.000000
2904.791600,-10881.027347,148.041188,842.705048
2904.791938,-11029.068536,-1036.288319,2528.115143
2904.792275,-10510.924376,0.000000,2987.772442
2904.792612,-10807.006753,-1480.411884,1455.581446
2904.792949,-10584.944971,-1998.556043,995.924147
2904.793286,-9548.656652,-2220.617826,-229.828649
2904.793623,-9770.718434,-740.205942,-306.438199
2904.793961,-8586.388927,222.061783,-1149.143247
2904.794298,-8364.327145,1110.308913,-1685.410096
2904.794635,-10288.862594,1184.329507,-1532.190996
2904.794972,-10288.862594,1998.556043,-3294.210641
2904.795309,-10881.027347,666.185348,-536.266849
2904.795647,-10584.944971,296.082377,1302.362347
2904.795984,-10288.862594,518.144159,2681.334243
2904.796321,-11325.150913,0.000000,3064.381992
2904.796658,-10658.965565,-1480.411884,1762.019645
2904.796995,-9622.677246,-2294.638420,2298.286494
2904.797333,-9252.574275,-1258.350101,1991.848295
2904.797670,-8660.409521,666.185348,919.314598
2904.798007,-8734.430116,2146.597232,0.000000
2904.798344,-9548.656652,2146.597232,0.000000
2904.798681,-10288.862594,3701.029710,-1302.362347
2904.799018,-10510.924376,3108.864956,-1532.190996
2904.799356,-10510.924376,2516.700203,153.219100
2904.799693,-10214.842000,814.226536,842.705048
2904.800030,-10732.986159,296.082377,842.705048
2904.800367,-9696.697840,-1406.391290,766.095498
2904.800704,-9770.718434,-3330.926739,612.876398
2904.801042,-9104.533087,-3330.926739,0.000000
2904.801379,-9252.574275,-2442.679609,-536.266849
2904.801716,-8142.265362,-666.185348,-1532.190996
2904.802053,-9400.615463,-1036.288319,-1762.019645
2904.802390,-11399.171507,0.000000,-2068.457845
2904.802728,-11029.068536,-370.102971,-2987.772442
2904.803065,-11177.109724,0.000000,-612.876398
2904.803402,-10732.986159,-1406.391290,1149.143247
2904.803739,-11029.068536,-1998.556043,1225.752797
2904.804076,-11251.130318,-2442.679609,1072.533697
2904.804413,-10732.986159,-4219.173869,1455.581446
2904.804751,-9548.656652,-3627.009116,919.314598
2904.805088,-9326.594869,-2220.617826,1225.752797
2904.805425,-9326.594869,-592.164754,1072.533697
2904.805762,-8586.388927,592.164754,766.095498
2904.806099,-10214.842000,1776.494261,842.705048
2904.806437,-11029.068536,2368.659014,383.047749
2904.806774,-10140.821405,2368.659014,153.219100
2904.807111,-10288.862594,1702.473667,2451.505594
2904.807448,-11399.171507,2220.617826,2068.457845
2904.807785,-10732.986159,296.082377,842.705048
2904.808123,-10584.944971,-1332.370696,766.095498
2904.808460,-8882.471304,-2812.782580,689.485948
2904.808797,-7254.018232,-2294.638420,-689.485948
2904.809134,-8068.244768,-888.247130,-612.876398
2904.809471,-7994.224174,74.020594,-1608.800546
2904.809808,-9918.759623,1850.514855,-1378.971896
2904.810146,-11547.212695,1998.556043,-1532.190996
2904.810483,-10584.944971,2516.700203,-1302.362347
2904.810820,-10214.842000,518.144159,1149.143247
2904.811157,-10362.883188,222.061783,3447.429741
2904.811494,-11251.130318,-666.185348,2528.115143
2904.811832,-11399.171507,-1924.535449,2528.115143
2904.812169,-10807.006753,-2960.823768,1378.971896
2904.812506,-9178.553681,-3330.926739,536.266849
2904.812843,-8734.430116,-1332.370696,383.047749
2904.813180,-8068.244768,-74.020594,-766.095498
2904.813517,-8882.471304,1628.453072,-1149.143247
2904.813854,-10658.965565,1332.370696,-2451.505594
2904.814191,-11029.068536,2516.700203,-2451.505594
2904.814529,-10214.842000,666.185348,-919.314598
2904.814866,-10584.944971,74.020594,1225.752797
2904.815203,-11843.295072,-1554.432478,2451.505594
2904.815540,-11547.212695,-2516.700203,1149.143247
2904.815877,-10584.944971,-3849.070898,306.438199
2904.816214,-10066.800811,-5033.400406,-153.219100
2904.816552,-8068.244768,-4071.132681,-1149.143247
2904.816889,-7698.141797,-2368.659014,-1608.800546
2904.817226,-7624.121203,-666.185348,-1762.019645
2904.817563,-9030.512492,1110.308913,-2451.505594
2904.817900,-10214.842000,1554.432478,-2374.896044
2904.818238,-10881.027347,1628.453072,153.219100
2904.818575,-11325.150913,1258.350101,3064.381992
2904.818912,-12435.459826,1850.514855,4903.011187
2904.819249,-12583.501014,888.247130,3907.087040
2904.819586,-11621.233289,-1258.350101,3294.210641
2904.819923,-9770.718434,-1776.494261,3600.648841
2904.820261,-7920.203579,-1776.494261,1915.238745
2904.820598,-8660.409521,370.102971,842.705048
2904.820935,-8216.285956,2368.659014,-1762.019645
2904.821272,-9548.656652,3997.112087,-2604.724693
2904.821609,-10510.924376,4589.276840,-3447.429741
2904.821947,-10510.924376,4293.194464,-2298.286494
2904.822284,-9844.739029,2960.823768,536.266849
2904.822621,-10584.944971,1332.370696,2221.676944
2904.822958,-11399.171507,148.041188,2374.896044
2904.823295,-10881.027347,-2516.700203,1608.800546
2904.823632,-9992.780217,-4367.215058,2221.676944
2904.823970,-8438.347739,-4367.215058,76.609550
2904.824307,-8142.265362,-3330.926739,0.000000
2904.824644,-7920.203579,-814.226536,-1225.752797
2904.824981,-8068.244768,148.041188,-1608.800546
2904.825318,-9474.636058,962.267725,-3140.991542
2904.825656,-10510.924376,962.267725,-2911.162892
2904.825993,-11695.253884,1998.556043,459.657299
2904.826330,-11103.089130,370.102971,2834.553343
2904.826667,-11917.315666,-592.164754,3677.258390
2904.827004,-11547.212695,-2368.659014,2911.162892
2904.827341,-11547.212695,-3997.112087,2987.772442
2904.827679,-10140.821405,-3627.009116,2068.457845
2904.828016,-9918.759623,-2590.720797,459.657299
2904.828353,-8364.327145,-1036.288319,-1072.533697
2904.828690,-8438.347739,0.000000,-2757.943793
2904.829027,-10140.821405,1850.514855,-3140.991542
2904.829365,-9992.780217,2146.597232,-4213.525239
2904.829702,-10658.965565,2072.576638,-1991.848295
2904.830039,-10510.924376,888.247130,306.438199
2904.830376,-11695.253884,592.164754,1991.848295
2904.830713,-12657.521608,-1480.411884,2757.943793
2904.831051,-10955.047942,-4071.132681,2374.896044
2904.831388,-9474.636058,-4515.256246,2757.943793
2904.831725,-7624.121203,-3404.947333,2451.505594
2904.832062,-7476.080014,-1998.556043,153.219100
2904.832399,-6883.915261,222.061783,-1225.752797
2904.832736,-8882.471304,1776.494261,-1838.629195
2904.833074,-9918.759623,3849.070898,-1302.362347
2904.833411,-10362.883188,4071.132681,-1225.752797
2904.833748,-10807.006753,3478.967927,1455.581446
2904.834085,-11177.109724,2368.659014,2911.162892
2904.834422,-11177.109724,740.205942,2911.162892
2904.834760,-11251.130318,-592.164754,3217.601092
2904.835097,-10140.821405,-2590.720797,2987.772442
2904.835434,-8956.491898,-2738.761985,1225.752797
2904.835771,-9400.615463,-1110.308913,306.438199
2904.836108,-8216.285956,74.020594,-1378.971896
2904.836445,-8660.409521,1776.494261,-3294.210641
2904.836783,-10510.924376,1702.473667,-3064.381992
2904.837120,-9844.739029,2664.741391,-4136.915689
2904.837457,-9844.739029,1776.494261,-1608.800546
2904.837794,-11029.068536,518.144159,153.219100
2904.838131,-12435.459826,-1628.453072,1762.019645
2904.838469,-11917.315666,-3701.029710,1685.410096
2904.838806,-11547.212695,-4885.359217,2987.772442
2904.839143,-9622.677246,-5255.462188,2298.286494
2904.839480,-9104.533087,-4145.153275,2145.067394
2904.839817,-8438.347739,-2886.803174,1072.533697
2904.840154,-8068.244768,-296.082377,-536.266849
2904.840492,-9844.739029,1036.288319,-1455.581446
2904.840829,-10288.862594,2368.659014,-1838.629195
2904.841166,-10214.842000,2294.638420,-1072.533697
2904.841503,-10955.047942,2220.617826,1072.533697
2904.841840,-11473.192101,1628.453072,2681.334243
2904.842178,-11251.130318,74.020594,842.705048
2904.842515,-11251.130318,-1554.432478,2145.067394
2904.842852,-10362.883188,-3330.926739,2528.115143
2904.843189,-8956.491898,-2368.659014,1532.190996
2904.843526,-8586.388927,-370.102971,383.047749
2904.843863,-7624.121203,222.061783,-1838.629195
2904.844201,-9104.533087,1406.391290,-3677.258390
2904.844538,-10362.883188,1776.494261,-3983.696590
2904.844875,-10066.800811,2960.823768,-3140.991542
2904.845212,-10732.986159,2368.659014,-306.438199
2904.845549,-11029.068536,1036.288319,995.924147
2904.845887,-10732.986159,666.185348,1072.533697
2904.846224,-10584.944971,-1850.514855,2911.162892
2904.846561,-11325.150913,-2664.741391,4213.525239
2904.846898,-9918.759623,-3330.926739,2374.896044
2904.847235,-9622.677246,-1776.494261,1762.019645
2904.847572,-8216.285956,0.000000,76.609550
2904.847910,-8808.450710,888.247130,-842.705048
2904.848247,-9918.759623,2294.638420,-1302.362347
2904.848584,-10362.883188,3034.844362,-1302.362347
2904.848921,-9548.656652,2368.659014,-1302.362347
2904.849258,-10658.965565,1554.432478,229.828649
2904.849596,-11325.150913,444.123565,689.485948
2904.849933,-11177.109724,-1776.494261,919.314598
2904.850270,-11103.089130,-3108.864956,2374.896044
2904.850607,-9548.656652,-4071.132681,1149.143247
2904.850944,-8808.450710,-3627.009116,76.609550
2904.851282,-8586.388927,-2294.638420,-536.266849
2904.851619,-8660.409521,-2368.659014,-1915.238745
2904.851956,-10214.842000,-1036.288319,-2145.067394
2904.852293,-10288.862594,518.144159,-2834.553343
2904.852630,-10140.821405,222.061783,-1302.362347
2904.852967,-10140.821405,222.061783,1149.143247
2904.853305,-11473.192101,370.102971,2451.505594
2904.853642,-12065.356855,-962.267725,2987.772442
2904.853979,-11769.274478,-2664.741391,2987.772442
2904.854316,-11325.150913,-2368.659014,3524.039291
2904.854653,-10436.903782,-2146.597232,3370.820191
2904.854991,-8512.368333,-518.144159,2451.505594
2904.855328,-7846.182985,0.000000,766.095498
2904.855665,-9474.636058,1184.329507,-153.219100
2904.856002,-10140.821405,2960.823768,-1915.238745
2904.856339,-9844.739029,3034.844362,-2221.676944
2904.856676,-10436.903782,3330.926739,-612.876398
2904.857014,-10288.862594,2664.741391,153.219100
2904.857351,-10436.903782,888.247130,766.095498
2904.857688,-10140.821405,-444.123565,689.485948
2904.858025,-10658.965565,-2368.659014,1149.143247
2904.858362,-9548.656652,-2664.741391,1149.143247
2904.858700,-8734.430116,-2590.720797,0.000000
2904.859037,-8290.306550,-1480.411884,-153.219100
2904.859374,-9400.615463,-518.144159,-1225.752797
2904.859711,-9992.780217,444.123565,-2374.896044
2904.860048,-9548.656652,1406.391290,-3064.381992
2904.860385,-9548.656652,666.185348,-1608.800546
2904.860723,-9992.780217,1332.370696,536.266849
2904.861060,-11769.274478,444.123565,1378.971896
2904.861397,-11991.336260,0.000000,1532.190996
2904.861734,-11325.150913,-1998.556043,1838.629195
2904.862071,-10807.006753,-2294.638420,1685.410096
2904.862409,-9400.615463,-2442.679609,1685.410096
2904.862746,-8660.409521,-1998.556043,919.314598
2904.863083,-8216.285956,-370.102971,-229.828649
2904.863420,-10510.924376,1036.288319,-1532.190996
2904.863757,-10732.986159,1702.473667,-2528.115143
2904.864094,-9474.636058,1258.350101,-2757.943793
2904.864432,-9696.697840,518.144159,1225.752797
2904.864769,-10436.903782,888.247130,1455.581446
2904.865106,-11399.171507,-148.041188,689.485948
2904.865443,-11325.150913,-1554.432478,766.095498
2904.865780,-10510.924376,-3552.988522,76.609550
2904.866118,-9326.594869,-3627.009116,1685.410096
2904.866455,-8956.491898,-2886.803174,1608.800546
2904.866792,-7550.100608,-1480.411884,383.047749
2904.867129,-9326.594869,-74.020594,153.219100
2904.867466,-10140.821405,740.205942,-1455.581446
2904.867803,-9474.636058,1480.411884,-919.314598
2904.868141,-10362.883188,1480.411884,766.095498
2904.868478,-10955.047942,3034.844362,2068.457845
2904.868815,-11325.150913,2368.659014,2068.457845
2904.869152,-11843.295072,814.226536,2374.896044
2904.869489,-10510.924376,-962.267725,2221.676944
2904.869827,-9696.697840,-1850.514855,2374.896044
2904.870164,-9474.636058,-370.102971,2068.457845
2904.870501,-9178.553681,0.000000,229.828649
2904.870838,-9474.636058,1036.288319,-842.705048
2904.871175,-9770.718434,814.226536,-2911.162892
2904.871513,-9252.574275,1110.308913,-2987.772442
2904.871850,-9474.636058,1036.288319,-1532.190996
2904.872187,-9770.718434,1776.494261,-153.219100
2904.872524,-11029.068536,518.144159,-1149.143247
2904.872861,-11621.233289,-1184.329507,-766.095498
2904.873198,-11399.171507,-2886.803174,306.438199
2904.873536,-10066.800811,-4145.153275,1455.581446
2904.873873,-9326.594869,-4293.194464,1455.581446
2904.874210,-8734.430116,-2960.823768,1149.143247
2904.874547,-9104.533087,-2738.761985,76.609550
2904.874884,-9548.656652,-1036.288319,-919.314598
2904.875222,-10584.944971,-740.205942,-1072.533697
2904.875559,-9622.677246,888.247130,-153.219100
2904.875896,-10214.842000,1702.473667,1455.581446
2904.876233,-11769.274478,2220.617826,2374.896044
2904.876570,-11547.212695,1332.370696,1149.143247
2904.876907,-11695.253884,-444.123565,1685.410096
2904.877245,-11843.295072,-1036.288319,1991.848295
2904.877582,-9918.759623,-1110.308913,1149.143247
2904.877919,-9400.615463,-1184.329507,842.705048
2904.878256,-8216.285956,-1184.329507,0.000000
2904.878593,-8956.491898,0.000000,-919.314598
2904.878931,-9844.739029,1036.288319,-2145.067394
2904.879268,-9400.615463,1480.411884,-3064.381992
2904.879605,-9844.739029,1480.411884,-1302.362347
2904.879942,-10658.965565,1258.350101,0.000000
2904.880279,-10436.903782,2072.576638,0.000000
2904.880616,-10955.047942,0.000000,459.657299
2904.880954,-10955.047942,-2368.659014,2221.676944
2904.881291,-8882.471304,-2368.659014,1455.581446
2904.881628,-8882.471304,-2368.659014,2374.896044
2904.881965,-9326.594869,-1406.391290,2145.067394
2904.882302,-9104.533087,0.000000,-306.438199
2904.882640,-10214.842000,740.205942,-1302.362347
2904.882977,-9770.718434,1110.308913,-1149.143247
2904.883314,-9474.636058,1554.432478,0.000000
2904.883651,-9548.656652,1998.556043,689.485948
2904.883988,-11325.150913,2442.679609,766.095498
2904.884325,-11547.212695,0.000000,0.000000
2904.884663,-11843.295072,-1036.288319,766.095498
2904.885000,-10288.862594,-2368.659014,1225.752797
2904.885337,-9400.615463,-3404.947333,1838.629195
2904.885674,-8586.388927,-3108.864956,919.314598
2904.886011,-8660.409521,-1628.453072,-766.095498
2904.886349,-10807.006753,-148.041188,-2068.457845
2904.886686,-9844.739029,-296.082377,-3983.696590
2904.887023,-9696.697840,-888.247130,-2681.334243
2904.887360,-9770.718434,148.041188,-995.924147
2904.887697,-9622.677246,888.247130,-306.438199
2904.888034,-11103.089130,-740.205942,76.609550
2904.888372,-10658.965565,-2368.659014,1302.362347
2904.888709,-10658.965565,-3034.844362,2834.553343
2904.889046,-10066.800811,-3034.844362,3600.648841
2904.889383,-9770.718434,-1776.494261,3677.258390
2904.889720,-9770.718434,-222.061783,3140.991542
2904.890058,-9992.780217,0.000000,1455.581446
2904.890395,-9400.615463,1110.308913,76.609550
2904.890732,-9474.636058,1480.411884,-153.219100
2904.891069,-9622.677246,1998.556043,306.438199
2904.891406,-9844.739029,4367.215058,0.000000
2904.891744,-10807.006753,3330.926739,-536.266849
2904.892081,-11177.109724,1110.308913,-612.876398
2904.892418,-10066.800811,-296.082377,306.438199
2904.892755,-9474.636058,-740.205942,1378.971896
2904.893092,-9030.512492,-1036.288319,1225.752797
2904.893429,-8808.450710,-148.041188,306.438199
2904.893767,-9474.636058,-296.082377,-1225.752797
2904.894104,-10732.986159,-666.185348,-1915.238745
2904.894441,-9844.739029,-296.082377,-1149.143247
2904.894778,-9548.656652,814.226536,-766.095498
2904.895115,-9474.636058,148.041188,229.828649
2904.895453,-9770.718434,518.144159,-766.095498
2904.895790,-10658.965565,-1184.329507,536.266849
2904.896127,-11177.109724,-1258.350101,1149.143247
2904.896464,-9992.780217,-2368.659014,1455.581446
2904.896801,-10066.800811,-1924.535449,2145.067394
2904.897138,-9252.574275,-1184.329507,2068.457845
2904.897476,-9622.677246,-962.267725,1149.143247
2904.897813,-11029.068536,-888.247130,229.828649
2904.898150,-10436.903782,-74.020594,-995.924147
2904.898487,-9474.636058,740.205942,76.609550
2904.898824,-9548.656652,296.082377,919.314598
2904.899162,-9992.780217,1332.370696,153.219100
2904.899499,-10807.006753,148.041188,-383.047749
2904.899836,-11325.150913,-1258.350101,383.047749
2904.900173,-10362.883188,-1776.494261,-612.876398
2904.900510,-9696.697840,-1258.350101,-76.609550
2904.900847,-9326.594869,-962.267725,0.000000
2904.901185,-9178.553681,-1554.432478,-612.876398
2904.901522,-9696.697840,-1036.288319,-306.438199
2904.901859,-10658.965565,-740.205942,-842.705048
2904.902196,-9696.697840,0.000000,-842.705048
2904.902533,-9326.594869,296.082377,459.657299
2904.902871,-10066.800811,592.164754,1532.190996
2904.903208,-10881.027347,1036.288319,1302.362347
2904.903545,-11029.068536,814.226536,2221.676944
2904.903882,-10881.027347,-296.082377,1762.019645
2904.904219,-9474.636058,-296.082377,1838.629195
2904.904556,-9030.512492,592.164754,2604.724693
2904.904894,-9104.533087,666.185348,1149.143247
2904.905231,-9770.718434,444.123565,0.000000
2904.905568,-10658.965565,740.205942,-766.095498
2904.905905,-9844.739029,962.267725,-1685.410096
2904.906242,-9178.553681,888.247130,-842.705048
2904.906580,-8956.491898,1258.350101,383.047749
2904.906917,-9474.636058,0.000000,153.219100
2904.907254,-11251.130318,-296.082377,-383.047749
2904.907591,-11399.171507,-1184.329507,-306.438199
2904.907928,-10584.944971,-1554.432478,-919.314598
2904.908265,-9474.636058,-2738.761985,-306.438199
2904.908603,-9252.574275,-2072.576638,153.219100
2904.908940,-9474.636058,-1406.391290,-689.485948
2904.909277,-10732.986159,-1850.514855,-1225.752797
2904.909614,-10436.903782,-1850.514855,-1455.581446
2904.909951,-9770.718434,-1850.514855,-612.876398
2904.910289,-10214.842000,-370.102971,1532.190996
2904.910626,-10584.944971,74.020594,1762.019645
2904.910963,-11251.130318,444.123565,1302.362347
2904.911300,-11177.109724,-592.164754,1762.019645
2904.911637,-10658.965565,-370.102971,2221.676944
2904.911975,-10066.800811,-1184.329507,2374.896044
2904.912312,-10214.842000,-148.041188,2604.724693
2904.912649,-9844.739029,74.020594,1455.581446
2904.912986,-10436.903782,74.020594,229.828649
2904.913323,-9992.780217,74.020594,-766.095498
2904.913660,-8734.430116,-296.082377,-766.095498
2904.913998,-8142.265362,296.082377,-536.266849
2904.914335,-8364.327145,888.247130,-306.438199
2904.914672,-10881.027347,1924.535449,-995.924147
2904.915009,-10732.986159,444.123565,-1378.971896
2904.915347,-10658.965565,-740.205942,-1072.533697
2904.915684,-9326.594869,-666.185348,153.219100
2904.916021,-8660.409521,148.041188,2068.457845
2904.916358,-9622.677246,370.102971,1762.019645
2904.916695,-10436.903782,148.041188,0.000000
2904.917033,-11029.068536,-222.061783,306.438199
2904.917370,-11029.068536,296.082377,306.438199
2904.917707,-9696.697840,592.164754,689.485948
2904.918044,-10140.821405,2072.576638,1149.143247
2904.918382,-10066.800811,1258.350101,0.000000
2904.918719,-10436.903782,740.205942,-459.657299
2904.919056,-9992.780217,148.041188,0.000000
2904.919393,-10140.821405,-814.226536,459.657299
2904.919730,-9548.656652,296.082377,536.266849
2904.920068,-9770.718434,74.020594,229.828649
2904.920405,-9992.780217,0.000000,306.438199
2904.920742,-10658.965565,-1110.308913,-1302.362347
2904.921079,-10140.821405,-1332.370696,-1225.752797
2904.921417,-8734.430116,-962.267725,-1072.533697
2904.921754,-9178.553681,-962.267725,-153.219100
2904.922091,-9770.718434,0.000000,-1072.533697
2904.922428,-10214.842000,-1776.494261,-1302.362347
2904.922765,-10955.047942,-2442.679609,0.000000
2904.923103,-9844.739029,-1998.556043,153.219100
2904.923440,-9696.697840,-1628.453072,1149.143247
2904.923777,-9696.697840,-1776.494261,1915.238745
2904.924114,-9696.697840,-1332.370696,1455.581446
2904.924452,-10584.944971,-1628.453072,1225.752797
2904.924789,-10881.027347,-148.041188,1455.581446
2904.925126,-10362.883188,-296.082377,1762.019645
2904.925463,-10807.006753,814.226536,2528.115143
2904.925800,-9696.697840,1554.432478,1762.019645
2904.926138,-10807.006753,1480.411884,1455.581446
2904.926475,-11029.068536,518.144159,1072.533697
2904.926812,-10288.862594,0.000000,0.000000
2904.927149,-9622.677246,444.123565,995.924147
2904.927487,-9030.512492,666.185348,612.876398
2904.927824,-9104.533087,518.144159,229.828649
2904.928161,-9992.780217,0.000000,0.000000
2904.928498,-10066.800811,0.000000,-1532.190996
2904.928835,-9474.636058,-370.102971,-1455.581446
2904.929173,-9178.553681,0.000000,-612.876398
2904.929510,-9252.574275,-592.164754,0.000000
2904.929847,-10140.821405,-296.082377,306.438199
2904.930184,-10214.842000,-1036.288319,-689.485948
2904.930522,-10658.965565,-1628.453072,-459.657299
2904.930859,-10140.821405,-1628.453072,76.609550
2904.931196,-9548.656652,-1998.556043,1225.752797
2904.931533,-9104.533087,0.000000,612.876398
2904.931870,-10140.821405,-740.205942,612.876398
2904.932208,-11547.212695,-370.102971,459.657299
2904.932545,-10584.944971,-666.185348,-536.266849
2904.932882,-10066.800811,148.041188,842.705048
2904.933219,-10066.800811,444.123565,1149.143247
2904.933556,-10732.986159,1036.288319,536.266849
2904.933894,-11177.109724,518.144159,-689.485948
2904.934231,-11325.150913,-222.061783,-459.657299
2904.934568,-10214.842000,-1110.308913,-383.047749
2904.934905,-9474.636058,-888.247130,-229.828649
2904.935243,-10066.800811,-740.205942,766.095498
2904.935580,-9252.574275,-296.082377,0.000000
2904.935917,-9844.739029,0.000000,-1225.752797
2904.936254,-10955.047942,-740.205942,-1455.581446
2904.936591,-9696.697840,-1332.370696,-1455.581446
2904.936929,-9400.615463,-1332.370696,383.047749
2904.937266,-10140.821405,-518.144159,995.924147
2904.937603,-9474.636058,0.000000,612.876398
2904.937940,-10140.821405,-814.226536,536.266849
2904.938278,-9844.739029,-1480.411884,1225.752797
2904.938615,-9252.574275,-1184.329507,1991.848295
2904.938952,-9770.718434,222.061783,3370.820191
2904.939289,-9918.759623,888.247130,1685.410096
2904.939626,-9992.780217,1628.453072,1149.143247
2904.939964,-10955.047942,1702.473667,536.266849
2904.940301,-10066.800811,1702.473667,-229.828649
2904.940638,-9844.739029,1036.288319,306.438199
2904.940975,-10288.862594,1924.535449,1072.533697
2904.941313,-9844.739029,1628.453072,-229.828649
2904.941650,-10732.986159,370.102971,-76.609550
2904.941987,-10288.862594,-888.247130,-306.438199
2904.942324,-8956.491898,-814.226536,-306.438199
2904.942661,-9252.574275,-1110.308913,0.000000
2904.942999,-9548.656652,-518.144159,689.485948
2904.943336,-10066.800811,-370.102971,-689.485948
2904.943673,-11029.068536,-740.205942,-842.705048
2904.944010,-10732.986159,-740.205942,-1378.971896
2904.944348,-9770.718434,-1406.391290,-766.095498
2904.944685,-9696.697840,-740.205942,-153.219100
2904.945022,-9696.697840,-1332.370696,76.609550
2904.945359,-10955.047942,-1110.308913,76.609550
2904.945696,-10214.842000,-1998.556043,76.609550
2904.946034,-9770.718434,-1850.514855,995.924147
2904.946371,-9770.718434,-1184.329507,1838.629195
2904.946708,-9770.718434,-740.205942,1838.629195
2904.947045,-9770.718434,222.061783,2068.457845
2904.947383,-10436.903782,666.185348,1762.019645
2904.947720,-10732.986159,148.041188,1685.410096
2904.948057,-10732.986159,740.205942,766.095498
2904.948394,-9844.739029,222.061783,766.095498
2904.948731,-9548.656652,740.205942,612.876398
2904.949069,-9548.656652,370.102971,-153.219100
2904.949406,-9992.780217,-296.082377,-1225.752797
2904.949743,-9844.739029,-962.267725,-1149.143247
2904.950080,-9178.553681,-962.267725,-1762.019645
2904.950418,-9104.533087,0.000000,-612.876398
2904.950755,-8956.491898,666.185348,229.828649
2904.951092,-9770.718434,0.000000,76.609550
2904.951429,-10807.006753,518.144159,0.000000
2904.951766,-10881.027347,888.247130,0.000000
2904.952104,-10510.924376,-74.020594,383.047749
2904.952441,-10362.883188,-222.061783,1991.848295
2904.952778,-10288.862594,-296.082377,1915.238745
2904.953115,-10140.821405,-592.164754,919.314598
2904.953453,-10288.862594,-814.226536,306.438199
2904.953790,-9400.615463,-1110.308913,76.609550
2904.954127,-8438.347739,-814.226536,766.095498
2904.954464,-8882.471304,370.102971,689.485948
2904.954801,-9622.677246,962.267725,1149.143247
2904.955139,-11251.130318,1332.370696,0.000000
2904.955476,-11103.089130,888.247130,-766.095498
2904.955813,-10436.903782,592.164754,-229.828649
2904.956150,-9992.780217,-666.185348,459.657299
2904.956488,-10066.800811,-1332.370696,842.705048
2904.956825,-10140.821405,-1702.473667,-612.876398
2904.957162,-9622.677246,-1924.535449,-1149.143247
2904.957499,-9252.574275,-2146.597232,-1532.190996
2904.957836,-9844.739029,-2146.597232,-1149.143247
2904.958174,-9844.739029,-1184.329507,-612.876398
2904.958511,-9474.636058,-370.102971,-689.485948
2904.958848,-10362.883188,74.020594,0.000000
2904.959185,-10732.986159,-592.164754,306.438199
2904.959523,-11029.068536,-888.247130,1455.581446
2904.959860,-10955.047942,-1036.288319,3140.991542
2904.960197,-10584.944971,0.000000,3907.087040
2904.960534,-10807.006753,444.123565,3217.601092
2904.960871,-11325.150913,-518.144159,1915.238745
2904.961209,-10362.883188,-148.041188,1608.800546
2904.961546,-9030.512492,0.000000,1302.362347
2904.961883,-9104.533087,148.041188,689.485948
2904.962220,-8734.430116,1924.535449,0.000000
2904.962558,-9918.759623,2220.617826,-689.485948
2904.962895,-10584.944971,2072.576638,-1302.362347
2904.963232,-9696.697840,1628.453072,-2451.505594
2904.963569,-9918.759623,1110.308913,-229.828649
2904.963906,-10066.800811,-296.082377,766.095498
2904.964244,-9400.615463,-740.205942,0.000000
2904.964581,-10066.800811,-1036.288319,0.000000
2904.964918,-10510.924376,-1702.473667,0.000000
2904.965255,-9548.656652,-2812.782580,0.000000
2904.965593,-9400.615463,-2294.638420,536.266849
2904.965930,-8956.491898,-518.144159,-229.828649
2904.966267,-9400.615463,370.102971,-383.047749
2904.966604,-11177.109724,-148.041188,-612.876398
2904.966941,-10881.027347,370.102971,-766.095498
2904.967279,-11103.089130,-148.041188,0.000000
2904.967616,-10807.006753,0.000000,1378.971896
2904.967953,-10732.986159,-148.041188,1762.019645
2904.968290,-11029.068536,-1036.288319,1608.800546
2904.968628,-10732.986159,-1406.391290,919.314598
2904.968965,-10066.800811,-1480.411884,76.609550
2904.969302,-9844.739029,-962.267725,0.000000
2904.969639,-9474.636058,-740.205942,0.000000
2904.969976,-8364.327145,148.041188,-459.657299
2904.970314,-9400.615463,370.102971,-536.266849
2904.970651,-10807.006753,518.144159,-995.924147
2904.970988,-9696.697840,-444.123565,-1225.752797
2904.971325,-9844.739029,0.000000,0.000000
2904.971663,-9770.718434,-962.267725,1302.362347
2904.972000,-10066.800811,-1554.432478,995.924147
2904.972337,-10362.883188,-1628.453072,1608.800546
2904.972674,-9844.739029,-2738.761985,1225.752797
2904.973011,-8808.450710,-1998.556043,1532.190996
2904.973349,-9400.615463,-814.226536,1532.190996
2904.973686,-9548.656652,592.164754,1532.190996
2904.974023,-9770.718434,1776.494261,1149.143247
2904.974360,-10510.924376,2146.597232,919.314598
2904.974698,-11843.295072,2960.823768,383.047749
2904.975035,-10658.965565,1850.514855,1072.533697
2904.975372,-10807.006753,1110.308913,1991.848295
2904.975709,-9918.759623,814.226536,1225.752797
2904.976046,-9696.697840,222.061783,766.095498
2904.976384,-9770.718434,-74.020594,383.047749
2904.976721,-9474.636058,-1332.370696,-1225.752797
2904.977058,-8808.450710,-1036.288319,-536.266849
2904.977395,-8660.409521,0.000000,-1532.190996
2904.977733,-8808.450710,666.185348,-1378.971896
2904.978070,-10214.842000,666.185348,-1838.629195
2904.978407,-10584.944971,0.000000,-1838.629195
2904.978744,-9622.677246,-296.082377,-1685.410096
2904.979081,-10288.862594,-666.185348,306.438199
2904.979419,-11029.068536,-1036.288319,1149.143247
2904.979756,-10955.047942,-1850.514855,-459.657299
2904.980093,-11547.212695,-2146.597232,0.000000
2904.980430,-9548.656652,-3034.844362,76.609550
2904.980768,-9474.636058,-3108.864956,229.828649
2904.981105,-8956.491898,-1850.514855,919.314598
2904.981442,-8586.388927,-296.082377,76.609550
2904.981779,-9992.780217,1184.329507,919.314598
2904.982116,-11399.171507,740.205942,-153.219100
2904.982454,-11177.109724,1036.288319,766.095498
2904.982791,-10362.883188,666.185348,1608.800546
2904.983128,-10510.924376,1036.288319,2451.505594
2904.983465,-10584.944971,444.123565,1378.971896
2904.983803,-10584.944971,-592.164754,229.828649
2904.984140,-9696.697840,-1258.350101,229.828649
2904.984477,-8808.450710,-2368.659014,0.000000
2904.984814,-8438.347739,-592.164754,0.000000
2904.985151,-8290.306550,74.020594,-1149.143247
2904.985489,-9178.553681,1110.308913,-1302.362347
2904.985826,-9770.718434,1332.370696,-1608.800546
2904.986163,-11251.130318,1480.411884,-995.924147
2904.986500,-10807.006753,962.267725,306.438199
2904.986838,-10140.821405,0.000000,1532.190996
2904.987175,-10807.006753,-444.123565,2451.505594
2904.987512,-10732.986159,-888.247130,1149.143247
2904.987849,-10436.903782,-2590.720797,1991.848295
2904.988186,-9622.677246,-2590.720797,1991.848295
2904.988524,-8956.491898,-1554.432478,1149.143247
2904.988861,-8734.430116,74.020594,459.657299
2904.989198,-9104.533087,814.226536,689.485948
2904.989535,-10436.903782,1110.308913,153.219100
2904.989873,-10732.986159,2146.597232,-536.266849
2904.990210,-11029.068536,1554.432478,0.000000
2904.990547,-10436.903782,1406.391290,842.705048
2904.990884,-10807.006753,0.000000,612.876398
2904.991221,-10955.047942,-888.247130,842.705048
2904.991559,-10584.944971,-2368.659014,-536.266849
2904.991896,-10140.821405,-4145.153275,-995.924147
2904.992233,-8660.409521,-2960.823768,-1302.362347
2904.992570,-8586.388927,-2368.659014,-1915.238745
2904.992908,-8808.450710,-740.205942,-1685.410096
2904.993245,-9770.718434,-296.082377,-1608.800546
2904.993582,-10955.047942,888.247130,-1302.362347
2904.993919,-10955.047942,592.164754,-919.314598
2904.994256,-11325.150913,74.020594,1532.190996
2904.994594,-11621.233289,-222.061783,2528.115143
2904.994931,-11695.253884,-592.164754,2374.896044
2904.995268,-11769.274478,-1776.494261,1685.410096
2904.995605,-9992.780217,-2220.617826,1149.143247
2904.995943,-8808.450710,-1480.411884,1838.629195
2904.996280,-9178.553681,-518.144159,1762.019645
2904.996617,-7994.224174,1036.288319,689.485948
2904.996954,-8586.388927,1554.432478,0.000000
2904.997291,-10955.047942,3108.864956,-1072.533697
2904.997629,-10584.944971,4145.153275,-1991.848295
2904.997966,-10732.986159,3182.885551,-995.924147
2904.998303,-9992.780217,1850.514855,459.657299
2904.998640,-10140.821405,592.164754,995.924147
2904.998977,-10658.965565,-888.247130,842.705048
2904.999315,-9622.677246,-2368.659014,-153.219100
2904.999652,-8142.265362,-3775.050304,-459.657299
2904.999989,-8068.244768,-2886.803174,0.000000
2905.000326,-7772.162391,-1776.494261,-766.095498
2905.000664,-9178.553681,148.041188,-919.314598
2905.001001,-10510.924376,222.061783,-1302.362347
2905.001338,-10510.924376,1998.556043,-1532.190996
2905.001675,-10807.006753,740.205942,-306.438199
2905.002012,-10955.047942,444.123565,2451.505594
2905.002350,-11769.274478,-740.205942,2451.505594
2905.002687,-11843.295072,-1628.453072,2451.505594
2905.003024,-11029.068536,-2442.679609,1991.848295
2905.003361,-9474.636058,-3478.967927,919.314598
2905.003699,-8586.388927,-2886.803174,1378.971896
2905.004036,-9622.677246,-1554.432478,612.876398
2905.004373,-8364.327145,74.020594,-153.219100
2905.004710,-9770.718434,1850.514855,-919.314598
2905.005047,-11029.068536,1332.370696,-842.705048
2905.005385,-11029.068536,1776.494261,-536.266849
2905.005722,-10510.924376,296.082377,459.657299
2905.006059,-11029.068536,222.061783,2298.286494
2905.006396,-11103.089130,-1110.308913,459.657299
2905.006734,-11103.089130,-2516.700203,0.000000
2905.007071,-9474.636058,-4071.132681,229.828649
2905.007408,-7254.018232,-3997.112087,306.438199
2905.007745,-8438.347739,-1480.411884,842.705048
2905.008082,-8364.327145,0.000000,-1149.143247
