#time,accel_x,accel_y,accel_z
2980.597856,-10066.800811,-296.082377,0.000000
2980.598194,-10140.821405,-370.102971,-229.828649
2980.598532,-10214.842000,-296.082377,0.000000
2980.598869,-10436.903782,-1036.288319,689.485948
2980.599207,-10510.924376,-1184.329507,612.876398
2980.599544,-9548.656652,-296.082377,0.000000
2980.599882,-10584.944971,-518.144159,536.266849
2980.600219,-10881.027347,-370.102971,0.000000
2980.600557,-10732.986159,-518.144159,0.000000
2980.600894,-10436.903782,-518.144159,0.000000
2980.601232,-9918.759623,-518.144159,229.828649
2980.601569,-9770.718434,0.000000,-766.095498
2980.601907,-10584.944971,-666.185348,-766.095498
2980.602244,-10658.965565,-1406.391290,229.828649
2980.602582,-9326.594869,-1776.494261,-229.828649
2980.602919,-9622.677246,-962.267725,-766.095498
2980.603257,-10510.924376,-1776.494261,-689.485948
2980.603595,-9992.780217,-2072.576638,-1608.800546
2980.603932,-9474.636058,-2220.617826,-1685.410096
2980.604270,-9178.553681,-2368.659014,-459.657299
2980.604607,-9400.615463,-1776.494261,-842.705048
2980.604945,-10732.986159,-1480.411884,-919.314598
2980.605282,-9992.780217,-1924.535449,-1378.971896
2980.605620,-8956.491898,-2368.659014,-459.657299
2980.605957,-9326.594869,-1406.391290,1685.410096
2980.606295,-10510.924376,-74.020594,1532.190996
2980.606632,-11991.336260,222.061783,0.000000
2980.606970,-10510.924376,-518.144159,-919.314598
2980.607307,-9770.718434,-740.205942,-229.828649
2980.607645,-9770.718434,-444.123565,842.705048
2980.607983,-10436.903782,0.000000,-306.438199
2980.608320,-10214.842000,0.000000,-1991.848295
2980.608658,-9252.574275,-740.205942,-2987.772442
2980.608995,-9104.533087,-888.247130,-2221.676944
2980.609333,-10066.800811,-1036.288319,-1532.190996
2980.609670,-9992.780217,-1850.514855,-3217.601092
2980.610008,-10881.027347,-1776.494261,-4290.134789
2980.610345,-10214.842000,-2960.823768,-5209.449386
2980.610683,-8956.491898,-3775.050304,-4443.353888
2980.611020,-8734.430116,-4737.318029,-3064.381992
2980.611358,-8290.306550,-5329.482782,-3064.381992
2980.611695,-9030.512492,-4367.215058,-2451.505594
2980.612033,-9918.759623,-3552.988522,-1838.629195
2980.612371,-10658.965565,-2960.823768,-2221.676944
2980.612708,-11029.068536,-3404.947333,-3447.429741
2980.613046,-10807.006753,-4219.173869,-3370.820191
2980.613383,-10658.965565,-5255.462188,-2834.553343
2980.613721,-9844.739029,-5107.421000,-1378.971896
2980.614058,-8290.306550,-5477.523971,-153.219100
2980.614396,-8956.491898,-3923.091493,229.828649
2980.614733,-9918.759623,-2368.659014,153.219100
2980.615071,-11695.253884,-1628.453072,-689.485948
2980.615408,-11695.253884,-1110.308913,-2451.505594
2980.615746,-11325.150913,-1554.432478,-3370.820191
2980.616083,-11029.068536,-2368.659014,-2145.067394
2980.616421,-10362.883188,-2886.803174,-2145.067394
2980.616758,-9104.533087,-2960.823768,-1302.362347
2980.617096,-9030.512492,-3108.864956,-153.219100
2980.617434,-9548.656652,-3108.864956,-1685.410096
2980.617771,-9918.759623,-2960.823768,-2451.505594
2980.618109,-9770.718434,-2738.761985,-2145.067394
2980.618446,-9030.512492,-2146.597232,-153.219100
2980.618784,-9474.636058,-296.082377,459.657299
2980.619121,-11029.068536,0.000000,-536.266849
2980.619459,-11547.212695,-296.082377,-1838.629195
2980.619796,-10658.965565,-2442.679609,-2221.676944
2980.620134,-9474.636058,-3330.926739,0.000000
2980.620471,-8438.347739,-2368.659014,459.657299
2980.620809,-8290.306550,-2294.638420,-383.047749
2980.621146,-9474.636058,-2590.720797,-842.705048
2980.621484,-9400.615463,-1406.391290,-1378.971896
2980.621822,-9400.615463,1036.288319,-1149.143247
2980.622159,-9474.636058,1702.473667,-1991.848295
2980.622497,-11399.171507,814.226536,-1608.800546
2980.622834,-12731.542202,74.020594,-1685.410096
2980.623172,-11769.274478,-444.123565,-2451.505594
2980.623509,-8808.450710,-1554.432478,-2374.896044
2980.623847,-7698.141797,-4219.173869,-383.047749
2980.624184,-9548.656652,-4663.297435,0.000000
2980.624522,-9474.636058,-3182.885551,-3064.381992
2980.624859,-8956.491898,-1850.514855,-4519.963438
2980.625197,-10066.800811,-3404.947333,-3983.696590
2980.625534,-11843.295072,-2738.761985,-4749.792088
2980.625872,-11843.295072,-2886.803174,-5745.716235
2980.626210,-9326.594869,-2146.597232,-4290.134789
2980.626547,-8364.327145,-3256.906145,-1685.410096
2980.626885,-9844.739029,-3256.906145,-1991.848295
2980.627222,-11399.171507,-3627.009116,-1378.971896
2980.627560,-11029.068536,-3923.091493,-1225.752797
2980.627897,-9622.677246,-3552.988522,-459.657299
2980.628235,-9474.636058,-2294.638420,-919.314598
2980.628572,-10510.924376,-2146.597232,689.485948
2980.628910,-9844.739029,-666.185348,-995.924147
2980.629247,-10510.924376,-888.247130,-2757.943793
2980.629585,-11251.130318,-814.226536,-2757.943793
2980.629922,-10732.986159,-1332.370696,-2145.067394
2980.630260,-9770.718434,-1924.535449,-2374.896044
2980.630597,-8512.368333,-1332.370696,-2528.115143
2980.630935,-8882.471304,-2368.659014,-2604.724693
2980.631273,-9400.615463,-2590.720797,-1762.019645
2980.631610,-9178.553681,-2368.659014,-1455.581446
2980.631948,-9696.697840,-1480.411884,-459.657299
2980.632285,-11029.068536,-1480.411884,-383.047749
2980.632623,-10584.944971,-1554.432478,-919.314598
2980.632960,-11103.089130,-1850.514855,-1378.971896
2980.633298,-9992.780217,-3182.885551,-1838.629195
2980.633635,-9400.615463,-3034.844362,-2298.286494
2980.633973,-9326.594869,-4737.318029,-2221.676944
2980.634310,-8290.306550,-5107.421000,-2298.286494
2980.634648,-8956.491898,-4959.379811,-1378.971896
2980.634985,-9400.615463,-3775.050304,-612.876398
2980.635323,-10214.842000,-2516.700203,153.219100
2980.635661,-9548.656652,-1110.308913,0.000000
2980.635998,-10881.027347,-592.164754,536.266849
2980.636336,-12213.398043,-518.144159,-612.876398
2980.636673,-12065.356855,-2220.617826,-1302.362347
2980.637011,-11547.212695,-3478.967927,-1991.848295
2980.637348,-9548.656652,-4515.256246,-2451.505594
2980.637686,-8290.306550,-5995.668130,-2068.457845
2980.638023,-7476.080014,-5699.585753,-2451.505594
2980.638361,-9326.594869,-5033.400406,-1685.410096
2980.638698,-9622.677246,-3034.844362,-3370.820191
2980.639036,-10510.924376,-1110.308913,-5439.278036
2980.639373,-11103.089130,-1332.370696,-5515.887586
2980.639711,-11917.315666,-2146.597232,-3830.477490
2980.640048,-10288.862594,-2146.597232,-3140.991542
2980.640386,-9474.636058,-3627.009116,-1149.143247
2980.640724,-9696.697840,-3775.050304,-383.047749
2980.641061,-9548.656652,-4737.318029,-306.438199
2980.641399,-10362.883188,-3997.112087,-153.219100
2980.641736,-8882.471304,-3256.906145,-612.876398
2980.642074,-9030.512492,-1776.494261,0.000000
2980.642411,-10510.924376,296.082377,-919.314598
2980.642749,-11103.089130,592.164754,-2681.334243
2980.643086,-10510.924376,666.185348,-2145.067394
2980.643424,-10140.821405,444.123565,0.000000
2980.643761,-10288.862594,1776.494261,1685.410096
2980.644099,-10584.944971,2590.720797,612.876398
2980.644436,-10510.924376,1480.411884,306.438199
2980.644774,-9844.739029,-962.267725,-1838.629195
2980.645112,-8882.471304,-1998.556043,-1455.581446
2980.645449,-9474.636058,-1480.411884,-766.095498
2980.645787,-9252.574275,-2294.638420,-689.485948
2980.646124,-9030.512492,-888.247130,-2451.505594
2980.646462,-8882.471304,-296.082377,-2145.067394
2980.646799,-10066.800811,1110.308913,-689.485948
2980.647137,-9992.780217,74.020594,-919.314598
2980.647474,-11547.212695,-666.185348,-995.924147
2980.647812,-11769.274478,-2294.638420,-1149.143247
2980.648149,-9548.656652,-4293.194464,-306.438199
2980.648487,-8364.327145,-4589.276840,3217.601092
2980.648824,-8882.471304,-3404.947333,2374.896044
2980.649162,-10214.842000,-2368.659014,842.705048
2980.649500,-11029.068536,-1406.391290,-383.047749
2980.649837,-10584.944971,-814.226536,-383.047749
2980.650175,-10658.965565,-444.123565,306.438199
2980.650512,-11547.212695,962.267725,689.485948
2980.650850,-10955.047942,962.267725,-842.705048
2980.651187,-9918.759623,0.000000,-1838.629195
2980.651525,-9252.574275,-962.267725,-689.485948
2980.651862,-9178.553681,-1480.411884,766.095498
2980.652200,-11251.130318,-2072.576638,2068.457845
2980.652537,-11843.295072,-2294.638420,0.000000
2980.652875,-10658.965565,-2294.638420,-1302.362347
2980.653212,-9326.594869,-1554.432478,229.828649
2980.653550,-8438.347739,-1480.411884,0.000000
2980.653887,-8290.306550,-962.267725,-306.438199
2980.654225,-9474.636058,-222.061783,-612.876398
2980.654563,-11029.068536,74.020594,-1378.971896
2980.654900,-11177.109724,814.226536,-1302.362347
2980.655238,-9400.615463,-370.102971,0.000000
2980.655575,-9326.594869,74.020594,2451.505594
2980.655913,-9844.739029,-1184.329507,2757.943793
2980.656250,-9400.615463,962.267725,2451.505594
2980.656588,-9844.739029,0.000000,2068.457845
2980.656926,-10436.903782,962.267725,995.924147
2980.657263,-9400.615463,2146.597232,-383.047749
2980.657601,-11473.192101,2146.597232,842.705048
2980.657939,-10807.006753,3182.885551,0.000000
2980.658277,-10436.903782,2738.761985,-1072.533697
2980.658614,-9918.759623,1850.514855,-995.924147
2980.658952,-9622.677246,296.082377,-1532.190996
2980.659290,-8956.491898,-1184.329507,-229.828649
2980.659627,-10066.800811,-2072.576638,842.705048
2980.659965,-9474.636058,-1998.556043,1149.143247
2980.660303,-9474.636058,-2368.659014,383.047749
2980.660640,-9474.636058,-1110.308913,-1302.362347
2980.660978,-9474.636058,-1258.350101,-1608.800546
2980.661316,-10658.965565,-962.267725,-1532.190996
2980.661653,-9992.780217,-1258.350101,-1762.019645
2980.661991,-9474.636058,-1998.556043,-536.266849
2980.662329,-9326.594869,-2368.659014,1149.143247
2980.662666,-10066.800811,-2368.659014,1532.190996
2980.663004,-11251.130318,-2368.659014,1991.848295
2980.663342,-11695.253884,-1702.473667,1455.581446
2980.663680,-10510.924376,-1406.391290,383.047749
2980.664017,-9844.739029,-888.247130,995.924147
2980.664355,-10436.903782,-74.020594,2451.505594
2980.664693,-11103.089130,666.185348,1532.190996
2980.665030,-11177.109724,1554.432478,766.095498
2980.665368,-10881.027347,1554.432478,-306.438199
2980.665706,-10436.903782,666.185348,-306.438199
2980.666043,-9844.739029,370.102971,153.219100
2980.666381,-10288.862594,-888.247130,1225.752797
2980.666719,-10362.883188,0.000000,612.876398
2980.667056,-9178.553681,-962.267725,-842.705048
2980.667394,-9400.615463,-666.185348,229.828649
2980.667732,-8734.430116,-888.247130,153.219100
2980.668069,-9548.656652,-74.020594,383.047749
2980.668407,-9548.656652,-814.226536,766.095498
2980.668745,-9474.636058,-370.102971,1072.533697
2980.669083,-9326.594869,592.164754,689.485948
2980.669420,-9548.656652,74.020594,0.000000
2980.669758,-9770.718434,-370.102971,459.657299
2980.670096,-9918.759623,-518.144159,459.657299
2980.670433,-9844.739029,0.000000,306.438199
2980.670771,-9844.739029,-1258.350101,919.314598
2980.671109,-10436.903782,-1480.411884,995.924147
2980.671446,-9474.636058,-740.205942,536.266849
2980.671784,-9548.656652,-148.041188,842.705048
2980.672122,-10288.862594,74.020594,2298.286494
2980.672459,-11103.089130,666.185348,-612.876398
2980.672797,-11621.233289,296.082377,-1608.800546
2980.673135,-11695.253884,-370.102971,-1149.143247
2980.673472,-11103.089130,-962.267725,-919.314598
2980.673810,-9844.739029,-1258.350101,-1225.752797
2980.674148,-9770.718434,-1480.411884,-536.266849
2980.674485,-9992.780217,-2072.576638,-919.314598
2980.674823,-9918.759623,-2368.659014,-2374.896044
2980.675161,-9474.636058,-2146.597232,-1149.143247
2980.675499,-10732.986159,-1924.535449,0.000000
2980.675836,-10066.800811,-1924.535449,842.705048
2980.676174,-10362.883188,296.082377,1149.143247
2980.676512,-9918.759623,-370.102971,1608.800546
2980.676849,-10807.006753,0.000000,1149.143247
2980.677187,-10362.883188,-592.164754,919.314598
2980.677525,-10214.842000,-666.185348,1225.752797
2980.677862,-10066.800811,0.000000,2374.896044
2980.678200,-9622.677246,0.000000,1838.629195
2980.678538,-8734.430116,1110.308913,1302.362347
2980.678875,-8956.491898,1628.453072,1225.752797
2980.679213,-10288.862594,2442.679609,383.047749
2980.679551,-10066.800811,2368.659014,-383.047749
2980.679888,-11029.068536,2146.597232,-229.828649
2980.680226,-9844.739029,1480.411884,-306.438199
2980.680564,-8956.491898,1406.391290,0.000000
2980.680902,-9252.574275,666.185348,1302.362347
2980.681239,-9104.533087,-222.061783,306.438199
2980.681577,-8808.450710,-296.082377,-459.657299
2980.681915,-9474.636058,-1110.308913,-689.485948
2980.682252,-10584.944971,-1332.370696,-612.876398
2980.682590,-10288.862594,-1332.370696,-1378.971896
2980.682928,-9622.677246,-814.226536,-1455.581446
2980.683265,-9400.615463,-740.205942,536.266849
2980.683603,-9474.636058,-1332.370696,0.000000
2980.683941,-10658.965565,-1850.514855,1072.533697
2980.684278,-10807.006753,-2590.720797,1762.019645
2980.684616,-10362.883188,-2146.597232,1455.581446
2980.684954,-11251.130318,-1776.494261,1608.800546
2980.685291,-10584.944971,-1332.370696,919.314598
2980.685629,-9992.780217,-1036.288319,153.219100
2980.685967,-9770.718434,-1332.370696,153.219100
2980.686305,-9400.615463,-518.144159,306.438199
2980.686642,-11103.089130,-666.185348,1455.581446
2980.686980,-11325.150913,-1110.308913,995.924147
2980.687318,-10881.027347,-296.082377,-383.047749
2980.687655,-11103.089130,-592.164754,229.828649
2980.687993,-9474.636058,-1332.370696,0.000000
2980.688331,-8808.450710,-1406.391290,-766.095498
2980.688668,-9622.677246,-740.205942,-229.828649
2980.689006,-10288.862594,-148.041188,-919.314598
2980.689344,-10140.821405,-592.164754,-1685.410096
2980.689681,-10140.821405,-814.226536,-689.485948
2980.690019,-9844.739029,0.000000,459.657299
2980.690357,-8660.409521,518.144159,306.438199
2980.690694,-9252.574275,296.082377,919.314598
2980.691032,-10288.862594,518.144159,1608.800546
2980.691370,-10807.006753,518.144159,1225.752797
2980.691708,-9992.780217,1332.370696,1838.629195
2980.692045,-10140.821405,1850.514855,2451.505594
2980.692383,-10214.842000,1776.494261,2604.724693
2980.692721,-10140.821405,2664.741391,1302.362347
2980.693058,-9326.594869,1924.535449,-153.219100
2980.693396,-9474.636058,1628.453072,995.924147
2980.693734,-10214.842000,2072.576638,0.000000
2980.694071,-9844.739029,1554.432478,-689.485948
2980.694409,-9326.594869,888.247130,-383.047749
2980.694747,-10066.800811,148.041188,-536.266849
2980.695084,-10140.821405,-296.082377,-995.924147
2980.695422,-9622.677246,-1036.288319,-1378.971896
2980.695760,-9104.533087,-1850.514855,0.000000
2980.696097,-9548.656652,-3182.885551,153.219100
2980.696435,-9030.512492,-2368.659014,-919.314598
2980.696773,-9622.677246,-1776.494261,76.609550
2980.697111,-10066.800811,-2516.700203,-612.876398
2980.697448,-10436.903782,-1776.494261,-1455.581446
2980.697786,-10288.862594,-1628.453072,-1302.362347
2980.698124,-10807.006753,-2146.597232,383.047749
2980.698461,-10066.800811,-2072.576638,1149.143247
2980.698799,-10288.862594,-2146.597232,2068.457845
2980.699137,-11103.089130,-888.247130,2451.505594
2980.699474,-10955.047942,-962.267725,2068.457845
2980.699812,-10510.924376,-666.185348,1608.800546
2980.700150,-10288.862594,0.000000,919.314598
2980.700487,-10658.965565,592.164754,1149.143247
2980.700825,-10362.883188,888.247130,-229.828649
2980.701163,-9918.759623,1110.308913,-995.924147
2980.701500,-9696.697840,666.185348,-1302.362347
2980.701838,-10436.903782,222.061783,76.609550
2980.702176,-9844.739029,592.164754,459.657299
2980.702514,-9252.574275,-444.123565,1149.143247
2980.702851,-9696.697840,518.144159,1072.533697
2980.703189,-9474.636058,-74.020594,0.000000
2980.703527,-9474.636058,0.000000,-842.705048
2980.703864,-8734.430116,296.082377,-229.828649
2980.704202,-9326.594869,518.144159,229.828649
2980.704540,-9474.636058,1036.288319,612.876398
2980.704877,-10288.862594,1110.308913,536.266849
2980.705215,-11029.068536,1258.350101,689.485948
2980.705553,-10288.862594,1406.391290,383.047749
2980.705890,-10140.821405,222.061783,1378.971896
2980.706228,-9178.553681,296.082377,1608.800546
2980.706566,-9696.697840,0.000000,2221.676944
2980.706903,-9844.739029,666.185348,1455.581446
2980.707241,-9548.656652,814.226536,0.000000
2980.707579,-10807.006753,740.205942,153.219100
2980.707917,-11399.171507,888.247130,-459.657299
2980.708254,-10732.986159,444.123565,-689.485948
2980.708592,-9548.656652,0.000000,383.047749
2980.708930,-9770.718434,-962.267725,306.438199
2980.709267,-9918.759623,-740.205942,-306.438199
2980.709605,-9918.759623,-1258.350101,-1225.752797
2980.709943,-9400.615463,-1406.391290,-1149.143247
2980.710280,-9622.677246,-2072.576638,-842.705048
2980.710618,-11177.109724,-1480.411884,0.000000
2980.710956,-11251.130318,-1406.391290,-1225.752797
2980.711293,-10807.006753,-2220.617826,-383.047749
2980.711631,-9400.615463,-962.267725,306.438199
2980.711969,-9770.718434,-1258.350101,842.705048
2980.712306,-10214.842000,-1036.288319,1532.190996
2980.712644,-10140.821405,-1332.370696,1225.752797
2980.712982,-10362.883188,-296.082377,1762.019645
2980.713320,-10732.986159,0.000000,2068.457845
2980.713657,-10362.883188,962.267725,2604.724693
2980.713995,-10436.903782,1332.370696,1685.410096
2980.714333,-9992.780217,1554.432478,0.000000
2980.714670,-10214.842000,1850.514855,842.705048
2980.715008,-10807.006753,1332.370696,229.828649
2980.715346,-9770.718434,148.041188,-766.095498
2980.715683,-8956.491898,666.185348,0.000000
2980.716021,-9326.594869,1184.329507,459.657299
2980.716359,-8956.491898,2516.700203,-76.609550
2980.716696,-9992.780217,592.164754,-919.314598
2980.717034,-10214.842000,0.000000,-1225.752797
2980.717372,-10584.944971,-222.061783,-1838.629195
2980.717709,-9918.759623,-1258.350101,-995.924147
2980.718047,-8364.327145,-1258.350101,306.438199
2980.718385,-8512.368333,-1998.556043,536.266849
2980.718722,-8216.285956,-1480.411884,-459.657299
2980.719060,-8364.327145,-1110.308913,-689.485948
2980.719398,-11399.171507,-1554.432478,459.657299
2980.719736,-12139.377449,-1480.411884,-306.438199
2980.720073,-10584.944971,-888.247130,153.219100
2980.720411,-10140.821405,-666.185348,2681.334243
2980.720749,-10881.027347,-296.082377,2757.943793
2980.721086,-10955.047942,666.185348,1915.238745
2980.721424,-11843.295072,370.102971,689.485948
2980.721762,-11695.253884,0.000000,-306.438199
2980.722099,-11029.068536,-222.061783,-1149.143247
2980.722437,-10288.862594,-296.082377,-76.609550
2980.722775,-9326.594869,0.000000,-612.876398
2980.723112,-9474.636058,74.020594,-766.095498
2980.723450,-9844.739029,888.247130,-1225.752797
2980.723788,-10436.903782,518.144159,-919.314598
2980.724125,-10955.047942,0.000000,-306.438199
2980.724463,-10140.821405,-1110.308913,229.828649
2980.724801,-9696.697840,-518.144159,612.876398
2980.725139,-8660.409521,0.000000,1685.410096
2980.725476,-8512.368333,74.020594,1072.533697
2980.725814,-9104.533087,-518.144159,689.485948
2980.726152,-9918.759623,0.000000,612.876398
2980.726489,-10732.986159,-296.082377,1838.629195
2980.726827,-10510.924376,0.000000,2451.505594
2980.727165,-9770.718434,1258.350101,2298.286494
2980.727502,-9548.656652,2590.720797,1225.752797
2980.727840,-10066.800811,2072.576638,766.095498
2980.728178,-9992.780217,2072.576638,0.000000
2980.728515,-9696.697840,1184.329507,459.657299
2980.728853,-10807.006753,1924.535449,766.095498
2980.729191,-10584.944971,1184.329507,766.095498
2980.729528,-10732.986159,1258.350101,153.219100
2980.729866,-9770.718434,296.082377,-766.095498
2980.730204,-9992.780217,-592.164754,0.000000
2980.730542,-9548.656652,-592.164754,-766.095498
2980.730879,-8438.347739,-1702.473667,-2298.286494
2980.731217,-9548.656652,-2072.576638,-536.266849
2980.731555,-10362.883188,-2442.679609,-383.047749
2980.731892,-10066.800811,-1776.494261,-612.876398
2980.732230,-10066.800811,-1332.370696,-1225.752797
2980.732568,-10658.965565,-2146.597232,-459.657299
2980.732905,-10288.862594,-2516.700203,-459.657299
2980.733243,-10362.883188,-3552.988522,459.657299
2980.733581,-10214.842000,-3404.947333,1302.362347
2980.733918,-10288.862594,-2590.720797,2374.896044
2980.734256,-10658.965565,-740.205942,1685.410096
2980.734594,-10807.006753,-666.185348,0.000000
2980.734931,-10807.006753,-296.082377,0.000000
2980.735269,-10584.944971,-518.144159,306.438199
2980.735607,-9992.780217,-444.123565,1149.143247
2980.735945,-9400.615463,-222.061783,1991.848295
2980.736282,-10510.924376,1776.494261,1455.581446
2980.736620,-11251.130318,1998.556043,153.219100
2980.736958,-11103.089130,2072.576638,-689.485948
2980.737295,-10066.800811,148.041188,-612.876398
2980.737633,-9178.553681,296.082377,76.609550
2980.737971,-8216.285956,-518.144159,536.266849
2980.738308,-9030.512492,0.000000,1378.971896
2980.738646,-9252.574275,740.205942,-306.438199
2980.738984,-9178.553681,1924.535449,-919.314598
2980.739321,-9918.759623,1850.514855,-536.266849
2980.739659,-10066.800811,740.205942,153.219100
2980.739997,-10214.842000,814.226536,536.266849
2980.740334,-9548.656652,-518.144159,1225.752797
2980.740672,-9474.636058,962.267725,2987.772442
2980.741010,-9622.677246,814.226536,1838.629195
2980.741348,-9844.739029,1110.308913,766.095498
2980.741685,-10066.800811,518.144159,0.000000
2980.742023,-10140.821405,0.000000,-536.266849
2980.742361,-9474.636058,0.000000,153.219100
2980.742698,-9474.636058,-444.123565,459.657299
2980.743036,-10140.821405,370.102971,1072.533697
2980.743374,-10066.800811,370.102971,-459.657299
2980.743711,-10288.862594,444.123565,-459.657299
2980.744049,-10436.903782,-814.226536,-306.438199
2980.744387,-10955.047942,-2220.617826,-536.266849
2980.744724,-9992.780217,-2220.617826,-536.266849
2980.745062,-9992.780217,-1406.391290,-383.047749
2980.745400,-10436.903782,-1406.391290,-995.924147
2980.745737,-9474.636058,-1036.288319,-2298.286494
2980.746075,-10288.862594,-1036.288319,-2298.286494
2980.746413,-10807.006753,-1998.556043,-2221.676944
2980.746751,-10288.862594,-2442.679609,-612.876398
2980.747088,-10214.842000,-2442.679609,919.314598
2980.747426,-10658.965565,-1332.370696,2451.505594
2980.747764,-10066.800811,-444.123565,2068.457845
2980.748101,-9844.739029,-148.041188,2221.676944
2980.748439,-10807.006753,-296.082377,1838.629195
2980.748777,-10436.903782,370.102971,612.876398
2980.749114,-10140.821405,0.000000,1225.752797
2980.749452,-9548.656652,888.247130,842.705048
2980.749790,-8808.450710,962.267725,919.314598
2980.750127,-9178.553681,1184.329507,766.095498
2980.750465,-10066.800811,1628.453072,1302.362347
2980.750803,-9770.718434,1776.494261,383.047749
2980.751140,-9992.780217,1332.370696,459.657299
2980.751478,-9326.594869,148.041188,229.828649
2980.751816,-9178.553681,666.185348,1225.752797
2980.752154,-9770.718434,814.226536,459.657299
2980.752491,-9844.739029,1628.453072,-1149.143247
2980.752829,-9548.656652,370.102971,-1072.533697
2980.753167,-9696.697840,0.000000,-612.876398
2980.753504,-9844.739029,-1554.432478,-459.657299
2980.753842,-10140.821405,-1406.391290,612.876398
2980.754180,-9252.574275,-1184.329507,1225.752797
2980.754517,-9104.533087,-962.267725,919.314598
2980.754855,-10362.883188,0.000000,459.657299
2980.755192,-10881.027347,-888.247130,612.876398
2980.755530,-11325.150913,-1258.350101,536.266849
2980.755868,-10214.842000,-2146.597232,1378.971896
2980.756205,-10140.821405,-962.267725,2221.676944
2980.756543,-9844.739029,-962.267725,2374.896044
2980.756881,-9918.759623,0.000000,842.705048
2980.757218,-10362.883188,-296.082377,-459.657299
2980.757556,-11399.171507,-148.041188,-1762.019645
2980.757894,-10436.903782,-740.205942,-2374.896044
2980.758231,-9918.759623,-1332.370696,-1991.848295
2980.758569,-8882.471304,-1702.473667,-153.219100
2980.758906,-9474.636058,-1036.288319,459.657299
2980.759244,-9252.574275,-592.164754,536.266849
2980.759582,-10732.986159,-444.123565,0.000000
2980.759919,-11843.295072,-1258.350101,-383.047749
2980.760257,-10658.965565,-1702.473667,-995.924147
2980.760595,-8882.471304,-1110.308913,842.705048
2980.760932,-9474.636058,-740.205942,1915.238745
2980.761270,-9104.533087,0.000000,536.266849
2980.761608,-9474.636058,0.000000,0.000000
2980.761945,-10955.047942,222.061783,766.095498
2980.762283,-11547.212695,888.247130,306.438199
2980.762620,-10436.903782,0.000000,536.266849
2980.762958,-9474.636058,592.164754,1532.190996
2980.763296,-9474.636058,888.247130,2681.334243
2980.763633,-8956.491898,2072.576638,919.314598
2980.763971,-10288.862594,1776.494261,995.924147
2980.764309,-11029.068536,1036.288319,-306.438199
2980.764646,-10881.027347,962.267725,-1149.143247
2980.764984,-11399.171507,814.226536,-306.438199
2980.765322,-9474.636058,-296.082377,0.000000
2980.765659,-8956.491898,0.000000,766.095498
2980.765997,-8660.409521,222.061783,-229.828649
2980.766334,-8882.471304,592.164754,-1915.238745
2980.766672,-10881.027347,-1184.329507,-995.924147
2980.767010,-10881.027347,-2294.638420,-1455.581446
2980.767347,-9178.553681,-1554.432478,-766.095498
2980.767685,-10066.800811,-2294.638420,1149.143247
2980.768023,-9104.533087,-1332.370696,919.314598
2980.768360,-9326.594869,-1036.288319,536.266849
2980.768698,-10732.986159,-1184.329507,1149.143247
2980.769035,-11251.130318,-1776.494261,919.314598
2980.769373,-11177.109724,-1258.350101,1149.143247
2980.769711,-11251.130318,-1258.350101,1915.238745
2980.770048,-10214.842000,-370.102971,1455.581446
2980.770386,-9252.574275,0.000000,1302.362347
2980.770724,-8882.471304,888.247130,1225.752797
2980.771061,-10732.986159,740.205942,459.657299
2980.771399,-11621.233289,666.185348,0.000000
2980.771737,-10584.944971,740.205942,-76.609550
2980.772074,-10288.862594,74.020594,76.609550
2980.772412,-9622.677246,370.102971,0.000000
2980.772749,-8956.491898,-370.102971,0.000000
2980.773087,-7994.224174,74.020594,-1149.143247
2980.773425,-9030.512492,148.041188,-383.047749
2980.773762,-9844.739029,-148.041188,-689.485948
2980.774100,-10732.986159,-1850.514855,-919.314598
2980.774438,-9844.739029,-1628.453072,995.924147
2980.774775,-8956.491898,-1258.350101,1225.752797
2980.775113,-9548.656652,-666.185348,2681.334243
2980.775451,-9474.636058,-518.144159,766.095498
2980.775788,-9770.718434,-592.164754,919.314598
2980.776126,-10658.965565,-888.247130,153.219100
2980.776463,-10214.842000,-296.082377,919.314598
2980.776801,-11621.233289,0.000000,1532.190996
2980.777139,-10584.944971,-74.020594,229.828649
2980.777476,-9474.636058,222.061783,76.609550
2980.777814,-10584.944971,370.102971,689.485948
2980.778152,-10881.027347,-518.144159,-383.047749
2980.778489,-10288.862594,-888.247130,-919.314598
2980.778827,-10955.047942,-666.185348,-153.219100
2980.779165,-9622.677246,-888.247130,-76.609550
2980.779502,-10066.800811,-740.205942,0.000000
2980.779840,-10436.903782,-444.123565,0.000000
2980.780177,-10066.800811,-444.123565,-1762.019645
2980.780515,-10732.986159,-1184.329507,-1838.629195
2980.780853,-10066.800811,-2146.597232,-2987.772442
2980.781190,-9622.677246,-2368.659014,-153.219100
2980.781528,-9548.656652,-3108.864956,153.219100
2980.781866,-9548.656652,-2442.679609,383.047749
2980.782203,-10288.862594,-1258.350101,76.609550
2980.782541,-9844.739029,-1776.494261,76.609550
2980.782879,-10066.800811,-1110.308913,459.657299
2980.783216,-9770.718434,-888.247130,1455.581446
2980.783554,-10066.800811,-370.102971,2068.457845
2980.783891,-10807.006753,0.000000,2221.676944
2980.784229,-10214.842000,814.226536,1378.971896
2980.784567,-9992.780217,2294.638420,1608.800546
2980.784904,-11547.212695,1702.473667,1149.143247
2980.785242,-10955.047942,1850.514855,536.266849
2980.785580,-10584.944971,1554.432478,306.438199
2980.785917,-9178.553681,962.267725,306.438199
2980.786255,-8660.409521,1258.350101,0.000000
2980.786592,-9030.512492,962.267725,383.047749
2980.786930,-9326.594869,1110.308913,0.000000
2980.787268,-9474.636058,1332.370696,-689.485948
2980.787605,-10140.821405,1036.288319,0.000000
2980.787943,-10288.862594,888.247130,-383.047749
2980.788281,-9844.739029,0.000000,0.000000
2980.788618,-9918.759623,-888.247130,536.266849
2980.788956,-9104.533087,-666.185348,0.000000
2980.789294,-8882.471304,-1332.370696,76.609550
2980.789631,-9400.615463,-1628.453072,306.438199
2980.789969,-9474.636058,-1776.494261,229.828649
2980.790306,-10436.903782,-1776.494261,153.219100
2980.790644,-10288.862594,-1554.432478,1378.971896
2980.790982,-10584.944971,-814.226536,1762.019645
2980.791319,-10362.883188,-370.102971,1685.410096
2980.791657,-10214.842000,-370.102971,1072.533697
2980.791995,-11103.089130,-814.226536,536.266849
2980.792332,-10881.027347,-296.082377,842.705048
2980.792670,-10214.842000,-1110.308913,0.000000
2980.793008,-10732.986159,-1480.411884,153.219100
2980.793345,-10436.903782,-888.247130,76.609550
2980.793683,-9622.677246,-666.185348,-689.485948
2980.794020,-10584.944971,-444.123565,-1149.143247
2980.794358,-10066.800811,-962.267725,-1762.019645
2980.794696,-10214.842000,-592.164754,-1762.019645
2980.795033,-10066.800811,-1258.350101,-1225.752797
2980.795371,-10066.800811,-1480.411884,153.219100
2980.795709,-9992.780217,-1480.411884,612.876398
2980.796046,-9252.574275,-666.185348,76.609550
2980.796384,-9400.615463,-370.102971,842.705048
2980.796722,-11103.089130,-962.267725,1455.581446
2980.797059,-10510.924376,-1258.350101,1149.143247
2980.797397,-9474.636058,-444.123565,1838.629195
2980.797734,-10140.821405,0.000000,3217.601092
2980.798072,-10066.800811,888.247130,1762.019645
2980.798410,-9474.636058,1036.288319,153.219100
2980.798747,-9252.574275,962.267725,0.000000
2980.799085,-9326.594869,1332.370696,1072.533697
2980.799423,-9770.718434,1184.329507,1072.533697
2980.799760,-10066.800811,888.247130,459.657299
2980.800098,-10436.903782,888.247130,919.314598
2980.800436,-9992.780217,1258.350101,0.000000
2980.800773,-10436.903782,74.020594,-1149.143247
2980.801111,-10362.883188,-370.102971,-76.609550
2980.801448,-9252.574275,-1480.411884,-1149.143247
2980.801786,-8882.471304,-888.247130,-1532.190996
2980.802124,-9622.677246,-1036.288319,-1915.238745
2980.802461,-10140.821405,-2294.638420,-919.314598
2980.802799,-9696.697840,-1628.453072,-995.924147
2980.803137,-10658.965565,-2368.659014,-306.438199
2980.803474,-9400.615463,-2516.700203,229.828649
2980.803812,-8364.327145,-2368.659014,0.000000
2980.804149,-10881.027347,-2368.659014,1532.190996
2980.804487,-11399.171507,-2590.720797,1302.362347
2980.804825,-11103.089130,-2368.659014,536.266849
2980.805162,-10214.842000,-1036.288319,1685.410096
2980.805500,-10066.800811,-814.226536,1991.848295
2980.805838,-10066.800811,-222.061783,1225.752797
2980.806175,-10881.027347,0.000000,0.000000
2980.806513,-11029.068536,222.061783,689.485948
2980.806851,-11251.130318,0.000000,306.438199
2980.807188,-10362.883188,518.144159,0.000000
2980.807526,-8512.368333,740.205942,0.000000
2980.807863,-9844.739029,1480.411884,1225.752797
2980.808201,-12509.480420,814.226536,229.828649
2980.808539,-9548.656652,666.185348,-1762.019645
2980.808876,-8956.491898,222.061783,-1838.629195
2980.809214,-10881.027347,-296.082377,76.609550
2980.809552,-9400.615463,74.020594,0.000000
2980.809889,-8586.388927,-222.061783,459.657299
2980.810227,-8956.491898,-296.082377,1378.971896
2980.810565,-9770.718434,-74.020594,689.485948
2980.810902,-9474.636058,0.000000,0.000000
2980.811240,-10362.883188,-222.061783,1762.019645
2980.811577,-9918.759623,444.123565,995.924147
2980.811915,-9548.656652,0.000000,689.485948
2980.812253,-10362.883188,222.061783,766.095498
2980.812590,-9918.759623,-518.144159,0.000000
2980.812928,-8734.430116,666.185348,612.876398
2980.813266,-7994.224174,74.020594,383.047749
2980.813603,-9622.677246,74.020594,459.657299
2980.813941,-11029.068536,-518.144159,306.438199
2980.814279,-11769.274478,-74.020594,0.000000
2980.814616,-10288.862594,74.020594,-689.485948
2980.814954,-10436.903782,0.000000,-306.438199
2980.815291,-10436.903782,-740.205942,-76.609550
2980.815629,-10288.862594,-1332.370696,-1378.971896
2980.815967,-9252.574275,-2146.597232,-1532.190996
2980.816304,-9326.594869,-1702.473667,-766.095498
2980.816642,-10732.986159,-2368.659014,306.438199
2980.816980,-12139.377449,-1702.473667,153.219100
2980.817317,-11325.150913,-2072.576638,0.000000
2980.817655,-9622.677246,-1850.514855,612.876398
2980.817992,-10140.821405,-1480.411884,1455.581446
2980.818330,-9696.697840,-1332.370696,1532.190996
2980.818668,-9178.553681,-962.267725,1225.752797
2980.819005,-10510.924376,-740.205942,1072.533697
2980.819343,-11251.130318,-148.041188,1378.971896
2980.819681,-10362.883188,1554.432478,995.924147
2980.820018,-9178.553681,1258.350101,1302.362347
2980.820356,-8882.471304,518.144159,995.924147
2980.820694,-9178.553681,1776.494261,766.095498
2980.821031,-9696.697840,1184.329507,766.095498
2980.821369,-10066.800811,1776.494261,612.876398
2980.821706,-9696.697840,1406.391290,-383.047749
2980.822044,-9992.780217,1406.391290,-1532.190996
2980.822382,-9030.512492,1554.432478,-766.095498
2980.822719,-8438.347739,74.020594,-536.266849
2980.823057,-9178.553681,222.061783,919.314598
2980.823395,-9474.636058,-222.061783,229.828649
2980.823732,-11251.130318,0.000000,1302.362347
2980.824070,-11103.089130,-222.061783,1302.362347
2980.824408,-10732.986159,-1406.391290,0.000000
2980.824745,-10510.924376,-1628.453072,536.266849
2980.825083,-9918.759623,-1776.494261,536.266849
2980.825420,-9474.636058,-1628.453072,612.876398
2980.825758,-9770.718434,-1554.432478,383.047749
2980.826096,-10807.006753,-814.226536,919.314598
2980.826433,-11547.212695,444.123565,0.000000
2980.826771,-11399.171507,0.000000,-383.047749
2980.827109,-11325.150913,-444.123565,612.876398
2980.827446,-9992.780217,-1332.370696,766.095498
2980.827784,-9844.739029,-814.226536,689.485948
2980.828122,-10066.800811,-296.082377,383.047749
2980.828459,-10807.006753,-296.082377,229.828649
2980.828797,-10732.986159,-666.185348,-995.924147
2980.829134,-11177.109724,-740.205942,-1378.971896
2980.829472,-9030.512492,-888.247130,-1608.800546
2980.829810,-8734.430116,-1184.329507,-1072.533697
2980.830147,-8734.430116,-1258.350101,-1225.752797
2980.830485,-8956.491898,-740.205942,-919.314598
2980.830823,-10140.821405,-592.164754,-459.657299
2980.831160,-10510.924376,-962.267725,-766.095498
2980.831498,-10658.965565,-888.247130,766.095498
2980.831836,-9622.677246,-74.020594,1455.581446
2980.832173,-9030.512492,-740.205942,995.924147
2980.832511,-9548.656652,0.000000,1915.238745
2980.832848,-9474.636058,370.102971,2374.896044
2980.833186,-10436.903782,1406.391290,1838.629195
2980.833524,-11251.130318,2368.659014,1225.752797
2980.833861,-10732.986159,2368.659014,0.000000
2980.834199,-10140.821405,1036.288319,76.609550
2980.834537,-9474.636058,888.247130,1149.143247
2980.834874,-9104.533087,1554.432478,1762.019645
2980.835212,-10510.924376,1776.494261,2145.067394
2980.835549,-10658.965565,2220.617826,0.000000
2980.835887,-11177.109724,1184.329507,-459.657299
2980.836225,-11547.212695,0.000000,-383.047749
2980.836562,-9770.718434,-444.123565,-153.219100
2980.836900,-9178.553681,-962.267725,-383.047749
2980.837238,-8734.430116,-962.267725,-459.657299
2980.837575,-8216.285956,-1110.308913,-1225.752797
2980.837913,-10362.883188,-1850.514855,-306.438199
2980.838251,-10214.842000,-1406.391290,-1149.143247
2980.838588,-9400.615463,-2368.659014,-766.095498
2980.838926,-10066.800811,-2368.659014,0.000000
2980.839263,-8660.409521,-2886.803174,536.266849
2980.839601,-10436.903782,-1554.432478,2145.067394
2980.839939,-9992.780217,-1628.453072,1455.581446
2980.840276,-10658.965565,-962.267725,1225.752797
2980.840614,-11325.150913,-296.082377,1762.019645
2980.840952,-10510.924376,-1110.308913,612.876398
2980.841289,-9844.739029,-666.185348,1149.143247
2980.841627,-9548.656652,-370.102971,2145.067394
2980.841965,-10732.986159,518.144159,1072.533697
2980.842302,-11695.253884,1554.432478,-1072.533697
2980.842640,-11843.295072,1554.432478,-1302.362347
2980.842977,-10584.944971,962.267725,-842.705048
2980.843315,-9992.780217,74.020594,-306.438199
2980.843653,-9474.636058,666.185348,459.657299
2980.843990,-9844.739029,-222.061783,612.876398
2980.844328,-10362.883188,296.082377,0.000000
2980.844666,-9548.656652,-518.144159,-1225.752797
2980.845003,-10066.800811,-370.102971,76.609550
2980.845341,-9400.615463,-1406.391290,383.047749
2980.845679,-9474.636058,-962.267725,229.828649
2980.846016,-8512.368333,-666.185348,1225.752797
2980.846354,-8882.471304,0.000000,842.705048
2980.846691,-9696.697840,0.000000,1532.190996
2980.847029,-9400.615463,0.000000,383.047749
2980.847367,-8956.491898,-1110.308913,1225.752797
2980.847704,-9474.636058,-296.082377,1991.848295
2980.848042,-8734.430116,222.061783,1455.581446
2980.848380,-9992.780217,518.144159,1149.143247
2980.848717,-10658.965565,740.205942,0.000000
2980.849055,-11177.109724,888.247130,-612.876398
2980.849393,-11325.150913,1110.308913,-459.657299
2980.849730,-10658.965565,518.144159,0.000000
2980.850068,-10288.862594,444.123565,-383.047749
2980.850405,-10584.944971,0.000000,0.000000
2980.850743,-10732.986159,592.164754,536.266849
2980.851081,-11029.068536,148.041188,-766.095498
2980.851418,-11843.295072,222.061783,-689.485948
2980.851756,-11325.150913,74.020594,-1608.800546
2980.852094,-10436.903782,-1184.329507,-2145.067394
2980.852431,-9400.615463,-1924.535449,-1072.533697
2980.852769,-9030.512492,-2886.803174,612.876398
2980.853106,-9326.594869,-1554.432478,1455.581446
2980.853444,-9474.636058,-1850.514855,612.876398
2980.853782,-9770.718434,-962.267725,689.485948
2980.854119,-9548.656652,-1702.473667,536.266849
2980.854457,-9474.636058,-1036.288319,1838.629195
2980.854795,-8808.450710,-962.267725,2145.067394
2980.855132,-9030.512492,-518.144159,2145.067394
2980.855469,-9622.677246,592.164754,1685.410096
2980.855807,-10362.883188,74.020594,919.314598
2980.856144,-9770.718434,814.226536,229.828649
2980.856482,-8956.491898,1480.411884,-536.266849
2980.856819,-10807.006753,1554.432478,-1455.581446
2980.857157,-9696.697840,370.102971,-1302.362347
2980.857494,-9400.615463,148.041188,-612.876398
2980.857832,-10066.800811,1110.308913,459.657299
2980.858169,-10288.862594,888.247130,459.657299
2980.858507,-11325.150913,518.144159,306.438199
2980.858844,-12065.356855,0.000000,-229.828649
2980.859182,-10732.986159,-740.205942,-536.266849
2980.859519,-10732.986159,-666.185348,842.705048
2980.859857,-9992.780217,-1702.473667,1378.971896
2980.860194,-9326.594869,-444.123565,1072.533697
2980.860532,-10066.800811,-296.082377,-306.438199
2980.860869,-9844.739029,-740.205942,-842.705048
2980.861206,-10288.862594,-1258.350101,229.828649
2980.861544,-9548.656652,-1998.556043,919.314598
2980.861881,-8956.491898,-888.247130,1608.800546
2980.862219,-10066.800811,-518.144159,2298.286494
2980.862556,-10140.821405,518.144159,2145.067394
2980.862894,-10436.903782,296.082377,612.876398
2980.863231,-9622.677246,370.102971,229.828649
2980.863569,-9474.636058,0.000000,-536.266849
2980.863906,-9918.759623,-296.082377,-306.438199
2980.864244,-9770.718434,-814.226536,-536.266849
2980.864581,-9030.512492,-74.020594,-689.485948
2980.864919,-9030.512492,814.226536,-1072.533697
2980.865256,-10362.883188,1110.308913,-1991.848295
2980.865594,-10732.986159,74.020594,-2451.505594
2980.865931,-10214.842000,-1554.432478,-1072.533697
2980.866269,-10362.883188,-962.267725,1149.143247
2980.866606,-10214.842000,-518.144159,2987.772442
2980.866944,-10362.883188,592.164754,2528.115143
2980.867281,-10214.842000,740.205942,1608.800546
2980.867618,-10584.944971,0.000000,842.705048
2980.867956,-10288.862594,296.082377,689.485948
2980.868293,-9696.697840,-666.185348,919.314598
2980.868631,-9992.780217,-222.061783,2374.896044
2980.868968,-9474.636058,1406.391290,612.876398
2980.869306,-9548.656652,1480.411884,0.000000
2980.869643,-9992.780217,2294.638420,766.095498
2980.869981,-9178.553681,962.267725,766.095498
2980.870318,-9992.780217,1036.288319,2145.067394
2980.870656,-10066.800811,296.082377,1072.533697
2980.870993,-9252.574275,0.000000,229.828649
2980.871331,-9178.553681,74.020594,229.828649
2980.871668,-9844.739029,-296.082377,-612.876398
2980.872006,-9696.697840,-666.185348,-1302.362347
2980.872343,-9992.780217,-1184.329507,-1915.238745
2980.872681,-9622.677246,-1924.535449,-1685.410096
2980.873018,-9474.636058,-2516.700203,-76.609550
2980.873355,-10066.800811,-2294.638420,919.314598
2980.873693,-10436.903782,-1628.453072,536.266849
2980.874030,-11029.068536,-1184.329507,76.609550
2980.874368,-10955.047942,-814.226536,0.000000
2980.874705,-10955.047942,-1702.473667,-306.438199
2980.875043,-11251.130318,-1998.556043,306.438199
2980.875380,-10955.047942,-1554.432478,1149.143247
2980.875718,-10881.027347,-814.226536,689.485948
2980.876055,-10955.047942,74.020594,612.876398
2980.876393,-10807.006753,1184.329507,229.828649
2980.876730,-10955.047942,1332.370696,-1378.971896
2980.877068,-10658.965565,-370.102971,-689.485948
2980.877405,-10066.800811,0.000000,153.219100
2980.877743,-9696.697840,222.061783,1302.362347
2980.878080,-9622.677246,370.102971,919.314598
2980.878418,-9548.656652,1036.288319,383.047749
2980.878755,-9252.574275,666.185348,-459.657299
2980.879093,-9474.636058,962.267725,-612.876398
2980.879430,-10066.800811,0.000000,-1225.752797
2980.879767,-9252.574275,-592.164754,-689.485948
2980.880105,-9326.594869,-1184.329507,0.000000
2980.880442,-8512.368333,-296.082377,383.047749
2980.880780,-8882.471304,148.041188,229.828649
2980.881117,-9696.697840,296.082377,612.876398
2980.881455,-9844.739029,148.041188,-229.828649
2980.881792,-9326.594869,740.205942,842.705048
2980.882130,-10732.986159,888.247130,2451.505594
2980.882467,-11621.233289,1110.308913,1685.410096
2980.882805,-10881.027347,1406.391290,766.095498
2980.883142,-10584.944971,1036.288319,1378.971896
2980.883480,-10288.862594,370.102971,1149.143247
2980.883817,-9622.677246,814.226536,1225.752797
2980.884155,-10288.862594,-592.164754,1149.143247
2980.884492,-10510.924376,-666.185348,919.314598
2980.884830,-10066.800811,0.000000,-383.047749
2980.885167,-10436.903782,740.205942,-383.047749
2980.885504,-10140.821405,-518.144159,-536.266849
2980.885842,-9992.780217,-1110.308913,-1532.190996
2980.886179,-9844.739029,-1332.370696,-1225.752797
2980.886517,-9474.636058,-1628.453072,-612.876398
2980.886854,-8734.430116,-2886.803174,0.000000
2980.887192,-8808.450710,-2738.761985,0.000000
2980.887529,-9992.780217,-2294.638420,536.266849
2980.887867,-10436.903782,-1924.535449,76.609550
2980.888204,-10436.903782,-3034.844362,-306.438199
2980.888542,-9622.677246,-2738.761985,-306.438199
2980.888879,-9326.594869,-2812.782580,995.924147
2980.889217,-10140.821405,-1850.514855,1838.629195
2980.889554,-9918.759623,-666.185348,689.485948
2980.889892,-9770.718434,-518.144159,1225.752797
2980.890229,-10881.027347,740.205942,2068.457845
2980.890567,-10807.006753,740.205942,1225.752797
2980.890904,-10658.965565,1628.453072,1302.362347
2980.891241,-12065.356855,814.226536,1149.143247
2980.891579,-10732.986159,1332.370696,0.000000
2980.891916,-10140.821405,1776.494261,0.000000
2980.892254,-9326.594869,1110.308913,-153.219100
2980.892591,-9474.636058,296.082377,-1149.143247
2980.892929,-9548.656652,1110.308913,-1149.143247
2980.893266,-9252.574275,518.144159,-76.609550
2980.893604,-9474.636058,-296.082377,-766.095498
2980.893941,-9400.615463,222.061783,-689.485948
2980.894279,-10066.800811,444.123565,-76.609550
2980.894616,-10362.883188,-296.082377,-459.657299
2980.894954,-9770.718434,0.000000,-612.876398
2980.895291,-9178.553681,-1554.432478,0.000000
2980.895629,-9178.553681,-1554.432478,919.314598
2980.895966,-9696.697840,-2220.617826,1532.190996
2980.896304,-10436.903782,-1036.288319,1149.143247
2980.896641,-9992.780217,-222.061783,689.485948
2980.896979,-10214.842000,740.205942,306.438199
2980.897316,-10362.883188,444.123565,-306.438199
2980.897653,-10214.842000,296.082377,612.876398
2980.897991,-11177.109724,0.000000,1685.410096
2980.898328,-11029.068536,222.061783,1149.143247
2980.898666,-10658.965565,444.123565,842.705048
2980.899003,-10214.842000,1332.370696,306.438199
2980.899341,-10288.862594,148.041188,-1225.752797
2980.899678,-10140.821405,-518.144159,-1378.971896
2980.900016,-10140.821405,-1036.288319,-229.828649
2980.900353,-9992.780217,-1036.288319,-536.266849
2980.900691,-10066.800811,-740.205942,-1149.143247
2980.901028,-8882.471304,-666.185348,-1685.410096
2980.901366,-9178.553681,-1480.411884,-306.438199
2980.901703,-9844.739029,-962.267725,1455.581446
2980.902041,-9474.636058,-1998.556043,1072.533697
2980.902378,-10214.842000,-1480.411884,1915.238745
2980.902716,-10584.944971,-1332.370696,1149.143247
2980.903053,-10214.842000,-962.267725,1762.019645
2980.903390,-9844.739029,0.000000,1915.238745
2980.903728,-10140.821405,148.041188,1838.629195
2980.904065,-10288.862594,444.123565,842.705048
2980.904403,-8882.471304,296.082377,612.876398
2980.904740,-10140.821405,296.082377,1225.752797
2980.905078,-10436.903782,1258.350101,1072.533697
2980.905415,-10214.842000,1702.473667,536.266849
2980.905753,-10288.862594,2072.576638,-383.047749
2980.906090,-10214.842000,1480.411884,-459.657299
2980.906428,-10140.821405,1184.329507,-612.876398
2980.906765,-10658.965565,148.041188,306.438199
2980.907103,-10584.944971,-518.144159,153.219100
2980.907440,-9400.615463,-666.185348,-536.266849
2980.907778,-9400.615463,-740.205942,0.000000
2980.908115,-9548.656652,-1332.370696,-306.438199
2980.908453,-9770.718434,-1480.411884,-1685.410096
2980.908790,-9400.615463,-2590.720797,-2068.457845
2980.909127,-9030.512492,-1332.370696,-1685.410096
2980.909465,-10658.965565,-1480.411884,-612.876398
2980.909802,-10140.821405,-1036.288319,-1149.143247
2980.910140,-9252.574275,-1110.308913,-919.314598
2980.910477,-9474.636058,-1554.432478,842.705048
2980.910815,-9918.759623,-1258.350101,1378.971896
2980.911152,-10732.986159,-1332.370696,1915.238745
2980.911490,-10510.924376,-888.247130,1608.800546
2980.911827,-10732.986159,-1184.329507,1838.629195
2980.912165,-10214.842000,444.123565,306.438199
2980.912502,-10214.842000,888.247130,153.219100
2980.912840,-9770.718434,814.226536,229.828649
2980.913177,-10066.800811,148.041188,-689.485948
2980.913515,-10510.924376,444.123565,-306.438199
2980.913852,-9918.759623,814.226536,0.000000
2980.914190,-9326.594869,-370.102971,0.000000
2980.914527,-9770.718434,0.000000,1072.533697
2980.914865,-9622.677246,296.082377,842.705048
2980.915202,-10436.903782,-296.082377,689.485948
2980.915539,-9992.780217,-814.226536,459.657299
2980.915877,-9770.718434,-1258.350101,919.314598
2980.916214,-10510.924376,-1184.329507,1072.533697
2980.916552,-9474.636058,0.000000,612.876398
2980.916889,-8438.347739,-444.123565,919.314598
2980.917227,-8512.368333,-370.102971,459.657299
2980.917564,-8660.409521,296.082377,306.438199
2980.917902,-10436.903782,74.020594,995.924147
2980.918239,-10510.924376,222.061783,0.000000
2980.918577,-10362.883188,0.000000,153.219100
2980.918914,-10658.965565,444.123565,1608.800546
2980.919252,-9918.759623,592.164754,1685.410096
2980.919589,-10066.800811,962.267725,919.314598
2980.919927,-10140.821405,0.000000,229.828649
2980.920264,-9844.739029,0.000000,-153.219100
2980.920602,-10732.986159,-370.102971,-536.266849
2980.920939,-9474.636058,-592.164754,-2145.067394
2980.921276,-9844.739029,-666.185348,-1302.362347
2980.921614,-10362.883188,-962.267725,-1608.800546
2980.921951,-9622.677246,-592.164754,-1915.238745
2980.922289,-9992.780217,-814.226536,-1838.629195
2980.922626,-10881.027347,-2664.741391,0.000000
2980.922964,-11103.089130,-2442.679609,229.828649
2980.923301,-10658.965565,-3182.885551,76.609550
2980.923639,-10510.924376,-2146.597232,612.876398
2980.923976,-9474.636058,-2664.741391,995.924147
2980.924314,-9474.636058,-2146.597232,1149.143247
2980.924651,-9844.739029,-1480.411884,1455.581446
2980.924989,-11029.068536,0.000000,842.705048
2980.925326,-10658.965565,666.185348,0.000000
2980.925664,-10955.047942,888.247130,-306.438199
2980.926001,-10362.883188,592.164754,383.047749
2980.926339,-9622.677246,2146.597232,-306.438199
2980.926676,-10066.800811,962.267725,766.095498
2980.927014,-10066.800811,2146.597232,689.485948
2980.927351,-9474.636058,1184.329507,383.047749
2980.927688,-9918.759623,1702.473667,1149.143247
2980.928026,-10066.800811,1184.329507,0.000000
2980.928363,-10881.027347,444.123565,383.047749
2980.928701,-10140.821405,518.144159,459.657299
2980.929038,-7846.182985,518.144159,-536.266849
2980.929376,-8734.430116,888.247130,0.000000
2980.929713,-9474.636058,148.041188,76.609550
2980.930051,-9770.718434,74.020594,-1225.752797
2980.930388,-10214.842000,-222.061783,-153.219100
2980.930726,-10362.883188,296.082377,0.000000
2980.931063,-9400.615463,-74.020594,76.609550
2980.931401,-9622.677246,-1110.308913,1072.533697
2980.931738,-9400.615463,-1702.473667,2145.067394
2980.932076,-9622.677246,-1480.411884,2145.067394
2980.932413,-10732.986159,-666.185348,2681.334243
2980.932751,-10732.986159,-1332.370696,1455.581446
2980.933088,-10436.903782,-148.041188,1685.410096
2980.933425,-10362.883188,-148.041188,995.924147
2980.933763,-9918.759623,370.102971,612.876398
2980.934100,-10140.821405,-370.102971,0.000000
2980.934438,-10436.903782,-518.144159,-612.876398
2980.934775,-9622.677246,-888.247130,-1302.362347
2980.935113,-9770.718434,-1850.514855,-919.314598
2980.935450,-10807.006753,-2072.576638,536.266849
2980.935788,-9844.739029,-2220.617826,0.000000
2980.936125,-9696.697840,-1998.556043,0.000000
2980.936463,-9474.636058,-1110.308913,-1072.533697
2980.936800,-10140.821405,-2220.617826,-459.657299
2980.937138,-10140.821405,-1702.473667,0.000000
2980.937475,-10140.821405,-1480.411884,0.000000
2980.937813,-10732.986159,-1628.453072,842.705048
2980.938150,-10066.800811,-1036.288319,153.219100
2980.938488,-9622.677246,-1332.370696,1455.581446
2980.938825,-9992.780217,-518.144159,2068.457845
2980.939162,-9622.677246,0.000000,2068.457845
2980.939500,-10436.903782,444.123565,1302.362347
2980.939837,-10881.027347,1258.350101,-153.219100
2980.940175,-9844.739029,1184.329507,-306.438199
2980.940512,-9844.739029,1332.370696,536.266849
2980.940850,-9696.697840,1776.494261,383.047749
2980.941187,-10066.800811,2220.617826,0.000000
2980.941525,-10658.965565,1628.453072,0.000000
2980.941862,-10066.800811,814.226536,-842.705048
2980.942200,-10510.924376,0.000000,0.000000
2980.942537,-10362.883188,444.123565,76.609550
2980.942875,-9474.636058,1110.308913,-612.876398
2980.943212,-9844.739029,740.205942,-1915.238745
2980.943550,-9992.780217,-148.041188,-3140.991542
2980.943887,-8586.388927,-1036.288319,-2374.896044
2980.944225,-9178.553681,-1924.535449,-229.828649
2980.944562,-9474.636058,-2368.659014,1072.533697
2980.944900,-9474.636058,-666.185348,1532.190996
2980.945237,-10214.842000,-666.185348,1455.581446
2980.945574,-10955.047942,-740.205942,842.705048
2980.945912,-10362.883188,-1998.556043,229.828649
2980.946249,-9622.677246,-1184.329507,919.314598
2980.946587,-10510.924376,-1702.473667,2374.896044
2980.946924,-10807.006753,-666.185348,1608.800546
2980.947262,-9400.615463,518.144159,689.485948
2980.947599,-9992.780217,814.226536,153.219100
2980.947937,-10732.986159,888.247130,76.609550
2980.948274,-10955.047942,962.267725,-229.828649
2980.948612,-10807.006753,0.000000,-76.609550
2980.948949,-10436.903782,-148.041188,153.219100
2980.949287,-9622.677246,0.000000,1072.533697
2980.949624,-10214.842000,370.102971,1149.143247
2980.949962,-10066.800811,0.000000,229.828649
2980.950299,-10658.965565,-74.020594,0.000000
2980.950637,-10362.883188,-444.123565,-76.609550
2980.950974,-9474.636058,-1184.329507,-766.095498
2980.951311,-9548.656652,-740.205942,383.047749
2980.951649,-8882.471304,-814.226536,229.828649
2980.951986,-9400.615463,0.000000,842.705048
2980.952324,-9474.636058,148.041188,306.438199
2980.952661,-9326.594869,-444.123565,766.095498
2980.952999,-9178.553681,-444.123565,1302.362347
2980.953336,-9548.656652,-1110.308913,1608.800546
2980.953674,-10288.862594,74.020594,1915.238745
2980.954011,-10732.986159,74.020594,2987.772442
2980.954349,-10140.821405,1036.288319,1072.533697
2980.954686,-9844.739029,888.247130,76.609550
2980.955024,-10955.047942,1332.370696,229.828649
2980.955361,-10066.800811,0.000000,-842.705048
2980.955699,-9992.780217,-814.226536,-1455.581446
2980.956036,-9474.636058,-592.164754,-383.047749
2980.956374,-9918.759623,0.000000,-76.609550
2980.956711,-10584.944971,148.041188,-842.705048
2980.957048,-11177.109724,-592.164754,-1072.533697
2980.957386,-10732.986159,-1332.370696,-842.705048
2980.957723,-9696.697840,-2368.659014,-383.047749
2980.958060,-9548.656652,-2516.700203,0.000000
2980.958398,-10066.800811,-1924.535449,919.314598
2980.958735,-10362.883188,-1924.535449,76.609550
2980.959072,-9918.759623,-518.144159,459.657299
2980.959410,-10510.924376,-1184.329507,0.000000
2980.959747,-10436.903782,-1480.411884,153.219100
2980.960085,-10140.821405,-1628.453072,536.266849
2980.960422,-9474.636058,-1110.308913,995.924147
2980.960759,-9548.656652,-444.123565,2528.115143
2980.961097,-9844.739029,518.144159,2068.457845
2980.961434,-9622.677246,1184.329507,1608.800546
2980.961771,-10140.821405,962.267725,1072.533697
2980.962109,-10807.006753,148.041188,383.047749
2980.962446,-9622.677246,370.102971,0.000000
2980.962783,-9400.615463,0.000000,1149.143247
2980.963121,-9696.697840,1332.370696,1838.629195
2980.963458,-9770.718434,1332.370696,0.000000
2980.963796,-10066.800811,1628.453072,-995.924147
2980.964133,-9992.780217,-222.061783,-1302.362347
2980.964470,-9252.574275,-518.144159,-612.876398
2980.964808,-8364.327145,-296.082377,-919.314598
2980.965145,-9474.636058,-1036.288319,689.485948
2980.965482,-10288.862594,-592.164754,842.705048
2980.965820,-9696.697840,518.144159,-536.266849
2980.966157,-10584.944971,1036.288319,-306.438199
2980.966494,-10732.986159,222.061783,-612.876398
2980.966832,-10955.047942,-1110.308913,-766.095498
2980.967169,-10140.821405,-1480.411884,536.266849
2980.967507,-9474.636058,-814.226536,1838.629195
2980.967844,-10066.800811,222.061783,2451.505594
2980.968181,-10140.821405,148.041188,1685.410096
2980.968519,-10140.821405,0.000000,1225.752797
2980.968856,-11325.150913,-1110.308913,1302.362347
2980.969193,-10881.027347,-296.082377,1149.143247
2980.969531,-9474.636058,222.061783,383.047749
2980.969868,-10510.924376,666.185348,153.219100
2980.970205,-10658.965565,518.144159,-1072.533697
2980.970543,-9696.697840,296.082377,-2451.505594
2980.970880,-9844.739029,-296.082377,-1608.800546
2980.971218,-9400.615463,-1776.494261,-1532.190996
2980.971555,-8882.471304,-1998.556043,-1225.752797
2980.971892,-9030.512492,-1406.391290,0.000000
2980.972230,-10288.862594,-1480.411884,306.438199
2980.972567,-9992.780217,-740.205942,919.314598
2980.972904,-10436.903782,-370.102971,383.047749
2980.973242,-10584.944971,-518.144159,459.657299
2980.973579,-10584.944971,-1036.288319,1072.533697
2980.973916,-10066.800811,-518.144159,2451.505594
2980.974254,-10362.883188,-148.041188,2987.772442
2980.974591,-10732.986159,1036.288319,2145.067394
2980.974929,-10584.944971,2812.782580,459.657299
2980.975266,-10510.924376,2146.597232,-536.266849
2980.975603,-9918.759623,740.205942,-1225.752797
2980.975941,-9178.553681,592.164754,76.609550
2980.976278,-9252.574275,1924.535449,1302.362347
2980.976615,-9844.739029,1850.514855,1072.533697
2980.976953,-11177.109724,1258.350101,153.219100
2980.977290,-10140.821405,1480.411884,-229.828649
2980.977627,-9474.636058,518.144159,766.095498
2980.977965,-10066.800811,-222.061783,919.314598
2980.978302,-9400.615463,-1702.473667,-153.219100
2980.978639,-9474.636058,-1850.514855,-459.657299
2980.978977,-9104.533087,-1258.350101,-995.924147
2980.979314,-8364.327145,-1258.350101,-1072.533697
2980.979652,-9918.759623,-592.164754,-612.876398
2980.979989,-10510.924376,-2220.617826,-1838.629195
2980.980326,-9992.780217,-1554.432478,-1378.971896
2980.980664,-9474.636058,-2294.638420,76.609550
2980.981001,-10066.800811,-2516.700203,2298.286494
2980.981338,-9918.759623,-1628.453072,2911.162892
2980.981676,-10362.883188,-740.205942,1838.629195
2980.982013,-10807.006753,0.000000,1302.362347
2980.982350,-11473.192101,-740.205942,229.828649
2980.982688,-11473.192101,-1332.370696,919.314598
2980.983025,-10658.965565,-1184.329507,919.314598
2980.983363,-9770.718434,0.000000,1302.362347
2980.983700,-9178.553681,444.123565,229.828649
2980.984037,-10362.883188,222.061783,229.828649
2980.984375,-10436.903782,-740.205942,-383.047749
2980.984712,-10066.800811,-1184.329507,-919.314598
2980.985049,-9474.636058,-740.205942,-1149.143247
2980.985387,-9178.553681,-666.185348,153.219100
2980.985724,-10288.862594,370.102971,689.485948
2980.986061,-9770.718434,-296.082377,-459.657299
2980.986399,-9770.718434,740.205942,-995.924147
2980.986736,-10288.862594,-592.164754,-612.876398
2980.987074,-10214.842000,-1258.350101,76.609550
2980.987411,-8882.471304,-888.247130,-153.219100
2980.987748,-8734.430116,-592.164754,1608.800546
2980.988086,-9178.553681,222.061783,2221.676944
2980.988423,-9474.636058,1924.535449,1072.533697
2980.988760,-10510.924376,1702.473667,536.266849
2980.989098,-11177.109724,2516.700203,-306.438199
2980.989435,-11325.150913,296.082377,-459.657299
2980.989772,-10214.842000,888.247130,1455.581446
2980.990110,-9178.553681,814.226536,1915.238745
2980.990447,-9548.656652,1924.535449,1072.533697
2980.990785,-9918.759623,1702.473667,-306.438199
2980.991122,-10362.883188,740.205942,-1608.800546
2980.991459,-10510.924376,518.144159,-995.924147
2980.991797,-10362.883188,-1184.329507,-1072.533697
2980.992134,-9548.656652,0.000000,-536.266849
2980.992471,-10214.842000,-222.061783,-153.219100
2980.992809,-10214.842000,296.082377,-1149.143247
2980.993146,-9474.636058,0.000000,-766.095498
2980.993483,-10436.903782,-1924.535449,-766.095498
2980.993821,-10214.842000,-1776.494261,-459.657299
2980.994158,-9548.656652,-2664.741391,0.000000
2980.994496,-10214.842000,-1776.494261,1915.238745
2980.994833,-9474.636058,-1628.453072,1378.971896
2980.995170,-10066.800811,-296.082377,1762.019645
2980.995508,-10066.800811,-962.267725,1532.190996
2980.995845,-10510.924376,-888.247130,1915.238745
2980.996182,-10658.965565,-444.123565,1455.581446
2980.996520,-9622.677246,518.144159,1378.971896
2980.996857,-10584.944971,370.102971,2451.505594
2980.997194,-9918.759623,1258.350101,612.876398
2980.997532,-9548.656652,2220.617826,0.000000
2980.997869,-10362.883188,1998.556043,306.438199
2980.998207,-10288.862594,888.247130,-229.828649
2980.998544,-10362.883188,0.000000,-76.609550
2980.998881,-9770.718434,-222.061783,689.485948
2980.999219,-9104.533087,296.082377,1149.143247
2980.999556,-10066.800811,1110.308913,306.438199
2980.999893,-10066.800811,296.082377,-689.485948
2981.000231,-10362.883188,222.061783,-766.095498
2981.000568,-10288.862594,-1332.370696,-919.314598
2981.000905,-8660.409521,-814.226536,-995.924147
2981.001243,-9474.636058,-2146.597232,229.828649
2981.001580,-10362.883188,-1036.288319,842.705048
2981.001918,-9326.594869,-1332.370696,-536.266849
2981.002255,-9770.718434,-1332.370696,383.047749
2981.002592,-9844.739029,-1554.432478,1685.410096
2981.002930,-10140.821405,-1850.514855,1225.752797
2981.003267,-10807.006753,-888.247130,1225.752797
2981.003604,-10066.800811,-666.185348,1225.752797
2981.003942,-10584.944971,0.000000,842.705048
2981.004279,-10214.842000,-592.164754,689.485948
2981.004616,-10362.883188,148.041188,0.000000
2981.004954,-10436.903782,592.164754,-995.924147
2981.005291,-10140.821405,-444.123565,-1149.143247
2981.005628,-10066.800811,-740.205942,-1072.533697
2981.005966,-10955.047942,-1924.535449,-459.657299
2981.006303,-10288.862594,-444.123565,-995.924147
2981.006641,-10214.842000,-814.226536,-1532.190996
2981.006978,-9696.697840,-592.164754,-1532.190996
2981.007315,-9548.656652,-2220.617826,-612.876398
2981.007653,-9992.780217,-2664.741391,1072.533697
2981.007990,-9252.574275,-2146.597232,1455.581446
2981.008327,-10955.047942,-1184.329507,1838.629195
2981.008665,-9992.780217,0.000000,689.485948
2981.009002,-9622.677246,0.000000,153.219100
2981.009339,-10066.800811,-518.144159,536.266849
2981.009677,-9178.553681,-666.185348,229.828649
2981.010014,-9474.636058,0.000000,1378.971896
2981.010352,-9622.677246,1702.473667,1302.362347
2981.010689,-9030.512492,2146.597232,-306.438199
2981.011026,-10436.903782,1776.494261,919.314598
2981.011364,-10658.965565,1406.391290,766.095498
2981.011701,-9548.656652,1406.391290,689.485948
2981.012038,-9844.739029,1776.494261,1378.971896
2981.012376,-9992.780217,1184.329507,1838.629195
2981.012713,-10140.821405,814.226536,383.047749
2981.013050,-10436.903782,222.061783,-306.438199
2981.013388,-10658.965565,962.267725,0.000000
2981.013725,-10066.800811,814.226536,-995.924147
2981.014063,-9844.739029,-222.061783,-1991.848295
2981.014400,-9178.553681,-1628.453072,-1302.362347
2981.014737,-9178.553681,-1924.535449,-995.924147
2981.015075,-9622.677246,-296.082377,-229.828649
2981.015412,-10288.862594,-1258.350101,76.609550
2981.015749,-10362.883188,-740.205942,0.000000
2981.016087,-10288.862594,-1776.494261,76.609550
2981.016424,-10436.903782,-1480.411884,306.438199
2981.016761,-10066.800811,-1554.432478,2374.896044
2981.017099,-10436.903782,-1554.432478,2987.772442
2981.017436,-10436.903782,-296.082377,1455.581446
2981.017774,-10658.965565,296.082377,689.485948
2981.018111,-10214.842000,0.000000,1225.752797
2981.018448,-10362.883188,0.000000,0.000000
2981.018786,-9844.739029,222.061783,0.000000
2981.019123,-9474.636058,814.226536,-612.876398
2981.019460,-10066.800811,148.041188,-1072.533697
2981.019798,-9770.718434,148.041188,-459.657299
2981.020135,-10362.883188,74.020594,459.657299
2981.020472,-10436.903782,0.000000,0.000000
2981.020810,-9770.718434,370.102971,-995.924147
2981.021147,-10436.903782,-74.020594,0.000000
2981.021485,-9622.677246,-814.226536,383.047749
2981.021822,-9622.677246,-888.247130,306.438199
2981.022159,-9770.718434,-444.123565,1149.143247
2981.022497,-9992.780217,-1258.350101,1072.533697
2981.022834,-9770.718434,0.000000,1685.410096
2981.023171,-9622.677246,0.000000,1762.019645
2981.023509,-9918.759623,0.000000,1302.362347
2981.023846,-9918.759623,1110.308913,689.485948
2981.024183,-9918.759623,222.061783,306.438199
2981.024521,-10066.800811,1036.288319,1532.190996
2981.024858,-8882.471304,962.267725,536.266849
2981.025196,-10584.944971,814.226536,1225.752797
2981.025533,-11029.068536,0.000000,1378.971896
2981.025870,-10140.821405,0.000000,459.657299
2981.026208,-10066.800811,0.000000,689.485948
2981.026545,-9178.553681,-888.247130,-229.828649
2981.026882,-9104.533087,-1258.350101,-306.438199
2981.027220,-10214.842000,-1924.535449,-689.485948
2981.027557,-10362.883188,0.000000,-1915.238745
2981.027894,-10955.047942,-296.082377,-2068.457845
2981.028232,-10436.903782,-1406.391290,-2221.676944
2981.028569,-9252.574275,-2368.659014,-1378.971896
2981.028907,-9548.656652,-3330.926739,459.657299
2981.029244,-9548.656652,-3330.926739,995.924147
2981.029581,-10066.800811,-2664.741391,995.924147
2981.029919,-10436.903782,-2516.700203,842.705048
2981.030256,-10732.986159,-2294.638420,229.828649
2981.030593,-10214.842000,-1258.350101,459.657299
2981.030931,-10140.821405,-814.226536,306.438199
2981.031268,-10658.965565,-518.144159,689.485948
2981.031605,-10140.821405,370.102971,153.219100
2981.031943,-9622.677246,666.185348,153.219100
2981.032280,-10362.883188,518.144159,1149.143247
2981.032618,-11103.089130,444.123565,2374.896044
2981.032955,-10881.027347,888.247130,1455.581446
2981.033292,-9918.759623,1184.329507,0.000000
2981.033630,-9326.594869,888.247130,459.657299
2981.033967,-9770.718434,888.247130,689.485948
2981.034304,-10658.965565,888.247130,-919.314598
2981.034642,-9400.615463,1406.391290,-766.095498
2981.034979,-8660.409521,1184.329507,-995.924147
2981.035316,-8734.430116,0.000000,-1378.971896
2981.035654,-9326.594869,0.000000,-995.924147
2981.035991,-8734.430116,-222.061783,229.828649
2981.036328,-9770.718434,0.000000,536.266849
2981.036666,-10214.842000,-370.102971,459.657299
2981.037003,-10732.986159,74.020594,689.485948
2981.037341,-10362.883188,-1184.329507,229.828649
2981.037678,-9992.780217,-1184.329507,536.266849
2981.038015,-10362.883188,-74.020594,1532.190996
2981.038353,-10288.862594,0.000000,612.876398
2981.038690,-9548.656652,0.000000,1225.752797
2981.039027,-10732.986159,-444.123565,459.657299
2981.039365,-11177.109724,814.226536,1302.362347
2981.039702,-10362.883188,296.082377,459.657299
2981.040039,-10584.944971,148.041188,-153.219100
2981.040377,-11251.130318,222.061783,-153.219100
2981.040714,-10140.821405,0.000000,-612.876398
2981.041052,-10066.800811,-444.123565,0.000000
2981.041389,-9844.739029,-740.205942,153.219100
2981.041726,-10584.944971,-666.185348,229.828649
2981.042064,-9844.739029,-1110.308913,-766.095498
2981.042401,-9770.718434,-1406.391290,-612.876398
2981.042738,-9548.656652,-2146.597232,-306.438199
2981.043076,-8808.450710,-1332.370696,229.828649
2981.043413,-9548.656652,-888.247130,1455.581446
2981.043750,-11399.171507,-592.164754,842.705048
2981.044088,-11251.130318,-740.205942,536.266849
2981.044425,-9548.656652,-888.247130,766.095498
2981.044763,-9326.594869,-592.164754,2604.724693
2981.045100,-9992.780217,0.000000,3217.601092
2981.045437,-10066.800811,888.247130,2451.505594
2981.045775,-9548.656652,1554.432478,1532.190996
2981.046112,-9696.697840,962.267725,1455.581446
2981.046449,-9918.759623,3108.864956,1149.143247
2981.046787,-11103.089130,1628.453072,0.000000
2981.047124,-10807.006753,1332.370696,-76.609550
2981.047461,-8956.491898,1776.494261,-229.828649
2981.047799,-9178.553681,888.247130,766.095498
2981.048136,-9104.533087,1110.308913,995.924147
2981.048474,-10288.862594,148.041188,76.609550
2981.048811,-11103.089130,296.082377,-689.485948
2981.049148,-10362.883188,-888.247130,-2298.286494
2981.049486,-9770.718434,-1924.535449,-1838.629195
2981.049823,-8808.450710,-2738.761985,-689.485948
2981.050160,-8438.347739,-2886.803174,-383.047749
2981.050498,-9104.533087,-1850.514855,-306.438199
2981.050835,-10584.944971,-1480.411884,-76.609550
2981.051172,-10658.965565,-1998.556043,-842.705048
2981.051510,-10510.924376,-3034.844362,-76.609550
2981.051847,-10658.965565,-2664.741391,1072.533697
2981.052185,-10066.800811,-2220.617826,1378.971896
2981.052522,-10510.924376,-1850.514855,2604.724693
2981.052859,-10955.047942,-370.102971,1991.848295
2981.053197,-10881.027347,-518.144159,459.657299
2981.053534,-11251.130318,-370.102971,-536.266849
2981.053871,-10288.862594,-370.102971,-612.876398
2981.054209,-10732.986159,-814.226536,-842.705048
2981.054546,-9918.759623,-592.164754,-689.485948
2981.054883,-9030.512492,444.123565,-1072.533697
2981.055221,-9400.615463,592.164754,-229.828649
2981.055558,-10066.800811,666.185348,-919.314598
2981.055896,-10881.027347,-370.102971,-459.657299
2981.056233,-11029.068536,0.000000,-459.657299
2981.056570,-10436.903782,-1036.288319,842.705048
2981.056908,-10214.842000,-740.205942,689.485948
2981.057245,-9030.512492,-666.185348,1838.629195
2981.057582,-9030.512492,222.061783,1225.752797
2981.057920,-9992.780217,222.061783,0.000000
2981.058257,-9548.656652,74.020594,153.219100
2981.058594,-9326.594869,-370.102971,459.657299
2981.058931,-9178.553681,148.041188,153.219100
2981.059269,-9252.574275,1480.411884,1072.533697
2981.059606,-11029.068536,1406.391290,2298.286494
2981.059943,-10066.800811,2072.576638,536.266849
2981.060281,-9474.636058,1554.432478,1149.143247
2981.060618,-10955.047942,1850.514855,1838.629195
2981.060955,-10732.986159,296.082377,842.705048
2981.061292,-10066.800811,222.061783,536.266849
2981.061630,-9252.574275,0.000000,842.705048
2981.061967,-9178.553681,-148.041188,306.438199
2981.062304,-10066.800811,962.267725,-612.876398
2981.062641,-10510.924376,0.000000,-1991.848295
2981.062979,-9548.656652,-296.082377,-2757.943793
2981.063316,-10288.862594,-1184.329507,-1378.971896
2981.063653,-10214.842000,-1332.370696,-919.314598
2981.063991,-9918.759623,-1332.370696,153.219100
2981.064328,-10510.924376,-1110.308913,-153.219100
2981.064665,-10362.883188,-1702.473667,0.000000
2981.065002,-10955.047942,-1850.514855,153.219100
2981.065340,-10584.944971,-2516.700203,1225.752797
2981.065677,-10658.965565,-2664.741391,1915.238745
2981.066014,-9622.677246,-2220.617826,2068.457845
2981.066351,-9992.780217,-666.185348,1838.629195
2981.066689,-10807.006753,74.020594,2298.286494
2981.067026,-10362.883188,518.144159,0.000000
2981.067363,-10436.903782,592.164754,-612.876398
2981.067700,-9770.718434,296.082377,0.000000
2981.068038,-9400.615463,296.082377,612.876398
2981.068375,-9400.615463,740.205942,1991.848295
2981.068712,-10288.862594,1036.288319,1302.362347
2981.069050,-10510.924376,1406.391290,-383.047749
2981.069387,-9992.780217,1110.308913,-306.438199
2981.069724,-9252.574275,370.102971,-995.924147
2981.070061,-9474.636058,-444.123565,0.000000
2981.070399,-9326.594869,-1036.288319,306.438199
2981.070736,-9696.697840,0.000000,536.266849
2981.071073,-9992.780217,222.061783,0.000000
2981.071410,-10436.903782,0.000000,766.095498
2981.071748,-10066.800811,0.000000,153.219100
2981.072085,-10214.842000,-888.247130,76.609550
2981.072422,-10140.821405,-592.164754,1149.143247
2981.072760,-9918.759623,-1924.535449,689.485948
2981.073097,-10955.047942,-1110.308913,919.314598
2981.073434,-10214.842000,0.000000,842.705048
2981.073771,-10066.800811,0.000000,76.609550
2981.074109,-10807.006753,-148.041188,76.609550
2981.074446,-10066.800811,-1110.308913,76.609550
2981.074783,-9326.594869,-1258.350101,76.609550
2981.075120,-10510.924376,-740.205942,919.314598
2981.075458,-10362.883188,-666.185348,536.266849
2981.075795,-10214.842000,-222.061783,0.000000
2981.076132,-10584.944971,-296.082377,0.000000
2981.076470,-10066.800811,0.000000,-1532.190996
2981.076807,-10436.903782,-1924.535449,-1378.971896
2981.077144,-9622.677246,-2368.659014,-995.924147
2981.077481,-9178.553681,-1924.535449,-995.924147
2981.077819,-9178.553681,-1998.556043,-383.047749
2981.078156,-10214.842000,-1628.453072,-306.438199
2981.078493,-10510.924376,-2072.576638,-689.485948
2981.078830,-9622.677246,-1850.514855,-459.657299
2981.079168,-9326.594869,-1480.411884,842.705048
2981.079505,-9770.718434,-1628.453072,1915.238745
2981.079842,-10436.903782,-888.247130,2221.676944
2981.080180,-10807.006753,518.144159,1838.629195
2981.080517,-10732.986159,1036.288319,766.095498
2981.080854,-10658.965565,962.267725,1378.971896
2981.081191,-10955.047942,444.123565,1608.800546
2981.081529,-9844.739029,666.185348,1378.971896
2981.081866,-9030.512492,1184.329507,2298.286494
2981.082203,-9696.697840,1924.535449,1762.019645
2981.082540,-10288.862594,3256.906145,153.219100
2981.082878,-10658.965565,2590.720797,-1532.190996
2981.083215,-10510.924376,1702.473667,-842.705048
2981.083552,-9622.677246,592.164754,-995.924147
2981.083890,-9104.533087,222.061783,0.000000
2981.084227,-9400.615463,148.041188,612.876398
2981.084564,-9548.656652,0.000000,76.609550
2981.084901,-9918.759623,0.000000,-1378.971896
2981.085239,-9622.677246,-444.123565,-1149.143247
2981.085576,-9696.697840,-1628.453072,-536.266849
2981.085913,-9844.739029,-1480.411884,153.219100
2981.086250,-9252.574275,-1924.535449,842.705048
2981.086588,-9696.697840,-1554.432478,1072.533697
2981.086925,-10362.883188,-1036.288319,459.657299
2981.087262,-10732.986159,-888.247130,459.657299
2981.087600,-10140.821405,-888.247130,76.609550
2981.087937,-10436.903782,-1554.432478,306.438199
2981.088274,-10066.800811,-1480.411884,1225.752797
2981.088611,-9400.615463,-666.185348,1685.410096
2981.088949,-9918.759623,0.000000,1532.190996
2981.089286,-11251.130318,222.061783,153.219100
2981.089623,-11251.130318,592.164754,229.828649
2981.089960,-11103.089130,-74.020594,0.000000
2981.090298,-10732.986159,-74.020594,306.438199
2981.090635,-9548.656652,-592.164754,383.047749
2981.090972,-9696.697840,0.000000,306.438199
2981.091310,-9844.739029,0.000000,-459.657299
2981.091647,-10214.842000,370.102971,-1302.362347
2981.091984,-10732.986159,222.061783,-766.095498
2981.092321,-9844.739029,-962.267725,-1378.971896
2981.092659,-9844.739029,-962.267725,229.828649
2981.092996,-9326.594869,-444.123565,995.924147
2981.093333,-9548.656652,-666.185348,1915.238745
2981.093670,-9548.656652,444.123565,995.924147
2981.094008,-9548.656652,0.000000,1532.190996
2981.094345,-10140.821405,0.000000,1225.752797
2981.094682,-9918.759623,740.205942,1149.143247
2981.095019,-9474.636058,1110.308913,1302.362347
2981.095357,-9548.656652,444.123565,1685.410096
2981.095694,-9622.677246,592.164754,1532.190996
2981.096031,-9844.739029,1702.473667,842.705048
2981.096369,-10214.842000,1702.473667,-766.095498
2981.096706,-10584.944971,222.061783,-689.485948
2981.097043,-10658.965565,518.144159,-1608.800546
2981.097380,-8290.306550,-1110.308913,-1762.019645
2981.097718,-9104.533087,-1702.473667,0.000000
2981.098055,-9992.780217,-592.164754,153.219100
2981.098392,-10288.862594,0.000000,-1915.238745
2981.098729,-11325.150913,-1036.288319,-1685.410096
2981.099067,-10510.924376,-1998.556043,-2451.505594
2981.099404,-8956.491898,-2664.741391,-1532.190996
2981.099741,-9696.697840,-2368.659014,536.266849
2981.100079,-10436.903782,-3330.926739,1072.533697
2981.100416,-10807.006753,-2368.659014,459.657299
2981.100753,-11325.150913,-888.247130,612.876398
2981.101090,-11695.253884,-1332.370696,1072.533697
2981.101428,-11473.192101,-1258.350101,919.314598
2981.101765,-10214.842000,-1406.391290,306.438199
2981.102102,-9252.574275,-1110.308913,1532.190996
2981.102439,-10066.800811,0.000000,1991.848295
2981.102777,-9770.718434,-222.061783,2068.457845
2981.103114,-9622.677246,1110.308913,1225.752797
2981.103451,-10362.883188,888.247130,383.047749
2981.103789,-10807.006753,1924.535449,-229.828649
2981.104126,-10066.800811,0.000000,-459.657299
2981.104463,-8882.471304,74.020594,459.657299
2981.104800,-8734.430116,74.020594,383.047749
2981.105138,-9326.594869,666.185348,306.438199
2981.105475,-9548.656652,1406.391290,689.485948
2981.105812,-10066.800811,1480.411884,-536.266849
2981.106149,-10214.842000,0.000000,-1072.533697
2981.106487,-8882.471304,740.205942,-842.705048
2981.106824,-9696.697840,-740.205942,229.828649
2981.107161,-9622.677246,740.205942,-153.219100
2981.107499,-9400.615463,1110.308913,-306.438199
2981.107836,-10658.965565,888.247130,919.314598
2981.108173,-10510.924376,814.226536,-459.657299
2981.108510,-9918.759623,296.082377,229.828649
2981.108848,-10955.047942,222.061783,2374.896044
2981.109185,-10288.862594,370.102971,1532.190996
2981.109522,-10436.903782,1036.288319,766.095498
2981.109859,-10436.903782,296.082377,1455.581446
2981.110197,-10214.842000,518.144159,842.705048
2981.110534,-10658.965565,74.020594,306.438199
2981.110871,-9474.636058,148.041188,0.000000
2981.111209,-9474.636058,-444.123565,0.000000
2981.111546,-9622.677246,-666.185348,-1072.533697
2981.111883,-9844.739029,-962.267725,-306.438199
2981.112220,-9992.780217,-666.185348,-1685.410096
2981.112558,-9696.697840,-1036.288319,-1991.848295
2981.112895,-9474.636058,-2442.679609,-1608.800546
2981.113232,-8734.430116,-2220.617826,76.609550
2981.113569,-9844.739029,-2812.782580,1532.190996
2981.113907,-10066.800811,-1998.556043,1762.019645
2981.114244,-10214.842000,-1776.494261,1455.581446
2981.114581,-11843.295072,-814.226536,2068.457845
2981.114919,-10955.047942,-888.247130,766.095498
2981.115256,-9474.636058,-1036.288319,1455.581446
2981.115593,-10732.986159,148.041188,1838.629195
2981.115930,-9992.780217,-740.205942,1378.971896
2981.116268,-10214.842000,1184.329507,1532.190996
2981.116605,-10584.944971,1554.432478,1302.362347
2981.116942,-11103.089130,1110.308913,1225.752797
2981.117279,-10881.027347,0.000000,153.219100
2981.117617,-9474.636058,518.144159,1072.533697
2981.117954,-9474.636058,518.144159,1149.143247
2981.118291,-9104.533087,1036.288319,-536.266849
2981.118629,-8882.471304,370.102971,153.219100
2981.118966,-10881.027347,666.185348,-76.609550
2981.119303,-9770.718434,222.061783,-1302.362347
2981.119640,-9918.759623,74.020594,-1225.752797
2981.119978,-9474.636058,-1554.432478,0.000000
2981.120315,-9474.636058,-2590.720797,229.828649
2981.120652,-9696.697840,-1702.473667,459.657299
2981.120989,-9918.759623,-1258.350101,0.000000
2981.121327,-9696.697840,-1332.370696,-306.438199
2981.121664,-10584.944971,-1184.329507,-1149.143247
2981.122001,-9326.594869,-666.185348,-1762.019645
2981.122338,-9622.677246,-1480.411884,0.000000
2981.122676,-10807.006753,-1258.350101,612.876398
2981.123013,-10288.862594,-814.226536,0.000000
2981.123350,-11325.150913,296.082377,1149.143247
2981.123688,-11473.192101,370.102971,0.000000
2981.124025,-10584.944971,-296.082377,-306.438199
2981.124362,-9770.718434,148.041188,1149.143247
2981.124699,-11029.068536,-518.144159,1378.971896
2981.125037,-11325.150913,518.144159,383.047749
2981.125374,-9918.759623,-222.061783,-766.095498
2981.125711,-9696.697840,0.000000,-459.657299
2981.126048,-8956.491898,-1036.288319,-76.609550
2981.126386,-9252.574275,222.061783,0.000000
2981.126723,-10362.883188,-814.226536,536.266849
2981.127060,-10140.821405,-1110.308913,-536.266849
2981.127398,-9474.636058,-518.144159,-306.438199
2981.127735,-10214.842000,-74.020594,1225.752797
2981.128072,-9622.677246,0.000000,612.876398
2981.128409,-9918.759623,-296.082377,-306.438199
2981.128747,-9918.759623,-592.164754,306.438199
2981.129084,-8882.471304,518.144159,842.705048
2981.129421,-9400.615463,0.000000,1378.971896
2981.129758,-9770.718434,148.041188,1685.410096
2981.130096,-10362.883188,1776.494261,2145.067394
2981.130433,-10807.006753,1850.514855,1762.019645
2981.130770,-10140.821405,2368.659014,919.314598
2981.131108,-10066.800811,1110.308913,919.314598
2981.131445,-10955.047942,1036.288319,1149.143247
2981.131782,-9400.615463,592.164754,0.000000
2981.132119,-9770.718434,1258.350101,153.219100
2981.132457,-9030.512492,592.164754,459.657299
2981.132794,-9474.636058,0.000000,-383.047749
2981.133131,-10362.883188,-296.082377,-306.438199
2981.133468,-10584.944971,-740.205942,-459.657299
2981.133806,-9918.759623,-518.144159,-1225.752797
2981.134143,-9770.718434,-666.185348,-995.924147
2981.134480,-9918.759623,-962.267725,-383.047749
2981.134818,-9770.718434,-2072.576638,-536.266849
2981.135155,-10140.821405,-962.267725,-459.657299
2981.135492,-10140.821405,-1850.514855,0.000000
2981.135829,-10436.903782,-2072.576638,383.047749
2981.136167,-10436.903782,-1480.411884,612.876398
2981.136504,-10288.862594,-2146.597232,766.095498
2981.136841,-10362.883188,-1406.391290,1072.533697
2981.137178,-10288.862594,-1184.329507,1532.190996
2981.137516,-10436.903782,-370.102971,1302.362347
2981.137853,-9474.636058,-222.061783,842.705048
2981.138190,-10362.883188,0.000000,1149.143247
2981.138528,-10288.862594,296.082377,1455.581446
2981.138865,-9992.780217,444.123565,1302.362347
2981.139202,-10510.924376,518.144159,612.876398
2981.139539,-10140.821405,444.123565,-76.609550
2981.139877,-9178.553681,222.061783,0.000000
2981.140214,-9548.656652,-592.164754,0.000000
2981.140551,-9622.677246,0.000000,153.219100
2981.140888,-10140.821405,148.041188,-919.314598
2981.141226,-9844.739029,0.000000,-1225.752797
2981.141563,-9326.594869,-74.020594,-1915.238745
2981.141900,-9474.636058,-740.205942,-306.438199
2981.142238,-10066.800811,-814.226536,76.609550
2981.142575,-9474.636058,-888.247130,536.266849
2981.142912,-9992.780217,-592.164754,1149.143247
2981.143249,-10214.842000,-518.144159,766.095498
2981.143587,-10510.924376,-814.226536,306.438199
2981.143924,-10066.800811,222.061783,995.924147
2981.144261,-9844.739029,-814.226536,842.705048
2981.144598,-9178.553681,-666.185348,536.266849
2981.144936,-8586.388927,0.000000,0.000000
2981.145273,-9918.759623,222.061783,306.438199
2981.145610,-10288.862594,-444.123565,-306.438199
2981.145947,-10140.821405,222.061783,-536.266849
2981.146285,-10658.965565,888.247130,76.609550
2981.146622,-10288.862594,-592.164754,0.000000
2981.146959,-10510.924376,-444.123565,0.000000
2981.147297,-10584.944971,-1184.329507,-459.657299
2981.147634,-10510.924376,-740.205942,-612.876398
2981.147971,-9992.780217,-962.267725,-306.438199
2981.148308,-10658.965565,-1850.514855,-383.047749
2981.148646,-9844.739029,-1628.453072,-153.219100
2981.148983,-10510.924376,-1258.350101,-76.609550
2981.149320,-10288.862594,-148.041188,459.657299
2981.149657,-10436.903782,-518.144159,306.438199
2981.149995,-11103.089130,-740.205942,995.924147
2981.150332,-9844.739029,0.000000,995.924147
2981.150669,-9696.697840,370.102971,1685.410096
2981.151007,-10807.006753,-74.020594,2221.676944
2981.151344,-10140.821405,-296.082377,1838.629195
2981.151681,-9548.656652,1036.288319,1838.629195
2981.152018,-9252.574275,962.267725,1762.019645
2981.152356,-9474.636058,1850.514855,536.266849
2981.152693,-9918.759623,1406.391290,0.000000
2981.153030,-9770.718434,1258.350101,-919.314598
2981.153367,-9400.615463,1480.411884,0.000000
2981.153705,-9252.574275,666.185348,0.000000
2981.154042,-9548.656652,814.226536,1072.533697
2981.154379,-9548.656652,740.205942,0.000000
2981.154717,-9844.739029,1480.411884,-689.485948
2981.155054,-10066.800811,814.226536,-1225.752797
2981.155391,-10658.965565,-592.164754,-919.314598
2981.155728,-10214.842000,-592.164754,-1225.752797
2981.156066,-10066.800811,-1258.350101,-689.485948
2981.156403,-9622.677246,-296.082377,-919.314598
2981.156740,-10362.883188,-1184.329507,-383.047749
2981.157077,-10955.047942,-1184.329507,0.000000
2981.157415,-9548.656652,-370.102971,0.000000
2981.157752,-11029.068536,-1110.308913,766.095498
2981.158089,-11325.150913,-814.226536,1378.971896
2981.158427,-10881.027347,-1554.432478,1149.143247
2981.158764,-10214.842000,-1258.350101,2221.676944
2981.159101,-9252.574275,-740.205942,1455.581446
2981.159439,-9992.780217,-1036.288319,1455.581446
2981.159776,-10288.862594,-814.226536,842.705048
2981.160113,-10436.903782,-1332.370696,842.705048
2981.160451,-10436.903782,-666.185348,229.828649
2981.160788,-9474.636058,-518.144159,-383.047749
2981.161125,-9252.574275,74.020594,306.438199
2981.161463,-9548.656652,-962.267725,306.438199
2981.161800,-9770.718434,-814.226536,-766.095498
2981.162137,-9918.759623,-1184.329507,-842.705048
2981.162475,-9770.718434,-1850.514855,612.876398
2981.162812,-10214.842000,-1184.329507,995.924147
2981.163149,-9992.780217,-1036.288319,459.657299
2981.163487,-10066.800811,-666.185348,842.705048
2981.163824,-10510.924376,-296.082377,1072.533697
2981.164162,-10288.862594,148.041188,0.000000
2981.164499,-10140.821405,0.000000,459.657299
2981.164836,-10510.924376,-740.205942,919.314598
2981.165174,-9696.697840,222.061783,1532.190996
2981.165511,-9770.718434,1628.453072,1225.752797
2981.165848,-9770.718434,1406.391290,1302.362347
2981.166186,-10214.842000,592.164754,383.047749
2981.166523,-10362.883188,1924.535449,-383.047749
2981.166860,-9992.780217,592.164754,-612.876398
2981.167198,-9622.677246,222.061783,995.924147
2981.167535,-9252.574275,518.144159,76.609550
2981.167872,-9770.718434,0.000000,-536.266849
2981.168210,-10288.862594,-444.123565,-919.314598
2981.168547,-9400.615463,-1184.329507,-995.924147
2981.168885,-9474.636058,-1776.494261,-306.438199
2981.169222,-9178.553681,-814.226536,-306.438199
2981.169559,-10436.903782,-1110.308913,-1072.533697
2981.169897,-10584.944971,-814.226536,-1915.238745
2981.170234,-9696.697840,-1184.329507,-2757.943793
2981.170571,-10288.862594,-1110.308913,-1455.581446
2981.170909,-10288.862594,-1924.535449,-995.924147
2981.171246,-9844.739029,-2442.679609,-459.657299
2981.171583,-11029.068536,-1184.329507,612.876398
2981.171921,-11621.233289,-666.185348,1149.143247
2981.172258,-10436.903782,444.123565,76.609550
2981.172595,-10881.027347,-740.205942,612.876398
2981.172933,-10436.903782,-444.123565,1762.019645
2981.173270,-9104.533087,-666.185348,1532.190996
2981.173608,-10584.944971,148.041188,2451.505594
2981.173945,-10807.006753,666.185348,2451.505594
2981.174282,-10362.883188,1480.411884,612.876398
2981.174620,-10214.842000,2072.576638,-306.438199
2981.174957,-10362.883188,592.164754,0.000000
2981.175294,-9178.553681,148.041188,0.000000
2981.175632,-8660.409521,-444.123565,0.000000
2981.175969,-8956.491898,-444.123565,1225.752797
2981.176306,-9326.594869,518.144159,612.876398
2981.176644,-9474.636058,296.082377,0.000000
2981.176981,-10140.821405,814.226536,229.828649
2981.177318,-9918.759623,-444.123565,-536.266849
2981.177656,-9326.594869,-74.020594,536.266849
2981.177993,-9326.594869,-222.061783,229.828649
2981.178331,-9030.512492,0.000000,1455.581446
2981.178668,-10140.821405,0.000000,2528.115143
2981.179005,-10881.027347,0.000000,1378.971896
2981.179343,-10584.944971,296.082377,995.924147
2981.179680,-11177.109724,-296.082377,1225.752797
2981.180017,-9696.697840,0.000000,612.876398
2981.180355,-9178.553681,-814.226536,459.657299
2981.180692,-10436.903782,222.061783,2145.067394
2981.181029,-10288.862594,148.041188,612.876398
2981.181367,-10658.965565,592.164754,-306.438199
2981.181704,-11103.089130,444.123565,-229.828649
2981.182041,-10732.986159,-740.205942,-995.924147
2981.182379,-10214.842000,-740.205942,-689.485948
2981.182716,-9252.574275,-1554.432478,-919.314598
2981.183054,-9918.759623,-814.226536,0.000000
2981.183391,-10288.862594,-888.247130,-1302.362347
2981.183728,-9992.780217,-1036.288319,-1991.848295
2981.184066,-10584.944971,-2664.741391,-1378.971896
2981.184403,-9992.780217,-2664.741391,0.000000
2981.184740,-9548.656652,-2368.659014,0.000000
2981.185078,-9918.759623,-1924.535449,842.705048
2981.185415,-9696.697840,-1110.308913,536.266849
2981.185752,-9178.553681,-962.267725,0.000000
2981.186090,-10732.986159,-1110.308913,1455.581446
2981.186427,-10807.006753,148.041188,1378.971896
2981.186764,-11621.233289,-666.185348,919.314598
2981.187102,-9474.636058,0.000000,1608.800546
2981.187439,-9474.636058,1110.308913,2681.334243
2981.187777,-11251.130318,1924.535449,2681.334243
2981.188114,-10436.903782,1332.370696,-766.095498
2981.188451,-10510.924376,1480.411884,-689.485948
2981.188789,-9844.739029,296.082377,-1608.800546
2981.189126,-7698.141797,-666.185348,-919.314598
2981.189463,-7920.203579,296.082377,995.924147
2981.189801,-8438.347739,814.226536,612.876398
2981.190138,-9844.739029,1776.494261,-1608.800546
2981.190475,-11473.192101,1480.411884,-2451.505594
2981.190813,-11251.130318,0.000000,-2068.457845
2981.191150,-9770.718434,-1258.350101,-689.485948
2981.191487,-9400.615463,-2294.638420,153.219100
2981.191825,-8586.388927,-1036.288319,1685.410096
2981.192162,-10214.842000,-1110.308913,1455.581446
2981.192500,-10584.944971,-370.102971,76.609550
2981.192837,-10214.842000,0.000000,-689.485948
2981.193174,-11325.150913,-740.205942,0.000000
2981.193512,-11251.130318,-444.123565,383.047749
2981.193849,-9622.677246,-518.144159,689.485948
2981.194186,-9918.759623,0.000000,1838.629195
2981.194524,-10288.862594,0.000000,1685.410096
2981.194861,-10807.006753,888.247130,459.657299
2981.195198,-11473.192101,1184.329507,536.266849
2981.195536,-11177.109724,0.000000,-536.266849
2981.195873,-9548.656652,-592.164754,-306.438199
2981.196210,-8808.450710,-740.205942,459.657299
2981.196548,-8660.409521,-518.144159,919.314598
2981.196885,-9474.636058,-888.247130,-76.609550
2981.197223,-10140.821405,-370.102971,-766.095498
2981.197560,-9474.636058,370.102971,-536.266849
2981.197897,-9918.759623,-518.144159,919.314598
2981.198235,-10436.903782,-1258.350101,0.000000
2981.198572,-10584.944971,-1406.391290,919.314598
2981.198909,-9844.739029,370.102971,1072.533697
2981.199247,-9474.636058,296.082377,766.095498
2981.199584,-10584.944971,0.000000,612.876398
2981.199921,-9252.574275,0.000000,306.438199
2981.200259,-9844.739029,-592.164754,1149.143247
2981.200596,-9474.636058,-296.082377,1915.238745
2981.200933,-9474.636058,1110.308913,2451.505594
2981.201271,-10807.006753,2442.679609,1762.019645
2981.201608,-11843.295072,2442.679609,459.657299
2981.201946,-10955.047942,2368.659014,-229.828649
2981.202283,-10732.986159,1184.329507,536.266849
2981.202620,-9992.780217,-666.185348,536.266849
2981.202958,-8808.450710,-74.020594,995.924147
2981.203295,-8808.450710,-1184.329507,1225.752797
2981.203632,-9326.594869,-444.123565,-306.438199
2981.203970,-9548.656652,-814.226536,-1838.629195
2981.204307,-9844.739029,0.000000,-2145.067394
2981.204644,-9918.759623,-1332.370696,-2757.943793
2981.204982,-9918.759623,-2368.659014,-2604.724693
2981.205319,-9844.739029,-2368.659014,-459.657299
2981.205656,-9770.718434,-2368.659014,0.000000
2981.205994,-9400.615463,-1554.432478,229.828649
2981.206331,-10584.944971,-962.267725,-383.047749
2981.206669,-11029.068536,-1998.556043,-995.924147
2981.207006,-10436.903782,-2664.741391,0.000000
2981.207343,-10214.842000,-3775.050304,2068.457845
2981.207681,-10214.842000,-1406.391290,3600.648841
2981.208018,-11251.130318,-592.164754,2604.724693
2981.208355,-11103.089130,592.164754,1608.800546
2981.208693,-11399.171507,148.041188,1149.143247
2981.209030,-11177.109724,148.041188,306.438199
2981.209367,-9770.718434,74.020594,-459.657299
2981.209705,-8956.491898,-370.102971,0.000000
2981.210042,-9104.533087,148.041188,1225.752797
2981.210379,-9548.656652,888.247130,689.485948
2981.210717,-10658.965565,1480.411884,-153.219100
2981.211054,-11103.089130,296.082377,-76.609550
2981.211392,-10658.965565,592.164754,-383.047749
2981.211729,-9400.615463,74.020594,-766.095498
2981.212066,-8438.347739,-740.205942,153.219100
2981.212404,-8660.409521,74.020594,995.924147
2981.212741,-9178.553681,296.082377,-383.047749
2981.213078,-9992.780217,1036.288319,-153.219100
2981.213416,-10140.821405,0.000000,-995.924147
2981.213753,-9326.594869,370.102971,-919.314598
2981.214090,-9104.533087,-740.205942,536.266849
2981.214428,-9548.656652,-1184.329507,2374.896044
2981.214765,-9918.759623,518.144159,2681.334243
2981.215102,-10140.821405,1258.350101,689.485948
2981.215440,-10288.862594,1332.370696,-306.438199
2981.215777,-10214.842000,444.123565,-383.047749
2981.216115,-10436.903782,-296.082377,-153.219100
2981.216452,-9548.656652,0.000000,76.609550
2981.216789,-9548.656652,592.164754,536.266849
2981.217127,-10807.006753,1480.411884,689.485948
2981.217464,-11177.109724,518.144159,-229.828649
2981.217801,-11399.171507,0.000000,-612.876398
2981.218139,-10807.006753,-888.247130,-306.438199
2981.218476,-10214.842000,-2072.576638,229.828649
2981.218813,-9474.636058,-1776.494261,306.438199
2981.219151,-9918.759623,-2146.597232,76.609550
2981.219488,-9770.718434,-1406.391290,-1378.971896
2981.219825,-9992.780217,-1850.514855,-919.314598
2981.220163,-9992.780217,-888.247130,-306.438199
2981.220500,-10066.800811,-740.205942,-612.876398
2981.220838,-9992.780217,-1036.288319,0.000000
2981.221175,-9400.615463,-1702.473667,1608.800546
2981.221512,-9844.739029,-1776.494261,2374.896044
2981.221850,-10214.842000,0.000000,2451.505594
2981.222187,-10436.903782,888.247130,1915.238745
2981.222524,-10214.842000,1332.370696,1225.752797
2981.222862,-9918.759623,370.102971,1149.143247
2981.223199,-9770.718434,962.267725,1685.410096
2981.223536,-9622.677246,1998.556043,1072.533697
2981.223874,-9844.739029,1776.494261,612.876398
2981.224211,-10436.903782,1406.391290,0.000000
2981.224548,-10140.821405,1702.473667,0.000000
2981.224886,-9474.636058,1480.411884,-536.266849
2981.225223,-10214.842000,-74.020594,-153.219100
2981.225561,-9400.615463,0.000000,-459.657299
2981.225898,-9104.533087,-296.082377,-919.314598
2981.226235,-10436.903782,-148.041188,0.000000
2981.226573,-10066.800811,-444.123565,76.609550
2981.226910,-11029.068536,-1184.329507,-536.266849
2981.227247,-10288.862594,-1554.432478,-612.876398
2981.227585,-8956.491898,-1110.308913,0.000000
2981.227922,-9548.656652,-1776.494261,1762.019645
2981.228259,-9844.739029,-1776.494261,1072.533697
2981.228597,-10214.842000,-1332.370696,919.314598
2981.228934,-10732.986159,0.000000,612.876398
2981.229271,-10510.924376,-962.267725,306.438199
2981.229609,-10807.006753,-962.267725,842.705048
2981.229946,-10066.800811,-1480.411884,1072.533697
2981.230284,-9400.615463,-1554.432478,1225.752797
2981.230621,-9622.677246,-444.123565,1608.800546
2981.230958,-10658.965565,-518.144159,842.705048
2981.231296,-10584.944971,0.000000,-766.095498
2981.231633,-10066.800811,-1184.329507,-1838.629195
2981.231970,-9696.697840,-740.205942,-842.705048
2981.232308,-9918.759623,-1184.329507,-383.047749
2981.232645,-9400.615463,-1480.411884,153.219100
2981.232982,-10066.800811,-148.041188,-919.314598
2981.233320,-10955.047942,-370.102971,0.000000
2981.233657,-10584.944971,0.000000,-1225.752797
2981.233994,-10584.944971,-1258.350101,-383.047749
2981.234332,-9696.697840,-1480.411884,383.047749
2981.234669,-8660.409521,-1036.288319,842.705048
2981.235007,-9474.636058,-444.123565,1762.019645
2981.235344,-9844.739029,444.123565,1455.581446
2981.235681,-9770.718434,518.144159,766.095498
2981.236019,-11103.089130,1628.453072,1149.143247
2981.236356,-11251.130318,1480.411884,919.314598
2981.236693,-10140.821405,1036.288319,2374.896044
2981.237031,-10436.903782,1184.329507,2221.676944
2981.237368,-9104.533087,1850.514855,995.924147
2981.237705,-9770.718434,2072.576638,1072.533697
2981.238043,-10066.800811,666.185348,-766.095498
2981.238380,-8956.491898,962.267725,-1378.971896
2981.238717,-9326.594869,518.144159,-919.314598
2981.239055,-10362.883188,592.164754,-612.876398
2981.239392,-10066.800811,-370.102971,-1532.190996
2981.239730,-9844.739029,-444.123565,-1455.581446
2981.240067,-9696.697840,0.000000,-689.485948
2981.240404,-9696.697840,-814.226536,-306.438199
2981.240742,-9918.759623,-666.185348,76.609550
2981.241079,-10732.986159,-2368.659014,0.000000
2981.241416,-10732.986159,-2294.638420,536.266849
2981.241754,-10658.965565,-1480.411884,-306.438199
2981.242091,-10066.800811,-1184.329507,-306.438199
2981.242428,-9474.636058,-740.205942,76.609550
2981.242766,-10510.924376,-1258.350101,0.000000
2981.243103,-10362.883188,-962.267725,153.219100
2981.243440,-10658.965565,-1332.370696,2145.067394
2981.243778,-10658.965565,-592.164754,1762.019645
2981.244115,-9918.759623,-148.041188,1455.581446
2981.244453,-11029.068536,592.164754,1838.629195
2981.244790,-9844.739029,740.205942,995.924147
2981.245127,-9770.718434,370.102971,536.266849
2981.245465,-9918.759623,296.082377,536.266849
2981.245802,-9474.636058,296.082377,459.657299
2981.246139,-9918.759623,-74.020594,536.266849
2981.246477,-10066.800811,370.102971,0.000000
2981.246814,-10955.047942,370.102971,229.828649
2981.247151,-10140.821405,518.144159,-612.876398
2981.247489,-9178.553681,222.061783,-1072.533697
2981.247826,-9474.636058,296.082377,1225.752797
2981.248164,-10362.883188,-296.082377,1072.533697
2981.248501,-9474.636058,-444.123565,612.876398
2981.248838,-10362.883188,0.000000,766.095498
2981.249176,-9696.697840,0.000000,919.314598
2981.249513,-9622.677246,-370.102971,459.657299
2981.249850,-9992.780217,-740.205942,536.266849
2981.250188,-9474.636058,592.164754,1149.143247
2981.250525,-10955.047942,0.000000,1762.019645
2981.250862,-10362.883188,296.082377,842.705048
2981.251200,-9770.718434,0.000000,383.047749
2981.251537,-9992.780217,-518.144159,1608.800546
2981.251874,-9622.677246,-666.185348,842.705048
2981.252212,-10066.800811,-296.082377,383.047749
2981.252549,-9844.739029,0.000000,1149.143247
2981.252887,-9844.739029,-444.123565,-1455.581446
2981.253224,-10288.862594,-444.123565,-1838.629195
2981.253561,-10288.862594,-1184.329507,-2221.676944
2981.253899,-10066.800811,-1184.329507,-2221.676944
2981.254236,-9548.656652,-1406.391290,-1915.238745
2981.254573,-9104.533087,-1776.494261,-1608.800546
2981.254911,-9770.718434,-2146.597232,-766.095498
2981.255248,-9770.718434,-1924.535449,-306.438199
2981.255585,-11177.109724,-1184.329507,0.000000
2981.255923,-10214.842000,-1850.514855,0.000000
2981.256260,-10658.965565,-1332.370696,689.485948
2981.256597,-10510.924376,-1628.453072,2451.505594
2981.256935,-9918.759623,-1258.350101,1838.629195
2981.257272,-9326.594869,222.061783,1838.629195
2981.257609,-10658.965565,0.000000,2374.896044
2981.257947,-10955.047942,666.185348,1072.533697
2981.258284,-10584.944971,296.082377,-76.609550
2981.258621,-9548.656652,444.123565,995.924147
2981.258959,-8734.430116,1702.473667,459.657299
2981.259296,-9918.759623,1406.391290,383.047749
2981.259633,-10288.862594,1332.370696,-536.266849
2981.259971,-9252.574275,518.144159,-306.438199
2981.260308,-9844.739029,370.102971,536.266849
2981.260645,-9918.759623,740.205942,1302.362347
2981.260983,-9622.677246,592.164754,-306.438199
2981.261320,-10288.862594,296.082377,-76.609550
2981.261657,-9992.780217,-74.020594,-1302.362347
2981.261995,-9252.574275,-222.061783,-766.095498
2981.262332,-10362.883188,-1110.308913,0.000000
2981.262669,-10066.800811,-1036.288319,0.000000
2981.263006,-9918.759623,-1110.308913,-612.876398
2981.263344,-9770.718434,-592.164754,306.438199
2981.263681,-9474.636058,-962.267725,766.095498
2981.264018,-10066.800811,-740.205942,1838.629195
2981.264356,-10881.027347,0.000000,1225.752797
2981.264693,-10732.986159,444.123565,306.438199
2981.265030,-10658.965565,740.205942,76.609550
2981.265368,-10436.903782,518.144159,536.266849
2981.265705,-10140.821405,0.000000,612.876398
2981.266042,-10732.986159,592.164754,1302.362347
2981.266380,-10955.047942,592.164754,1072.533697
2981.266717,-9918.759623,0.000000,536.266849
2981.267054,-9770.718434,-962.267725,0.000000
2981.267392,-9918.759623,-1110.308913,536.266849
2981.267729,-9770.718434,-666.185348,0.000000
2981.268066,-9844.739029,-370.102971,-153.219100
2981.268404,-9474.636058,0.000000,-306.438199
2981.268741,-8956.491898,-444.123565,-1378.971896
2981.269078,-9474.636058,-370.102971,-1072.533697
2981.269415,-10436.903782,-1480.411884,-536.266849
2981.269753,-9474.636058,-740.205942,842.705048
2981.270090,-9252.574275,-370.102971,842.705048
2981.270427,-10214.842000,-518.144159,1608.800546
2981.270765,-9992.780217,0.000000,1302.362347
2981.271102,-10214.842000,-74.020594,1225.752797
2981.271439,-9844.739029,518.144159,2374.896044
2981.271777,-10214.842000,1036.288319,2834.553343
2981.272114,-10807.006753,1332.370696,2451.505594
2981.272451,-10955.047942,962.267725,1149.143247
2981.272789,-10362.883188,1406.391290,612.876398
2981.273126,-10214.842000,2368.659014,153.219100
2981.273463,-10288.862594,814.226536,0.000000
2981.273801,-9844.739029,444.123565,-459.657299
2981.274138,-10140.821405,-1036.288319,-1072.533697
2981.274475,-8956.491898,-888.247130,-536.266849
2981.274813,-8438.347739,-814.226536,-612.876398
2981.275150,-10288.862594,-592.164754,0.000000
2981.275487,-11325.150913,-1184.329507,-1302.362347
2981.275824,-9474.636058,-1332.370696,-2451.505594
2981.276162,-9622.677246,-1850.514855,-995.924147
2981.276499,-9474.636058,-1554.432478,0.000000
2981.276836,-10214.842000,-2294.638420,153.219100
2981.277174,-10066.800811,-1628.453072,766.095498
2981.277511,-10140.821405,-1850.514855,612.876398
2981.277848,-10881.027347,-1406.391290,1455.581446
2981.278186,-11103.089130,-1554.432478,536.266849
2981.278523,-8956.491898,-1036.288319,-1302.362347
2981.278860,-9696.697840,-1406.391290,689.485948
2981.279198,-9770.718434,-518.144159,2757.943793
2981.279535,-9622.677246,444.123565,2145.067394
2981.279872,-10288.862594,1406.391290,766.095498
2981.280210,-10955.047942,1628.453072,-612.876398
2981.280547,-11399.171507,1406.391290,0.000000
2981.280884,-10732.986159,888.247130,76.609550
2981.281222,-9252.574275,296.082377,536.266849
2981.281559,-9326.594869,370.102971,766.095498
2981.281896,-10658.965565,592.164754,383.047749
2981.282234,-10955.047942,444.123565,-1149.143247
2981.282571,-9992.780217,444.123565,-1149.143247
2981.282908,-8956.491898,0.000000,-1149.143247
2981.283245,-9252.574275,-666.185348,0.000000
2981.283583,-9104.533087,-814.226536,0.000000
2981.283920,-9178.553681,444.123565,1532.190996
2981.284257,-9992.780217,370.102971,0.000000
2981.284595,-11325.150913,888.247130,-383.047749
2981.284932,-10955.047942,444.123565,0.000000
2981.285269,-9844.739029,-740.205942,1532.190996
2981.285607,-8660.409521,-888.247130,2221.676944
2981.285944,-8956.491898,-1258.350101,2451.505594
2981.286281,-10066.800811,-444.123565,2068.457845
2981.286619,-9770.718434,0.000000,459.657299
2981.286956,-10510.924376,0.000000,0.000000
2981.287293,-10066.800811,-296.082377,-536.266849
2981.287631,-9696.697840,-222.061783,0.000000
2981.287968,-9992.780217,-592.164754,383.047749
2981.288305,-10214.842000,-592.164754,-153.219100
2981.288643,-10584.944971,-814.226536,0.000000
2981.288980,-11177.109724,222.061783,-689.485948
2981.289317,-10955.047942,-962.267725,-1762.019645
2981.289654,-10584.944971,-1554.432478,-1838.629195
2981.289992,-9844.739029,-2812.782580,-459.657299
2981.290329,-9474.636058,-2368.659014,0.000000
2981.290666,-9992.780217,-1332.370696,1455.581446
2981.291004,-11029.068536,-962.267725,229.828649
2981.291341,-11325.150913,-518.144159,-689.485948
2981.291678,-10881.027347,-666.185348,-536.266849
2981.292016,-9918.759623,-1110.308913,1302.362347
2981.292353,-9622.677246,-296.082377,1915.238745
2981.292690,-9474.636058,-592.164754,2374.896044
2981.293028,-9770.718434,0.000000,2451.505594
2981.293365,-10140.821405,1628.453072,2068.457845
2981.293702,-10584.944971,1184.329507,1149.143247
2981.294040,-10584.944971,740.205942,1608.800546
2981.294377,-9474.636058,518.144159,919.314598
2981.294714,-9474.636058,370.102971,919.314598
2981.295052,-8512.368333,1628.453072,1225.752797
2981.295389,-8586.388927,888.247130,229.828649
2981.295726,-10140.821405,1628.453072,-459.657299
2981.296064,-10658.965565,1110.308913,-995.924147
2981.296401,-9918.759623,1332.370696,-1685.410096
2981.296738,-9844.739029,-370.102971,-1072.533697
2981.297075,-10140.821405,-1332.370696,0.000000
2981.297413,-9178.553681,-1332.370696,459.657299
2981.297750,-9252.574275,-814.226536,-306.438199
2981.298087,-9326.594869,-666.185348,-153.219100
2981.298425,-10732.986159,-444.123565,-842.705048
2981.298762,-10584.944971,-1406.391290,-1225.752797
2981.299099,-10881.027347,-1480.411884,-1149.143247
2981.299437,-9696.697840,-1850.514855,459.657299
2981.299774,-9844.739029,-1036.288319,2451.505594
2981.300111,-10288.862594,-296.082377,1838.629195
2981.300449,-10732.986159,-148.041188,1608.800546
2981.300786,-10807.006753,-740.205942,383.047749
2981.301123,-11473.192101,-1258.350101,0.000000
2981.301461,-10436.903782,-1184.329507,0.000000
2981.301798,-9474.636058,-1110.308913,612.876398
2981.302135,-9178.553681,-888.247130,-612.876398
2981.302473,-9844.739029,-1036.288319,-1149.143247
2981.302810,-9622.677246,0.000000,-1302.362347
2981.303147,-9030.512492,-296.082377,-2221.676944
2981.303484,-10732.986159,-518.144159,-1915.238745
2981.303822,-9622.677246,-740.205942,-2298.286494
2981.304159,-10066.800811,-1480.411884,-229.828649
2981.304496,-9622.677246,-518.144159,536.266849
2981.304834,-10066.800811,74.020594,536.266849
2981.305171,-10584.944971,0.000000,995.924147
2981.305508,-10658.965565,-740.205942,766.095498
2981.305846,-10510.924376,-740.205942,2145.067394
2981.306183,-10436.903782,-74.020594,3217.601092
2981.306520,-9548.656652,814.226536,3217.601092
2981.306858,-10732.986159,2368.659014,2451.505594
2981.307195,-10658.965565,2738.761985,1072.533697
2981.307532,-10658.965565,2516.700203,153.219100
2981.307870,-10807.006753,1628.453072,383.047749
2981.308207,-8956.491898,740.205942,153.219100
2981.308544,-8734.430116,1184.329507,1915.238745
2981.308882,-9696.697840,962.267725,1149.143247
2981.309219,-9622.677246,1332.370696,153.219100
2981.309556,-9844.739029,962.267725,-536.266849
2981.309894,-9696.697840,0.000000,-612.876398
2981.310231,-9770.718434,-296.082377,-689.485948
2981.310568,-9326.594869,-1406.391290,-842.705048
2981.310905,-9104.533087,-1776.494261,-536.266849
2981.311243,-9326.594869,-1850.514855,0.000000
2981.311580,-9992.780217,-1480.411884,-536.266849
2981.311917,-10288.862594,-888.247130,-689.485948
2981.312255,-10807.006753,-1332.370696,-995.924147
2981.312592,-10658.965565,-1776.494261,-306.438199
2981.312929,-9770.718434,-1776.494261,0.000000
2981.313267,-9918.759623,-2072.576638,1532.190996
2981.313604,-10362.883188,-666.185348,1225.752797
2981.313941,-10955.047942,-888.247130,919.314598
2981.314279,-10584.944971,-518.144159,383.047749
2981.314616,-10732.986159,0.000000,612.876398
2981.314953,-11029.068536,-888.247130,1532.190996
2981.315291,-10140.821405,-1332.370696,2528.115143
2981.315628,-9992.780217,-444.123565,2604.724693
2981.315965,-9844.739029,740.205942,1608.800546
2981.316303,-10584.944971,1480.411884,1149.143247
2981.316640,-11325.150913,-222.061783,-612.876398
2981.316977,-10288.862594,370.102971,-1838.629195
2981.317314,-9770.718434,-518.144159,-1838.629195
2981.317652,-9474.636058,-148.041188,-459.657299
2981.317989,-8438.347739,-370.102971,-1532.190996
2981.318326,-8956.491898,-814.226536,-1532.190996
2981.318664,-9178.553681,0.000000,-995.924147
2981.319001,-9696.697840,0.000000,-689.485948
2981.319338,-10362.883188,-740.205942,229.828649
2981.319676,-9770.718434,-962.267725,1225.752797
2981.320013,-9696.697840,-518.144159,2451.505594
2981.320350,-10066.800811,0.000000,2987.772442
2981.320688,-11251.130318,518.144159,1685.410096
2981.321025,-11547.212695,814.226536,1608.800546
2981.321362,-10658.965565,222.061783,153.219100
2981.321700,-8882.471304,-296.082377,229.828649
2981.322037,-9844.739029,-740.205942,-689.485948
2981.322374,-9622.677246,-370.102971,1072.533697
2981.322712,-9770.718434,518.144159,76.609550
2981.323049,-9770.718434,1480.411884,-536.266849
2981.323386,-11103.089130,1110.308913,-1608.800546
2981.323724,-10881.027347,-296.082377,-2911.162892
2981.324061,-9178.553681,-1776.494261,-842.705048
2981.324398,-9178.553681,-666.185348,1378.971896
2981.324735,-9992.780217,-1110.308913,0.000000
2981.325073,-11843.295072,-1258.350101,-995.924147
2981.325410,-11177.109724,-1406.391290,-689.485948
2981.325747,-10436.903782,-1850.514855,-306.438199
2981.326085,-9400.615463,-1998.556043,153.219100
2981.326422,-9844.739029,-1036.288319,-306.438199
2981.326759,-9030.512492,-2294.638420,919.314598
2981.327097,-8660.409521,-1998.556043,536.266849
2981.327434,-10140.821405,-296.082377,1685.410096
2981.327771,-11621.233289,888.247130,536.266849
2981.328109,-10066.800811,592.164754,76.609550
2981.328446,-10955.047942,-296.082377,995.924147
2981.328783,-10214.842000,814.226536,2911.162892
2981.329121,-9252.574275,666.185348,2145.067394
2981.329458,-9474.636058,1036.288319,1608.800546
2981.329795,-9844.739029,1702.473667,689.485948
2981.330133,-10732.986159,2146.597232,0.000000
2981.330470,-10436.903782,1406.391290,-689.485948
2981.330807,-9178.553681,444.123565,-766.095498
2981.331144,-9178.553681,444.123565,842.705048
2981.331482,-9252.574275,888.247130,0.000000
2981.331819,-9844.739029,1998.556043,-536.266849
2981.332156,-10732.986159,592.164754,-1532.190996
2981.332494,-10140.821405,-518.144159,-1838.629195
2981.332831,-9918.759623,-814.226536,-306.438199
2981.333168,-9770.718434,-814.226536,536.266849
2981.333506,-9844.739029,-1776.494261,612.876398
2981.333843,-9178.553681,-1110.308913,229.828649
2981.334180,-9992.780217,-962.267725,383.047749
2981.334518,-9918.759623,-1480.411884,1378.971896
2981.334855,-10214.842000,-518.144159,1149.143247
2981.335192,-10732.986159,-1184.329507,919.314598
2981.335530,-10510.924376,-666.185348,459.657299
2981.335867,-9474.636058,-814.226536,0.000000
2981.336204,-9918.759623,-222.061783,995.924147
2981.336542,-9918.759623,-666.185348,612.876398
2981.336879,-10584.944971,-592.164754,76.609550
2981.337216,-11029.068536,-444.123565,-536.266849
2981.337553,-10140.821405,-444.123565,-1149.143247
2981.337891,-10362.883188,-1924.535449,0.000000
2981.338228,-10066.800811,-1776.494261,0.000000
2981.338565,-8512.368333,-592.164754,306.438199
2981.338903,-9770.718434,222.061783,0.000000
2981.339240,-10658.965565,0.000000,-612.876398
2981.339577,-11029.068536,-1036.288319,-1302.362347
2981.339915,-10584.944971,-1406.391290,-306.438199
2981.340252,-9770.718434,-1480.411884,459.657299
2981.340589,-9030.512492,-592.164754,919.314598
2981.340927,-8660.409521,-518.144159,995.924147
2981.341264,-9474.636058,222.061783,536.266849
2981.341601,-10066.800811,0.000000,76.609550
2981.341939,-10658.965565,-74.020594,995.924147
2981.342276,-10362.883188,444.123565,1762.019645
2981.342613,-9844.739029,370.102971,2374.896044
2981.342951,-9918.759623,1554.432478,2987.772442
2981.343288,-9918.759623,1332.370696,1838.629195
2981.343625,-9696.697840,1110.308913,1608.800546
2981.343963,-9992.780217,962.267725,153.219100
2981.344300,-9770.718434,444.123565,0.000000
2981.344637,-9918.759623,0.000000,0.000000
2981.344974,-10214.842000,-148.041188,-612.876398
2981.345312,-9474.636058,-518.144159,-1149.143247
2981.345649,-9178.553681,-148.041188,-1762.019645
2981.345986,-9770.718434,74.020594,-2528.115143
2981.346324,-9548.656652,-962.267725,-3217.601092
2981.346661,-8956.491898,-1850.514855,-1225.752797
2981.346998,-10066.800811,-2146.597232,0.000000
2981.347336,-10732.986159,-1480.411884,153.219100
2981.347673,-10214.842000,-1110.308913,-383.047749
2981.348010,-11473.192101,-1406.391290,306.438199
2981.348348,-11843.295072,-1406.391290,536.266849
2981.348685,-10584.944971,-1332.370696,842.705048
2981.349022,-10288.862594,-1258.350101,2451.505594
2981.349360,-10732.986159,-1184.329507,2374.896044
2981.349697,-11251.130318,-592.164754,2145.067394
2981.350034,-10436.903782,444.123565,1225.752797
2981.350372,-9918.759623,518.144159,536.266849
2981.350709,-10362.883188,740.205942,612.876398
2981.351046,-9696.697840,814.226536,-383.047749
2981.351383,-9548.656652,740.205942,76.609550
2981.351721,-10436.903782,1036.288319,0.000000
2981.352058,-10140.821405,296.082377,0.000000
2981.352395,-9696.697840,1406.391290,306.438199
2981.352733,-10214.842000,814.226536,153.219100
2981.353070,-9696.697840,1110.308913,-1302.362347
2981.353407,-9252.574275,-296.082377,-1072.533697
2981.353745,-9104.533087,-888.247130,-459.657299
2981.354082,-9104.533087,-666.185348,383.047749
2981.354419,-9326.594869,-222.061783,842.705048
2981.354757,-9696.697840,1184.329507,0.000000
2981.355094,-10658.965565,518.144159,0.000000
2981.355431,-10584.944971,74.020594,0.000000
2981.355769,-9400.615463,-296.082377,536.266849
2981.356106,-9844.739029,-222.061783,1762.019645
2981.356443,-10214.842000,444.123565,1608.800546
2981.356781,-10807.006753,-74.020594,2068.457845
2981.357118,-10807.006753,296.082377,1608.800546
2981.357455,-9400.615463,0.000000,1225.752797
2981.357793,-11843.295072,-518.144159,2757.943793
2981.358130,-10584.944971,-592.164754,1532.190996
2981.358467,-10140.821405,-962.267725,-689.485948
2981.358804,-11029.068536,0.000000,-383.047749
2981.359141,-9400.615463,-370.102971,-1915.238745
2981.359479,-9178.553681,-888.247130,-1455.581446
2981.359816,-9844.739029,-1406.391290,-1762.019645
2981.360153,-9474.636058,-1628.453072,-1762.019645
2981.360490,-10362.883188,-2072.576638,-1302.362347
2981.360827,-10436.903782,-1776.494261,-536.266849
2981.361165,-9622.677246,-1480.411884,-306.438199
2981.361502,-9622.677246,-1998.556043,-306.438199
2981.361839,-12213.398043,-1110.308913,0.000000
2981.362176,-10436.903782,-1554.432478,76.609550
2981.362513,-8808.450710,-1628.453072,3217.601092
2981.362851,-9844.739029,-1480.411884,3447.429741
2981.363188,-10436.903782,0.000000,1608.800546
2981.363525,-10807.006753,666.185348,919.314598
2981.363862,-10140.821405,518.144159,612.876398
2981.364200,-10658.965565,888.247130,1302.362347
2981.364537,-9474.636058,888.247130,1149.143247
2981.364874,-8660.409521,1110.308913,76.609550
2981.365211,-9400.615463,370.102971,842.705048
2981.365548,-9474.636058,740.205942,76.609550
2981.365886,-9326.594869,370.102971,0.000000
2981.366223,-9844.739029,1184.329507,-383.047749
2981.366560,-9326.594869,1110.308913,-383.047749
2981.366897,-9622.677246,0.000000,-536.266849
2981.367234,-9030.512492,296.082377,-459.657299
2981.367572,-9696.697840,0.000000,-1225.752797
2981.367909,-10732.986159,-1036.288319,-536.266849
2981.368246,-9622.677246,-1110.308913,-2068.457845
2981.368583,-9918.759623,-814.226536,-536.266849
2981.368920,-10658.965565,-1554.432478,-612.876398
2981.369258,-9474.636058,-1628.453072,-612.876398
2981.369595,-10214.842000,-1406.391290,689.485948
2981.369932,-9992.780217,-1332.370696,612.876398
2981.370269,-10140.821405,-740.205942,919.314598
2981.370607,-11251.130318,-666.185348,1838.629195
2981.370944,-10881.027347,-1258.350101,1302.362347
2981.371281,-10066.800811,-370.102971,1149.143247
2981.371618,-11029.068536,-444.123565,919.314598
2981.371955,-10436.903782,0.000000,1149.143247
2981.372293,-10140.821405,-370.102971,-459.657299
2981.372630,-9992.780217,-666.185348,0.000000
2981.372967,-9548.656652,-740.205942,0.000000
2981.373304,-9400.615463,-1036.288319,-306.438199
2981.373641,-9770.718434,-74.020594,-153.219100
2981.373979,-9178.553681,-814.226536,-1149.143247
2981.374316,-9696.697840,-296.082377,-766.095498
2981.374653,-9696.697840,0.000000,-536.266849
2981.374990,-9844.739029,-740.205942,-383.047749
2981.375327,-9770.718434,0.000000,612.876398
2981.375665,-9844.739029,370.102971,229.828649
2981.376002,-10066.800811,148.041188,995.924147
2981.376339,-9548.656652,518.144159,612.876398
2981.376676,-9622.677246,370.102971,766.095498
2981.377014,-10066.800811,740.205942,1225.752797
2981.377351,-9548.656652,74.020594,919.314598
2981.377688,-10066.800811,1332.370696,1762.019645
2981.378025,-9548.656652,2220.617826,1608.800546
2981.378362,-9770.718434,2220.617826,1455.581446
2981.378700,-11177.109724,2294.638420,689.485948
2981.379037,-9770.718434,1776.494261,0.000000
2981.379374,-9992.780217,888.247130,383.047749
2981.379711,-10140.821405,666.185348,766.095498
2981.380048,-9104.533087,444.123565,0.000000
2981.380386,-10214.842000,-222.061783,229.828649
2981.380723,-9992.780217,0.000000,-612.876398
2981.381060,-9326.594869,-1036.288319,-1608.800546
2981.381397,-10140.821405,-888.247130,-612.876398
2981.381734,-9622.677246,-1406.391290,-2068.457845
2981.382072,-10140.821405,-1924.535449,-766.095498
2981.382409,-10732.986159,-1998.556043,-459.657299
2981.382746,-9548.656652,-2516.700203,0.000000
2981.383083,-10955.047942,-1776.494261,1302.362347
2981.383421,-10584.944971,-2368.659014,995.924147
2981.383758,-10066.800811,-2220.617826,1225.752797
2981.384095,-10955.047942,-2294.638420,1838.629195
2981.384432,-11399.171507,-740.205942,1838.629195
2981.384769,-10510.924376,-962.267725,1072.533697
2981.385107,-11251.130318,-444.123565,1838.629195
2981.385444,-9992.780217,0.000000,1072.533697
2981.385781,-9918.759623,-370.102971,229.828649
2981.386118,-10140.821405,222.061783,919.314598
2981.386455,-9548.656652,148.041188,459.657299
2981.386793,-10214.842000,-740.205942,995.924147
2981.387130,-8956.491898,444.123565,612.876398
2981.387467,-9474.636058,1184.329507,612.876398
2981.387804,-9992.780217,1110.308913,-306.438199
2981.388141,-10140.821405,-222.061783,-2068.457845
2981.388479,-9400.615463,-814.226536,-1532.190996
2981.388816,-8438.347739,-1110.308913,-842.705048
2981.389153,-8290.306550,-666.185348,536.266849
2981.389490,-9474.636058,-222.061783,1455.581446
2981.389828,-10066.800811,-518.144159,-612.876398
2981.390165,-10955.047942,814.226536,-766.095498
2981.390502,-10658.965565,-222.061783,-536.266849
2981.390839,-9548.656652,-666.185348,306.438199
2981.391176,-9474.636058,-962.267725,1149.143247
2981.391514,-10140.821405,370.102971,612.876398
2981.391851,-10288.862594,888.247130,306.438199
2981.392188,-10881.027347,592.164754,383.047749
2981.392525,-11177.109724,518.144159,842.705048
2981.392862,-10658.965565,444.123565,-306.438199
2981.393200,-10510.924376,666.185348,229.828649
2981.393537,-10066.800811,148.041188,0.000000
2981.393874,-9992.780217,148.041188,919.314598
2981.394211,-10214.842000,444.123565,612.876398
2981.394548,-9252.574275,962.267725,-1072.533697
2981.394886,-10584.944971,148.041188,-689.485948
2981.395223,-10732.986159,-1258.350101,-766.095498
2981.395560,-9474.636058,-2072.576638,229.828649
2981.395897,-8364.327145,-1036.288319,919.314598
2981.396235,-9030.512492,222.061783,1991.848295
2981.396572,-10658.965565,0.000000,995.924147
2981.396909,-11843.295072,666.185348,383.047749
2981.397246,-10732.986159,518.144159,1225.752797
2981.397583,-10066.800811,74.020594,1455.581446
2981.397921,-9918.759623,74.020594,2911.162892
2981.398258,-9696.697840,0.000000,3600.648841
2981.398595,-9178.553681,1184.329507,4519.963438
2981.398932,-9474.636058,2960.823768,3524.039291
2981.399269,-10955.047942,3849.070898,3064.381992
2981.399607,-10807.006753,3627.009116,2374.896044
2981.399944,-11769.274478,2664.741391,1991.848295
2981.400281,-11325.150913,3256.906145,2451.505594
2981.400618,-9252.574275,2516.700203,2298.286494
2981.400955,-9474.636058,2886.803174,3907.087040
2981.401293,-8882.471304,2664.741391,2528.115143
2981.401630,-8512.368333,2886.803174,842.705048
2981.401967,-9326.594869,2442.679609,1838.629195
2981.402304,-10140.821405,222.061783,1685.410096
2981.402642,-10510.924376,1480.411884,1072.533697
2981.402979,-9696.697840,962.267725,459.657299
2981.403316,-9178.553681,592.164754,2145.067394
2981.403653,-9178.553681,296.082377,2528.115143
2981.403990,-9622.677246,148.041188,2834.553343
2981.404328,-9696.697840,1036.288319,2681.334243
2981.404665,-9770.718434,148.041188,1762.019645
2981.405002,-11695.253884,1036.288319,2374.896044
2981.405339,-11029.068536,222.061783,1991.848295
2981.405676,-10288.862594,814.226536,2604.724693
2981.406014,-8956.491898,0.000000,3753.867940
2981.406351,-10140.821405,1406.391290,4136.915689
2981.406688,-11029.068536,2146.597232,3907.087040
2981.407025,-10955.047942,2812.782580,1991.848295
2981.407362,-11547.212695,2368.659014,1072.533697
2981.407700,-11769.274478,2664.741391,766.095498
2981.408037,-11547.212695,1406.391290,1378.971896
2981.408374,-9252.574275,1110.308913,536.266849
2981.408711,-8216.285956,592.164754,1685.410096
2981.409049,-9326.594869,1776.494261,2987.772442
2981.409386,-9844.739029,1258.350101,2221.676944
2981.409723,-9770.718434,2960.823768,1225.752797
2981.410060,-10584.944971,2960.823768,995.924147
2981.410397,-10955.047942,1184.329507,229.828649
2981.410735,-11695.253884,1480.411884,1838.629195
2981.411072,-9548.656652,370.102971,1685.410096
2981.411409,-8142.265362,666.185348,2374.896044
2981.411746,-8438.347739,-518.144159,3140.991542
2981.412083,-8956.491898,444.123565,4519.963438
2981.412421,-8956.491898,1480.411884,5132.839837
2981.412758,-9548.656652,3627.009116,4903.011187
2981.413095,-10881.027347,5033.400406,3370.820191
2981.413432,-12583.501014,3775.050304,2911.162892
2981.413769,-11399.171507,4071.132681,2451.505594
2981.414107,-9548.656652,1924.535449,2451.505594
2981.414444,-9622.677246,2516.700203,2987.772442
2981.414781,-8364.327145,1776.494261,2221.676944
2981.415118,-10658.965565,1406.391290,1991.848295
2981.415456,-9548.656652,1554.432478,995.924147
2981.415793,-8882.471304,1406.391290,1149.143247
2981.416130,-10955.047942,2442.679609,2987.772442
2981.416467,-9474.636058,3552.988522,919.314598
2981.416804,-11621.233289,1850.514855,536.266849
2981.417142,-11991.336260,592.164754,153.219100
2981.417479,-10362.883188,0.000000,689.485948
2981.417816,-11399.171507,-888.247130,2987.772442
2981.418153,-9400.615463,-1184.329507,2145.067394
2981.418490,-9400.615463,-1480.411884,2221.676944
2981.418828,-9622.677246,-1184.329507,1838.629195
2981.419165,-8290.306550,-1480.411884,2145.067394
2981.419502,-9326.594869,296.082377,3064.381992
2981.419839,-9030.512492,1480.411884,3064.381992
2981.420176,-10436.903782,3404.947333,3447.429741
2981.420514,-12879.583391,3997.112087,3753.867940
2981.420851,-12583.501014,3478.967927,2987.772442
2981.421188,-11251.130318,2294.638420,2068.457845
2981.421525,-10288.862594,1184.329507,4136.915689
2981.421863,-9548.656652,518.144159,3447.429741
2981.422200,-8882.471304,518.144159,2145.067394
2981.422537,-7772.162391,1628.453072,2145.067394
2981.422874,-9252.574275,2886.803174,2604.724693
2981.423211,-9770.718434,4885.359217,306.438199
2981.423549,-10140.821405,4737.318029,-1072.533697
2981.423886,-10066.800811,5255.462188,536.266849
2981.424223,-11029.068536,3256.906145,1532.190996
2981.424560,-11991.336260,4145.153275,2451.505594
2981.424897,-10510.924376,2590.720797,1225.752797
2981.425235,-8808.450710,740.205942,2911.162892
2981.425572,-8808.450710,0.000000,4596.572988
2981.425909,-8734.430116,-148.041188,5439.278036
2981.426246,-8364.327145,1776.494261,4596.572988
2981.426583,-7846.182985,2664.741391,2911.162892
