#time,accel_x,accel_y,accel_z
3375.342952,-9992.780217,666.185348,1838.629195
3375.343289,-11325.150913,0.000000,1915.238745
3375.343627,-11103.089130,222.061783,1225.752797
3375.343964,-10362.883188,888.247130,689.485948
3375.344302,-9696.697840,1258.350101,612.876398
3375.344639,-10584.944971,740.205942,306.438199
3375.344977,-10436.903782,-518.144159,-459.657299
3375.345314,-9326.594869,74.020594,0.000000
3375.345652,-9104.533087,222.061783,-383.047749
3375.345989,-9326.594869,148.041188,-536.266849
3375.346327,-10955.047942,-888.247130,-689.485948
3375.346664,-10584.944971,-1406.391290,-1378.971896
3375.347002,-9622.677246,-1554.432478,-383.047749
3375.347339,-9622.677246,-1776.494261,76.609550
3375.347677,-9400.615463,-2368.659014,1225.752797
3375.348014,-9992.780217,-3627.009116,1532.190996
3375.348352,-10288.862594,-3404.947333,1149.143247
3375.348689,-9548.656652,-2738.761985,1378.971896
3375.349027,-10288.862594,-2072.576638,2451.505594
3375.349364,-10510.924376,-2220.617826,1838.629195
3375.349702,-10584.944971,-2664.741391,1838.629195
3375.350039,-10807.006753,-1554.432478,2528.115143
3375.350377,-10214.842000,-1110.308913,3524.039291
3375.350714,-10140.821405,-814.226536,4673.182538
3375.351052,-10658.965565,-1776.494261,5209.449386
3375.351389,-11325.150913,-1258.350101,3753.867940
3375.351726,-11029.068536,-1258.350101,3524.039291
3375.352064,-10807.006753,-740.205942,4290.134789
3375.352401,-9992.780217,-888.247130,3600.648841
3375.352739,-9844.739029,-740.205942,2298.286494
3375.353076,-9252.574275,-1480.411884,1378.971896
3375.353414,-9400.615463,-2442.679609,1149.143247
3375.353751,-9030.512492,-3108.864956,1225.752797
3375.354089,-8660.409521,-2368.659014,1838.629195
3375.354426,-8956.491898,-2220.617826,1991.848295
3375.354764,-9696.697840,-1480.411884,1608.800546
3375.355101,-10732.986159,-3034.844362,1608.800546
3375.355439,-9844.739029,-3404.947333,3064.381992
3375.355776,-9178.553681,-3182.885551,3370.820191
3375.356114,-9918.759623,-3108.864956,3753.867940
3375.356451,-9918.759623,-2960.823768,2911.162892
3375.356789,-10732.986159,-2220.617826,2757.943793
3375.357126,-9844.739029,-2812.782580,2068.457845
3375.357464,-8808.450710,-3849.070898,2528.115143
3375.357801,-9548.656652,-3182.885551,4366.744339
3375.358139,-9844.739029,-3701.029710,4749.792088
3375.358476,-10510.924376,-1924.535449,3064.381992
3375.358814,-11399.171507,-1332.370696,1455.581446
3375.359151,-11547.212695,-1184.329507,153.219100
3375.359489,-10436.903782,-1480.411884,-612.876398
3375.359826,-9548.656652,-3034.844362,-612.876398
3375.360163,-8956.491898,-3478.967927,689.485948
3375.360501,-9474.636058,-4441.235652,383.047749
3375.360838,-10214.842000,-4663.297435,1532.190996
3375.361176,-10214.842000,-4219.173869,689.485948
3375.361513,-9400.615463,-4515.256246,919.314598
3375.361851,-9400.615463,-4589.276840,2681.334243
3375.362188,-10288.862594,-4145.153275,3830.477490
3375.362526,-11399.171507,-2368.659014,3140.991542
3375.362863,-11029.068536,-592.164754,766.095498
3375.363201,-11029.068536,-1110.308913,-306.438199
3375.363538,-11325.150913,-2886.803174,1302.362347
3375.363876,-10288.862594,-4219.173869,2451.505594
3375.364213,-7698.141797,-2886.803174,2911.162892
3375.364551,-7328.038826,-1924.535449,4749.792088
3375.364888,-9770.718434,-2220.617826,5745.716235
3375.365226,-11473.192101,-2368.659014,5822.325785
3375.365563,-11029.068536,-814.226536,4903.011187
3375.365901,-10807.006753,2590.720797,3524.039291
3375.366238,-11029.068536,3404.947333,2681.334243
3375.366576,-11399.171507,2294.638420,995.924147
3375.366913,-9918.759623,-296.082377,995.924147
3375.367251,-7179.997637,-1554.432478,2451.505594
3375.367588,-8216.285956,-2516.700203,4979.620737
3375.367926,-11103.089130,-2886.803174,5439.278036
3375.368263,-10436.903782,-2368.659014,1685.410096
3375.368600,-8364.327145,-1332.370696,383.047749
3375.368938,-8882.471304,-1406.391290,1532.190996
3375.369275,-10214.842000,-1258.350101,2145.067394
3375.369613,-9918.759623,-370.102971,1378.971896
3375.369950,-9992.780217,-962.267725,1915.238745
3375.370288,-11399.171507,-962.267725,2451.505594
3375.370625,-12731.542202,-2442.679609,2221.676944
3375.370963,-11103.089130,-3404.947333,3217.601092
3375.371300,-8660.409521,-4515.256246,3140.991542
3375.371638,-8216.285956,-4515.256246,3447.429741
3375.371975,-8956.491898,-3775.050304,4903.011187
3375.372313,-9548.656652,-3627.009116,4979.620737
3375.372650,-11547.212695,-1480.411884,2757.943793
3375.372988,-12509.480420,-666.185348,383.047749
3375.373325,-11399.171507,222.061783,-766.095498
3375.373663,-10436.903782,-1924.535449,612.876398
3375.374000,-9992.780217,-3182.885551,1532.190996
3375.374338,-7772.162391,-3108.864956,1072.533697
3375.374675,-9252.574275,-4145.153275,919.314598
3375.375013,-10362.883188,-4737.318029,153.219100
3375.375350,-9548.656652,-5107.421000,229.828649
3375.375688,-9844.739029,-6069.688724,2528.115143
3375.376025,-9326.594869,-3923.091493,3294.210641
3375.376363,-9252.574275,-1924.535449,2145.067394
3375.376700,-11473.192101,-222.061783,919.314598
3375.377038,-10955.047942,-1258.350101,-306.438199
3375.377375,-11991.336260,-2812.782580,1838.629195
3375.377712,-10807.006753,-2220.617826,4519.963438
3375.378050,-8660.409521,-2368.659014,3983.696590
3375.378387,-9696.697840,-2220.617826,5515.887586
3375.378725,-9844.739029,-3330.926739,5286.058936
3375.379062,-10066.800811,-4145.153275,6052.154434
3375.379400,-10066.800811,-1998.556043,6052.154434
3375.379737,-9400.615463,1110.308913,4136.915689
3375.380075,-11547.212695,1998.556043,2145.067394
3375.380412,-12731.542202,666.185348,612.876398
3375.380750,-11029.068536,-1480.411884,0.000000
3375.381087,-7402.059420,-814.226536,1378.971896
3375.381425,-5995.668130,-1480.411884,2451.505594
3375.381762,-9474.636058,-3701.029710,4519.963438
3375.382100,-11621.233289,-5107.421000,2374.896044
3375.382437,-7698.141797,-4441.235652,919.314598
3375.382775,-8216.285956,-2886.803174,3064.381992
3375.383112,-10658.965565,-3923.091493,3907.087040
3375.383450,-12509.480420,-4219.173869,1608.800546
3375.383787,-9696.697840,-4219.173869,842.705048
3375.384125,-7624.121203,-2664.741391,2374.896044
3375.384462,-10362.883188,-3256.906145,4979.620737
3375.384800,-14285.974681,-4145.153275,3677.258390
3375.385137,-11695.253884,-4145.153275,306.438199
3375.385475,-8364.327145,-4293.194464,1225.752797
3375.385812,-8438.347739,-4293.194464,4519.963438
3375.386149,-10288.862594,-4145.153275,4596.572988
3375.386487,-9918.759623,-2886.803174,2681.334243
3375.386824,-8734.430116,-1850.514855,1608.800546
3375.387162,-12435.459826,-740.205942,3140.991542
3375.387499,-15248.242405,-666.185348,4290.134789
3375.387837,-11029.068536,0.000000,1532.190996
3375.388174,-8660.409521,148.041188,1378.971896
3375.388512,-10732.986159,-888.247130,1532.190996
3375.388849,-10214.842000,-2146.597232,0.000000
3375.389187,-7994.224174,-2960.823768,1302.362347
3375.389524,-7698.141797,-2664.741391,2681.334243
3375.389862,-9178.553681,-2738.761985,1608.800546
3375.390199,-10732.986159,-1036.288319,-612.876398
3375.390537,-10140.821405,-518.144159,1378.971896
3375.390874,-9178.553681,74.020594,2068.457845
3375.391212,-9992.780217,296.082377,1378.971896
3375.391549,-9548.656652,1998.556043,1915.238745
3375.391887,-10881.027347,0.000000,2068.457845
3375.392224,-11991.336260,-1406.391290,3064.381992
3375.392562,-10066.800811,-1332.370696,2604.724693
3375.392899,-8068.244768,0.000000,4213.525239
3375.393237,-9030.512492,0.000000,3677.258390
3375.393574,-9622.677246,-740.205942,1762.019645
3375.393912,-10881.027347,370.102971,1532.190996
3375.394249,-10658.965565,2072.576638,0.000000
3375.394586,-11695.253884,2294.638420,76.609550
3375.394924,-11029.068536,962.267725,-689.485948
3375.395261,-11029.068536,-962.267725,-1532.190996
3375.395599,-9474.636058,-2146.597232,0.000000
3375.395936,-8512.368333,-2368.659014,2298.286494
3375.396274,-8438.347739,-2590.720797,2528.115143
3375.396611,-10807.006753,-3849.070898,306.438199
3375.396949,-11325.150913,-3775.050304,-1302.362347
3375.397286,-10288.862594,-3701.029710,-766.095498
3375.397624,-9104.533087,-4441.235652,0.000000
3375.397961,-9030.512492,-3552.988522,842.705048
3375.398299,-9844.739029,-2072.576638,1225.752797
3375.398636,-11325.150913,-2516.700203,0.000000
3375.398974,-11399.171507,-2812.782580,0.000000
3375.399312,-11547.212695,-1998.556043,1991.848295
3375.399649,-10214.842000,-1850.514855,2374.896044
3375.399987,-9400.615463,-2442.679609,1455.581446
3375.400324,-9696.697840,-1998.556043,1762.019645
3375.400662,-9252.574275,-1554.432478,612.876398
3375.400999,-9474.636058,-1924.535449,919.314598
3375.401337,-9844.739029,814.226536,919.314598
3375.401674,-10066.800811,2072.576638,306.438199
3375.402012,-11695.253884,1554.432478,383.047749
3375.402349,-11917.315666,1628.453072,76.609550
3375.402687,-10807.006753,592.164754,-1149.143247
3375.403024,-8882.471304,74.020594,-995.924147
3375.403362,-8660.409521,592.164754,536.266849
3375.403699,-8438.347739,-148.041188,306.438199
3375.404037,-8882.471304,-666.185348,229.828649
3375.404374,-9548.656652,-1332.370696,1072.533697
3375.404712,-10510.924376,-296.082377,612.876398
3375.405049,-9844.739029,74.020594,-383.047749
3375.405387,-10732.986159,370.102971,229.828649
3375.405724,-10436.903782,518.144159,-1762.019645
3375.406062,-9992.780217,-1184.329507,-229.828649
3375.406399,-9992.780217,-444.123565,2451.505594
3375.406737,-8956.491898,222.061783,1072.533697
3375.407074,-10140.821405,518.144159,1378.971896
3375.407412,-11325.150913,518.144159,995.924147
3375.407749,-9696.697840,-1110.308913,-842.705048
3375.408087,-8956.491898,-888.247130,612.876398
3375.408424,-9474.636058,-296.082377,1991.848295
3375.408762,-10510.924376,0.000000,76.609550
3375.409099,-11621.233289,0.000000,-766.095498
3375.409437,-10658.965565,296.082377,-1225.752797
3375.409774,-9474.636058,-592.164754,-766.095498
3375.410112,-10955.047942,-962.267725,1072.533697
3375.410449,-10658.965565,-1036.288319,229.828649
3375.410787,-10807.006753,-1406.391290,-995.924147
3375.411125,-10066.800811,-2072.576638,-1072.533697
3375.411462,-9474.636058,-2294.638420,-383.047749
3375.411800,-8882.471304,-1776.494261,153.219100
3375.412137,-9696.697840,-2442.679609,1378.971896
3375.412475,-10362.883188,-1184.329507,1915.238745
3375.412812,-10584.944971,-296.082377,1225.752797
3375.413150,-10807.006753,0.000000,1455.581446
3375.413487,-11103.089130,-740.205942,1455.581446
3375.413825,-10288.862594,-296.082377,459.657299
3375.414162,-8586.388927,444.123565,2374.896044
3375.414500,-9770.718434,1036.288319,3677.258390
3375.414837,-9474.636058,1258.350101,2757.943793
3375.415175,-10362.883188,1480.411884,1149.143247
3375.415512,-10732.986159,1258.350101,0.000000
3375.415850,-9474.636058,1628.453072,-153.219100
3375.416187,-8808.450710,1406.391290,536.266849
3375.416525,-8660.409521,888.247130,919.314598
3375.416862,-9252.574275,1110.308913,-229.828649
3375.417200,-10288.862594,1480.411884,-1915.238745
3375.417537,-9696.697840,1406.391290,-2834.553343
3375.417875,-10732.986159,-74.020594,-2681.334243
3375.418212,-10140.821405,-814.226536,-1762.019645
3375.418550,-8808.450710,-1110.308913,-1915.238745
3375.418887,-9030.512492,-888.247130,-766.095498
3375.419225,-9474.636058,-1554.432478,-229.828649
3375.419562,-10510.924376,-1480.411884,0.000000
3375.419900,-11177.109724,-1332.370696,-306.438199
3375.420237,-11547.212695,-2220.617826,1685.410096
3375.420575,-11769.274478,-592.164754,2451.505594
3375.420912,-11029.068536,-148.041188,1072.533697
3375.421250,-10658.965565,-296.082377,76.609550
3375.421587,-9622.677246,0.000000,-1072.533697
3375.421925,-9770.718434,-1184.329507,-1225.752797
3375.422262,-9326.594869,-2220.617826,0.000000
3375.422600,-9252.574275,-962.267725,766.095498
3375.422937,-10807.006753,518.144159,612.876398
3375.423275,-11399.171507,74.020594,-1378.971896
3375.423613,-10658.965565,-592.164754,-1838.629195
3375.423950,-9030.512492,-1850.514855,-1149.143247
3375.424288,-8216.285956,-1258.350101,2145.067394
3375.424625,-10140.821405,-1998.556043,4136.915689
3375.424963,-10955.047942,-1036.288319,2451.505594
3375.425300,-10658.965565,-222.061783,306.438199
3375.425638,-10584.944971,-444.123565,-766.095498
3375.425975,-8882.471304,-1924.535449,-612.876398
3375.426313,-8438.347739,-2146.597232,919.314598
3375.426650,-8956.491898,-666.185348,2145.067394
3375.426988,-8512.368333,0.000000,383.047749
3375.427325,-10584.944971,0.000000,689.485948
3375.427663,-11177.109724,962.267725,1302.362347
3375.428000,-10214.842000,814.226536,1225.752797
3375.428338,-9918.759623,666.185348,2987.772442
3375.428675,-10214.842000,666.185348,3753.867940
3375.429013,-10288.862594,592.164754,3677.258390
3375.429350,-10658.965565,1036.288319,2374.896044
3375.429688,-10955.047942,1332.370696,1225.752797
3375.430025,-11177.109724,2146.597232,-919.314598
3375.430363,-9992.780217,0.000000,-1532.190996
3375.430700,-9622.677246,0.000000,306.438199
3375.431038,-9770.718434,-740.205942,-76.609550
3375.431375,-9326.594869,-518.144159,-2068.457845
3375.431713,-9770.718434,-444.123565,-2374.896044
3375.432050,-9400.615463,-1036.288319,-2221.676944
3375.432388,-8364.327145,-2294.638420,-1225.752797
3375.432725,-9844.739029,-1998.556043,306.438199
3375.433063,-10140.821405,-1332.370696,0.000000
3375.433400,-10362.883188,-1702.473667,-1455.581446
3375.433738,-10510.924376,-1850.514855,-1532.190996
3375.434075,-9918.759623,-1702.473667,-1149.143247
3375.434413,-9918.759623,-2812.782580,1608.800546
3375.434750,-10436.903782,-888.247130,2374.896044
3375.435088,-10658.965565,-888.247130,1149.143247
3375.435425,-10732.986159,1036.288319,459.657299
3375.435763,-11177.109724,888.247130,-536.266849
3375.436101,-10362.883188,0.000000,-612.876398
3375.436438,-9474.636058,0.000000,766.095498
3375.436776,-10658.965565,1480.411884,2834.553343
3375.437113,-11325.150913,2368.659014,536.266849
3375.437451,-10955.047942,2146.597232,-1225.752797
3375.437788,-11473.192101,1702.473667,-1302.362347
3375.438126,-9400.615463,296.082377,-2298.286494
3375.438463,-8438.347739,370.102971,153.219100
3375.438801,-8660.409521,0.000000,1455.581446
3375.439138,-9104.533087,-222.061783,76.609550
3375.439476,-10362.883188,-740.205942,-383.047749
3375.439813,-10436.903782,222.061783,-612.876398
3375.440151,-9252.574275,-296.082377,459.657299
3375.440488,-8808.450710,-1258.350101,1302.362347
3375.440826,-8734.430116,0.000000,2298.286494
3375.441163,-9252.574275,-518.144159,1378.971896
3375.441501,-11103.089130,-962.267725,919.314598
3375.441838,-10732.986159,-370.102971,995.924147
3375.442176,-10066.800811,-666.185348,229.828649
3375.442513,-9326.594869,-592.164754,2298.286494
3375.442851,-9696.697840,444.123565,3294.210641
3375.443188,-10288.862594,962.267725,1455.581446
3375.443526,-10807.006753,74.020594,-153.219100
3375.443863,-11251.130318,0.000000,-383.047749
3375.444201,-10214.842000,-518.144159,-919.314598
3375.444538,-9400.615463,-1258.350101,919.314598
3375.444876,-9770.718434,-814.226536,2451.505594
3375.445213,-9992.780217,444.123565,842.705048
3375.445551,-11325.150913,0.000000,-2068.457845
3375.445888,-12509.480420,-740.205942,-2451.505594
3375.446226,-11621.233289,-1998.556043,-2068.457845
3375.446563,-8438.347739,-2294.638420,-1685.410096
3375.446901,-8956.491898,-2072.576638,1072.533697
3375.447238,-8808.450710,-1702.473667,919.314598
3375.447576,-10881.027347,-1702.473667,0.000000
3375.447913,-10658.965565,-444.123565,-766.095498
3375.448251,-9474.636058,-1924.535449,0.000000
3375.448589,-10732.986159,-1702.473667,3830.477490
3375.448926,-10732.986159,-740.205942,3294.210641
3375.449264,-9030.512492,1036.288319,2068.457845
3375.449601,-9474.636058,1924.535449,1608.800546
3375.449939,-10288.862594,814.226536,842.705048
3375.450276,-10140.821405,2368.659014,0.000000
3375.450614,-10658.965565,962.267725,995.924147
3375.450951,-10066.800811,1628.453072,2528.115143
3375.451289,-9992.780217,1776.494261,612.876398
3375.451626,-9400.615463,2738.761985,-1225.752797
3375.451964,-9326.594869,1776.494261,-1608.800546
3375.452301,-9104.533087,0.000000,-1608.800546
3375.452639,-9474.636058,888.247130,0.000000
3375.452976,-10288.862594,74.020594,842.705048
3375.453314,-10066.800811,296.082377,459.657299
3375.453651,-11473.192101,-962.267725,-229.828649
3375.453989,-12509.480420,-1332.370696,-689.485948
3375.454326,-9770.718434,-1110.308913,-689.485948
3375.454664,-9178.553681,-2590.720797,1225.752797
3375.455001,-8216.285956,-2368.659014,2374.896044
3375.455339,-9178.553681,-2146.597232,1072.533697
3375.455676,-11103.089130,-2442.679609,1455.581446
3375.456014,-11695.253884,-814.226536,0.000000
3375.456351,-9844.739029,-1480.411884,-766.095498
3375.456689,-9844.739029,-1332.370696,229.828649
3375.457026,-9178.553681,-814.226536,1149.143247
3375.457364,-9326.594869,148.041188,1302.362347
3375.457701,-9770.718434,-592.164754,459.657299
3375.458039,-10881.027347,296.082377,0.000000
3375.458376,-11843.295072,444.123565,-766.095498
3375.458714,-10955.047942,-888.247130,0.000000
3375.459051,-9474.636058,0.000000,536.266849
3375.459389,-9030.512492,-592.164754,306.438199
3375.459726,-10140.821405,666.185348,0.000000
3375.460064,-10436.903782,666.185348,-1991.848295
3375.460402,-10436.903782,0.000000,-2145.067394
3375.460739,-9696.697840,-296.082377,-1455.581446
3375.461077,-9178.553681,-74.020594,1149.143247
3375.461414,-10510.924376,740.205942,1455.581446
3375.461752,-10732.986159,444.123565,383.047749
3375.462089,-10362.883188,1702.473667,-229.828649
3375.462427,-8586.388927,1036.288319,-536.266849
3375.462764,-9992.780217,148.041188,2374.896044
3375.463102,-10436.903782,962.267725,3217.601092
3375.463439,-9400.615463,2072.576638,1608.800546
3375.463777,-9844.739029,2072.576638,2298.286494
3375.464114,-10288.862594,2738.761985,1762.019645
3375.464452,-9770.718434,1850.514855,766.095498
3375.464789,-10732.986159,1998.556043,1072.533697
3375.465127,-9474.636058,1776.494261,842.705048
3375.465464,-9030.512492,1406.391290,153.219100
3375.465802,-9844.739029,0.000000,-459.657299
3375.466139,-9178.553681,0.000000,-459.657299
3375.466477,-9252.574275,-370.102971,-689.485948
3375.466814,-9474.636058,-1258.350101,-689.485948
3375.467152,-9696.697840,-1110.308913,0.000000
3375.467489,-9844.739029,-1702.473667,-536.266849
3375.467827,-10140.821405,-2368.659014,-153.219100
3375.468164,-11103.089130,-2886.803174,0.000000
3375.468502,-11251.130318,-1776.494261,-306.438199
3375.468839,-10658.965565,-3034.844362,383.047749
3375.469177,-11029.068536,-1554.432478,2298.286494
3375.469514,-10214.842000,-1480.411884,919.314598
3375.469852,-10732.986159,-1702.473667,459.657299
3375.470189,-11399.171507,-1258.350101,612.876398
3375.470527,-11325.150913,-1776.494261,612.876398
3375.470864,-11029.068536,-740.205942,919.314598
3375.471202,-11177.109724,-1036.288319,1838.629195
3375.471539,-9548.656652,0.000000,1762.019645
3375.471877,-9326.594869,0.000000,1072.533697
3375.472214,-10140.821405,962.267725,1072.533697
3375.472552,-9326.594869,1110.308913,0.000000
3375.472890,-9770.718434,222.061783,612.876398
3375.473227,-10658.965565,1036.288319,1149.143247
3375.473565,-10362.883188,1036.288319,153.219100
3375.473902,-10066.800811,814.226536,-766.095498
3375.474240,-9104.533087,1332.370696,-1915.238745
3375.474577,-8586.388927,814.226536,-1762.019645
3375.474915,-8068.244768,0.000000,-229.828649
3375.475252,-8882.471304,666.185348,76.609550
3375.475590,-9326.594869,1332.370696,-612.876398
3375.475927,-9844.739029,1332.370696,-1149.143247
3375.476265,-10658.965565,1036.288319,-383.047749
3375.476602,-10066.800811,0.000000,76.609550
3375.476940,-9326.594869,592.164754,1378.971896
3375.477277,-10436.903782,1110.308913,2451.505594
3375.477615,-10658.965565,296.082377,842.705048
3375.477952,-10436.903782,888.247130,-766.095498
3375.478290,-10955.047942,370.102971,-306.438199
3375.478627,-9252.574275,-518.144159,229.828649
3375.478965,-9252.574275,-1406.391290,1378.971896
3375.479302,-10140.821405,-814.226536,1225.752797
3375.479640,-9918.759623,148.041188,-689.485948
3375.479977,-10732.986159,-666.185348,-689.485948
3375.480315,-11325.150913,-592.164754,76.609550
3375.480652,-10510.924376,-888.247130,-919.314598
3375.480990,-10658.965565,-888.247130,0.000000
3375.481327,-10807.006753,-1184.329507,0.000000
3375.481665,-9178.553681,-1258.350101,-1378.971896
3375.482002,-9622.677246,-2738.761985,-1838.629195
3375.482340,-9252.574275,-3108.864956,-536.266849
3375.482677,-9030.512492,-2886.803174,-459.657299
3375.483015,-10140.821405,-2146.597232,995.924147
3375.483352,-10140.821405,-518.144159,1455.581446
3375.483690,-9326.594869,-1332.370696,612.876398
3375.484027,-10881.027347,-148.041188,1532.190996
3375.484365,-10288.862594,0.000000,2451.505594
3375.484702,-10807.006753,0.000000,2911.162892
3375.485040,-10436.903782,296.082377,3217.601092
3375.485378,-10288.862594,1258.350101,2604.724693
3375.485715,-10436.903782,1924.535449,1991.848295
3375.486053,-11029.068536,1406.391290,1455.581446
3375.486390,-10288.862594,1924.535449,919.314598
3375.486728,-9400.615463,2442.679609,-383.047749
3375.487065,-9474.636058,1998.556043,153.219100
3375.487403,-9770.718434,2516.700203,-612.876398
3375.487740,-8882.471304,1184.329507,-1685.410096
3375.488078,-9696.697840,1184.329507,-995.924147
3375.488415,-9548.656652,1110.308913,-689.485948
3375.488753,-9178.553681,888.247130,-995.924147
3375.489090,-10288.862594,0.000000,0.000000
3375.489428,-10732.986159,0.000000,-612.876398
3375.489765,-10288.862594,-444.123565,-766.095498
3375.490103,-9622.677246,-1184.329507,-1302.362347
3375.490440,-8216.285956,-1110.308913,-842.705048
3375.490778,-7846.182985,-1924.535449,0.000000
3375.491115,-9622.677246,-2146.597232,1072.533697
3375.491453,-11473.192101,-1776.494261,383.047749
3375.491790,-11103.089130,-1554.432478,536.266849
3375.492128,-10658.965565,-1332.370696,1455.581446
3375.492465,-10066.800811,-1332.370696,1455.581446
3375.492803,-9918.759623,-962.267725,1455.581446
3375.493140,-10807.006753,-1258.350101,1072.533697
3375.493478,-10584.944971,-962.267725,153.219100
3375.493815,-9992.780217,-370.102971,-1762.019645
3375.494153,-10658.965565,-666.185348,-1225.752797
3375.494490,-10658.965565,-1480.411884,-995.924147
3375.494828,-9696.697840,-2146.597232,-689.485948
3375.495165,-10362.883188,-740.205942,766.095498
3375.495503,-9622.677246,74.020594,536.266849
3375.495840,-10214.842000,74.020594,-612.876398
3375.496178,-11103.089130,-888.247130,-689.485948
3375.496515,-10584.944971,-1776.494261,-459.657299
3375.496853,-9326.594869,-1036.288319,995.924147
3375.497191,-9844.739029,-1406.391290,3064.381992
3375.497528,-9548.656652,74.020594,2451.505594
3375.497865,-9474.636058,444.123565,689.485948
3375.498203,-11029.068536,814.226536,1149.143247
3375.498540,-9696.697840,1036.288319,536.266849
3375.498878,-9178.553681,518.144159,1915.238745
3375.499215,-9252.574275,1110.308913,2298.286494
3375.499552,-8956.491898,1998.556043,1685.410096
3375.499890,-9326.594869,2664.741391,0.000000
3375.500227,-9992.780217,2072.576638,-612.876398
3375.500565,-9696.697840,2072.576638,-842.705048
3375.500902,-9844.739029,1998.556043,-76.609550
3375.501239,-10436.903782,814.226536,76.609550
3375.501577,-9252.574275,1036.288319,-689.485948
3375.501914,-9918.759623,518.144159,-1072.533697
3375.502252,-10436.903782,592.164754,-1608.800546
3375.502589,-9622.677246,-370.102971,-3140.991542
3375.502926,-9400.615463,-1110.308913,-1072.533697
3375.503264,-9844.739029,-2368.659014,306.438199
3375.503601,-10362.883188,-1924.535449,1072.533697
3375.503939,-11251.130318,-1702.473667,-383.047749
3375.504276,-10732.986159,-1924.535449,-995.924147
3375.504613,-10214.842000,-3108.864956,0.000000
3375.504951,-9252.574275,-2812.782580,1685.410096
3375.505288,-9622.677246,-1924.535449,2451.505594
3375.505626,-11251.130318,-1110.308913,2374.896044
3375.505963,-10955.047942,-1110.308913,0.000000
3375.506300,-10732.986159,-814.226536,-995.924147
3375.506638,-9548.656652,-592.164754,536.266849
3375.506975,-8290.306550,-888.247130,1838.629195
3375.507313,-10584.944971,-592.164754,3370.820191
3375.507650,-10955.047942,666.185348,1378.971896
3375.507987,-9622.677246,1110.308913,-919.314598
3375.508325,-10881.027347,0.000000,-689.485948
3375.508662,-10214.842000,444.123565,-383.047749
3375.509000,-9252.574275,74.020594,995.924147
3375.509337,-9548.656652,222.061783,919.314598
3375.509674,-9104.533087,370.102971,-383.047749
3375.510012,-9770.718434,888.247130,-1072.533697
3375.510349,-10214.842000,0.000000,-1532.190996
3375.510687,-9474.636058,0.000000,-459.657299
3375.511024,-9104.533087,0.000000,306.438199
3375.511361,-9474.636058,74.020594,1455.581446
3375.511699,-10066.800811,814.226536,1225.752797
3375.512036,-10362.883188,518.144159,536.266849
3375.512374,-10658.965565,444.123565,0.000000
3375.512711,-9844.739029,1110.308913,0.000000
3375.513048,-10214.842000,0.000000,2298.286494
3375.513386,-10807.006753,0.000000,2911.162892
3375.513723,-9622.677246,518.144159,689.485948
3375.514060,-9696.697840,1258.350101,-1149.143247
3375.514398,-10066.800811,-74.020594,-1378.971896
3375.514735,-9918.759623,-222.061783,-1378.971896
3375.515073,-9770.718434,-1110.308913,459.657299
3375.515410,-9178.553681,-888.247130,766.095498
3375.515747,-9696.697840,-814.226536,306.438199
3375.516085,-10436.903782,-592.164754,-1685.410096
3375.516422,-9622.677246,-740.205942,-2451.505594
3375.516760,-9918.759623,-1628.453072,-1532.190996
3375.517097,-9918.759623,-2812.782580,-919.314598
3375.517434,-10362.883188,-2886.803174,383.047749
3375.517772,-10732.986159,-2516.700203,-306.438199
3375.518109,-9844.739029,-1924.535449,-1838.629195
3375.518447,-9548.656652,-962.267725,-1302.362347
3375.518784,-10214.842000,-2072.576638,-229.828649
3375.519121,-10362.883188,-3034.844362,1455.581446
3375.519459,-9844.739029,-1406.391290,2221.676944
3375.519796,-9770.718434,-666.185348,2451.505594
3375.520134,-11621.233289,0.000000,2221.676944
3375.520471,-11843.295072,592.164754,1149.143247
3375.520808,-10807.006753,1258.350101,153.219100
3375.521146,-9474.636058,888.247130,383.047749
3375.521483,-9400.615463,518.144159,2298.286494
3375.521821,-8882.471304,1480.411884,1608.800546
3375.522158,-9548.656652,1406.391290,-383.047749
3375.522495,-10288.862594,296.082377,-1455.581446
3375.522833,-10362.883188,814.226536,-1225.752797
3375.523170,-8808.450710,222.061783,-459.657299
3375.523508,-8734.430116,666.185348,842.705048
3375.523845,-9326.594869,1998.556043,689.485948
3375.524182,-9770.718434,1036.288319,-1072.533697
3375.524520,-11325.150913,-296.082377,-383.047749
3375.524857,-11103.089130,-296.082377,-153.219100
3375.525195,-8956.491898,-740.205942,229.828649
3375.525532,-10288.862594,-1554.432478,1685.410096
3375.525869,-9474.636058,-1702.473667,842.705048
3375.526207,-7846.182985,-962.267725,-766.095498
3375.526544,-9474.636058,-814.226536,-306.438199
3375.526882,-11029.068536,-1184.329507,229.828649
3375.527219,-10362.883188,-1258.350101,76.609550
3375.527556,-10881.027347,-1184.329507,1915.238745
3375.527894,-10510.924376,0.000000,2298.286494
3375.528231,-9992.780217,0.000000,1302.362347
3375.528569,-11547.212695,-518.144159,1455.581446
3375.528906,-10584.944971,-1554.432478,76.609550
3375.529243,-9992.780217,-1628.453072,459.657299
3375.529581,-10584.944971,-1480.411884,2068.457845
3375.529918,-10658.965565,-1924.535449,766.095498
3375.530256,-9548.656652,-962.267725,-536.266849
3375.530593,-9548.656652,-370.102971,-1608.800546
3375.530930,-9548.656652,-740.205942,-2374.896044
3375.531268,-9918.759623,-2294.638420,-1072.533697
3375.531605,-10436.903782,-1554.432478,459.657299
3375.531943,-10066.800811,-1702.473667,766.095498
3375.532280,-9770.718434,-666.185348,459.657299
3375.532617,-10362.883188,814.226536,76.609550
3375.532955,-10807.006753,-222.061783,-919.314598
3375.533292,-9992.780217,-1036.288319,0.000000
3375.533630,-9400.615463,-1480.411884,1838.629195
3375.533967,-9030.512492,-592.164754,4060.306139
3375.534304,-8512.368333,814.226536,1991.848295
3375.534642,-9992.780217,1776.494261,306.438199
3375.534979,-10214.842000,888.247130,-766.095498
3375.535317,-9548.656652,518.144159,0.000000
3375.535654,-10066.800811,518.144159,2987.772442
3375.535991,-9770.718434,1406.391290,2145.067394
3375.536329,-9770.718434,1776.494261,229.828649
3375.536666,-11695.253884,2294.638420,-919.314598
3375.537004,-10584.944971,1184.329507,-2834.553343
3375.537341,-9474.636058,0.000000,-2374.896044
3375.537678,-9326.594869,-296.082377,-1149.143247
3375.538016,-9326.594869,-296.082377,-1072.533697
3375.538353,-9992.780217,-444.123565,-2221.676944
3375.538690,-10510.924376,-962.267725,-1685.410096
3375.539028,-9770.718434,296.082377,-2374.896044
3375.539365,-10510.924376,-1628.453072,-1608.800546
3375.539703,-11325.150913,-1628.453072,229.828649
3375.540040,-10288.862594,-2368.659014,0.000000
3375.540377,-9918.759623,-2664.741391,1149.143247
3375.540715,-10140.821405,-2220.617826,1532.190996
3375.541052,-9992.780217,-2072.576638,612.876398
3375.541390,-10807.006753,-2072.576638,689.485948
3375.541727,-10066.800811,-1924.535449,1685.410096
3375.542064,-9474.636058,-666.185348,2298.286494
3375.542402,-9844.739029,-888.247130,1838.629195
3375.542739,-10732.986159,-444.123565,1225.752797
3375.543077,-10214.842000,0.000000,0.000000
3375.543414,-10510.924376,1184.329507,-153.219100
3375.543751,-10214.842000,0.000000,536.266849
3375.544089,-10288.862594,592.164754,689.485948
3375.544426,-10140.821405,296.082377,766.095498
3375.544764,-10140.821405,296.082377,-612.876398
3375.545101,-9622.677246,0.000000,0.000000
3375.545438,-10436.903782,-370.102971,689.485948
3375.545776,-10807.006753,-666.185348,919.314598
3375.546113,-9770.718434,74.020594,306.438199
3375.546451,-8882.471304,518.144159,1455.581446
3375.546788,-9918.759623,814.226536,0.000000
3375.547125,-9474.636058,814.226536,-229.828649
3375.547463,-10288.862594,-222.061783,1225.752797
3375.547800,-9770.718434,-592.164754,1915.238745
3375.548138,-9326.594869,0.000000,1915.238745
3375.548475,-9622.677246,1702.473667,2374.896044
3375.548812,-10362.883188,74.020594,612.876398
3375.549150,-10658.965565,148.041188,0.000000
3375.549487,-9104.533087,444.123565,-689.485948
3375.549825,-9326.594869,-592.164754,1072.533697
3375.550162,-9696.697840,222.061783,1149.143247
3375.550499,-9918.759623,296.082377,-1225.752797
3375.550837,-9918.759623,1332.370696,-2528.115143
3375.551174,-10584.944971,-740.205942,-2451.505594
3375.551512,-9844.739029,-814.226536,-1455.581446
3375.551849,-9622.677246,-1554.432478,-766.095498
3375.552186,-10658.965565,-1332.370696,229.828649
3375.552524,-9844.739029,-1554.432478,-1378.971896
3375.552861,-10288.862594,-1776.494261,-1455.581446
3375.553199,-10658.965565,-2368.659014,0.000000
3375.553536,-10732.986159,-2590.720797,612.876398
3375.553873,-10807.006753,-2072.576638,1378.971896
3375.554211,-10807.006753,-1924.535449,536.266849
3375.554548,-10658.965565,-1850.514855,842.705048
3375.554886,-10362.883188,-888.247130,1072.533697
3375.555223,-10436.903782,0.000000,306.438199
3375.555560,-10140.821405,-1258.350101,1149.143247
3375.555898,-9918.759623,-1184.329507,2757.943793
3375.556235,-9622.677246,-592.164754,2987.772442
3375.556573,-10436.903782,0.000000,2298.286494
3375.556910,-10288.862594,1406.391290,1149.143247
3375.557247,-10436.903782,1110.308913,-229.828649
3375.557585,-9548.656652,518.144159,0.000000
3375.557922,-7994.224174,444.123565,459.657299
3375.558260,-9178.553681,370.102971,919.314598
3375.558597,-9548.656652,222.061783,153.219100
3375.558934,-9696.697840,148.041188,-766.095498
3375.559272,-9326.594869,1332.370696,-1149.143247
3375.559609,-9474.636058,148.041188,-995.924147
3375.559947,-9474.636058,-296.082377,153.219100
3375.560284,-9770.718434,-296.082377,153.219100
3375.560621,-9622.677246,0.000000,153.219100
3375.560959,-10214.842000,370.102971,76.609550
3375.561296,-10807.006753,-888.247130,-995.924147
3375.561634,-10362.883188,-1184.329507,-229.828649
3375.561971,-9918.759623,-1110.308913,1149.143247
3375.562308,-9918.759623,-592.164754,2298.286494
3375.562646,-10362.883188,-444.123565,1302.362347
3375.562983,-11177.109724,518.144159,0.000000
3375.563321,-10955.047942,1036.288319,-536.266849
3375.563658,-10807.006753,0.000000,-689.485948
3375.563995,-11029.068536,-148.041188,536.266849
3375.564333,-10214.842000,0.000000,842.705048
3375.564670,-9844.739029,296.082377,842.705048
3375.565007,-10066.800811,-592.164754,-1455.581446
3375.565345,-10436.903782,-666.185348,-1608.800546
3375.565682,-9844.739029,-666.185348,-1149.143247
3375.566020,-9918.759623,-1480.411884,-766.095498
3375.566357,-9252.574275,-1184.329507,-689.485948
3375.566694,-9474.636058,-1036.288319,-612.876398
3375.567032,-10510.924376,-1110.308913,459.657299
3375.567369,-10436.903782,-1184.329507,306.438199
3375.567707,-10140.821405,-1628.453072,919.314598
3375.568044,-10732.986159,-296.082377,3064.381992
3375.568381,-10658.965565,-592.164754,2145.067394
3375.568719,-9992.780217,-148.041188,2298.286494
3375.569056,-11029.068536,74.020594,2451.505594
3375.569394,-10140.821405,148.041188,1378.971896
3375.569731,-9696.697840,444.123565,459.657299
3375.570068,-9696.697840,1184.329507,1455.581446
3375.570406,-9252.574275,1036.288319,383.047749
3375.570743,-8882.471304,1110.308913,-612.876398
3375.571081,-9844.739029,1332.370696,612.876398
3375.571418,-10362.883188,1554.432478,0.000000
3375.571755,-10436.903782,666.185348,383.047749
3375.572093,-10510.924376,592.164754,1532.190996
3375.572430,-9844.739029,0.000000,1225.752797
3375.572768,-9400.615463,-296.082377,459.657299
3375.573105,-9548.656652,-1036.288319,-76.609550
3375.573442,-9548.656652,-1184.329507,-1225.752797
3375.573780,-9696.697840,-2146.597232,-1685.410096
3375.574117,-9992.780217,-1850.514855,0.000000
3375.574455,-9474.636058,-1702.473667,-612.876398
3375.574792,-8956.491898,-1036.288319,-1225.752797
3375.575129,-10955.047942,-888.247130,-919.314598
3375.575467,-11769.274478,-1628.453072,-995.924147
3375.575804,-9696.697840,-2368.659014,-612.876398
3375.576142,-9326.594869,-2516.700203,1838.629195
3375.576479,-9400.615463,-1776.494261,1991.848295
3375.576816,-9474.636058,-814.226536,1072.533697
3375.577154,-11547.212695,-962.267725,842.705048
3375.577491,-10881.027347,-666.185348,-383.047749
3375.577829,-9992.780217,-814.226536,229.828649
3375.578166,-10732.986159,592.164754,1685.410096
3375.578503,-10214.842000,592.164754,153.219100
3375.578841,-10362.883188,1110.308913,-689.485948
3375.579178,-10140.821405,666.185348,-1455.581446
3375.579516,-9252.574275,-444.123565,-1072.533697
3375.579853,-10288.862594,-444.123565,459.657299
3375.580190,-10955.047942,0.000000,1685.410096
3375.580528,-10288.862594,888.247130,-536.266849
3375.580865,-10140.821405,444.123565,-1378.971896
3375.581203,-10214.842000,-222.061783,-536.266849
3375.581540,-8956.491898,-888.247130,-919.314598
3375.581877,-9400.615463,-1480.411884,459.657299
3375.582215,-9326.594869,222.061783,1532.190996
3375.582552,-8660.409521,-148.041188,0.000000
3375.582890,-10140.821405,740.205942,536.266849
3375.583227,-9918.759623,518.144159,689.485948
3375.583564,-10066.800811,518.144159,76.609550
3375.583902,-10066.800811,-592.164754,1149.143247
3375.584239,-9992.780217,370.102971,2068.457845
3375.584577,-9770.718434,-222.061783,2374.896044
3375.584914,-9770.718434,-296.082377,1455.581446
3375.585251,-10955.047942,666.185348,1685.410096
3375.585589,-11399.171507,-296.082377,536.266849
3375.585926,-10436.903782,-888.247130,459.657299
3375.586264,-9992.780217,-518.144159,995.924147
3375.586601,-9844.739029,-74.020594,1378.971896
3375.586938,-11029.068536,-296.082377,-689.485948
3375.587276,-10955.047942,-148.041188,-2145.067394
3375.587613,-10066.800811,-444.123565,-2145.067394
3375.587951,-10658.965565,-1702.473667,-1378.971896
3375.588288,-10362.883188,-2294.638420,0.000000
3375.588625,-8882.471304,-1850.514855,0.000000
3375.588963,-9548.656652,-1998.556043,1302.362347
3375.589300,-10658.965565,-814.226536,306.438199
3375.589637,-11547.212695,-666.185348,0.000000
3375.589975,-10807.006753,-1406.391290,919.314598
3375.590312,-9622.677246,-1332.370696,2681.334243
3375.590650,-9104.533087,740.205942,2911.162892
3375.590987,-9400.615463,1332.370696,1915.238745
3375.591324,-10140.821405,592.164754,459.657299
3375.591662,-10066.800811,1184.329507,0.000000
3375.591999,-8808.450710,1184.329507,766.095498
3375.592337,-10214.842000,2146.597232,1915.238745
3375.592674,-9622.677246,1924.535449,919.314598
3375.593011,-10066.800811,2812.782580,0.000000
3375.593349,-9474.636058,2368.659014,-1762.019645
3375.593686,-8068.244768,1110.308913,-1302.362347
3375.594024,-10140.821405,888.247130,1072.533697
3375.594361,-10584.944971,740.205942,383.047749
3375.594698,-10066.800811,1332.370696,-995.924147
3375.595036,-10584.944971,740.205942,-1608.800546
3375.595373,-9548.656652,1406.391290,-1225.752797
3375.595711,-9696.697840,-296.082377,-1762.019645
3375.596048,-10881.027347,-1406.391290,919.314598
3375.596385,-9030.512492,-1554.432478,1762.019645
3375.596723,-9844.739029,-1258.350101,1608.800546
3375.597060,-10436.903782,-1554.432478,1149.143247
3375.597397,-10955.047942,-1184.329507,1532.190996
3375.597735,-11251.130318,-1628.453072,766.095498
3375.598072,-10658.965565,-1628.453072,1072.533697
3375.598410,-10288.862594,-1406.391290,1762.019645
3375.598747,-9400.615463,-962.267725,1302.362347
3375.599084,-10510.924376,-740.205942,536.266849
3375.599422,-10955.047942,-148.041188,-766.095498
3375.599759,-10362.883188,-962.267725,-1302.362347
3375.600096,-9918.759623,-1776.494261,306.438199
3375.600434,-9770.718434,-1554.432478,1225.752797
3375.600771,-10881.027347,-666.185348,306.438199
3375.601108,-10214.842000,-888.247130,-1302.362347
3375.601446,-10288.862594,-1036.288319,-1685.410096
3375.601783,-9104.533087,-1258.350101,-1302.362347
3375.602121,-9770.718434,-2072.576638,383.047749
3375.602458,-9770.718434,-1332.370696,1685.410096
3375.602795,-9770.718434,-222.061783,842.705048
3375.603133,-10584.944971,592.164754,689.485948
3375.603470,-11251.130318,1110.308913,-766.095498
3375.603807,-10510.924376,666.185348,-766.095498
3375.604145,-10140.821405,0.000000,1149.143247
3375.604482,-9030.512492,370.102971,3370.820191
3375.604819,-9548.656652,1480.411884,3370.820191
3375.605157,-10436.903782,1406.391290,1762.019645
3375.605494,-10066.800811,2146.597232,612.876398
3375.605832,-10214.842000,1850.514855,766.095498
3375.606169,-9770.718434,1332.370696,1991.848295
3375.606506,-9474.636058,2664.741391,3140.991542
3375.606844,-9622.677246,2590.720797,1149.143247
3375.607181,-10362.883188,2738.761985,-1072.533697
3375.607518,-10807.006753,1110.308913,-1762.019645
3375.607856,-9474.636058,0.000000,-1302.362347
3375.608193,-8290.306550,-148.041188,0.000000
3375.608530,-9030.512492,-370.102971,612.876398
3375.608868,-9030.512492,-370.102971,-1378.971896
3375.609205,-9696.697840,-1184.329507,-2451.505594
3375.609543,-10584.944971,-1258.350101,-1685.410096
3375.609880,-9844.739029,-2812.782580,-459.657299
3375.610217,-10288.862594,-2442.679609,919.314598
3375.610555,-9992.780217,-2146.597232,1991.848295
3375.610892,-10140.821405,-1554.432478,842.705048
3375.611229,-10288.862594,-2368.659014,0.000000
3375.611567,-11177.109724,-1850.514855,766.095498
3375.611904,-11399.171507,-1998.556043,919.314598
3375.612241,-11621.233289,-2146.597232,2221.676944
3375.612579,-11325.150913,-814.226536,2145.067394
3375.612916,-10362.883188,-962.267725,1608.800546
3375.613254,-10214.842000,0.000000,459.657299
3375.613591,-10436.903782,444.123565,-919.314598
3375.613928,-10584.944971,-444.123565,-1225.752797
3375.614266,-8660.409521,-740.205942,-229.828649
3375.614603,-9400.615463,-592.164754,0.000000
3375.614940,-9252.574275,0.000000,-995.924147
3375.615278,-10807.006753,740.205942,-1455.581446
3375.615615,-11177.109724,-592.164754,-919.314598
3375.615952,-9030.512492,-962.267725,-1838.629195
3375.616290,-7920.203579,-1184.329507,536.266849
3375.616627,-7624.121203,-666.185348,2298.286494
3375.616965,-9252.574275,-518.144159,459.657299
3375.617302,-10214.842000,0.000000,-689.485948
3375.617639,-10436.903782,740.205942,-383.047749
3375.617977,-9770.718434,592.164754,383.047749
3375.618314,-9770.718434,666.185348,2528.115143
3375.618651,-9844.739029,1406.391290,3524.039291
3375.618989,-10807.006753,2960.823768,1608.800546
3375.619326,-11621.233289,2220.617826,0.000000
3375.619663,-11399.171507,2072.576638,0.000000
3375.620001,-8882.471304,0.000000,0.000000
3375.620338,-8882.471304,296.082377,2145.067394
3375.620676,-9770.718434,1850.514855,2757.943793
3375.621013,-9696.697840,1184.329507,459.657299
3375.621350,-11177.109724,1628.453072,-536.266849
3375.621688,-11621.233289,1258.350101,-1302.362347
3375.622025,-10066.800811,1184.329507,-766.095498
3375.622362,-9992.780217,-962.267725,-306.438199
3375.622700,-9548.656652,-1480.411884,1072.533697
3375.623037,-8142.265362,-1924.535449,-383.047749
3375.623374,-8438.347739,-2442.679609,-1532.190996
3375.623712,-10214.842000,-3108.864956,0.000000
3375.624049,-10732.986159,-2442.679609,-842.705048
3375.624387,-10510.924376,-3256.906145,919.314598
3375.624724,-10436.903782,-2368.659014,1225.752797
3375.625061,-8660.409521,-1924.535449,-306.438199
3375.625399,-10066.800811,-1702.473667,536.266849
3375.625736,-11103.089130,-1924.535449,689.485948
3375.626073,-9622.677246,-1554.432478,766.095498
3375.626411,-10955.047942,-1332.370696,2911.162892
3375.626748,-11325.150913,0.000000,3753.867940
3375.627085,-10807.006753,148.041188,1072.533697
3375.627423,-11325.150913,1184.329507,0.000000
3375.627760,-10510.924376,888.247130,-995.924147
3375.628098,-10214.842000,0.000000,-153.219100
3375.628435,-9696.697840,-296.082377,1532.190996
3375.628772,-8808.450710,740.205942,1149.143247
3375.629110,-9548.656652,1406.391290,0.000000
3375.629447,-10807.006753,1184.329507,-1608.800546
3375.629784,-10066.800811,1554.432478,-1532.190996
3375.630122,-9474.636058,1110.308913,-1608.800546
3375.630459,-9844.739029,-148.041188,0.000000
3375.630796,-9992.780217,888.247130,459.657299
3375.631134,-9252.574275,0.000000,-612.876398
3375.631471,-9474.636058,296.082377,-995.924147
3375.631809,-8734.430116,-740.205942,-1532.190996
3375.632146,-8882.471304,-296.082377,-229.828649
3375.632483,-9622.677246,-740.205942,842.705048
3375.632821,-9622.677246,0.000000,1838.629195
3375.633158,-9474.636058,1554.432478,919.314598
3375.633495,-11325.150913,1554.432478,229.828649
3375.633833,-11473.192101,740.205942,-383.047749
3375.634170,-9178.553681,296.082377,-306.438199
3375.634507,-10658.965565,-518.144159,2451.505594
3375.634845,-10140.821405,222.061783,2451.505594
3375.635182,-9178.553681,814.226536,0.000000
3375.635520,-10658.965565,0.000000,-536.266849
3375.635857,-10066.800811,-444.123565,-1225.752797
3375.636194,-9548.656652,-222.061783,-995.924147
3375.636532,-11177.109724,-1184.329507,995.924147
3375.636869,-10288.862594,-1110.308913,689.485948
3375.637206,-9548.656652,-1406.391290,-689.485948
3375.637544,-9918.759623,-1258.350101,-1302.362347
3375.637881,-9400.615463,-1776.494261,-1225.752797
3375.638218,-9918.759623,-2146.597232,-612.876398
3375.638556,-9918.759623,-2516.700203,689.485948
3375.638893,-10066.800811,-2146.597232,2221.676944
3375.639231,-9844.739029,-1184.329507,1685.410096
3375.639568,-10214.842000,-962.267725,689.485948
3375.639905,-10584.944971,-1036.288319,919.314598
3375.640243,-9918.759623,-1184.329507,995.924147
3375.640580,-10066.800811,-370.102971,2911.162892
3375.640917,-9622.677246,148.041188,3294.210641
3375.641255,-10140.821405,518.144159,1991.848295
3375.641592,-10881.027347,1702.473667,153.219100
3375.641929,-10658.965565,1628.453072,-536.266849
3375.642267,-9770.718434,1628.453072,-689.485948
3375.642604,-9400.615463,222.061783,0.000000
3375.642942,-10140.821405,592.164754,842.705048
3375.643279,-9844.739029,888.247130,-842.705048
3375.643616,-10140.821405,518.144159,-1991.848295
3375.643954,-9770.718434,666.185348,-2451.505594
3375.644291,-8808.450710,0.000000,-2528.115143
3375.644628,-10436.903782,-1480.411884,0.000000
3375.644966,-9474.636058,-222.061783,229.828649
3375.645303,-8808.450710,-740.205942,-536.266849
3375.645640,-10807.006753,-962.267725,306.438199
3375.645978,-10881.027347,-1036.288319,-383.047749
3375.646315,-9696.697840,-1184.329507,-842.705048
3375.646653,-10066.800811,-1184.329507,1072.533697
3375.646990,-9992.780217,-592.164754,2451.505594
3375.647327,-10658.965565,296.082377,1072.533697
3375.647665,-11029.068536,296.082377,-689.485948
3375.648002,-10214.842000,222.061783,-689.485948
3375.648339,-11177.109724,-1110.308913,459.657299
3375.648677,-9400.615463,-1258.350101,1225.752797
3375.649014,-9178.553681,0.000000,2451.505594
3375.649352,-9696.697840,592.164754,1225.752797
3375.649689,-10436.903782,592.164754,-383.047749
3375.650026,-11177.109724,1036.288319,-1149.143247
3375.650364,-9696.697840,444.123565,-995.924147
3375.650701,-9992.780217,0.000000,536.266849
3375.651038,-11103.089130,-666.185348,766.095498
3375.651376,-9474.636058,-296.082377,-459.657299
3375.651713,-9178.553681,-592.164754,76.609550
3375.652050,-9474.636058,-518.144159,-383.047749
3375.652388,-8956.491898,-1406.391290,-306.438199
3375.652725,-10510.924376,-2072.576638,1149.143247
3375.653063,-10214.842000,-1554.432478,2451.505594
3375.653400,-8808.450710,-370.102971,995.924147
3375.653737,-9770.718434,0.000000,229.828649
3375.654075,-9992.780217,444.123565,536.266849
3375.654412,-10436.903782,-148.041188,459.657299
3375.654749,-10658.965565,740.205942,2145.067394
3375.655087,-11399.171507,814.226536,3217.601092
3375.655424,-10955.047942,592.164754,1532.190996
3375.655761,-10288.862594,296.082377,842.705048
3375.656099,-10436.903782,444.123565,536.266849
3375.656436,-9104.533087,0.000000,612.876398
3375.656774,-9844.739029,-666.185348,612.876398
3375.657111,-10807.006753,-592.164754,1455.581446
3375.657448,-9474.636058,370.102971,-1608.800546
3375.657786,-10658.965565,296.082377,-1991.848295
3375.658123,-10362.883188,-148.041188,-3064.381992
3375.658460,-7772.162391,-1628.453072,-4673.182538
3375.658798,-9104.533087,-2664.741391,-2068.457845
3375.659135,-8808.450710,-2886.803174,153.219100
3375.659472,-9030.512492,-1776.494261,1762.019645
3375.659810,-11695.253884,-1406.391290,1455.581446
3375.660147,-11251.130318,-1110.308913,536.266849
3375.660485,-10066.800811,-1332.370696,-1455.581446
3375.660822,-10436.903782,-1628.453072,612.876398
3375.661159,-10140.821405,-1554.432478,3064.381992
3375.661497,-9252.574275,-1184.329507,1455.581446
3375.661834,-10066.800811,0.000000,1455.581446
3375.662171,-10362.883188,962.267725,383.047749
3375.662509,-10510.924376,592.164754,-536.266849
3375.662846,-11103.089130,1258.350101,1149.143247
3375.663183,-10732.986159,1850.514855,1302.362347
3375.663521,-10436.903782,1776.494261,-153.219100
3375.663858,-10066.800811,888.247130,-766.095498
3375.664196,-9474.636058,1628.453072,-459.657299
3375.664533,-9252.574275,0.000000,153.219100
3375.664870,-9844.739029,-296.082377,919.314598
3375.665208,-9696.697840,592.164754,383.047749
3375.665545,-9178.553681,370.102971,0.000000
3375.665882,-9622.677246,222.061783,-1072.533697
3375.666220,-10732.986159,222.061783,-2374.896044
3375.666557,-9770.718434,-888.247130,-2221.676944
3375.666894,-9030.512492,-2146.597232,842.705048
3375.667232,-8142.265362,-2368.659014,2374.896044
3375.667569,-7846.182985,-1480.411884,2068.457845
3375.667907,-10436.903782,-1110.308913,1915.238745
3375.668244,-11177.109724,-1480.411884,1072.533697
3375.668581,-10436.903782,-1406.391290,306.438199
3375.668919,-11103.089130,-962.267725,2374.896044
3375.669256,-10955.047942,-148.041188,2221.676944
3375.669593,-9326.594869,518.144159,383.047749
3375.669931,-10584.944971,222.061783,153.219100
3375.670268,-11621.233289,148.041188,229.828649
3375.670605,-11325.150913,0.000000,153.219100
3375.670943,-11177.109724,-74.020594,76.609550
3375.671280,-10066.800811,-296.082377,0.000000
3375.671618,-8956.491898,-444.123565,-1302.362347
3375.671955,-10732.986159,-1332.370696,-995.924147
3375.672292,-9918.759623,-2146.597232,-1302.362347
3375.672630,-8438.347739,-2146.597232,-995.924147
3375.672967,-10140.821405,-2146.597232,1762.019645
3375.673304,-9548.656652,-1110.308913,1915.238745
3375.673642,-9844.739029,222.061783,919.314598
3375.673979,-11473.192101,74.020594,0.000000
3375.674316,-10214.842000,-888.247130,-459.657299
3375.674654,-9548.656652,-1110.308913,153.219100
3375.674991,-9326.594869,-1480.411884,1838.629195
3375.675329,-9400.615463,518.144159,2145.067394
3375.675666,-9918.759623,740.205942,1762.019645
3375.676003,-10214.842000,1924.535449,383.047749
3375.676341,-9844.739029,1628.453072,0.000000
3375.676678,-10658.965565,1924.535449,919.314598
3375.677015,-10288.862594,1184.329507,1532.190996
3375.677353,-10658.965565,1776.494261,1532.190996
3375.677690,-10140.821405,2812.782580,-153.219100
3375.678027,-10288.862594,1998.556043,-689.485948
3375.678365,-10214.842000,1702.473667,-1915.238745
3375.678702,-8438.347739,-666.185348,-2451.505594
3375.679040,-9474.636058,148.041188,383.047749
3375.679377,-9548.656652,-888.247130,-536.266849
3375.679714,-9474.636058,-1554.432478,-1302.362347
3375.680052,-9696.697840,-1480.411884,-1838.629195
3375.680389,-9252.574275,-1850.514855,-2145.067394
3375.680726,-9770.718434,-1258.350101,229.828649
3375.681064,-11029.068536,-2368.659014,689.485948
3375.681401,-10584.944971,-2146.597232,612.876398
3375.681738,-10362.883188,-1480.411884,-612.876398
3375.682076,-9992.780217,-1184.329507,-536.266849
3375.682413,-10066.800811,-1258.350101,383.047749
3375.682751,-9992.780217,-2368.659014,0.000000
3375.683088,-9252.574275,-2072.576638,612.876398
3375.683425,-9918.759623,-1776.494261,1608.800546
3375.683763,-10807.006753,-296.082377,2451.505594
3375.684100,-11843.295072,0.000000,766.095498
3375.684437,-10955.047942,740.205942,383.047749
3375.684775,-10066.800811,592.164754,689.485948
3375.685112,-10807.006753,-222.061783,1378.971896
3375.685449,-9474.636058,148.041188,995.924147
3375.685787,-9178.553681,0.000000,76.609550
3375.686124,-10955.047942,666.185348,0.000000
3375.686462,-10658.965565,1110.308913,-1378.971896
3375.686799,-9918.759623,296.082377,-1302.362347
3375.687136,-9400.615463,740.205942,536.266849
3375.687474,-9326.594869,962.267725,459.657299
3375.687811,-10658.965565,1110.308913,153.219100
3375.688148,-10584.944971,-370.102971,-766.095498
3375.688486,-9696.697840,296.082377,536.266849
3375.688823,-8660.409521,-444.123565,1072.533697
3375.689160,-9178.553681,74.020594,2528.115143
3375.689498,-9770.718434,592.164754,2987.772442
3375.689835,-8956.491898,888.247130,1302.362347
3375.690173,-9770.718434,1406.391290,1378.971896
3375.690510,-10436.903782,888.247130,766.095498
3375.690847,-10584.944971,1036.288319,306.438199
3375.691185,-11399.171507,0.000000,536.266849
3375.691522,-9326.594869,444.123565,-306.438199
3375.691859,-7994.224174,370.102971,-842.705048
3375.692197,-9252.574275,-666.185348,-612.876398
3375.692534,-9252.574275,-740.205942,-1608.800546
3375.692871,-10140.821405,-1258.350101,-689.485948
3375.693209,-11547.212695,-888.247130,76.609550
3375.693546,-11399.171507,-1554.432478,-766.095498
3375.693884,-10658.965565,-2072.576638,-1532.190996
3375.694221,-9548.656652,-2146.597232,-1608.800546
3375.694558,-9918.759623,-3108.864956,-383.047749
3375.694896,-9696.697840,-2960.823768,1149.143247
3375.695233,-10510.924376,-2960.823768,306.438199
3375.695570,-10955.047942,-2960.823768,689.485948
3375.695908,-10732.986159,-2368.659014,-919.314598
3375.696245,-10362.883188,-2072.576638,153.219100
3375.696582,-10066.800811,-2146.597232,1149.143247
3375.696920,-9104.533087,-1628.453072,1838.629195
3375.697257,-9696.697840,-592.164754,2834.553343
3375.697595,-10140.821405,-148.041188,1455.581446
3375.697932,-10658.965565,444.123565,306.438199
3375.698269,-11473.192101,370.102971,229.828649
3375.698607,-10436.903782,1036.288319,459.657299
3375.698944,-9104.533087,1184.329507,459.657299
3375.699282,-9548.656652,1332.370696,766.095498
3375.699619,-9400.615463,2146.597232,536.266849
3375.699956,-9696.697840,1184.329507,-919.314598
3375.700294,-10658.965565,1406.391290,153.219100
3375.700631,-9844.739029,1480.411884,-689.485948
3375.700969,-9474.636058,666.185348,0.000000
3375.701306,-9326.594869,888.247130,-153.219100
3375.701643,-9252.574275,814.226536,-766.095498
3375.701981,-8808.450710,962.267725,-2298.286494
3375.702318,-9104.533087,814.226536,-2145.067394
3375.702656,-9696.697840,148.041188,-1225.752797
3375.702993,-9844.739029,-962.267725,306.438199
3375.703330,-9992.780217,-1036.288319,1838.629195
3375.703668,-9252.574275,-148.041188,2757.943793
3375.704005,-10066.800811,0.000000,1532.190996
3375.704343,-10584.944971,74.020594,1149.143247
3375.704680,-11029.068536,74.020594,306.438199
3375.705017,-9696.697840,-592.164754,995.924147
3375.705355,-10584.944971,-592.164754,1838.629195
3375.705692,-10140.821405,296.082377,459.657299
3375.706030,-10214.842000,444.123565,-1378.971896
3375.706367,-11103.089130,-666.185348,-1838.629195
3375.706704,-10362.883188,-1776.494261,-1225.752797
3375.707042,-9252.574275,-2294.638420,-76.609550
3375.707379,-10658.965565,-1406.391290,1685.410096
3375.707717,-10140.821405,-1406.391290,0.000000
3375.708054,-10214.842000,-666.185348,-1532.190996
3375.708391,-11251.130318,-2220.617826,-1149.143247
3375.708729,-9622.677246,-2442.679609,-919.314598
3375.709066,-8956.491898,-1924.535449,2145.067394
3375.709404,-10214.842000,-1184.329507,2374.896044
3375.709741,-10807.006753,-296.082377,1302.362347
3375.710078,-10955.047942,74.020594,-919.314598
3375.710416,-10214.842000,0.000000,-229.828649
3375.710753,-8882.471304,0.000000,0.000000
3375.711090,-9326.594869,-1258.350101,2911.162892
3375.711428,-9474.636058,592.164754,4290.134789
3375.711765,-9474.636058,2220.617826,2451.505594
3375.712103,-9844.739029,2368.659014,306.438199
3375.712440,-11769.274478,2294.638420,0.000000
3375.712777,-10214.842000,1924.535449,-536.266849
3375.713115,-8808.450710,1480.411884,306.438199
3375.713452,-8660.409521,1332.370696,1608.800546
3375.713790,-8660.409521,1332.370696,1378.971896
3375.714127,-9844.739029,1702.473667,-1225.752797
3375.714464,-11473.192101,1110.308913,-1838.629195
3375.714802,-10214.842000,518.144159,-2834.553343
3375.715139,-8438.347739,-1480.411884,-1608.800546
3375.715477,-9178.553681,-1998.556043,1378.971896
3375.715814,-8660.409521,-1776.494261,229.828649
3375.716151,-8586.388927,-814.226536,-1072.533697
3375.716489,-11325.150913,-1924.535449,-612.876398
3375.716826,-10658.965565,-1406.391290,-153.219100
3375.717164,-10881.027347,-1776.494261,842.705048
3375.717501,-11399.171507,-1332.370696,2374.896044
3375.717838,-10288.862594,-1628.453072,689.485948
3375.718176,-10436.903782,-1850.514855,0.000000
3375.718513,-10955.047942,-1184.329507,0.000000
3375.718851,-9844.739029,-1702.473667,-536.266849
3375.719188,-9696.697840,-1998.556043,1149.143247
3375.719525,-10288.862594,-1998.556043,2451.505594
3375.719863,-9696.697840,-370.102971,1225.752797
3375.720200,-10510.924376,296.082377,0.000000
3375.720538,-12953.603985,148.041188,-995.924147
3375.720875,-10436.903782,222.061783,-2221.676944
3375.721212,-9474.636058,-1110.308913,-459.657299
3375.721550,-9326.594869,0.000000,1685.410096
3375.721887,-9548.656652,-296.082377,-689.485948
3375.722225,-10436.903782,370.102971,-1838.629195
3375.722562,-9844.739029,-814.226536,-2145.067394
3375.722899,-9104.533087,-1036.288319,-153.219100
3375.723237,-9770.718434,-814.226536,1532.190996
3375.723574,-9918.759623,0.000000,2221.676944
3375.723912,-9770.718434,74.020594,1455.581446
3375.724249,-9844.739029,1258.350101,229.828649
3375.724586,-10436.903782,888.247130,766.095498
3375.724924,-8956.491898,1480.411884,1072.533697
3375.725261,-8956.491898,0.000000,2528.115143
3375.725599,-10658.965565,1480.411884,3524.039291
3375.725936,-10140.821405,2442.679609,612.876398
3375.726273,-9844.739029,2886.803174,-536.266849
3375.726611,-11103.089130,1850.514855,-1302.362347
3375.726948,-9474.636058,1110.308913,-919.314598
3375.727285,-9400.615463,0.000000,612.876398
3375.727623,-9992.780217,0.000000,3217.601092
3375.727960,-9326.594869,444.123565,2604.724693
3375.728298,-11695.253884,-296.082377,919.314598
3375.728635,-11325.150913,740.205942,-1838.629195
3375.728972,-9474.636058,-444.123565,-2911.162892
3375.729310,-10658.965565,-1702.473667,-612.876398
3375.729647,-9844.739029,-2664.741391,1072.533697
3375.729985,-9030.512492,-2220.617826,536.266849
3375.730322,-9696.697840,-1480.411884,229.828649
3375.730659,-10732.986159,-2072.576638,-1072.533697
3375.730997,-10732.986159,-2146.597232,-766.095498
3375.731334,-10066.800811,-3256.906145,-229.828649
3375.731672,-9992.780217,-2368.659014,2604.724693
3375.732009,-9548.656652,-814.226536,2221.676944
3375.732346,-9844.739029,-222.061783,0.000000
3375.732684,-10955.047942,0.000000,0.000000
3375.733021,-10807.006753,-888.247130,153.219100
3375.733359,-9992.780217,-1332.370696,2298.286494
3375.733696,-10732.986159,-444.123565,4290.134789
3375.734033,-9918.759623,888.247130,2451.505594
3375.734371,-10436.903782,1776.494261,-766.095498
3375.734708,-10955.047942,1406.391290,-2987.772442
3375.735046,-9252.574275,740.205942,-2604.724693
3375.735383,-8956.491898,-296.082377,-229.828649
3375.735720,-9770.718434,0.000000,766.095498
3375.736058,-9400.615463,0.000000,-306.438199
3375.736395,-9474.636058,0.000000,-1302.362347
3375.736733,-8882.471304,0.000000,-1225.752797
3375.737070,-8216.285956,-1036.288319,-919.314598
3375.737407,-9770.718434,-148.041188,0.000000
3375.737745,-11103.089130,-888.247130,1608.800546
3375.738082,-10584.944971,74.020594,1302.362347
3375.738420,-9918.759623,-74.020594,153.219100
3375.738757,-10658.965565,592.164754,0.000000
3375.739094,-9696.697840,74.020594,-229.828649
3375.739432,-9844.739029,-1480.411884,919.314598
3375.739769,-10288.862594,-592.164754,2911.162892
3375.740107,-10214.842000,0.000000,1762.019645
3375.740444,-10140.821405,962.267725,-229.828649
3375.740781,-11251.130318,666.185348,-842.705048
3375.741119,-10584.944971,296.082377,-1302.362347
3375.741456,-10362.883188,0.000000,-995.924147
3375.741794,-9548.656652,74.020594,612.876398
3375.742131,-9104.533087,0.000000,689.485948
3375.742468,-10510.924376,-814.226536,-1455.581446
3375.742806,-10807.006753,-222.061783,-2145.067394
3375.743143,-9400.615463,-1036.288319,-1378.971896
3375.743480,-9252.574275,-1702.473667,459.657299
3375.743818,-9844.739029,-2368.659014,2451.505594
3375.744155,-10140.821405,-962.267725,1915.238745
3375.744493,-11029.068536,-518.144159,0.000000
3375.744830,-10658.965565,0.000000,-229.828649
3375.745167,-9696.697840,-592.164754,-306.438199
3375.745505,-9622.677246,-1332.370696,2528.115143
3375.745842,-9696.697840,0.000000,3600.648841
3375.746180,-10362.883188,814.226536,1072.533697
3375.746517,-10510.924376,888.247130,0.000000
3375.746854,-10288.862594,1036.288319,-306.438199
3375.747192,-9400.615463,74.020594,383.047749
3375.747529,-9326.594869,1036.288319,2834.553343
3375.747867,-10288.862594,1184.329507,4443.353888
3375.748204,-9474.636058,1110.308913,2374.896044
3375.748541,-10436.903782,2442.679609,1378.971896
3375.748879,-10881.027347,1702.473667,0.000000
3375.749216,-10362.883188,1184.329507,-995.924147
3375.749554,-9326.594869,222.061783,-1378.971896
3375.749891,-9400.615463,148.041188,153.219100
3375.750228,-9400.615463,518.144159,-1072.533697
3375.750566,-9918.759623,0.000000,-1532.190996
3375.750903,-9992.780217,-592.164754,-1991.848295
3375.751241,-9696.697840,-2072.576638,-919.314598
3375.751578,-9770.718434,-1998.556043,766.095498
3375.751915,-10140.821405,-1480.411884,2298.286494
3375.752253,-9622.677246,-1184.329507,1225.752797
3375.752590,-10214.842000,-666.185348,-306.438199
3375.752928,-11621.233289,-814.226536,-229.828649
3375.753265,-11029.068536,-740.205942,153.219100
3375.753602,-10436.903782,-1480.411884,153.219100
3375.753940,-9548.656652,-1702.473667,1838.629195
3375.754277,-8364.327145,-592.164754,1225.752797
3375.754615,-10066.800811,-444.123565,995.924147
3375.754952,-11547.212695,-814.226536,0.000000
3375.755289,-9992.780217,-518.144159,-1455.581446
3375.755627,-10140.821405,-1480.411884,612.876398
3375.755964,-10066.800811,-814.226536,1225.752797
3375.756302,-8586.388927,0.000000,0.000000
3375.756639,-10214.842000,0.000000,-612.876398
3375.756976,-10658.965565,-518.144159,-2068.457845
3375.757314,-9474.636058,-740.205942,-2145.067394
3375.757651,-9770.718434,-1036.288319,76.609550
3375.757989,-9770.718434,-1332.370696,1608.800546
3375.758326,-9548.656652,-962.267725,1225.752797
3375.758663,-9992.780217,-444.123565,536.266849
3375.759001,-11029.068536,-222.061783,459.657299
3375.759338,-9474.636058,-592.164754,-1302.362347
3375.759675,-8586.388927,-962.267725,153.219100
3375.760013,-9474.636058,-592.164754,2374.896044
3375.760350,-9696.697840,740.205942,2068.457845
3375.760688,-11251.130318,1850.514855,1455.581446
3375.761025,-11399.171507,1258.350101,0.000000
3375.761362,-10436.903782,666.185348,0.000000
3375.761700,-10362.883188,814.226536,1685.410096
3375.762037,-10362.883188,0.000000,2451.505594
3375.762375,-8660.409521,222.061783,1685.410096
3375.762712,-9770.718434,222.061783,-383.047749
3375.763049,-10362.883188,518.144159,-1302.362347
3375.763387,-9104.533087,-444.123565,-2451.505594
3375.763724,-9400.615463,-740.205942,-612.876398
3375.764062,-10066.800811,-888.247130,459.657299
3375.764399,-9252.574275,666.185348,-842.705048
3375.764736,-10658.965565,-74.020594,-1455.581446
3375.765074,-10658.965565,-740.205942,-1838.629195
3375.765411,-9918.759623,-1850.514855,-1685.410096
3375.765749,-10732.986159,-2072.576638,-229.828649
3375.766086,-9622.677246,-1480.411884,995.924147
3375.766423,-8660.409521,-1998.556043,1072.533697
3375.766761,-10214.842000,-1628.453072,1532.190996
3375.767098,-11103.089130,-592.164754,0.000000
3375.767436,-10658.965565,0.000000,0.000000
3375.767773,-11029.068536,-222.061783,2068.457845
3375.768110,-9918.759623,222.061783,3907.087040
3375.768448,-10955.047942,1406.391290,3447.429741
3375.768785,-11251.130318,1332.370696,1072.533697
3375.769123,-10288.862594,1480.411884,383.047749
3375.769460,-10288.862594,2368.659014,-383.047749
3375.769797,-10066.800811,1258.350101,459.657299
3375.770135,-9844.739029,1628.453072,229.828649
3375.770472,-8438.347739,1480.411884,-995.924147
3375.770810,-9030.512492,1258.350101,-1378.971896
3375.771147,-9992.780217,74.020594,-766.095498
3375.771484,-8956.491898,518.144159,-842.705048
3375.771822,-9474.636058,0.000000,229.828649
3375.772159,-10066.800811,-222.061783,1762.019645
3375.772497,-9770.718434,222.061783,1532.190996
3375.772834,-10066.800811,222.061783,995.924147
3375.773171,-9844.739029,222.061783,-766.095498
3375.773509,-8734.430116,-888.247130,-1225.752797
3375.773846,-9844.739029,-1924.535449,1302.362347
3375.774184,-9548.656652,-1258.350101,2145.067394
3375.774521,-9696.697840,-1184.329507,1072.533697
3375.774858,-11325.150913,148.041188,612.876398
3375.775196,-10807.006753,74.020594,-1302.362347
3375.775533,-9992.780217,-740.205942,0.000000
3375.775870,-9918.759623,-592.164754,536.266849
3375.776208,-10288.862594,-444.123565,2145.067394
3375.776545,-10807.006753,-1554.432478,1072.533697
3375.776883,-10584.944971,-1036.288319,306.438199
3375.777220,-10362.883188,-740.205942,612.876398
3375.777557,-10362.883188,-296.082377,-612.876398
3375.777895,-11547.212695,-1554.432478,-612.876398
3375.778232,-10510.924376,-1702.473667,-1072.533697
3375.778570,-8586.388927,-1850.514855,-1915.238745
3375.778907,-8808.450710,-2294.638420,-995.924147
3375.779244,-10362.883188,-2664.741391,-459.657299
3375.779582,-10066.800811,-1924.535449,-1378.971896
3375.779919,-10140.821405,-2072.576638,-1149.143247
3375.780257,-9992.780217,-1480.411884,1378.971896
3375.780594,-9178.553681,-814.226536,842.705048
3375.780931,-10066.800811,-1036.288319,995.924147
3375.781269,-10658.965565,-962.267725,766.095498
3375.781606,-10584.944971,148.041188,2145.067394
3375.781944,-11251.130318,-518.144159,2528.115143
3375.782281,-10807.006753,444.123565,3294.210641
3375.782618,-9178.553681,1480.411884,1762.019645
3375.782956,-9992.780217,1702.473667,919.314598
3375.783293,-10510.924376,2442.679609,-459.657299
3375.783631,-9326.594869,2146.597232,-2068.457845
3375.783968,-9770.718434,1184.329507,-306.438199
3375.784305,-9622.677246,1776.494261,153.219100
3375.784643,-11029.068536,1332.370696,-459.657299
3375.784980,-10436.903782,1628.453072,-689.485948
3375.785318,-9992.780217,1258.350101,-459.657299
3375.785655,-8734.430116,370.102971,-1302.362347
3375.785992,-8956.491898,-814.226536,-2221.676944
3375.786330,-9622.677246,-1776.494261,459.657299
3375.786667,-9992.780217,-1406.391290,766.095498
3375.787005,-10066.800811,-962.267725,612.876398
3375.787342,-11325.150913,-296.082377,689.485948
3375.787679,-10214.842000,-888.247130,-459.657299
3375.788017,-10436.903782,-1258.350101,689.485948
3375.788354,-10214.842000,-1406.391290,1378.971896
3375.788692,-9104.533087,-814.226536,1455.581446
3375.789029,-10658.965565,-666.185348,1838.629195
3375.789366,-11547.212695,-1036.288319,306.438199
3375.789704,-9474.636058,-962.267725,-306.438199
3375.790041,-9474.636058,-1184.329507,1532.190996
3375.790379,-10807.006753,0.000000,2528.115143
3375.790716,-8956.491898,148.041188,0.000000
3375.791053,-10807.006753,0.000000,-229.828649
3375.791391,-11029.068536,0.000000,0.000000
3375.791728,-9548.656652,-592.164754,-689.485948
3375.792065,-10436.903782,-666.185348,1838.629195
3375.792403,-10140.821405,-1480.411884,1455.581446
3375.792740,-9104.533087,-740.205942,766.095498
3375.793078,-9918.759623,0.000000,-995.924147
3375.793415,-10362.883188,0.000000,-842.705048
3375.793752,-9696.697840,-1036.288319,-842.705048
3375.794090,-10214.842000,0.000000,-459.657299
3375.794427,-10807.006753,-666.185348,1225.752797
3375.794765,-10214.842000,74.020594,1072.533697
3375.795102,-8660.409521,-592.164754,612.876398
3375.795439,-8512.368333,-1036.288319,1685.410096
3375.795777,-8882.471304,-148.041188,1685.410096
3375.796114,-9992.780217,592.164754,3064.381992
3375.796452,-11621.233289,444.123565,3064.381992
3375.796789,-9992.780217,2368.659014,0.000000
3375.797126,-10214.842000,1702.473667,-1072.533697
3375.797464,-11177.109724,1554.432478,-1072.533697
3375.797801,-8734.430116,370.102971,-2068.457845
3375.798139,-9178.553681,0.000000,766.095498
3375.798476,-9474.636058,370.102971,1378.971896
3375.798814,-9844.739029,0.000000,-383.047749
3375.799151,-11029.068536,518.144159,-995.924147
3375.799489,-10732.986159,-370.102971,-2145.067394
3375.799826,-9548.656652,-1110.308913,-3140.991542
3375.800163,-10066.800811,-1480.411884,-1225.752797
3375.800501,-9474.636058,-1628.453072,306.438199
3375.800838,-9474.636058,-962.267725,689.485948
3375.801176,-11029.068536,-1554.432478,-612.876398
3375.801513,-10732.986159,-1332.370696,-1532.190996
3375.801851,-10066.800811,-3108.864956,-766.095498
3375.802188,-10140.821405,-2960.823768,2145.067394
3375.802526,-9622.677246,-3182.885551,2451.505594
3375.802863,-9474.636058,-1776.494261,1915.238745
3375.803201,-9844.739029,-1184.329507,919.314598
3375.803538,-9770.718434,-444.123565,383.047749
3375.803876,-9696.697840,-370.102971,153.219100
3375.804213,-10584.944971,592.164754,919.314598
3375.804551,-11399.171507,518.144159,1532.190996
3375.804888,-10288.862594,74.020594,0.000000
3375.805225,-10658.965565,0.000000,0.000000
3375.805563,-10436.903782,148.041188,0.000000
3375.805900,-8808.450710,-592.164754,459.657299
3375.806238,-9104.533087,0.000000,1685.410096
3375.806575,-9622.677246,-518.144159,536.266849
3375.806913,-10362.883188,740.205942,-383.047749
3375.807250,-10955.047942,592.164754,-1838.629195
3375.807588,-10066.800811,148.041188,-1302.362347
3375.807925,-10436.903782,370.102971,0.000000
3375.808263,-9992.780217,-740.205942,1072.533697
3375.808600,-9548.656652,962.267725,1532.190996
3375.808938,-9474.636058,0.000000,689.485948
3375.809275,-10288.862594,370.102971,459.657299
3375.809613,-10584.944971,74.020594,306.438199
3375.809950,-10288.862594,0.000000,995.924147
3375.810287,-9770.718434,296.082377,2068.457845
3375.810625,-9918.759623,444.123565,2374.896044
3375.810962,-9844.739029,666.185348,1302.362347
3375.811300,-10214.842000,518.144159,-306.438199
3375.811637,-10658.965565,740.205942,-306.438199
3375.811975,-9474.636058,-518.144159,-306.438199
3375.812312,-9696.697840,-222.061783,1072.533697
3375.812650,-9178.553681,814.226536,1072.533697
3375.812987,-9400.615463,0.000000,-306.438199
3375.813325,-10807.006753,-296.082377,-1378.971896
3375.813662,-9844.739029,-814.226536,-2451.505594
3375.814000,-9030.512492,-814.226536,-1762.019645
3375.814337,-9770.718434,-1998.556043,0.000000
3375.814675,-9178.553681,-1332.370696,306.438199
3375.815012,-10214.842000,-1776.494261,-612.876398
3375.815349,-10807.006753,-1702.473667,0.000000
3375.815687,-9548.656652,-1406.391290,0.000000
3375.816024,-9844.739029,-1406.391290,1455.581446
3375.816362,-10955.047942,-1776.494261,3983.696590
3375.816699,-11473.192101,-592.164754,3140.991542
3375.817037,-10584.944971,0.000000,1378.971896
3375.817374,-11029.068536,222.061783,383.047749
3375.817712,-10732.986159,0.000000,459.657299
3375.818049,-9474.636058,-148.041188,919.314598
3375.818387,-9918.759623,0.000000,1685.410096
3375.818724,-10658.965565,814.226536,2604.724693
3375.819062,-10955.047942,1110.308913,0.000000
3375.819399,-10362.883188,1554.432478,-1762.019645
3375.819736,-9252.574275,888.247130,-1378.971896
3375.820074,-9770.718434,-592.164754,0.000000
3375.820411,-9548.656652,-962.267725,153.219100
3375.820749,-9400.615463,-666.185348,766.095498
3375.821086,-9400.615463,0.000000,76.609550
3375.821424,-9844.739029,-1184.329507,-2451.505594
3375.821761,-10436.903782,-1110.308913,-2604.724693
3375.822099,-9252.574275,-1702.473667,-1455.581446
3375.822436,-8882.471304,-2146.597232,153.219100
3375.822774,-9696.697840,-1036.288319,1378.971896
3375.823111,-9770.718434,-962.267725,612.876398
3375.823449,-11177.109724,0.000000,-536.266849
3375.823786,-10881.027347,-962.267725,-1225.752797
3375.824124,-10214.842000,-296.082377,0.000000
3375.824461,-10807.006753,-1110.308913,1838.629195
3375.824798,-10658.965565,-962.267725,2298.286494
3375.825136,-9770.718434,-444.123565,536.266849
3375.825473,-10362.883188,370.102971,536.266849
3375.825811,-11399.171507,740.205942,383.047749
3375.826148,-10732.986159,-296.082377,-229.828649
3375.826486,-10066.800811,-148.041188,1072.533697
3375.826823,-9844.739029,148.041188,1915.238745
3375.827161,-10066.800811,-370.102971,0.000000
3375.827498,-10436.903782,740.205942,-383.047749
3375.827836,-9992.780217,0.000000,-1378.971896
3375.828173,-9030.512492,-962.267725,-1532.190996
3375.828511,-9622.677246,-518.144159,0.000000
3375.828848,-9548.656652,-814.226536,1455.581446
3375.829186,-9178.553681,-1184.329507,0.000000
3375.829523,-10066.800811,-74.020594,-153.219100
3375.829860,-9326.594869,-296.082377,153.219100
3375.830198,-9326.594869,-370.102971,919.314598
3375.830535,-9696.697840,-740.205942,3064.381992
3375.830873,-9918.759623,148.041188,3677.258390
3375.831210,-10288.862594,444.123565,2987.772442
3375.831548,-10807.006753,1702.473667,1838.629195
3375.831885,-10807.006753,1332.370696,1302.362347
3375.832223,-10510.924376,1036.288319,995.924147
3375.832560,-9548.656652,592.164754,1225.752797
3375.832898,-10140.821405,1406.391290,1532.190996
3375.833235,-10140.821405,888.247130,-153.219100
3375.833573,-10436.903782,1406.391290,-1455.581446
3375.833910,-9770.718434,814.226536,-1762.019645
3375.834248,-8586.388927,370.102971,-2451.505594
3375.834585,-9770.718434,-962.267725,-459.657299
3375.834922,-10140.821405,-1332.370696,76.609550
3375.835260,-8660.409521,-518.144159,-1532.190996
3375.835597,-11325.150913,-1850.514855,-766.095498
3375.835935,-10658.965565,-1332.370696,-1532.190996
3375.836272,-8290.306550,-1850.514855,-1608.800546
3375.836610,-10584.944971,-2738.761985,1608.800546
3375.836947,-10140.821405,-2146.597232,1915.238745
3375.837285,-9622.677246,-2072.576638,-536.266849
3375.837622,-10510.924376,-962.267725,0.000000
3375.837960,-10510.924376,-1332.370696,-612.876398
3375.838297,-9770.718434,-1702.473667,-919.314598
3375.838635,-10510.924376,-1776.494261,1685.410096
3375.838972,-9622.677246,-296.082377,2681.334243
3375.839310,-9622.677246,0.000000,2451.505594
3375.839647,-11695.253884,1406.391290,1838.629195
3375.839984,-11769.274478,1480.411884,-229.828649
3375.840322,-11473.192101,1258.350101,-842.705048
3375.840659,-10955.047942,888.247130,536.266849
3375.840997,-9178.553681,-370.102971,536.266849
3375.841334,-7994.224174,518.144159,0.000000
3375.841672,-9474.636058,370.102971,-1378.971896
3375.842009,-8882.471304,222.061783,-2681.334243
3375.842347,-8364.327145,-592.164754,-1762.019645
3375.842684,-10732.986159,-1110.308913,1149.143247
3375.843022,-10214.842000,222.061783,1608.800546
3375.843359,-9548.656652,888.247130,383.047749
3375.843697,-11029.068536,1110.308913,-153.219100
3375.844034,-10362.883188,148.041188,-1915.238745
3375.844371,-8586.388927,-444.123565,-919.314598
3375.844709,-10140.821405,-1332.370696,3064.381992
3375.845046,-10066.800811,-1036.288319,3217.601092
3375.845384,-9326.594869,814.226536,842.705048
3375.845721,-10732.986159,592.164754,0.000000
3375.846059,-10288.862594,-518.144159,-919.314598
3375.846396,-8660.409521,-1036.288319,0.000000
3375.846734,-10288.862594,-1480.411884,3447.429741
3375.847071,-9696.697840,148.041188,3294.210641
3375.847409,-9992.780217,0.000000,1685.410096
3375.847746,-12213.398043,666.185348,612.876398
3375.848084,-11473.192101,592.164754,-1838.629195
3375.848421,-9252.574275,-518.144159,-2451.505594
3375.848759,-9548.656652,-2072.576638,0.000000
3375.849096,-9252.574275,-2812.782580,-229.828649
3375.849433,-8882.471304,-1850.514855,-1072.533697
3375.849771,-10510.924376,-1998.556043,-459.657299
3375.850108,-9548.656652,-1258.350101,-1685.410096
3375.850446,-11103.089130,-1702.473667,-536.266849
3375.850783,-11843.295072,-1702.473667,1608.800546
3375.851121,-9844.739029,-2368.659014,2834.553343
3375.851458,-9770.718434,-1258.350101,2528.115143
3375.851796,-10510.924376,-222.061783,1915.238745
3375.852133,-10955.047942,0.000000,689.485948
3375.852471,-10807.006753,-296.082377,306.438199
3375.852808,-10658.965565,0.000000,2604.724693
3375.853146,-10362.883188,962.267725,2604.724693
3375.853483,-9622.677246,1628.453072,1225.752797
3375.853821,-10584.944971,1776.494261,459.657299
3375.854158,-9252.574275,2294.638420,-2068.457845
3375.854495,-9252.574275,518.144159,-766.095498
3375.854833,-10140.821405,444.123565,1685.410096
3375.855170,-8512.368333,740.205942,1225.752797
3375.855508,-9474.636058,1036.288319,536.266849
3375.855845,-10510.924376,1554.432478,-536.266849
3375.856183,-9474.636058,888.247130,-2834.553343
3375.856520,-9252.574275,-296.082377,-2145.067394
3375.856858,-9918.759623,-1184.329507,-383.047749
3375.857195,-9400.615463,-370.102971,536.266849
3375.857533,-9178.553681,-296.082377,0.000000
3375.857870,-10288.862594,-814.226536,-612.876398
3375.858208,-9474.636058,-740.205942,-1302.362347
3375.858545,-9622.677246,-666.185348,-689.485948
3375.858883,-10362.883188,-518.144159,1072.533697
3375.859220,-10955.047942,-666.185348,1225.752797
3375.859557,-11177.109724,0.000000,459.657299
3375.859895,-10584.944971,-296.082377,-919.314598
3375.860232,-10140.821405,-592.164754,153.219100
3375.860570,-9844.739029,-962.267725,766.095498
3375.860907,-10066.800811,-1258.350101,1762.019645
3375.861245,-10658.965565,-666.185348,2068.457845
3375.861582,-11103.089130,518.144159,229.828649
3375.861920,-11621.233289,0.000000,-1838.629195
3375.862257,-9844.739029,-222.061783,-1762.019645
3375.862595,-8808.450710,-1776.494261,-1608.800546
3375.862932,-10140.821405,-1702.473667,1378.971896
3375.863270,-9400.615463,-1332.370696,536.266849
3375.863607,-9252.574275,-1036.288319,-689.485948
3375.863945,-11177.109724,-1628.453072,-612.876398
3375.864282,-9548.656652,-592.164754,-2145.067394
3375.864619,-9918.759623,-2220.617826,-76.609550
3375.864957,-9844.739029,-2516.700203,2681.334243
3375.865294,-8734.430116,-1184.329507,2604.724693
3375.865632,-9770.718434,-592.164754,1762.019645
3375.865969,-11103.089130,74.020594,842.705048
3375.866307,-10436.903782,296.082377,1149.143247
3375.866644,-10362.883188,296.082377,1762.019645
3375.866982,-9918.759623,1406.391290,2987.772442
3375.867319,-9770.718434,1184.329507,2987.772442
3375.867657,-9770.718434,1258.350101,1608.800546
3375.867994,-10732.986159,2294.638420,383.047749
3375.868332,-11251.130318,2368.659014,-383.047749
3375.868669,-9992.780217,1184.329507,-306.438199
3375.869006,-10362.883188,1184.329507,1378.971896
3375.869344,-9326.594869,1110.308913,536.266849
3375.869681,-9474.636058,814.226536,-306.438199
3375.870019,-10214.842000,814.226536,-919.314598
3375.870356,-9178.553681,-222.061783,-2068.457845
3375.870694,-8660.409521,-592.164754,-1915.238745
3375.871031,-10066.800811,-1184.329507,306.438199
3375.871369,-9844.739029,-444.123565,383.047749
3375.871706,-9918.759623,-1332.370696,-612.876398
3375.872044,-10732.986159,-1036.288319,-536.266849
3375.872381,-8956.491898,-1110.308913,-1378.971896
3375.872719,-8586.388927,-2146.597232,-1378.971896
3375.873056,-10436.903782,-2516.700203,995.924147
3375.873394,-10288.862594,-1776.494261,1838.629195
3375.873731,-9474.636058,-1924.535449,842.705048
3375.874068,-10955.047942,-592.164754,842.705048
3375.874406,-10214.842000,-296.082377,76.609550
3375.874743,-10066.800811,-370.102971,536.266849
3375.875081,-10955.047942,-1036.288319,2374.896044
3375.875418,-10881.027347,222.061783,2145.067394
3375.875756,-10807.006753,222.061783,995.924147
3375.876093,-11621.233289,592.164754,-842.705048
3375.876431,-10510.924376,-592.164754,-1455.581446
3375.876768,-9548.656652,0.000000,-383.047749
3375.877106,-9474.636058,-740.205942,1225.752797
3375.877443,-9844.739029,74.020594,842.705048
3375.877781,-9992.780217,-222.061783,-689.485948
3375.878118,-11695.253884,148.041188,0.000000
3375.878456,-10881.027347,518.144159,-689.485948
3375.878793,-8438.347739,0.000000,-536.266849
3375.879130,-9474.636058,-148.041188,1072.533697
3375.879468,-9474.636058,-666.185348,0.000000
3375.879805,-9326.594869,0.000000,-842.705048
3375.880143,-9622.677246,74.020594,153.219100
3375.880480,-10066.800811,-444.123565,1149.143247
3375.880818,-10288.862594,444.123565,2068.457845
3375.881155,-10288.862594,148.041188,2451.505594
3375.881493,-9474.636058,0.000000,1685.410096
3375.881830,-8882.471304,0.000000,76.609550
3375.882168,-9992.780217,962.267725,76.609550
3375.882505,-10140.821405,666.185348,-766.095498
3375.882843,-9400.615463,0.000000,-1072.533697
3375.883180,-10066.800811,-148.041188,229.828649
3375.883518,-9918.759623,518.144159,306.438199
3375.883855,-9474.636058,-148.041188,-153.219100
3375.884192,-10955.047942,888.247130,-1302.362347
3375.884530,-10362.883188,-518.144159,-2681.334243
3375.884867,-9326.594869,-1554.432478,-2374.896044
3375.885205,-10658.965565,-1776.494261,383.047749
3375.885542,-9696.697840,-1036.288319,-536.266849
3375.885880,-9992.780217,-962.267725,-1532.190996
3375.886217,-11177.109724,-962.267725,-919.314598
3375.886555,-10140.821405,-1554.432478,-689.485948
3375.886892,-9400.615463,-1776.494261,1455.581446
3375.887230,-9918.759623,-1258.350101,3294.210641
3375.887567,-10807.006753,-592.164754,3447.429741
3375.887905,-11695.253884,370.102971,1608.800546
3375.888242,-11251.130318,0.000000,306.438199
3375.888580,-8808.450710,518.144159,-612.876398
3375.888917,-9030.512492,-370.102971,1302.362347
3375.889254,-10140.821405,0.000000,2834.553343
3375.889592,-9326.594869,1480.411884,1455.581446
3375.889929,-9474.636058,888.247130,-306.438199
3375.890267,-9474.636058,888.247130,-383.047749
3375.890604,-8808.450710,-444.123565,0.000000
3375.890942,-9252.574275,-592.164754,1455.581446
3375.891279,-10066.800811,-888.247130,1991.848295
3375.891617,-9474.636058,1406.391290,612.876398
3375.891954,-10214.842000,1406.391290,-1532.190996
3375.892292,-11103.089130,814.226536,-1532.190996
3375.892629,-9844.739029,0.000000,-3064.381992
3375.892967,-9622.677246,-1184.329507,-1302.362347
3375.893304,-10436.903782,-2072.576638,1225.752797
3375.893641,-9400.615463,-1554.432478,612.876398
3375.893979,-9696.697840,-592.164754,995.924147
3375.894316,-11991.336260,0.000000,842.705048
3375.894654,-11325.150913,0.000000,1455.581446
3375.894991,-11695.253884,0.000000,2834.553343
3375.895329,-11325.150913,-518.144159,2987.772442
3375.895666,-10140.821405,518.144159,612.876398
3375.896004,-10362.883188,0.000000,-536.266849
3375.896341,-9992.780217,-148.041188,0.000000
3375.896679,-8956.491898,74.020594,-306.438199
3375.897016,-9548.656652,0.000000,153.219100
3375.897354,-9548.656652,0.000000,-689.485948
3375.897691,-9252.574275,-296.082377,-1149.143247
3375.898029,-10066.800811,0.000000,-842.705048
3375.898366,-10140.821405,-518.144159,-1378.971896
3375.898703,-9770.718434,-962.267725,-536.266849
3375.899041,-9326.594869,-1480.411884,0.000000
3375.899378,-8660.409521,-1258.350101,1072.533697
3375.899716,-8956.491898,-1332.370696,1072.533697
3375.900053,-10140.821405,-370.102971,612.876398
3375.900391,-10955.047942,-296.082377,-1149.143247
3375.900728,-10066.800811,-962.267725,-1149.143247
3375.901066,-9844.739029,-592.164754,842.705048
3375.901403,-9918.759623,592.164754,2145.067394
3375.901741,-9844.739029,888.247130,1915.238745
3375.902078,-10362.883188,1628.453072,536.266849
3375.902415,-11547.212695,1554.432478,842.705048
3375.902753,-11029.068536,1480.411884,76.609550
3375.903090,-11325.150913,444.123565,1225.752797
3375.903428,-11399.171507,814.226536,1378.971896
3375.903765,-9104.533087,592.164754,-229.828649
3375.904103,-9622.677246,888.247130,-842.705048
3375.904440,-9548.656652,-888.247130,0.000000
3375.904778,-9400.615463,-518.144159,-536.266849
3375.905115,-8808.450710,-1924.535449,-153.219100
3375.905452,-10510.924376,-666.185348,919.314598
3375.905790,-9844.739029,-296.082377,-1302.362347
3375.906127,-9770.718434,-1850.514855,-2987.772442
3375.906465,-8956.491898,-1924.535449,-1149.143247
3375.906802,-8956.491898,-2368.659014,76.609550
3375.907140,-9104.533087,-2220.617826,459.657299
3375.907477,-10214.842000,-1776.494261,1378.971896
3375.907815,-11251.130318,-1776.494261,383.047749
3375.908152,-10732.986159,-1036.288319,-842.705048
3375.908489,-10584.944971,-962.267725,0.000000
3375.908827,-9474.636058,-962.267725,2221.676944
3375.909164,-10066.800811,-1554.432478,2987.772442
3375.909502,-10881.027347,444.123565,3370.820191
3375.909839,-10807.006753,1184.329507,1455.581446
3375.910177,-11695.253884,1850.514855,0.000000
3375.910514,-12065.356855,1480.411884,-459.657299
3375.910852,-10436.903782,1184.329507,-689.485948
3375.911189,-9326.594869,222.061783,1302.362347
3375.911526,-9178.553681,666.185348,1762.019645
3375.911864,-8734.430116,1776.494261,459.657299
3375.912201,-10584.944971,1110.308913,-1149.143247
3375.912539,-10436.903782,962.267725,-2145.067394
3375.912876,-9474.636058,814.226536,-1225.752797
3375.913214,-9474.636058,-814.226536,0.000000
3375.913551,-9400.615463,-666.185348,1532.190996
3375.913889,-9030.512492,-592.164754,0.000000
3375.914226,-8512.368333,814.226536,-612.876398
3375.914564,-9696.697840,-518.144159,0.000000
3375.914901,-9326.594869,-1406.391290,1149.143247
3375.915238,-8808.450710,-666.185348,1378.971896
3375.915576,-10955.047942,-1258.350101,3064.381992
3375.915913,-10807.006753,444.123565,842.705048
3375.916251,-10288.862594,0.000000,-1302.362347
3375.916588,-10584.944971,0.000000,-383.047749
3375.916926,-8364.327145,-444.123565,383.047749
3375.917263,-9326.594869,-1406.391290,1838.629195
3375.917601,-10955.047942,0.000000,2451.505594
3375.917938,-10584.944971,74.020594,76.609550
3375.918275,-10436.903782,814.226536,-766.095498
3375.918613,-11547.212695,0.000000,-1225.752797
3375.918950,-9474.636058,-814.226536,-229.828649
3375.919288,-9918.759623,-1702.473667,459.657299
3375.919625,-11547.212695,-1480.411884,1762.019645
3375.919963,-9992.780217,-1184.329507,-1608.800546
3375.920300,-10288.862594,-1258.350101,-2987.772442
3375.920638,-10362.883188,-2146.597232,-1378.971896
3375.920975,-8808.450710,-2960.823768,-766.095498
3375.921312,-9326.594869,-2072.576638,2068.457845
3375.921650,-10584.944971,-1480.411884,2911.162892
3375.921987,-10658.965565,-962.267725,689.485948
3375.922325,-10362.883188,-666.185348,306.438199
3375.922662,-10807.006753,-740.205942,76.609550
3375.923000,-9030.512492,-296.082377,1302.362347
3375.923337,-7920.203579,-370.102971,1302.362347
3375.923675,-9622.677246,814.226536,2145.067394
3375.924012,-10140.821405,592.164754,0.000000
3375.924349,-9844.739029,1998.556043,-1762.019645
3375.924687,-10732.986159,1480.411884,-766.095498
3375.925024,-9104.533087,1258.350101,0.000000
3375.925362,-8216.285956,1554.432478,1072.533697
3375.925699,-10807.006753,1554.432478,2451.505594
3375.926037,-10436.903782,962.267725,0.000000
3375.926374,-9992.780217,1332.370696,-1685.410096
3375.926712,-10732.986159,740.205942,-919.314598
3375.927049,-8956.491898,1258.350101,-1225.752797
3375.927386,-9696.697840,148.041188,-612.876398
3375.927724,-10140.821405,-444.123565,153.219100
3375.928061,-9696.697840,-518.144159,-1149.143247
3375.928399,-10584.944971,0.000000,-842.705048
3375.928736,-10658.965565,-370.102971,-919.314598
3375.929074,-9030.512492,-2072.576638,-153.219100
3375.929411,-8882.471304,-2368.659014,1378.971896
3375.929749,-10140.821405,-2516.700203,3600.648841
3375.930086,-10066.800811,-592.164754,1838.629195
3375.930424,-10658.965565,-592.164754,459.657299
3375.930761,-11917.315666,-740.205942,229.828649
3375.931098,-10214.842000,-740.205942,306.438199
3375.931436,-9474.636058,-962.267725,1302.362347
3375.931773,-10140.821405,-296.082377,2604.724693
3375.932111,-9844.739029,-962.267725,-459.657299
3375.932448,-9770.718434,-592.164754,-2221.676944
3375.932786,-10066.800811,-1110.308913,-995.924147
3375.933123,-8734.430116,-962.267725,0.000000
3375.933461,-9696.697840,-888.247130,306.438199
3375.933798,-10584.944971,-1480.411884,919.314598
3375.934135,-9696.697840,-592.164754,-842.705048
3375.934473,-9696.697840,-1998.556043,-536.266849
3375.934810,-10807.006753,-1628.453072,919.314598
3375.935148,-9030.512492,-2294.638420,689.485948
3375.935485,-10436.903782,-1406.391290,2604.724693
3375.935823,-11695.253884,0.000000,2451.505594
3375.936160,-10066.800811,592.164754,0.000000
3375.936498,-10658.965565,518.144159,0.000000
3375.936835,-10436.903782,370.102971,-995.924147
3375.937172,-7846.182985,296.082377,-229.828649
3375.937510,-9400.615463,444.123565,2528.115143
3375.937847,-10436.903782,0.000000,3064.381992
3375.938185,-9918.759623,1258.350101,1762.019645
3375.938522,-11251.130318,3034.844362,612.876398
3375.938860,-11177.109724,1924.535449,76.609550
3375.939197,-10510.924376,0.000000,459.657299
3375.939535,-9548.656652,1110.308913,1608.800546
3375.939872,-9030.512492,-296.082377,1302.362347
3375.940209,-9474.636058,814.226536,459.657299
3375.940547,-10066.800811,0.000000,-1991.848295
3375.940884,-10658.965565,-222.061783,-3217.601092
3375.941222,-9400.615463,-740.205942,-3064.381992
3375.941559,-8364.327145,-1628.453072,-1302.362347
3375.941897,-9400.615463,-1776.494261,229.828649
3375.942234,-9178.553681,-1850.514855,-766.095498
3375.942572,-10658.965565,-592.164754,-1532.190996
3375.942909,-11473.192101,-1110.308913,-1455.581446
3375.943247,-9548.656652,-3182.885551,-766.095498
3375.943584,-9992.780217,-3701.029710,2374.896044
3375.943921,-10436.903782,-2516.700203,3370.820191
3375.944259,-8882.471304,-518.144159,689.485948
3375.944596,-11621.233289,-592.164754,0.000000
3375.944934,-11177.109724,-666.185348,-1225.752797
3375.945271,-9548.656652,222.061783,-1225.752797
3375.945609,-10066.800811,-518.144159,2145.067394
3375.945946,-10510.924376,-370.102971,2451.505594
3375.946284,-9918.759623,74.020594,919.314598
3375.946621,-10584.944971,666.185348,229.828649
3375.946958,-10362.883188,740.205942,0.000000
3375.947296,-10362.883188,-148.041188,383.047749
3375.947633,-9770.718434,-666.185348,229.828649
3375.947971,-9696.697840,148.041188,919.314598
3375.948308,-9326.594869,-296.082377,0.000000
3375.948646,-9104.533087,-444.123565,-1762.019645
3375.948983,-9252.574275,444.123565,-612.876398
3375.949321,-9326.594869,222.061783,0.000000
3375.949658,-10436.903782,296.082377,1378.971896
3375.949995,-10658.965565,74.020594,1302.362347
3375.950333,-9696.697840,0.000000,842.705048
3375.950670,-10288.862594,222.061783,536.266849
3375.951008,-10140.821405,148.041188,842.705048
3375.951345,-9770.718434,592.164754,1685.410096
3375.951683,-9918.759623,0.000000,1762.019645
3375.952020,-10510.924376,592.164754,2834.553343
3375.952358,-9548.656652,1036.288319,2221.676944
3375.952695,-10658.965565,1332.370696,842.705048
3375.953032,-11399.171507,1776.494261,0.000000
3375.953370,-9992.780217,1258.350101,-995.924147
3375.953707,-9696.697840,0.000000,689.485948
3375.954045,-10066.800811,74.020594,612.876398
3375.954382,-9622.677246,814.226536,-229.828649
3375.954720,-10436.903782,370.102971,-1225.752797
3375.955057,-10214.842000,-814.226536,-2298.286494
3375.955395,-8364.327145,-1036.288319,-1915.238745
3375.955732,-9548.656652,-1850.514855,0.000000
3375.956069,-9696.697840,-2442.679609,536.266849
3375.956407,-9622.677246,-2738.761985,995.924147
3375.956744,-9918.759623,-1258.350101,0.000000
3375.957082,-10066.800811,-1258.350101,0.000000
3375.957419,-9844.739029,-1406.391290,153.219100
3375.957757,-10362.883188,-2146.597232,1225.752797
3375.958094,-10732.986159,-1702.473667,2451.505594
3375.958432,-9696.697840,-962.267725,1685.410096
3375.958769,-9918.759623,-814.226536,1762.019645
3375.959107,-10732.986159,370.102971,1915.238745
3375.959444,-9844.739029,0.000000,-76.609550
3375.959781,-10288.862594,740.205942,1072.533697
3375.960119,-10807.006753,370.102971,1685.410096
3375.960456,-10214.842000,222.061783,76.609550
3375.960794,-10955.047942,1406.391290,0.000000
3375.961131,-9918.759623,814.226536,-612.876398
3375.961469,-9030.512492,888.247130,-1532.190996
3375.961806,-9474.636058,-370.102971,-612.876398
3375.962144,-9992.780217,222.061783,842.705048
3375.962481,-9326.594869,-592.164754,-689.485948
3375.962818,-9770.718434,0.000000,-766.095498
3375.963156,-10436.903782,-592.164754,-919.314598
3375.963493,-9696.697840,-1258.350101,-1378.971896
3375.963831,-9474.636058,-1406.391290,0.000000
3375.964168,-9622.677246,-888.247130,1455.581446
3375.964506,-9844.739029,-2146.597232,842.705048
3375.964843,-9844.739029,-1184.329507,459.657299
3375.965181,-10066.800811,-1554.432478,1149.143247
3375.965518,-9400.615463,-444.123565,919.314598
3375.965855,-10732.986159,-518.144159,2834.553343
3375.966193,-11547.212695,0.000000,2374.896044
3375.966530,-10066.800811,0.000000,1072.533697
3375.966868,-11029.068536,814.226536,919.314598
3375.967205,-10066.800811,1184.329507,-612.876398
3375.967543,-9252.574275,444.123565,-1608.800546
3375.967880,-10362.883188,0.000000,-919.314598
3375.968218,-10362.883188,-740.205942,-459.657299
3375.968555,-9474.636058,666.185348,-612.876398
3375.968892,-9770.718434,0.000000,-612.876398
3375.969230,-10288.862594,0.000000,-995.924147
3375.969567,-9400.615463,0.000000,-1532.190996
3375.969905,-10214.842000,-1480.411884,76.609550
3375.970242,-10288.862594,-1480.411884,1838.629195
3375.970580,-8956.491898,-2220.617826,1225.752797
3375.970917,-9548.656652,-814.226536,229.828649
3375.971255,-10436.903782,-962.267725,76.609550
3375.971592,-9548.656652,-370.102971,229.828649
3375.971930,-10066.800811,-740.205942,1225.752797
3375.972267,-9992.780217,74.020594,1608.800546
3375.972604,-8956.491898,444.123565,0.000000
3375.972942,-10140.821405,518.144159,689.485948
3375.973279,-10436.903782,444.123565,383.047749
3375.973617,-9252.574275,444.123565,1072.533697
3375.973954,-10362.883188,518.144159,3064.381992
3375.974292,-10362.883188,1184.329507,1608.800546
3375.974629,-9918.759623,1110.308913,0.000000
3375.974967,-11917.315666,1184.329507,842.705048
3375.975304,-11029.068536,666.185348,-383.047749
3375.975641,-8808.450710,0.000000,-2145.067394
3375.975979,-9548.656652,-592.164754,-1378.971896
3375.976316,-9844.739029,-888.247130,-459.657299
3375.976654,-8586.388927,-518.144159,-1608.800546
3375.976991,-9030.512492,-1184.329507,-1532.190996
3375.977329,-10510.924376,-962.267725,-1149.143247
3375.977666,-9696.697840,-2442.679609,-995.924147
3375.978004,-10140.821405,-2368.659014,1455.581446
3375.978341,-10881.027347,-2072.576638,2681.334243
3375.978678,-9252.574275,-1924.535449,1608.800546
3375.979016,-9770.718434,-1554.432478,1915.238745
3375.979353,-11695.253884,-1110.308913,2987.772442
3375.979691,-10658.965565,-296.082377,1149.143247
3375.980028,-11029.068536,-518.144159,459.657299
3375.980366,-10362.883188,0.000000,229.828649
3375.980703,-9326.594869,0.000000,0.000000
3375.981041,-9844.739029,962.267725,1378.971896
3375.981378,-10807.006753,666.185348,-153.219100
3375.981715,-8586.388927,1332.370696,-612.876398
3375.982053,-10066.800811,518.144159,919.314598
3375.982390,-10658.965565,666.185348,1225.752797
3375.982728,-11029.068536,1036.288319,229.828649
3375.983065,-11473.192101,518.144159,0.000000
3375.983403,-10362.883188,74.020594,229.828649
3375.983740,-9400.615463,-370.102971,-306.438199
3375.984078,-9622.677246,222.061783,153.219100
3375.984415,-9622.677246,-740.205942,-76.609550
3375.984752,-8882.471304,-370.102971,-1685.410096
3375.985090,-10362.883188,0.000000,-1225.752797
3375.985427,-9696.697840,148.041188,-1762.019645
3375.985765,-8660.409521,-370.102971,-536.266849
3375.986102,-10807.006753,-518.144159,1072.533697
3375.986440,-10288.862594,-370.102971,1762.019645
3375.986777,-9548.656652,0.000000,1915.238745
3375.987115,-9992.780217,-740.205942,2757.943793
3375.987452,-10584.944971,-296.082377,2298.286494
3375.987790,-9326.594869,-444.123565,766.095498
3375.988127,-9548.656652,-444.123565,919.314598
3375.988464,-9326.594869,222.061783,306.438199
3375.988802,-9622.677246,666.185348,-1378.971896
3375.989139,-10066.800811,666.185348,-2451.505594
3375.989477,-10066.800811,-74.020594,-1915.238745
3375.989814,-9548.656652,-814.226536,0.000000
3375.990152,-10807.006753,-1406.391290,383.047749
3375.990489,-10584.944971,-1554.432478,1225.752797
3375.990827,-9252.574275,-666.185348,0.000000
3375.991164,-10658.965565,-1702.473667,306.438199
3375.991501,-11621.233289,-1702.473667,0.000000
3375.991839,-9918.759623,-1776.494261,229.828649
3375.992176,-10584.944971,-2220.617826,536.266849
3375.992514,-10066.800811,-1702.473667,766.095498
3375.992851,-9104.533087,-666.185348,306.438199
3375.993189,-10955.047942,-296.082377,1072.533697
3375.993526,-10436.903782,518.144159,229.828649
3375.993864,-8586.388927,-888.247130,459.657299
3375.994201,-11177.109724,444.123565,2987.772442
3375.994538,-10881.027347,666.185348,2528.115143
3375.994876,-9696.697840,1554.432478,1378.971896
3375.995213,-10436.903782,1850.514855,536.266849
3375.995551,-9548.656652,444.123565,306.438199
3375.995888,-8068.244768,666.185348,842.705048
3375.996226,-8956.491898,962.267725,1608.800546
3375.996563,-10807.006753,740.205942,995.924147
3375.996901,-9992.780217,2368.659014,-1838.629195
3375.997238,-10214.842000,2368.659014,-1302.362347
3375.997575,-10955.047942,1110.308913,-1302.362347
3375.997913,-8660.409521,0.000000,-1378.971896
3375.998250,-9178.553681,-444.123565,306.438199
3375.998588,-10066.800811,-370.102971,1302.362347
3375.998925,-9918.759623,-814.226536,-76.609550
3375.999263,-10658.965565,0.000000,-229.828649
3375.999600,-9770.718434,-814.226536,-1378.971896
3375.999938,-8660.409521,-1406.391290,-842.705048
3376.000275,-10066.800811,-1554.432478,842.705048
3376.000613,-10658.965565,-1776.494261,1608.800546
3376.000950,-9770.718434,-148.041188,229.828649
3376.001288,-11177.109724,-444.123565,1072.533697
3376.001625,-11029.068536,-222.061783,766.095498
3376.001962,-10214.842000,-1850.514855,153.219100
3376.002300,-10214.842000,-1332.370696,2145.067394
3376.002637,-9622.677246,-888.247130,1225.752797
3376.002975,-9844.739029,0.000000,-1072.533697
3376.003312,-11399.171507,-222.061783,-1302.362347
3376.003650,-10436.903782,-518.144159,-1685.410096
3376.003987,-8734.430116,-1702.473667,-1915.238745
3376.004325,-10140.821405,-740.205942,0.000000
3376.004662,-10584.944971,-1036.288319,153.219100
3376.005000,-9918.759623,-1184.329507,-1149.143247
3376.005337,-10881.027347,-666.185348,-1378.971896
3376.005675,-9696.697840,-1036.288319,-612.876398
3376.006012,-9474.636058,-1036.288319,1149.143247
3376.006350,-9696.697840,-1406.391290,1762.019645
3376.006687,-10584.944971,-1332.370696,1762.019645
3376.007025,-9770.718434,148.041188,1225.752797
3376.007362,-10436.903782,296.082377,1302.362347
3376.007700,-10362.883188,592.164754,842.705048
3376.008037,-9030.512492,814.226536,1149.143247
3376.008375,-9844.739029,740.205942,2221.676944
3376.008712,-9696.697840,1406.391290,1838.629195
3376.009050,-8882.471304,1776.494261,1302.362347
3376.009387,-10732.986159,1776.494261,1455.581446
3376.009725,-10807.006753,1998.556043,689.485948
3376.010062,-9252.574275,1924.535449,0.000000
3376.010400,-10362.883188,962.267725,1838.629195
3376.010737,-9992.780217,740.205942,306.438199
3376.011075,-9030.512492,444.123565,-1072.533697
3376.011412,-10362.883188,518.144159,-1378.971896
3376.011749,-9844.739029,-148.041188,-1302.362347
3376.012087,-8956.491898,-2072.576638,-766.095498
3376.012424,-9770.718434,-1628.453072,842.705048
3376.012762,-9326.594869,-1406.391290,-689.485948
3376.013099,-9400.615463,-1036.288319,-766.095498
3376.013437,-10881.027347,-1184.329507,-919.314598
3376.013774,-10510.924376,-1998.556043,0.000000
3376.014112,-10658.965565,-2220.617826,536.266849
3376.014449,-10436.903782,-2516.700203,2068.457845
3376.014787,-10732.986159,-1258.350101,2298.286494
3376.015124,-10066.800811,-1036.288319,536.266849
3376.015462,-10881.027347,-518.144159,1455.581446
3376.015799,-10658.965565,0.000000,229.828649
3376.016137,-10214.842000,-1184.329507,-153.219100
3376.016474,-11251.130318,-888.247130,1455.581446
3376.016812,-10066.800811,-222.061783,612.876398
3376.017149,-9474.636058,74.020594,306.438199
3376.017487,-10288.862594,666.185348,306.438199
3376.017824,-10214.842000,0.000000,0.000000
3376.018162,-10584.944971,-74.020594,0.000000
3376.018499,-11103.089130,74.020594,229.828649
3376.018837,-9178.553681,518.144159,-1225.752797
3376.019174,-8734.430116,0.000000,-1991.848295
3376.019512,-9622.677246,444.123565,-1838.629195
3376.019849,-9326.594869,-296.082377,-1302.362347
3376.020187,-8956.491898,-370.102971,-229.828649
3376.020524,-9326.594869,-962.267725,1762.019645
3376.020862,-10436.903782,0.000000,2068.457845
3376.021199,-9844.739029,222.061783,766.095498
3376.021537,-9770.718434,0.000000,842.705048
3376.021874,-9474.636058,74.020594,1838.629195
3376.022211,-8734.430116,222.061783,1608.800546
3376.022549,-10658.965565,962.267725,2145.067394
3376.022886,-11103.089130,1110.308913,995.924147
3376.023224,-10658.965565,1184.329507,-536.266849
3376.023561,-11325.150913,1110.308913,0.000000
3376.023899,-9622.677246,148.041188,-612.876398
3376.024236,-8364.327145,74.020594,0.000000
3376.024574,-10436.903782,-888.247130,1225.752797
3376.024911,-10214.842000,-740.205942,995.924147
3376.025249,-10658.965565,0.000000,-76.609550
3376.025586,-11325.150913,-518.144159,-1225.752797
3376.025924,-11029.068536,-814.226536,-1838.629195
3376.026261,-9548.656652,-2146.597232,-1762.019645
3376.026599,-10510.924376,-2738.761985,612.876398
3376.026936,-8956.491898,-2368.659014,153.219100
3376.027274,-9326.594869,-2146.597232,229.828649
3376.027611,-10140.821405,-1332.370696,-459.657299
3376.027949,-10140.821405,-1702.473667,-306.438199
3376.028286,-9770.718434,-1776.494261,1072.533697
3376.028624,-10658.965565,-1480.411884,1915.238745
3376.028961,-10362.883188,518.144159,2298.286494
3376.029299,-9844.739029,592.164754,229.828649
3376.029636,-10658.965565,962.267725,1225.752797
3376.029974,-10510.924376,296.082377,1225.752797
3376.030311,-9696.697840,74.020594,2374.896044
3376.030649,-9474.636058,666.185348,2834.553343
3376.030986,-10066.800811,888.247130,1915.238745
3376.031324,-10140.821405,1776.494261,0.000000
3376.031661,-10214.842000,2664.741391,-919.314598
3376.031998,-10955.047942,1332.370696,-1225.752797
3376.032336,-9030.512492,222.061783,-1149.143247
3376.032673,-8808.450710,148.041188,0.000000
3376.033011,-9178.553681,1258.350101,383.047749
3376.033348,-8956.491898,0.000000,-612.876398
3376.033686,-10140.821405,-296.082377,-383.047749
3376.034023,-10288.862594,-740.205942,-536.266849
3376.034361,-9622.677246,-444.123565,0.000000
3376.034698,-10658.965565,-2146.597232,2068.457845
3376.035036,-9548.656652,-2072.576638,1532.190996
3376.035373,-9178.553681,-370.102971,612.876398
3376.035711,-10955.047942,370.102971,306.438199
3376.036048,-10732.986159,-888.247130,-306.438199
3376.036386,-9252.574275,-1480.411884,-536.266849
3376.036723,-11029.068536,-1110.308913,1762.019645
3376.037061,-9548.656652,74.020594,1072.533697
3376.037398,-9622.677246,296.082377,-383.047749
3376.037736,-11251.130318,296.082377,76.609550
3376.038073,-10955.047942,-370.102971,0.000000
3376.038411,-10288.862594,-296.082377,76.609550
3376.038748,-10658.965565,-962.267725,842.705048
3376.039086,-10140.821405,-1110.308913,919.314598
3376.039423,-9918.759623,-1258.350101,-1532.190996
3376.039761,-9770.718434,-444.123565,-995.924147
3376.040098,-9548.656652,-666.185348,-689.485948
3376.040436,-9770.718434,-2072.576638,-842.705048
3376.040773,-10584.944971,-1628.453072,1072.533697
3376.041111,-9844.739029,-814.226536,689.485948
3376.041448,-9548.656652,222.061783,-689.485948
3376.041786,-10436.903782,-370.102971,-995.924147
3376.042123,-9622.677246,-962.267725,-459.657299
3376.042460,-8512.368333,-1850.514855,1378.971896
3376.042798,-9918.759623,-1850.514855,3830.477490
3376.043135,-10140.821405,148.041188,3524.039291
3376.043473,-9400.615463,1036.288319,459.657299
3376.043810,-11325.150913,1036.288319,612.876398
3376.044148,-10807.006753,2220.617826,536.266849
3376.044485,-8586.388927,888.247130,536.266849
3376.044823,-10214.842000,1850.514855,2374.896044
3376.045160,-9622.677246,1776.494261,459.657299
3376.045498,-9844.739029,2368.659014,-1302.362347
3376.045835,-11325.150913,1850.514855,-1915.238745
3376.046173,-9474.636058,962.267725,-1915.238745
3376.046510,-8808.450710,-296.082377,0.000000
3376.046848,-9844.739029,-888.247130,1532.190996
3376.047185,-9548.656652,-592.164754,-306.438199
3376.047523,-9178.553681,-444.123565,-1915.238745
3376.047860,-10584.944971,-1258.350101,-612.876398
3376.048198,-9844.739029,-1702.473667,-1608.800546
3376.048535,-9400.615463,-1184.329507,76.609550
3376.048873,-9992.780217,-1924.535449,1608.800546
3376.049210,-10140.821405,-1924.535449,1225.752797
3376.049548,-10214.842000,-592.164754,-383.047749
3376.049885,-10881.027347,-1036.288319,-919.314598
3376.050223,-10140.821405,-592.164754,-153.219100
3376.050560,-9770.718434,-1480.411884,76.609550
3376.050898,-10362.883188,-1480.411884,2528.115143
3376.051235,-9400.615463,-592.164754,1915.238745
3376.051573,-9474.636058,148.041188,1072.533697
3376.051910,-11917.315666,888.247130,1378.971896
3376.052247,-10955.047942,296.082377,0.000000
3376.052585,-10288.862594,222.061783,306.438199
3376.052922,-10955.047942,-518.144159,2221.676944
3376.053260,-9474.636058,0.000000,459.657299
3376.053597,-9252.574275,1258.350101,-1149.143247
3376.053935,-10362.883188,518.144159,-1532.190996
3376.054272,-9326.594869,222.061783,-2604.724693
3376.054610,-9104.533087,-666.185348,-1762.019645
3376.054947,-9844.739029,-740.205942,995.924147
3376.055285,-8512.368333,-740.205942,383.047749
3376.055622,-9252.574275,74.020594,766.095498
3376.055960,-10955.047942,1036.288319,459.657299
3376.056297,-10658.965565,740.205942,-383.047749
3376.056635,-9326.594869,74.020594,0.000000
3376.056972,-10140.821405,-1406.391290,2451.505594
3376.057310,-9400.615463,296.082377,2681.334243
3376.057647,-9696.697840,1554.432478,1378.971896
3376.057985,-11547.212695,1258.350101,536.266849
3376.058322,-10362.883188,814.226536,-306.438199
3376.058660,-10510.924376,74.020594,229.828649
3376.058997,-10362.883188,888.247130,612.876398
3376.059335,-9400.615463,1036.288319,0.000000
3376.059672,-9178.553681,1628.453072,-1762.019645
3376.060010,-10584.944971,296.082377,-2604.724693
3376.060347,-10436.903782,148.041188,-1838.629195
3376.060685,-9400.615463,0.000000,-1685.410096
3376.061022,-9770.718434,-370.102971,-459.657299
3376.061360,-9918.759623,-814.226536,-1072.533697
3376.061697,-10362.883188,-1184.329507,-2221.676944
3376.062035,-11325.150913,-592.164754,-1302.362347
3376.062372,-9696.697840,-518.144159,-2681.334243
3376.062709,-8808.450710,-296.082377,-2298.286494
3376.063047,-10288.862594,-1406.391290,-766.095498
3376.063384,-10140.821405,-1332.370696,-689.485948
3376.063722,-10140.821405,-962.267725,-995.924147
3376.064059,-9918.759623,444.123565,-306.438199
3376.064397,-10362.883188,962.267725,153.219100
3376.064734,-11325.150913,1332.370696,-766.095498
3376.065072,-9992.780217,666.185348,-459.657299
3376.065409,-9474.636058,1628.453072,1378.971896
3376.065747,-10658.965565,2368.659014,919.314598
3376.066084,-10510.924376,3330.926739,-2757.943793
3376.066422,-9770.718434,2516.700203,-3447.429741
3376.066759,-10658.965565,2812.782580,-2221.676944
3376.067097,-8956.491898,2072.576638,-3447.429741
3376.067434,-9178.553681,2812.782580,-1762.019645
3376.067772,-8660.409521,2664.741391,-1915.238745
3376.068109,-10436.903782,2072.576638,-2528.115143
3376.068447,-11029.068536,3404.947333,-3370.820191
3376.068784,-9770.718434,2294.638420,-3677.258390
3376.069122,-10066.800811,1998.556043,-2221.676944
3376.069459,-9474.636058,444.123565,-2451.505594
3376.069797,-9104.533087,1554.432478,-1302.362347
3376.070134,-9474.636058,1110.308913,-842.705048
3376.070472,-10807.006753,740.205942,-1608.800546
3376.070809,-10584.944971,2072.576638,-2834.553343
3376.071147,-10288.862594,592.164754,-1532.190996
3376.071484,-10214.842000,1554.432478,-383.047749
3376.071822,-9992.780217,2146.597232,-766.095498
3376.072159,-9252.574275,3627.009116,-842.705048
3376.072496,-10584.944971,1702.473667,-459.657299
3376.072834,-12509.480420,1702.473667,153.219100
3376.073171,-10807.006753,2442.679609,-1762.019645
3376.073509,-9326.594869,2516.700203,-2681.334243
3376.073846,-10510.924376,518.144159,-1225.752797
3376.074184,-10288.862594,666.185348,-2911.162892
3376.074521,-9252.574275,444.123565,-3294.210641
3376.074859,-8290.306550,1702.473667,-2987.772442
3376.075196,-9030.512492,148.041188,-1149.143247
3376.075534,-11769.274478,444.123565,-1225.752797
3376.075871,-10510.924376,1406.391290,-4060.306139
3376.076209,-9326.594869,1850.514855,-3064.381992
3376.076546,-10140.821405,1184.329507,-842.705048
3376.076884,-10732.986159,148.041188,-1378.971896
3376.077221,-9104.533087,1184.329507,-2987.772442
3376.077559,-8290.306550,1628.453072,-766.095498
3376.077896,-9400.615463,1480.411884,612.876398
3376.078234,-12287.418637,-518.144159,842.705048
3376.078571,-11325.150913,2368.659014,-842.705048
3376.078909,-8808.450710,3849.070898,-1915.238745
3376.079246,-9622.677246,4737.318029,-1378.971896
3376.079584,-11621.233289,3404.947333,-2221.676944
3376.079921,-10584.944971,2738.761985,-2911.162892
3376.080259,-7846.182985,4293.194464,-2451.505594
3376.080596,-9400.615463,2812.782580,-919.314598
3376.080934,-10955.047942,3404.947333,-1072.533697
3376.081271,-11547.212695,592.164754,-1225.752797
3376.081609,-8660.409521,2072.576638,-2068.457845
3376.081946,-8216.285956,2146.597232,-1991.848295
3376.082284,-11547.212695,2368.659014,-2757.943793
3376.082621,-11177.109724,1480.411884,-5362.668486
3376.082958,-9178.553681,-74.020594,-4903.011187
3376.083296,-8438.347739,222.061783,-2834.553343
3376.083633,-8882.471304,370.102971,-2298.286494
3376.083971,-10732.986159,1406.391290,-2451.505594
3376.084308,-10066.800811,444.123565,-3677.258390
3376.084646,-8882.471304,-1776.494261,-1302.362347
3376.084983,-9252.574275,-1258.350101,2221.676944
3376.085321,-11399.171507,444.123565,3294.210641
3376.085658,-13397.727550,1628.453072,919.314598
3376.085996,-12213.398043,1480.411884,-3983.696590
3376.086333,-9252.574275,444.123565,-3830.477490
3376.086671,-8438.347739,74.020594,-306.438199
3376.087008,-8660.409521,444.123565,2298.286494
3376.087346,-11251.130318,1924.535449,-1378.971896
3376.087683,-10881.027347,2664.741391,-5592.497135
3376.088021,-10214.842000,2812.782580,-5439.278036
3376.088358,-9548.656652,1702.473667,-1685.410096
3376.088696,-9474.636058,1110.308913,-689.485948
3376.089033,-10510.924376,1332.370696,-536.266849
3376.089371,-11251.130318,1554.432478,-919.314598
3376.089708,-9474.636058,2812.782580,-2451.505594
3376.090046,-9696.697840,1554.432478,-2221.676944
3376.090383,-9548.656652,1480.411884,-1915.238745
3376.090721,-9474.636058,1406.391290,-3447.429741
3376.091058,-8882.471304,1332.370696,-2757.943793
3376.091396,-7772.162391,1110.308913,-1302.362347
3376.091733,-8364.327145,1628.453072,-383.047749
3376.092071,-11177.109724,2886.803174,-1072.533697
3376.092408,-11621.233289,4145.153275,-1915.238745
3376.092745,-11399.171507,4885.359217,-2604.724693
3376.093083,-10140.821405,3256.906145,-1915.238745
3376.093420,-9474.636058,2812.782580,-1225.752797
3376.093758,-7328.038826,2146.597232,-1225.752797
3376.094095,-8438.347739,2294.638420,-306.438199
3376.094433,-11177.109724,2516.700203,842.705048
3376.094770,-12509.480420,2368.659014,-536.266849
3376.095108,-11473.192101,2664.741391,-2451.505594
3376.095445,-10214.842000,3256.906145,-3983.696590
3376.095783,-10214.842000,3034.844362,-3753.867940
3376.096120,-10288.862594,2294.638420,-5362.668486
3376.096458,-8882.471304,444.123565,-5669.106685
3376.096795,-7624.121203,888.247130,-3983.696590
3376.097133,-8438.347739,74.020594,-2834.553343
3376.097470,-10807.006753,0.000000,-2298.286494
3376.097808,-10288.862594,-740.205942,-2298.286494
3376.098145,-9992.780217,-740.205942,536.266849
3376.098483,-10732.986159,222.061783,2374.896044
3376.098820,-12139.377449,1480.411884,842.705048
3376.099158,-11991.336260,2738.761985,-1378.971896
3376.099495,-9918.759623,1480.411884,-2987.772442
3376.099833,-8660.409521,1406.391290,-1302.362347
3376.100170,-9030.512492,1332.370696,-689.485948
3376.100508,-9178.553681,1702.473667,-766.095498
3376.100845,-9696.697840,2590.720797,-1915.238745
3376.101183,-10066.800811,2516.700203,-1915.238745
3376.101520,-11621.233289,3552.988522,-1762.019645
3376.101857,-11695.253884,3923.091493,-229.828649
3376.102195,-11547.212695,4737.318029,-153.219100
3376.102532,-10288.862594,3923.091493,-1685.410096
3376.102869,-9252.574275,3404.947333,-1915.238745
3376.103207,-9030.512492,2516.700203,-612.876398
3376.103544,-8512.368333,1628.453072,0.000000
3376.103881,-9178.553681,1258.350101,-1915.238745
3376.104219,-10658.965565,1184.329507,-2604.724693
3376.104556,-10584.944971,1554.432478,-2911.162892
3376.104893,-9770.718434,1184.329507,-2757.943793
3376.105231,-9548.656652,1258.350101,-1915.238745
3376.105568,-9622.677246,1998.556043,-2451.505594
3376.105905,-10436.903782,2368.659014,-2451.505594
3376.106243,-9844.739029,1850.514855,-2451.505594
3376.106580,-9030.512492,962.267725,-1762.019645
3376.106917,-8734.430116,814.226536,-842.705048
3376.107255,-9770.718434,666.185348,-766.095498
3376.107592,-10140.821405,1184.329507,-1072.533697
3376.107929,-10881.027347,1036.288319,-1302.362347
3376.108267,-11325.150913,1184.329507,-1838.629195
3376.108604,-10955.047942,2368.659014,-2145.067394
3376.108941,-11695.253884,2368.659014,-2451.505594
3376.109279,-10584.944971,1332.370696,-3524.039291
3376.109616,-9326.594869,814.226536,-3600.648841
3376.109953,-9030.512492,296.082377,-1532.190996
3376.110291,-8808.450710,296.082377,-1455.581446
3376.110628,-10066.800811,0.000000,-1149.143247
3376.110965,-10881.027347,740.205942,-1302.362347
3376.111303,-11769.274478,-592.164754,-1302.362347
3376.111640,-10881.027347,-370.102971,306.438199
3376.111977,-10955.047942,-592.164754,306.438199
3376.112315,-10510.924376,0.000000,229.828649
3376.112652,-9474.636058,222.061783,-1225.752797
3376.112990,-9474.636058,1036.288319,-919.314598
3376.113327,-9474.636058,962.267725,-1532.190996
3376.113664,-9030.512492,1406.391290,-1762.019645
3376.114002,-10066.800811,1850.514855,-1302.362347
3376.114339,-9844.739029,3478.967927,-1225.752797
3376.114676,-10214.842000,2812.782580,-1532.190996
3376.115014,-10066.800811,3182.885551,-1532.190996
3376.115351,-9918.759623,4145.153275,-1915.238745
3376.115688,-9992.780217,4071.132681,-2451.505594
3376.116026,-10214.842000,3552.988522,-3677.258390
3376.116363,-8956.491898,3478.967927,-3753.867940
3376.116700,-9622.677246,2294.638420,-3294.210641
3376.117038,-9474.636058,1924.535449,-3294.210641
3376.117375,-9474.636058,2812.782580,-3447.429741
3376.117712,-10288.862594,2590.720797,-3753.867940
3376.118050,-9474.636058,2294.638420,-4136.915689
3376.118387,-10066.800811,1702.473667,-3677.258390
3376.118724,-10436.903782,1554.432478,-2528.115143
3376.119062,-9474.636058,1628.453072,-2374.896044
3376.119399,-9770.718434,1110.308913,-2681.334243
3376.119736,-9844.739029,1110.308913,-1608.800546
3376.120074,-10362.883188,962.267725,-1532.190996
3376.120411,-10881.027347,2294.638420,-919.314598
3376.120748,-10732.986159,3256.906145,-2145.067394
3376.121086,-10362.883188,2664.741391,-2374.896044
3376.121423,-10288.862594,2220.617826,-2145.067394
3376.121760,-9030.512492,2368.659014,0.000000
3376.122098,-9992.780217,2368.659014,1072.533697
3376.122435,-10881.027347,3034.844362,842.705048
3376.122772,-11103.089130,3627.009116,-1378.971896
3376.123110,-10584.944971,3404.947333,-995.924147
3376.123447,-9696.697840,2590.720797,-1149.143247
3376.123784,-9474.636058,1850.514855,0.000000
3376.124122,-10658.965565,3182.885551,-1225.752797
3376.124459,-9770.718434,3849.070898,-3217.601092
3376.124796,-9622.677246,3478.967927,-4060.306139
3376.125134,-9178.553681,1628.453072,-3217.601092
3376.125471,-9400.615463,666.185348,-919.314598
3376.125808,-9474.636058,1554.432478,229.828649
3376.126146,-9474.636058,2294.638420,-306.438199
3376.126483,-10881.027347,2146.597232,229.828649
3376.126820,-11473.192101,2368.659014,-995.924147
3376.127158,-9400.615463,2220.617826,-2757.943793
3376.127495,-9474.636058,3775.050304,-1915.238745
3376.127832,-10140.821405,2072.576638,-1685.410096
3376.128170,-10362.883188,1332.370696,-2221.676944
3376.128507,-9030.512492,592.164754,-1072.533697
3376.128844,-9030.512492,2072.576638,306.438199
3376.129182,-11399.171507,3256.906145,229.828649
3376.129519,-13027.624579,3034.844362,-3983.696590
3376.129856,-10066.800811,2812.782580,-5822.325785
3376.130194,-7476.080014,2072.576638,-3830.477490
3376.130531,-8364.327145,1184.329507,-459.657299
3376.130868,-10140.821405,222.061783,-1608.800546
3376.131206,-10658.965565,1110.308913,-2987.772442
3376.131543,-10510.924376,814.226536,-3753.867940
3376.131880,-9770.718434,518.144159,-4290.134789
3376.132218,-9548.656652,-370.102971,-3983.696590
3376.132555,-9178.553681,-1258.350101,-2987.772442
3376.132892,-9252.574275,-1332.370696,-2528.115143
3376.133230,-9992.780217,-592.164754,-1302.362347
3376.133567,-11251.130318,1258.350101,-1378.971896
3376.133904,-10584.944971,0.000000,-2604.724693
3376.134242,-9178.553681,222.061783,-3064.381992
3376.134579,-9770.718434,0.000000,-689.485948
3376.134916,-9770.718434,222.061783,229.828649
3376.135254,-10066.800811,296.082377,689.485948
3376.135591,-10881.027347,1776.494261,-306.438199
3376.135928,-11695.253884,2664.741391,-1608.800546
3376.136266,-11991.336260,2812.782580,-1991.848295
3376.136603,-10807.006753,2368.659014,-153.219100
3376.136941,-9474.636058,3182.885551,0.000000
3376.137278,-9474.636058,3849.070898,-1149.143247
3376.137615,-9770.718434,4071.132681,-2987.772442
3376.137953,-9252.574275,3552.988522,-3447.429741
3376.138290,-9474.636058,1702.473667,-3140.991542
3376.138627,-9474.636058,1554.432478,-1378.971896
3376.138965,-9400.615463,2886.803174,-1608.800546
3376.139302,-9474.636058,2960.823768,-2374.896044
3376.139639,-10288.862594,1184.329507,-1838.629195
3376.139977,-9548.656652,1406.391290,-2068.457845
3376.140314,-10214.842000,2368.659014,-229.828649
3376.140651,-10066.800811,3923.091493,-1072.533697
3376.140989,-9326.594869,3108.864956,-3217.601092
3376.141326,-9770.718434,222.061783,-3064.381992
3376.141663,-7550.100608,0.000000,-1685.410096
3376.142001,-8068.244768,888.247130,689.485948
3376.142338,-10362.883188,2812.782580,1378.971896
3376.142675,-12657.521608,2294.638420,-612.876398
3376.143013,-13249.686362,3108.864956,-2374.896044
3376.143350,-10732.986159,3182.885551,-2298.286494
3376.143687,-8882.471304,4441.235652,-229.828649
3376.144025,-11473.192101,2960.823768,0.000000
3376.144362,-11621.233289,2442.679609,-2604.724693
3376.144699,-9474.636058,1184.329507,-4290.134789
3376.145037,-7031.956449,2368.659014,-2298.286494
3376.145374,-9770.718434,1924.535449,-459.657299
3376.145711,-14359.995275,1184.329507,-2528.115143
3376.146049,-11103.089130,1184.329507,-6435.202183
3376.146386,-7254.018232,1184.329507,-4673.182538
3376.146723,-9178.553681,1332.370696,536.266849
3376.147061,-11769.274478,1406.391290,-383.047749
3376.147398,-11251.130318,1480.411884,-3830.477490
3376.147735,-8956.491898,592.164754,-2757.943793
3376.148073,-8956.491898,1258.350101,-536.266849
3376.148410,-11621.233289,1036.288319,153.219100
3376.148747,-9252.574275,962.267725,-2374.896044
3376.149085,-8068.244768,1110.308913,-1302.362347
3376.149422,-9400.615463,1480.411884,-995.924147
3376.149759,-10214.842000,2294.638420,-536.266849
3376.150097,-10584.944971,3552.988522,0.000000
3376.150434,-11029.068536,3923.091493,-766.095498
3376.150771,-12583.501014,3923.091493,-2911.162892
3376.151109,-11547.212695,3627.009116,-3677.258390
3376.151446,-9030.512492,2886.803174,-1225.752797
3376.151783,-7031.956449,1702.473667,-383.047749
3376.152121,-8660.409521,1406.391290,-1915.238745
3376.152458,-10732.986159,666.185348,-1685.410096
3376.152795,-10732.986159,148.041188,-1685.410096
3376.153133,-9918.759623,888.247130,-2604.724693
3376.153470,-10584.944971,1554.432478,-3370.820191
3376.153807,-10066.800811,0.000000,-2604.724693
3376.154145,-9178.553681,0.000000,-1915.238745
3376.154482,-8808.450710,-1184.329507,-306.438199
3376.154819,-8438.347739,0.000000,76.609550
3376.155157,-9992.780217,-1036.288319,-536.266849
3376.155494,-10658.965565,-1850.514855,0.000000
3376.155831,-9548.656652,-1406.391290,1149.143247
3376.156169,-10066.800811,-222.061783,1455.581446
3376.156506,-9548.656652,-444.123565,1532.190996
3376.156843,-10140.821405,-296.082377,919.314598
3376.157181,-11473.192101,444.123565,459.657299
3376.157518,-11029.068536,-222.061783,-1762.019645
3376.157855,-10140.821405,1628.453072,-612.876398
3376.158193,-9770.718434,814.226536,1225.752797
3376.158530,-10658.965565,148.041188,1072.533697
3376.158867,-11029.068536,-296.082377,612.876398
3376.159205,-11029.068536,666.185348,1225.752797
3376.159542,-10214.842000,666.185348,1072.533697
3376.159879,-10288.862594,296.082377,-766.095498
3376.160217,-10362.883188,814.226536,-1532.190996
3376.160554,-10214.842000,-518.144159,-2298.286494
3376.160892,-9918.759623,-1406.391290,-1302.362347
3376.161229,-9326.594869,-1628.453072,689.485948
3376.161566,-8586.388927,222.061783,-383.047749
3376.161904,-9104.533087,1776.494261,0.000000
3376.162241,-10510.924376,666.185348,153.219100
3376.162578,-10066.800811,-444.123565,306.438199
3376.162916,-9548.656652,-592.164754,2221.676944
3376.163253,-10362.883188,370.102971,3677.258390
3376.163590,-10066.800811,1184.329507,2068.457845
3376.163928,-9400.615463,962.267725,-689.485948
3376.164265,-10214.842000,1332.370696,-1149.143247
3376.164602,-10140.821405,-444.123565,0.000000
3376.164940,-9030.512492,-222.061783,459.657299
3376.165277,-9844.739029,0.000000,995.924147
3376.165614,-10510.924376,518.144159,0.000000
3376.165952,-10066.800811,1184.329507,-1915.238745
3376.166289,-11399.171507,0.000000,-842.705048
3376.166626,-10214.842000,74.020594,-76.609550
3376.166964,-9474.636058,-148.041188,229.828649
3376.167301,-10436.903782,-888.247130,459.657299
3376.167638,-9770.718434,-1554.432478,-2145.067394
