#time,accel_x,accel_y,accel_z
3252.498855,-9400.615463,-666.185348,3370.820191
3252.499193,-9178.553681,-222.061783,2221.676944
3252.499531,-9622.677246,-148.041188,2911.162892
3252.499869,-10658.965565,-444.123565,3217.601092
3252.500207,-10732.986159,-222.061783,1838.629195
3252.500545,-10140.821405,-370.102971,612.876398
3252.500883,-9548.656652,-1258.350101,995.924147
3252.501221,-9548.656652,-2368.659014,612.876398
3252.501559,-10066.800811,-2738.761985,306.438199
3252.501897,-9030.512492,-1850.514855,-1225.752797
3252.502235,-9400.615463,-2516.700203,-1149.143247
3252.502573,-10066.800811,-3182.885551,536.266849
3252.502911,-10140.821405,-2886.803174,0.000000
3252.503248,-11029.068536,-3330.926739,1762.019645
3252.503586,-10362.883188,-2220.617826,2374.896044
3252.503924,-9992.780217,-2442.679609,1838.629195
3252.504262,-11399.171507,-2812.782580,2911.162892
3252.504600,-10807.006753,-2442.679609,1991.848295
3252.504938,-10584.944971,-1332.370696,2221.676944
3252.505276,-11177.109724,-1110.308913,3370.820191
3252.505614,-11029.068536,-1702.473667,3294.210641
3252.505952,-10510.924376,-1702.473667,3217.601092
3252.506290,-9770.718434,-1702.473667,3064.381992
3252.506628,-9548.656652,-1110.308913,3370.820191
3252.506966,-9548.656652,-1702.473667,2834.553343
3252.507304,-9326.594869,-666.185348,3064.381992
3252.507642,-8956.491898,-1184.329507,3294.210641
3252.507980,-9770.718434,-1554.432478,4060.306139
3252.508318,-9992.780217,-1776.494261,4749.792088
3252.508656,-10510.924376,-2220.617826,3370.820191
3252.508994,-9696.697840,-962.267725,2681.334243
3252.509332,-8882.471304,-2294.638420,1455.581446
3252.509670,-9104.533087,-3256.906145,1532.190996
3252.510008,-8216.285956,-4293.194464,2757.943793
3252.510345,-8364.327145,-4219.173869,3677.258390
3252.510683,-9400.615463,-3849.070898,3907.087040
3252.511021,-10066.800811,-4071.132681,3983.696590
3252.511359,-11177.109724,-3108.864956,4749.792088
3252.511697,-11029.068536,-3627.009116,4443.353888
3252.512035,-10214.842000,-2072.576638,4290.134789
3252.512373,-10955.047942,-1184.329507,4519.963438
3252.512711,-11547.212695,-2664.741391,4213.525239
3252.513049,-11399.171507,-3701.029710,3524.039291
3252.513387,-11029.068536,-4367.215058,2528.115143
3252.513725,-10140.821405,-4145.153275,2451.505594
3252.514063,-9696.697840,-4441.235652,383.047749
3252.514401,-9326.594869,-5107.421000,-306.438199
3252.514739,-8290.306550,-4293.194464,-1072.533697
3252.515077,-8290.306550,-4145.153275,536.266849
3252.515415,-10362.883188,-2960.823768,1991.848295
3252.515753,-12065.356855,-2220.617826,-612.876398
3252.516091,-11325.150913,-2294.638420,-1608.800546
3252.516429,-10436.903782,-3552.988522,-459.657299
3252.516767,-10510.924376,-4663.297435,1225.752797
3252.517105,-10584.944971,-3552.988522,1149.143247
3252.517442,-9474.636058,-2664.741391,-995.924147
3252.517780,-8364.327145,-2516.700203,-2068.457845
3252.518118,-10214.842000,-4441.235652,-1378.971896
3252.518456,-10436.903782,-3330.926739,689.485948
3252.518794,-8734.430116,-1480.411884,1685.410096
3252.519132,-8660.409521,2072.576638,2374.896044
3252.519470,-10510.924376,1332.370696,3294.210641
3252.519808,-12805.562797,592.164754,3294.210641
3252.520146,-11621.233289,1702.473667,3677.258390
3252.520484,-10658.965565,2886.803174,3447.429741
3252.520822,-10881.027347,3997.112087,2987.772442
3252.521160,-11251.130318,1628.453072,153.219100
3252.521498,-9474.636058,-222.061783,-1072.533697
3252.521835,-5477.523971,222.061783,-995.924147
3252.522173,-6661.853478,296.082377,2145.067394
3252.522511,-10362.883188,1184.329507,2528.115143
3252.522848,-12065.356855,1628.453072,-383.047749
3252.523186,-10510.924376,2960.823768,-2451.505594
3252.523523,-8956.491898,2812.782580,-3064.381992
3252.523861,-10140.821405,1480.411884,-229.828649
3252.524198,-10658.965565,148.041188,1455.581446
3252.524536,-7031.956449,-1036.288319,766.095498
3252.524873,-8438.347739,-1332.370696,2451.505594
3252.525211,-11621.233289,-2368.659014,4826.401637
3252.525548,-12583.501014,-2886.803174,3524.039291
3252.525886,-11029.068536,-2072.576638,612.876398
3252.526224,-9548.656652,-148.041188,76.609550
3252.526561,-9696.697840,962.267725,689.485948
3252.526899,-10436.903782,222.061783,612.876398
3252.527236,-9474.636058,1184.329507,-1072.533697
3252.527574,-9474.636058,0.000000,-536.266849
3252.527911,-12509.480420,-370.102971,2451.505594
3252.528249,-12287.418637,0.000000,2451.505594
3252.528586,-9104.533087,0.000000,1225.752797
3252.528924,-8660.409521,-1184.329507,459.657299
3252.529261,-10955.047942,-1554.432478,-459.657299
3252.529599,-11695.253884,-1480.411884,-1608.800546
3252.529937,-8734.430116,-888.247130,-842.705048
3252.530274,-8808.450710,-296.082377,612.876398
3252.530612,-11917.315666,-814.226536,0.000000
3252.530949,-11843.295072,0.000000,-3447.429741
3252.531287,-8586.388927,592.164754,-3447.429741
3252.531624,-8142.265362,74.020594,-1225.752797
3252.531962,-9178.553681,-370.102971,-766.095498
3252.532299,-9992.780217,-1776.494261,0.000000
3252.532637,-8586.388927,-1332.370696,1915.238745
3252.532974,-10140.821405,-1998.556043,4749.792088
3252.533312,-12139.377449,-1110.308913,3983.696590
3252.533650,-9252.574275,1110.308913,0.000000
3252.533987,-8512.368333,1628.453072,153.219100
3252.534325,-10288.862594,1702.473667,76.609550
3252.534662,-10362.883188,518.144159,-612.876398
3252.535000,-9844.739029,1702.473667,76.609550
3252.535337,-9252.574275,-518.144159,1685.410096
3252.535675,-11843.295072,-962.267725,1991.848295
3252.536012,-11547.212695,-1776.494261,-306.438199
3252.536350,-8290.306550,-1332.370696,-1685.410096
3252.536687,-7772.162391,-1924.535449,-306.438199
3252.537025,-9844.739029,-2738.761985,-1455.581446
3252.537363,-9844.739029,-1776.494261,-2757.943793
3252.537700,-9252.574275,-2368.659014,-1991.848295
3252.538038,-11029.068536,-3330.926739,1302.362347
3252.538375,-12139.377449,-2886.803174,0.000000
3252.538713,-10732.986159,-2220.617826,-766.095498
3252.539050,-8956.491898,-1850.514855,689.485948
3252.539388,-9474.636058,-3330.926739,1225.752797
3252.539725,-10732.986159,-3775.050304,2374.896044
3252.540063,-9252.574275,-4071.132681,2451.505594
3252.540400,-9770.718434,-2960.823768,4519.963438
3252.540738,-12435.459826,-2146.597232,3524.039291
3252.541075,-11991.336260,0.000000,1225.752797
3252.541413,-9474.636058,666.185348,-383.047749
3252.541751,-9104.533087,1702.473667,383.047749
3252.542088,-10288.862594,1628.453072,153.219100
3252.542426,-10510.924376,1776.494261,-1378.971896
3252.542763,-9252.574275,296.082377,306.438199
3252.543101,-10288.862594,-370.102971,2757.943793
3252.543438,-11029.068536,148.041188,1378.971896
3252.543776,-9474.636058,1702.473667,-1532.190996
3252.544113,-8512.368333,1332.370696,-842.705048
3252.544451,-8808.450710,1480.411884,-1072.533697
3252.544788,-9400.615463,592.164754,-1532.190996
3252.545126,-9844.739029,1702.473667,612.876398
3252.545464,-10140.821405,1332.370696,1838.629195
3252.545801,-12287.418637,1036.288319,1378.971896
3252.546139,-11473.192101,1332.370696,-612.876398
3252.546476,-7698.141797,1406.391290,-1532.190996
3252.546814,-7328.038826,1036.288319,1072.533697
3252.547151,-9252.574275,0.000000,612.876398
3252.547489,-9474.636058,1184.329507,-689.485948
3252.547826,-9844.739029,888.247130,842.705048
3252.548164,-11843.295072,74.020594,1838.629195
3252.548501,-12361.439231,1110.308913,306.438199
3252.548839,-10288.862594,1332.370696,-766.095498
3252.549177,-8660.409521,2220.617826,-612.876398
3252.549514,-9326.594869,-148.041188,-383.047749
3252.549852,-10510.924376,-370.102971,-459.657299
3252.550189,-9548.656652,-1850.514855,0.000000
3252.550527,-10436.903782,-1702.473667,2451.505594
3252.550864,-12139.377449,-2146.597232,1225.752797
3252.551202,-11547.212695,-1628.453072,-2451.505594
3252.551539,-8956.491898,-1554.432478,-3140.991542
3252.551877,-7846.182985,-1258.350101,-2604.724693
3252.552214,-10066.800811,-2442.679609,-2145.067394
3252.552552,-10140.821405,-1554.432478,-2374.896044
3252.552890,-10066.800811,-2368.659014,-76.609550
3252.553227,-11843.295072,-2812.782580,2221.676944
3252.553565,-11695.253884,-2960.823768,1455.581446
3252.553902,-9918.759623,-1110.308913,689.485948
3252.554240,-8808.450710,-370.102971,1762.019645
3252.554577,-9400.615463,-814.226536,2145.067394
3252.554915,-10807.006753,-444.123565,1991.848295
3252.555252,-9696.697840,444.123565,2374.896044
3252.555590,-10140.821405,518.144159,3753.867940
3252.555927,-12361.439231,-592.164754,2681.334243
3252.556265,-11029.068536,1480.411884,-689.485948
3252.556603,-8364.327145,2368.659014,-536.266849
3252.556940,-8068.244768,2368.659014,229.828649
3252.557278,-9474.636058,888.247130,-1455.581446
3252.557615,-9474.636058,444.123565,-1991.848295
3252.557953,-8290.306550,-222.061783,536.266849
3252.558290,-9696.697840,-1776.494261,1762.019645
3252.558628,-11103.089130,-1036.288319,229.828649
3252.558965,-8808.450710,-518.144159,-1608.800546
3252.559303,-8364.327145,222.061783,-459.657299
3252.559640,-9844.739029,-740.205942,-229.828649
3252.559978,-10955.047942,-1998.556043,-383.047749
3252.560316,-10066.800811,-1850.514855,0.000000
3252.560653,-9992.780217,-2590.720797,2298.286494
3252.560991,-11769.274478,-2960.823768,2374.896044
3252.561328,-11103.089130,-2664.741391,-229.828649
3252.561666,-8364.327145,-1406.391290,-612.876398
3252.562003,-8216.285956,-1480.411884,-153.219100
3252.562341,-10140.821405,-1406.391290,-612.876398
3252.562678,-10732.986159,-740.205942,-612.876398
3252.563016,-10214.842000,-1480.411884,689.485948
3252.563353,-11621.233289,-1850.514855,2298.286494
3252.563691,-12139.377449,-1110.308913,919.314598
3252.564029,-10362.883188,-370.102971,-689.485948
3252.564366,-8512.368333,444.123565,-1072.533697
3252.564704,-9548.656652,-1110.308913,-612.876398
3252.565041,-10436.903782,-1184.329507,-842.705048
3252.565379,-9548.656652,-1184.329507,-153.219100
3252.565716,-10436.903782,-962.267725,1838.629195
3252.566054,-12213.398043,-1924.535449,-229.828649
3252.566391,-11103.089130,-444.123565,-1915.238745
3252.566729,-8290.306550,444.123565,-1378.971896
3252.567066,-7994.224174,962.267725,-459.657299
3252.567404,-10066.800811,814.226536,-459.657299
3252.567742,-10584.944971,1184.329507,0.000000
3252.568079,-9770.718434,518.144159,2068.457845
3252.568417,-10955.047942,0.000000,4136.915689
3252.568754,-11325.150913,888.247130,3370.820191
3252.569092,-8882.471304,3182.885551,536.266849
3252.569429,-8142.265362,3552.988522,919.314598
3252.569767,-9400.615463,2960.823768,1072.533697
3252.570104,-10214.842000,2146.597232,459.657299
3252.570442,-9252.574275,2960.823768,1608.800546
3252.570779,-10584.944971,2220.617826,2987.772442
3252.571117,-12805.562797,1776.494261,612.876398
3252.571455,-10436.903782,1554.432478,-2374.896044
3252.571792,-8216.285956,2072.576638,-2374.896044
3252.572130,-7402.059420,518.144159,-1455.581446
3252.572467,-9400.615463,0.000000,-2451.505594
3252.572805,-9400.615463,-814.226536,-3064.381992
3252.573142,-9474.636058,-1998.556043,-306.438199
3252.573480,-10881.027347,-2664.741391,766.095498
3252.573817,-11843.295072,-2442.679609,536.266849
3252.574155,-9548.656652,-1258.350101,-536.266849
3252.574492,-8660.409521,-888.247130,-459.657299
3252.574830,-10584.944971,-2146.597232,0.000000
3252.575168,-10584.944971,-2294.638420,536.266849
3252.575505,-10436.903782,-2664.741391,2834.553343
3252.575843,-11103.089130,-3256.906145,4519.963438
3252.576180,-12435.459826,-2294.638420,2911.162892
3252.576518,-11029.068536,-1702.473667,306.438199
3252.576855,-8660.409521,-666.185348,-383.047749
3252.577193,-8586.388927,-296.082377,-306.438199
3252.577530,-9992.780217,148.041188,-459.657299
3252.577868,-9992.780217,296.082377,-995.924147
3252.578205,-10066.800811,-962.267725,995.924147
3252.578543,-11695.253884,-1332.370696,2604.724693
3252.578881,-11621.233289,-1480.411884,1378.971896
3252.579218,-9400.615463,518.144159,-919.314598
3252.579556,-8142.265362,888.247130,-842.705048
3252.579893,-9696.697840,-518.144159,-459.657299
3252.580231,-9474.636058,-666.185348,-995.924147
3252.580568,-9178.553681,-814.226536,1378.971896
3252.580906,-10288.862594,-1184.329507,3140.991542
3252.581243,-11695.253884,-962.267725,1072.533697
3252.581581,-10807.006753,-592.164754,-612.876398
3252.581918,-7846.182985,1628.453072,-536.266849
3252.582256,-8068.244768,814.226536,459.657299
3252.582594,-10436.903782,148.041188,1149.143247
3252.582931,-9770.718434,592.164754,306.438199
3252.583269,-10066.800811,-296.082377,3064.381992
3252.583606,-11547.212695,-296.082377,3907.087040
3252.583944,-11029.068536,-74.020594,842.705048
3252.584281,-9696.697840,1036.288319,-306.438199
3252.584619,-8142.265362,1480.411884,-612.876398
3252.584956,-9474.636058,0.000000,-459.657299
3252.585294,-10288.862594,-444.123565,-383.047749
3252.585631,-9770.718434,-1110.308913,229.828649
3252.585969,-10881.027347,-1406.391290,1608.800546
3252.586307,-12509.480420,-1628.453072,229.828649
3252.586644,-10732.986159,-1110.308913,-1915.238745
3252.586982,-7846.182985,-962.267725,-2911.162892
3252.587319,-8290.306550,-1480.411884,-1302.362347
3252.587657,-10140.821405,-2146.597232,-1915.238745
3252.587994,-10214.842000,-1850.514855,-1685.410096
3252.588332,-10436.903782,-2220.617826,842.705048
3252.588669,-11843.295072,-3330.926739,2068.457845
3252.589007,-11325.150913,-1850.514855,1149.143247
3252.589344,-9622.677246,0.000000,76.609550
3252.589682,-8882.471304,444.123565,766.095498
3252.590020,-9918.759623,74.020594,1608.800546
3252.590357,-11029.068536,296.082377,1302.362347
3252.590695,-9918.759623,296.082377,2987.772442
3252.591032,-11177.109724,296.082377,4519.963438
3252.591370,-11843.295072,1036.288319,2834.553343
3252.591707,-10584.944971,1406.391290,-689.485948
3252.592045,-7698.141797,3182.885551,-1762.019645
3252.592382,-8068.244768,2368.659014,-689.485948
3252.592720,-10066.800811,2220.617826,-995.924147
3252.593057,-9178.553681,2220.617826,-1378.971896
3252.593395,-9622.677246,1184.329507,536.266849
3252.593733,-11621.233289,592.164754,1455.581446
3252.594070,-10510.924376,1258.350101,-689.485948
3252.594408,-8734.430116,1628.453072,-995.924147
3252.594745,-7994.224174,1554.432478,-153.219100
3252.595083,-10214.842000,518.144159,689.485948
3252.595420,-10732.986159,0.000000,383.047749
3252.595758,-9992.780217,74.020594,919.314598
3252.596095,-11325.150913,-962.267725,3370.820191
3252.596433,-12657.521608,-1036.288319,1762.019645
3252.596770,-10066.800811,-222.061783,0.000000
3252.597108,-7846.182985,518.144159,0.000000
3252.597446,-8808.450710,148.041188,766.095498
3252.597783,-10140.821405,296.082377,-766.095498
3252.598121,-10807.006753,-592.164754,-153.219100
3252.598458,-10510.924376,-666.185348,1838.629195
3252.598796,-11103.089130,-1850.514855,2221.676944
3252.599133,-11177.109724,-740.205942,306.438199
3252.599471,-8882.471304,0.000000,-919.314598
3252.599808,-8290.306550,0.000000,-842.705048
3252.600146,-10066.800811,-1110.308913,-689.485948
3252.600483,-11029.068536,-1480.411884,-383.047749
3252.600821,-10140.821405,-1480.411884,536.266849
3252.601159,-10732.986159,-2072.576638,1378.971896
3252.601496,-12065.356855,-2368.659014,612.876398
3252.601834,-9548.656652,-1628.453072,-1838.629195
3252.602171,-7846.182985,-814.226536,-459.657299
3252.602509,-9104.533087,-296.082377,0.000000
3252.602846,-10807.006753,-444.123565,-1225.752797
3252.603184,-10362.883188,-296.082377,153.219100
3252.603521,-10658.965565,-962.267725,2681.334243
3252.603859,-11399.171507,-888.247130,3753.867940
3252.604196,-11325.150913,0.000000,1991.848295
3252.604534,-8808.450710,1776.494261,306.438199
3252.604871,-7550.100608,1480.411884,229.828649
3252.605209,-10214.842000,1776.494261,1072.533697
3252.605547,-10881.027347,1480.411884,0.000000
3252.605884,-9326.594869,888.247130,459.657299
3252.606222,-11177.109724,1258.350101,2451.505594
3252.606559,-11695.253884,592.164754,536.266849
3252.606897,-9770.718434,814.226536,-2374.896044
3252.607234,-7550.100608,1406.391290,-2451.505594
3252.607572,-7994.224174,296.082377,-2528.115143
3252.607909,-10214.842000,222.061783,-1838.629195
3252.608247,-9770.718434,-1184.329507,-1991.848295
3252.608584,-9474.636058,-1924.535449,383.047749
3252.608922,-11251.130318,-3034.844362,1455.581446
3252.609260,-10658.965565,-1406.391290,0.000000
3252.609597,-9548.656652,-740.205942,-1225.752797
3252.609935,-9474.636058,-740.205942,0.000000
3252.610272,-10510.924376,-1554.432478,153.219100
3252.610610,-11177.109724,-1480.411884,995.924147
3252.610947,-9992.780217,-1406.391290,2451.505594
3252.611285,-11843.295072,-1850.514855,4060.306139
3252.611622,-12879.583391,-2072.576638,2221.676944
3252.611960,-9622.677246,74.020594,-612.876398
3252.612297,-8808.450710,0.000000,612.876398
3252.612635,-9252.574275,296.082377,995.924147
3252.612973,-10807.006753,148.041188,-153.219100
3252.613310,-10436.903782,592.164754,0.000000
3252.613648,-10066.800811,-296.082377,1302.362347
3252.613985,-11547.212695,-518.144159,2451.505594
3252.614323,-11177.109724,-222.061783,0.000000
3252.614660,-7846.182985,962.267725,-1685.410096
3252.614998,-9252.574275,1554.432478,-919.314598
3252.615335,-10436.903782,0.000000,-383.047749
3252.615673,-9474.636058,148.041188,-612.876398
3252.616010,-9178.553681,-592.164754,1149.143247
3252.616348,-10881.027347,-296.082377,2681.334243
3252.616686,-11399.171507,296.082377,842.705048
3252.617023,-9992.780217,592.164754,-1378.971896
3252.617361,-7402.059420,1628.453072,-229.828649
3252.617698,-8808.450710,1184.329507,76.609550
3252.618036,-10881.027347,1628.453072,459.657299
3252.618373,-9918.759623,1332.370696,-76.609550
3252.618711,-10214.842000,1036.288319,2374.896044
3252.619048,-11547.212695,444.123565,2451.505594
3252.619386,-10732.986159,1036.288319,-842.705048
3252.619723,-8808.450710,2220.617826,-1302.362347
3252.620061,-8512.368333,1110.308913,-919.314598
3252.620399,-9770.718434,666.185348,-842.705048
3252.620736,-9770.718434,0.000000,-1302.362347
3252.621074,-9474.636058,0.000000,842.705048
3252.621411,-11399.171507,-1850.514855,1072.533697
3252.621749,-12139.377449,-888.247130,-1149.143247
3252.622086,-9696.697840,-444.123565,-2757.943793
3252.622424,-8734.430116,-740.205942,-1915.238745
3252.622761,-8956.491898,-2220.617826,-1149.143247
3252.623099,-10510.924376,-2072.576638,-1838.629195
3252.623436,-10362.883188,-1998.556043,-842.705048
3252.623774,-10436.903782,-2516.700203,766.095498
3252.624111,-12065.356855,-3330.926739,1838.629195
3252.624449,-11103.089130,-2072.576638,0.000000
3252.624786,-8364.327145,-1332.370696,-76.609550
3252.625124,-9104.533087,0.000000,1378.971896
3252.625461,-10362.883188,-1184.329507,1302.362347
3252.625799,-10510.924376,-666.185348,1685.410096
3252.626136,-10214.842000,-370.102971,3983.696590
3252.626474,-11547.212695,-592.164754,4596.572988
3252.626811,-11991.336260,370.102971,2298.286494
3252.627148,-9992.780217,518.144159,-612.876398
3252.627486,-7994.224174,1924.535449,153.219100
3252.627823,-9030.512492,1110.308913,0.000000
3252.628161,-10362.883188,962.267725,-612.876398
3252.628498,-8882.471304,518.144159,-1532.190996
3252.628836,-9622.677246,74.020594,1455.581446
3252.629173,-11177.109724,-222.061783,612.876398
3252.629511,-9844.739029,-370.102971,-1915.238745
3252.629848,-8734.430116,1776.494261,-1072.533697
3252.630186,-8364.327145,74.020594,-229.828649
3252.630523,-10510.924376,74.020594,459.657299
3252.630861,-10214.842000,0.000000,76.609550
3252.631198,-9992.780217,-222.061783,1685.410096
3252.631536,-11399.171507,-1924.535449,2834.553343
3252.631873,-11621.233289,-1036.288319,229.828649
3252.632210,-9548.656652,-296.082377,-306.438199
3252.632548,-8216.285956,666.185348,306.438199
3252.632885,-9326.594869,148.041188,0.000000
3252.633223,-10807.006753,518.144159,-1072.533697
3252.633560,-9548.656652,0.000000,-919.314598
3252.633898,-10140.821405,-740.205942,2068.457845
3252.634235,-11547.212695,-1258.350101,842.705048
3252.634573,-10288.862594,-148.041188,-1225.752797
3252.634910,-8808.450710,148.041188,-1838.629195
3252.635248,-9474.636058,222.061783,-842.705048
3252.635585,-10732.986159,-592.164754,-1302.362347
3252.635923,-10807.006753,-1554.432478,-919.314598
3252.636260,-9474.636058,-1258.350101,0.000000
3252.636598,-11029.068536,-1850.514855,1378.971896
3252.636935,-11991.336260,-1258.350101,-536.266849
3252.637272,-9400.615463,-814.226536,-1915.238745
3252.637610,-8660.409521,0.000000,0.000000
3252.637947,-9548.656652,148.041188,153.219100
3252.638285,-10436.903782,0.000000,-229.828649
3252.638622,-10214.842000,0.000000,612.876398
3252.638960,-10584.944971,-666.185348,2987.772442
3252.639297,-11547.212695,0.000000,3064.381992
3252.639635,-10658.965565,592.164754,919.314598
3252.639972,-8808.450710,2516.700203,612.876398
3252.640310,-8808.450710,2442.679609,1532.190996
3252.640647,-10584.944971,1924.535449,1072.533697
3252.640985,-10140.821405,1776.494261,766.095498
3252.641322,-9178.553681,1184.329507,2068.457845
3252.641660,-10658.965565,1258.350101,2604.724693
3252.641997,-11473.192101,740.205942,383.047749
3252.642334,-9104.533087,1628.453072,-1532.190996
3252.642672,-7994.224174,1110.308913,-383.047749
3252.643009,-9400.615463,222.061783,-536.266849
3252.643347,-9622.677246,0.000000,-1991.848295
3252.643684,-9178.553681,-1184.329507,-1455.581446
3252.644022,-9696.697840,-2072.576638,1532.190996
3252.644359,-10658.965565,-2590.720797,1072.533697
3252.644697,-10214.842000,-1406.391290,-842.705048
3252.645034,-9178.553681,0.000000,-1378.971896
3252.645372,-9474.636058,-962.267725,0.000000
3252.645709,-11399.171507,-2072.576638,0.000000
3252.646047,-10658.965565,-1776.494261,383.047749
3252.646384,-9622.677246,-1776.494261,2451.505594
3252.646722,-12139.377449,-2146.597232,3294.210641
3252.647059,-12509.480420,-1850.514855,306.438199
3252.647396,-9844.739029,-666.185348,-1072.533697
3252.647734,-9030.512492,-148.041188,1225.752797
3252.648071,-9844.739029,-296.082377,536.266849
3252.648409,-11399.171507,0.000000,-919.314598
3252.648746,-9622.677246,-222.061783,-383.047749
3252.649084,-9696.697840,-1850.514855,76.609550
3252.649421,-11177.109724,-1110.308913,995.924147
3252.649759,-10436.903782,-222.061783,-1225.752797
3252.650096,-8660.409521,74.020594,-1762.019645
3252.650434,-8586.388927,0.000000,-1608.800546
3252.650771,-10214.842000,-888.247130,-689.485948
3252.651109,-10066.800811,-888.247130,0.000000
3252.651446,-8512.368333,-1628.453072,1838.629195
3252.651784,-10510.924376,-740.205942,2681.334243
3252.652121,-11325.150913,-740.205942,842.705048
3252.652458,-9252.574275,444.123565,-1072.533697
3252.652796,-8068.244768,888.247130,612.876398
3252.653133,-9030.512492,148.041188,1302.362347
3252.653471,-10436.903782,1332.370696,536.266849
3252.653808,-10140.821405,666.185348,766.095498
3252.654146,-9992.780217,666.185348,2374.896044
3252.654483,-11621.233289,0.000000,1991.848295
3252.654821,-10732.986159,666.185348,0.000000
3252.655158,-8882.471304,2368.659014,-612.876398
3252.655496,-9548.656652,1110.308913,0.000000
3252.655833,-10732.986159,370.102971,-689.485948
3252.656171,-9696.697840,-296.082377,-766.095498
3252.656508,-9400.615463,-444.123565,1762.019645
3252.656846,-11621.233289,-1628.453072,1685.410096
3252.657183,-11695.253884,-1258.350101,-1072.533697
3252.657520,-9696.697840,-814.226536,-2298.286494
3252.657858,-8660.409521,-814.226536,-1072.533697
3252.658195,-9326.594869,-2368.659014,-536.266849
3252.658533,-10658.965565,-1850.514855,-1378.971896
3252.658870,-9252.574275,-2664.741391,0.000000
3252.659208,-9770.718434,-2812.782580,1225.752797
3252.659545,-11547.212695,-2886.803174,1532.190996
3252.659883,-10658.965565,-2220.617826,-76.609550
3252.660220,-8586.388927,-518.144159,-306.438199
3252.660558,-9178.553681,0.000000,995.924147
3252.660895,-10807.006753,-888.247130,1838.629195
3252.661233,-10214.842000,-296.082377,1455.581446
3252.661570,-9622.677246,-1110.308913,3524.039291
3252.661908,-10881.027347,74.020594,3370.820191
3252.662245,-11695.253884,370.102971,306.438199
3252.662582,-10214.842000,1998.556043,-842.705048
3252.662920,-8364.327145,2516.700203,-766.095498
3252.663257,-9474.636058,1480.411884,-919.314598
3252.663595,-10214.842000,1776.494261,-2145.067394
3252.663932,-9030.512492,1480.411884,-1302.362347
3252.664270,-10362.883188,148.041188,1455.581446
3252.664607,-11029.068536,592.164754,306.438199
3252.664945,-9548.656652,592.164754,-1915.238745
3252.665282,-8216.285956,1924.535449,-612.876398
3252.665620,-9178.553681,666.185348,995.924147
3252.665957,-10732.986159,0.000000,306.438199
3252.666295,-10140.821405,-444.123565,153.219100
3252.666632,-9400.615463,-370.102971,2451.505594
3252.666970,-11325.150913,-1998.556043,2987.772442
3252.667307,-11029.068536,-1258.350101,842.705048
3252.667644,-8734.430116,-74.020594,-459.657299
3252.667982,-7550.100608,0.000000,383.047749
3252.668319,-9252.574275,0.000000,-306.438199
3252.668657,-10140.821405,-888.247130,-919.314598
3252.668994,-9474.636058,-592.164754,306.438199
3252.669332,-10658.965565,-1036.288319,1838.629195
3252.669669,-11843.295072,-1258.350101,689.485948
3252.670007,-10436.903782,-148.041188,-1072.533697
3252.670344,-9030.512492,148.041188,-1302.362347
3252.670682,-9548.656652,-592.164754,-612.876398
3252.671019,-10955.047942,-1776.494261,-689.485948
3252.671357,-10732.986159,-1628.453072,-919.314598
3252.671694,-10362.883188,-2368.659014,1072.533697
3252.672032,-11325.150913,-2220.617826,842.705048
3252.672369,-11843.295072,-2146.597232,-995.924147
3252.672706,-9992.780217,-1036.288319,-1225.752797
3252.673044,-8290.306550,-740.205942,-689.485948
3252.673381,-9770.718434,-962.267725,306.438199
3252.673719,-10732.986159,-1184.329507,-153.219100
3252.674056,-9844.739029,-1184.329507,1378.971896
3252.674394,-10732.986159,-1850.514855,3753.867940
3252.674731,-11547.212695,-888.247130,3140.991542
3252.675069,-9844.739029,592.164754,1455.581446
3252.675406,-8586.388927,1776.494261,919.314598
3252.675744,-9104.533087,1110.308913,1532.190996
3252.676081,-9992.780217,740.205942,842.705048
3252.676419,-9400.615463,1406.391290,1072.533697
3252.676756,-9030.512492,592.164754,1915.238745
3252.677094,-11177.109724,296.082377,1991.848295
3252.677431,-10807.006753,444.123565,-153.219100
3252.677768,-8438.347739,1702.473667,-1762.019645
3252.678106,-8364.327145,1258.350101,-459.657299
3252.678443,-9770.718434,814.226536,-1838.629195
3252.678781,-9770.718434,-518.144159,-3064.381992
3252.679118,-9252.574275,-1554.432478,-1378.971896
3252.679456,-9696.697840,-2368.659014,1685.410096
3252.679793,-10881.027347,-2664.741391,995.924147
3252.680131,-10140.821405,-1036.288319,-1149.143247
3252.680468,-8956.491898,0.000000,-919.314598
3252.680806,-9992.780217,-592.164754,0.000000
3252.681143,-11325.150913,-1184.329507,-383.047749
3252.681481,-10288.862594,-1628.453072,1378.971896
3252.681818,-10584.944971,-1924.535449,2834.553343
3252.682156,-11843.295072,-2072.576638,2987.772442
3252.682493,-12287.418637,-592.164754,0.000000
3252.682830,-9622.677246,-148.041188,-1455.581446
3252.683168,-8364.327145,-222.061783,-383.047749
3252.683505,-10066.800811,-666.185348,-919.314598
3252.683843,-9622.677246,0.000000,-1762.019645
3252.684180,-9178.553681,-1184.329507,-306.438199
3252.684518,-10362.883188,-1110.308913,1455.581446
3252.684855,-10807.006753,-1110.308913,-153.219100
3252.685193,-10658.965565,370.102971,-1378.971896
3252.685530,-8660.409521,666.185348,-1225.752797
3252.685868,-8438.347739,0.000000,-1072.533697
3252.686205,-9992.780217,-296.082377,0.000000
3252.686543,-9326.594869,-1184.329507,0.000000
3252.686880,-9104.533087,-1184.329507,2451.505594
3252.687217,-11473.192101,-1184.329507,2911.162892
3252.687555,-11177.109724,0.000000,459.657299
3252.687892,-9030.512492,1258.350101,76.609550
3252.688230,-8734.430116,814.226536,459.657299
3252.688567,-9622.677246,1258.350101,1225.752797
3252.688905,-10436.903782,814.226536,766.095498
3252.689242,-9326.594869,1702.473667,2145.067394
3252.689580,-10732.986159,222.061783,3140.991542
3252.689917,-12139.377449,814.226536,2221.676944
3252.690255,-10881.027347,1850.514855,-459.657299
3252.690592,-9030.512492,2146.597232,153.219100
3252.690930,-9104.533087,1332.370696,0.000000
3252.691267,-10362.883188,444.123565,-1149.143247
3252.691605,-9918.759623,-666.185348,0.000000
3252.691942,-9400.615463,-518.144159,1378.971896
3252.692279,-12139.377449,-1850.514855,1991.848295
3252.692617,-10955.047942,-518.144159,-1608.800546
3252.692954,-9030.512492,0.000000,-2757.943793
3252.693292,-8882.471304,-814.226536,-1225.752797
3252.693629,-9474.636058,-1776.494261,-1378.971896
3252.693967,-9918.759623,-1850.514855,-1455.581446
3252.694304,-9548.656652,-2960.823768,-229.828649
3252.694642,-10214.842000,-3478.967927,1225.752797
3252.694979,-11621.233289,-3182.885551,306.438199
3252.695317,-10140.821405,-2220.617826,0.000000
3252.695654,-8142.265362,-518.144159,153.219100
3252.695992,-9474.636058,-1628.453072,612.876398
3252.696329,-10955.047942,-370.102971,842.705048
3252.696667,-10140.821405,-592.164754,1608.800546
3252.697004,-11325.150913,-740.205942,4519.963438
3252.697341,-11991.336260,-888.247130,3600.648841
3252.697679,-11769.274478,0.000000,76.609550
3252.698016,-10066.800811,2072.576638,-459.657299
3252.698354,-8808.450710,1258.350101,-536.266849
3252.698691,-9770.718434,1110.308913,-1072.533697
3252.699029,-10362.883188,592.164754,-2221.676944
3252.699366,-9474.636058,518.144159,-689.485948
3252.699704,-10955.047942,-370.102971,459.657299
3252.700041,-11251.130318,-222.061783,-306.438199
3252.700379,-9104.533087,296.082377,-2374.896044
3252.700716,-7550.100608,814.226536,-842.705048
3252.701054,-9030.512492,222.061783,612.876398
3252.701391,-10288.862594,-1184.329507,0.000000
3252.701729,-9474.636058,-740.205942,766.095498
3252.702066,-9326.594869,-1110.308913,3217.601092
3252.702403,-11695.253884,-1998.556043,3524.039291
3252.702741,-10658.965565,-1480.411884,1149.143247
3252.703078,-8290.306550,148.041188,0.000000
3252.703416,-8068.244768,444.123565,919.314598
3252.703753,-9474.636058,222.061783,-536.266849
3252.704091,-10214.842000,-296.082377,-76.609550
3252.704428,-9992.780217,-296.082377,383.047749
3252.704766,-10436.903782,-1036.288319,1608.800546
3252.705103,-11843.295072,74.020594,76.609550
3252.705441,-10288.862594,222.061783,-1838.629195
3252.705778,-8956.491898,888.247130,-1762.019645
3252.706116,-9770.718434,-148.041188,-995.924147
3252.706453,-11103.089130,-1036.288319,-1072.533697
3252.706791,-10436.903782,-518.144159,0.000000
3252.707128,-11325.150913,-1924.535449,1762.019645
3252.707465,-12583.501014,-1628.453072,919.314598
3252.707803,-11917.315666,-1628.453072,-1302.362347
3252.708140,-9548.656652,-74.020594,-459.657299
3252.708478,-8512.368333,-444.123565,0.000000
3252.708815,-9918.759623,-666.185348,229.828649
3252.709153,-10362.883188,-222.061783,-1149.143247
3252.709490,-9326.594869,-1184.329507,1838.629195
3252.709828,-10658.965565,-1332.370696,3907.087040
3252.710165,-10807.006753,-1184.329507,2298.286494
3252.710503,-9474.636058,1110.308913,766.095498
3252.710840,-8068.244768,1998.556043,1149.143247
3252.711178,-9400.615463,1776.494261,1455.581446
3252.711515,-9474.636058,666.185348,459.657299
3252.711853,-8438.347739,888.247130,1225.752797
3252.712190,-9104.533087,370.102971,3907.087040
3252.712527,-11325.150913,814.226536,1762.019645
3252.712865,-10584.944971,1332.370696,-1455.581446
3252.713202,-8290.306550,1850.514855,-2298.286494
3252.713540,-8290.306550,2146.597232,-1455.581446
3252.713877,-9992.780217,592.164754,-2757.943793
3252.714215,-10510.924376,0.000000,-2757.943793
3252.714552,-9326.594869,-370.102971,-995.924147
3252.714890,-11103.089130,-1998.556043,919.314598
3252.715227,-11769.274478,-1406.391290,0.000000
3252.715565,-10510.924376,0.000000,-2451.505594
3252.715902,-9400.615463,0.000000,-1149.143247
3252.716240,-10140.821405,-296.082377,-536.266849
3252.716577,-11621.233289,-888.247130,0.000000
3252.716915,-10362.883188,-1406.391290,1455.581446
3252.717252,-10436.903782,-2516.700203,2528.115143
3252.717589,-12065.356855,-1924.535449,2681.334243
3252.717927,-10955.047942,-962.267725,0.000000
3252.718264,-8660.409521,-296.082377,-842.705048
3252.718602,-8068.244768,-370.102971,0.000000
3252.718939,-9474.636058,-1258.350101,0.000000
3252.719277,-9696.697840,-592.164754,-842.705048
3252.719614,-9252.574275,-1406.391290,766.095498
3252.719952,-10510.924376,-1776.494261,2834.553343
3252.720289,-10732.986159,-1776.494261,612.876398
3252.720627,-9474.636058,444.123565,-612.876398
3252.720964,-8364.327145,666.185348,-153.219100
3252.721302,-9474.636058,-148.041188,-689.485948
3252.721639,-10362.883188,-296.082377,-459.657299
3252.721977,-10214.842000,-888.247130,842.705048
3252.722314,-10510.924376,-740.205942,3753.867940
3252.722651,-12139.377449,-1332.370696,2911.162892
3252.722989,-11695.253884,222.061783,612.876398
3252.723326,-9252.574275,1332.370696,0.000000
3252.723664,-9474.636058,1406.391290,1532.190996
3252.724001,-10955.047942,1406.391290,1991.848295
3252.724339,-10288.862594,814.226536,1149.143247
3252.724676,-9770.718434,1332.370696,2451.505594
3252.725014,-11621.233289,222.061783,3370.820191
3252.725351,-12287.418637,1258.350101,1838.629195
3252.725688,-9548.656652,1332.370696,0.000000
3252.726026,-8216.285956,1702.473667,229.828649
3252.726363,-8438.347739,1406.391290,-306.438199
3252.726701,-9770.718434,0.000000,-1378.971896
3252.727038,-9178.553681,-666.185348,-306.438199
3252.727375,-9252.574275,-1776.494261,1378.971896
3252.727713,-10732.986159,-1776.494261,383.047749
3252.728050,-9696.697840,-1036.288319,-2987.772442
3252.728388,-8068.244768,-222.061783,-2911.162892
3252.728725,-7920.203579,-1110.308913,-1225.752797
3252.729062,-10214.842000,-2220.617826,-1532.190996
3252.729400,-9770.718434,-1258.350101,-1838.629195
3252.729737,-10140.821405,-2146.597232,-153.219100
3252.730075,-11843.295072,-2886.803174,919.314598
3252.730412,-11621.233289,-2368.659014,-383.047749
3252.730749,-10140.821405,-444.123565,-536.266849
3252.731087,-9326.594869,0.000000,153.219100
3252.731424,-10658.965565,-518.144159,459.657299
3252.731762,-11621.233289,74.020594,459.657299
3252.732099,-10436.903782,-296.082377,2145.067394
3252.732436,-10955.047942,-296.082377,3677.258390
3252.732774,-12287.418637,-370.102971,2451.505594
3252.733111,-11325.150913,814.226536,-229.828649
3252.733449,-9622.677246,2368.659014,-612.876398
3252.733786,-9474.636058,1406.391290,229.828649
3252.734123,-9400.615463,1110.308913,-689.485948
3252.734461,-9178.553681,0.000000,-842.705048
3252.734798,-8660.409521,-74.020594,842.705048
3252.735136,-9918.759623,-444.123565,1302.362347
3252.735473,-10288.862594,0.000000,-612.876398
3252.735810,-8290.306550,666.185348,-1762.019645
3252.736148,-7179.997637,444.123565,-536.266849
3252.736485,-8512.368333,296.082377,919.314598
3252.736823,-9992.780217,-296.082377,919.314598
3252.737160,-9326.594869,0.000000,1685.410096
3252.737497,-9992.780217,-1184.329507,3294.210641
3252.737835,-12213.398043,-814.226536,2757.943793
3252.738172,-11103.089130,0.000000,229.828649
3252.738510,-9326.594869,1184.329507,0.000000
3252.738847,-8734.430116,666.185348,1225.752797
3252.739184,-10066.800811,74.020594,76.609550
3252.739522,-10436.903782,888.247130,229.828649
3252.739859,-10881.027347,-222.061783,1225.752797
3252.740197,-12139.377449,-444.123565,1838.629195
3252.740534,-12213.398043,0.000000,-306.438199
3252.740872,-10140.821405,1036.288319,-1225.752797
3252.741209,-8734.430116,740.205942,-995.924147
3252.741546,-9696.697840,-1554.432478,-612.876398
3252.741884,-10288.862594,-962.267725,-766.095498
3252.742221,-9992.780217,-1776.494261,153.219100
3252.742559,-9992.780217,-2368.659014,1072.533697
3252.742896,-11621.233289,-3108.864956,153.219100
3252.743233,-9992.780217,-2516.700203,-1072.533697
3252.743571,-7846.182985,-1258.350101,-612.876398
3252.743908,-7772.162391,-1258.350101,0.000000
3252.744246,-9104.533087,-1998.556043,-153.219100
3252.744583,-9992.780217,-1184.329507,459.657299
3252.744920,-9622.677246,-1924.535449,1915.238745
3252.745258,-11177.109724,-1480.411884,3753.867940
3252.745595,-11399.171507,-740.205942,2221.676944
3252.745933,-9474.636058,962.267725,0.000000
3252.746270,-8586.388927,2294.638420,689.485948
3252.746607,-9918.759623,1702.473667,995.924147
3252.746945,-10732.986159,1258.350101,459.657299
3252.747282,-10510.924376,1924.535449,1302.362347
3252.747620,-10955.047942,1702.473667,2221.676944
3252.747957,-12361.439231,1480.411884,842.705048
3252.748294,-10881.027347,2072.576638,-2068.457845
3252.748632,-8586.388927,2146.597232,-1378.971896
3252.748969,-8586.388927,1702.473667,-766.095498
3252.749307,-10288.862594,814.226536,-1991.848295
3252.749644,-10362.883188,370.102971,-1838.629195
3252.749981,-9770.718434,-740.205942,1149.143247
3252.750319,-10584.944971,-2368.659014,1455.581446
3252.750656,-10436.903782,-1480.411884,0.000000
3252.750994,-8364.327145,-814.226536,-919.314598
3252.751331,-7994.224174,-222.061783,-383.047749
3252.751668,-9326.594869,-1924.535449,612.876398
3252.752006,-10436.903782,-1480.411884,459.657299
3252.752343,-9474.636058,-1850.514855,1838.629195
3252.752681,-10881.027347,-2072.576638,3830.477490
3252.753018,-11473.192101,-1776.494261,1838.629195
3252.753355,-10214.842000,-518.144159,-383.047749
3252.753693,-8438.347739,444.123565,-383.047749
3252.754030,-8734.430116,-444.123565,536.266849
3252.754368,-10584.944971,-888.247130,-306.438199
3252.754705,-11103.089130,148.041188,-536.266849
3252.755042,-10288.862594,-222.061783,689.485948
3252.755380,-11843.295072,-888.247130,1225.752797
3252.755717,-11621.233289,-444.123565,-612.876398
3252.756055,-9548.656652,592.164754,-1225.752797
3252.756392,-9178.553681,1258.350101,-459.657299
3252.756729,-10658.965565,0.000000,-459.657299
3252.757067,-11177.109724,-592.164754,-1072.533697
3252.757404,-10436.903782,-888.247130,1608.800546
3252.757742,-10658.965565,-1110.308913,2604.724693
3252.758079,-11621.233289,-444.123565,1991.848295
3252.758416,-9844.739029,296.082377,-766.095498
3252.758754,-7994.224174,296.082377,0.000000
3252.759091,-8512.368333,222.061783,919.314598
3252.759429,-9474.636058,666.185348,612.876398
3252.759766,-9696.697840,666.185348,842.705048
3252.760103,-9252.574275,222.061783,1991.848295
3252.760441,-10288.862594,0.000000,2451.505594
3252.760778,-10584.944971,666.185348,766.095498
3252.761116,-8660.409521,1628.453072,-766.095498
3252.761453,-7698.141797,1332.370696,0.000000
3252.761791,-10066.800811,296.082377,-459.657299
3252.762128,-9992.780217,-148.041188,-1225.752797
3252.762465,-9474.636058,-370.102971,0.000000
3252.762803,-10436.903782,-1776.494261,1532.190996
3252.763140,-11399.171507,-962.267725,-306.438199
3252.763478,-10658.965565,-296.082377,-2604.724693
3252.763815,-8734.430116,296.082377,-3064.381992
3252.764152,-9474.636058,-592.164754,-1378.971896
3252.764490,-11547.212695,-1258.350101,-995.924147
3252.764827,-10436.903782,-1332.370696,-1455.581446
3252.765165,-11251.130318,-1332.370696,536.266849
3252.765502,-12435.459826,-2590.720797,1762.019645
3252.765839,-11399.171507,-2368.659014,229.828649
3252.766177,-9622.677246,-296.082377,536.266849
3252.766514,-9326.594869,-444.123565,919.314598
3252.766852,-10362.883188,-592.164754,1225.752797
3252.767189,-10658.965565,-1110.308913,536.266849
3252.767526,-9844.739029,-740.205942,3064.381992
3252.767864,-10584.944971,-666.185348,3907.087040
3252.768201,-11473.192101,-222.061783,2068.457845
3252.768539,-9918.759623,1110.308913,-1149.143247
3252.768876,-8068.244768,1036.288319,0.000000
3252.769213,-8290.306550,1628.453072,153.219100
3252.769551,-9844.739029,222.061783,-919.314598
3252.769888,-9474.636058,814.226536,-1225.752797
3252.770226,-8734.430116,-296.082377,229.828649
3252.770563,-10658.965565,0.000000,1149.143247
3252.770900,-9918.759623,0.000000,-995.924147
3252.771238,-8364.327145,592.164754,-1685.410096
3252.771575,-9104.533087,296.082377,459.657299
3252.771913,-9918.759623,814.226536,229.828649
3252.772250,-10955.047942,74.020594,1072.533697
3252.772587,-10214.842000,518.144159,1455.581446
3252.772925,-10955.047942,-518.144159,2757.943793
3252.773262,-12583.501014,-518.144159,1991.848295
3252.773600,-10732.986159,296.082377,-229.828649
3252.773937,-9030.512492,1036.288319,0.000000
3252.774274,-9474.636058,296.082377,766.095498
3252.774612,-9844.739029,-740.205942,-612.876398
3252.774949,-9918.759623,0.000000,-306.438199
3252.775287,-10584.944971,-1036.288319,1838.629195
3252.775624,-11103.089130,-1036.288319,1149.143247
3252.775961,-10436.903782,-1332.370696,-842.705048
3252.776299,-9178.553681,148.041188,-1302.362347
3252.776636,-8216.285956,-592.164754,-766.095498
3252.776974,-10140.821405,-1554.432478,-383.047749
3252.777311,-10214.842000,-2220.617826,-995.924147
3252.777648,-9252.574275,-2590.720797,0.000000
3252.777986,-11103.089130,-2368.659014,766.095498
3252.778323,-11695.253884,-2738.761985,-383.047749
3252.778661,-9400.615463,-1702.473667,-1838.629195
3252.778998,-8216.285956,-1406.391290,-995.924147
3252.779335,-8808.450710,-888.247130,0.000000
3252.779673,-10510.924376,-1258.350101,-842.705048
3252.780010,-10881.027347,-962.267725,1608.800546
3252.780348,-10288.862594,-1702.473667,3064.381992
3252.780685,-11177.109724,-888.247130,3370.820191
3252.781022,-11621.233289,814.226536,1762.019645
3252.781360,-10066.800811,1406.391290,919.314598
3252.781697,-9326.594869,1998.556043,1225.752797
3252.782035,-10066.800811,1702.473667,536.266849
3252.782372,-10362.883188,1480.411884,995.924147
3252.782710,-9474.636058,1184.329507,1685.410096
3252.783047,-10214.842000,1110.308913,1532.190996
3252.783384,-11547.212695,962.267725,689.485948
3252.783722,-9252.574275,1850.514855,-1915.238745
3252.784059,-7846.182985,1998.556043,-1072.533697
3252.784397,-9178.553681,592.164754,-689.485948
3252.784734,-9474.636058,148.041188,-2145.067394
3252.785071,-9770.718434,0.000000,-1225.752797
3252.785409,-9326.594869,-1554.432478,1149.143247
3252.785746,-10214.842000,-2294.638420,1915.238745
3252.786084,-10584.944971,-1480.411884,383.047749
3252.786421,-8512.368333,-592.164754,-766.095498
3252.786758,-8438.347739,-814.226536,76.609550
3252.787096,-10732.986159,-2294.638420,842.705048
3252.787433,-10362.883188,-1110.308913,536.266849
3252.787771,-9918.759623,-1184.329507,2298.286494
3252.788108,-11695.253884,-1332.370696,2987.772442
3252.788445,-11843.295072,-1258.350101,536.266849
3252.788783,-10066.800811,-296.082377,0.000000
3252.789120,-8512.368333,0.000000,-383.047749
3252.789458,-9474.636058,-222.061783,0.000000
3252.789795,-11029.068536,-296.082377,-1302.362347
3252.790132,-10510.924376,-296.082377,-1072.533697
3252.790470,-10288.862594,-1036.288319,612.876398
3252.790807,-11473.192101,-1110.308913,1072.533697
3252.791145,-11177.109724,0.000000,-306.438199
3252.791482,-9474.636058,148.041188,-1225.752797
3252.791819,-9252.574275,518.144159,-995.924147
3252.792157,-10214.842000,-1036.288319,-995.924147
3252.792494,-10436.903782,-592.164754,-995.924147
3252.792832,-9474.636058,-962.267725,689.485948
3252.793169,-11325.150913,-1702.473667,2068.457845
3252.793506,-11251.130318,-370.102971,76.609550
3252.793844,-9400.615463,0.000000,-1838.629195
3252.794181,-7994.224174,222.061783,0.000000
3252.794519,-8290.306550,222.061783,0.000000
3252.794856,-10214.842000,592.164754,383.047749
3252.795193,-9770.718434,1258.350101,1455.581446
3252.795531,-9252.574275,222.061783,2987.772442
3252.795868,-10955.047942,0.000000,3140.991542
3252.796206,-10658.965565,1258.350101,612.876398
3252.796543,-9030.512492,2664.741391,76.609550
3252.796880,-9400.615463,2146.597232,459.657299
3252.797218,-10362.883188,666.185348,-1072.533697
3252.797555,-9622.677246,296.082377,-1149.143247
3252.797893,-9326.594869,-666.185348,459.657299
3252.798230,-11029.068536,-1258.350101,1685.410096
3252.798567,-11769.274478,-1110.308913,-1302.362347
3252.798905,-9992.780217,-148.041188,-2298.286494
3252.799242,-8364.327145,-296.082377,-1991.848295
3252.799580,-9844.739029,-1036.288319,-153.219100
3252.799917,-11473.192101,-1406.391290,-1072.533697
3252.800254,-10288.862594,-1998.556043,-459.657299
3252.800592,-10881.027347,-2368.659014,2451.505594
3252.800929,-11621.233289,-3108.864956,2451.505594
3252.801267,-10955.047942,-2442.679609,1149.143247
3252.801604,-9030.512492,-888.247130,153.219100
3252.801941,-9326.594869,-518.144159,1455.581446
3252.802279,-10362.883188,-814.226536,919.314598
3252.802616,-9918.759623,-962.267725,1302.362347
3252.802954,-9918.759623,-518.144159,3753.867940
3252.803291,-11029.068536,-1258.350101,4213.525239
3252.803628,-11325.150913,0.000000,1149.143247
3252.803966,-9844.739029,1184.329507,-766.095498
3252.804303,-8068.244768,1110.308913,153.219100
3252.804641,-8068.244768,518.144159,-153.219100
3252.804978,-10436.903782,888.247130,-1225.752797
3252.805316,-9252.574275,888.247130,-1685.410096
3252.805653,-9548.656652,-592.164754,0.000000
3252.805990,-11029.068536,-444.123565,459.657299
3252.806328,-9844.739029,148.041188,-1762.019645
3252.806665,-8660.409521,1406.391290,-1608.800546
3252.807003,-8956.491898,1036.288319,-612.876398
3252.807340,-10066.800811,0.000000,-536.266849
3252.807677,-10510.924376,666.185348,229.828649
3252.808015,-9770.718434,-814.226536,1915.238745
3252.808352,-11621.233289,-148.041188,3294.210641
3252.808690,-12509.480420,-592.164754,919.314598
3252.809027,-10362.883188,148.041188,-689.485948
3252.809364,-7994.224174,1406.391290,-689.485948
3252.809702,-9252.574275,0.000000,-612.876398
3252.810039,-10140.821405,-444.123565,-1378.971896
3252.810377,-9178.553681,-740.205942,-1608.800546
3252.810714,-9992.780217,-888.247130,1302.362347
3252.811051,-11621.233289,-1332.370696,766.095498
3252.811389,-10436.903782,-1184.329507,-1915.238745
3252.811726,-8586.388927,222.061783,-1685.410096
3252.812064,-8438.347739,-222.061783,-612.876398
3252.812401,-10066.800811,-1554.432478,-459.657299
3252.812738,-10288.862594,-2368.659014,-383.047749
3252.813076,-9992.780217,-2220.617826,1762.019645
3252.813413,-11695.253884,-2664.741391,1608.800546
3252.813751,-11991.336260,-2368.659014,-689.485948
3252.814088,-9918.759623,-1110.308913,-1608.800546
3252.814425,-8364.327145,-962.267725,-612.876398
3252.814763,-8956.491898,-1110.308913,0.000000
3252.815100,-10288.862594,-518.144159,-995.924147
3252.815438,-10288.862594,-666.185348,536.266849
3252.815775,-11399.171507,-1036.288319,3753.867940
3252.816112,-11917.315666,-666.185348,3677.258390
3252.816450,-10732.986159,1036.288319,1991.848295
3252.816787,-9918.759623,2072.576638,2298.286494
3252.817125,-9400.615463,1850.514855,2374.896044
3252.817462,-9992.780217,518.144159,1838.629195
3252.817799,-9844.739029,1480.411884,1838.629195
3252.818137,-9400.615463,592.164754,2451.505594
3252.818474,-11103.089130,814.226536,2681.334243
3252.818812,-10955.047942,814.226536,153.219100
3252.819149,-8364.327145,1110.308913,-2298.286494
3252.819486,-7031.956449,1702.473667,-1685.410096
3252.819824,-8734.430116,1036.288319,-1532.190996
3252.820161,-9770.718434,296.082377,-2834.553343
3252.820499,-9474.636058,-444.123565,-1762.019645
3252.820836,-9770.718434,-1702.473667,842.705048
3252.821173,-10881.027347,-2072.576638,536.266849
3252.821511,-10214.842000,-1628.453072,-612.876398
3252.821848,-8956.491898,74.020594,-383.047749
3252.822186,-9030.512492,-1184.329507,153.219100
3252.822523,-10807.006753,-1110.308913,0.000000
3252.822860,-11177.109724,-1776.494261,612.876398
3252.823197,-10658.965565,-1258.350101,2987.772442
3252.823535,-12287.418637,-1110.308913,2987.772442
3252.823872,-12361.439231,-666.185348,-153.219100
3252.824209,-10066.800811,-74.020594,-1685.410096
3252.824546,-9178.553681,0.000000,-919.314598
3252.824884,-9400.615463,-74.020594,-995.924147
3252.825221,-10658.965565,444.123565,-2221.676944
3252.825558,-10066.800811,-370.102971,-995.924147
3252.825896,-10658.965565,-2146.597232,229.828649
3252.826233,-11843.295072,-1332.370696,612.876398
3252.826570,-10066.800811,-296.082377,-995.924147
3252.826907,-8660.409521,296.082377,-1762.019645
3252.827245,-8586.388927,-296.082377,-766.095498
3252.827582,-9844.739029,-1702.473667,-612.876398
3252.827919,-9770.718434,-1480.411884,306.438199
3252.828256,-9548.656652,-1702.473667,2451.505594
3252.828594,-11695.253884,-1628.453072,3524.039291
3252.828931,-10955.047942,-518.144159,536.266849
3252.829268,-9030.512492,0.000000,-689.485948
3252.829606,-7846.182985,740.205942,842.705048
3252.829943,-8438.347739,0.000000,766.095498
3252.830280,-10066.800811,962.267725,1225.752797
3252.830617,-9622.677246,1406.391290,2145.067394
3252.830955,-10510.924376,444.123565,3217.601092
3252.831292,-11843.295072,1184.329507,2451.505594
3252.831629,-10955.047942,1480.411884,1072.533697
3252.831966,-8956.491898,3108.864956,459.657299
3252.832304,-9178.553681,1998.556043,306.438199
3252.832641,-10881.027347,1184.329507,0.000000
3252.832978,-9696.697840,370.102971,0.000000
3252.833316,-9326.594869,-444.123565,1762.019645
3252.833653,-11991.336260,-666.185348,1838.629195
3252.833990,-11547.212695,-962.267725,-1915.238745
3252.834327,-9178.553681,-222.061783,-3294.210641
3252.834665,-7772.162391,-888.247130,-1838.629195
3252.835002,-8882.471304,-666.185348,-1072.533697
3252.835339,-10288.862594,-1332.370696,-1838.629195
3252.835676,-9992.780217,-1998.556043,-766.095498
3252.836014,-10955.047942,-3182.885551,1072.533697
3252.836351,-11843.295072,-3108.864956,1608.800546
3252.836688,-10362.883188,-1776.494261,0.000000
3252.837026,-8734.430116,-592.164754,153.219100
3252.837363,-9178.553681,-962.267725,383.047749
3252.837700,-10140.821405,-1184.329507,-153.219100
3252.838037,-9844.739029,-666.185348,459.657299
3252.838375,-10288.862594,-1110.308913,3524.039291
3252.838712,-11547.212695,-1258.350101,3294.210641
3252.839049,-11325.150913,-296.082377,-536.266849
3252.839386,-9770.718434,1702.473667,-1838.629195
3252.839724,-8956.491898,1628.453072,-995.924147
3252.840061,-9326.594869,814.226536,-1685.410096
3252.840398,-9770.718434,814.226536,-2451.505594
3252.840736,-9252.574275,0.000000,-919.314598
3252.841073,-11029.068536,-370.102971,1378.971896
3252.841410,-11399.171507,-1036.288319,536.266849
3252.841747,-9992.780217,444.123565,-2221.676944
3252.842085,-7772.162391,1184.329507,-1532.190996
3252.842422,-8882.471304,592.164754,229.828649
3252.842759,-10362.883188,-592.164754,459.657299
3252.843096,-9474.636058,370.102971,995.924147
3252.843434,-10881.027347,-592.164754,3677.258390
3252.843771,-12361.439231,-222.061783,3294.210641
3252.844108,-11769.274478,74.020594,1838.629195
3252.844446,-9548.656652,592.164754,459.657299
3252.844783,-7476.080014,444.123565,459.657299
3252.845120,-9104.533087,370.102971,383.047749
3252.845457,-9844.739029,0.000000,-383.047749
3252.845795,-9030.512492,-814.226536,0.000000
3252.846132,-10362.883188,-1036.288319,2987.772442
3252.846469,-11621.233289,-1332.370696,1915.238745
3252.846806,-10214.842000,0.000000,-383.047749
3252.847144,-8438.347739,222.061783,-995.924147
3252.847481,-8512.368333,-74.020594,-536.266849
3252.847818,-10140.821405,-1110.308913,-689.485948
3252.848156,-10807.006753,-1776.494261,459.657299
3252.848493,-10732.986159,-2368.659014,1915.238745
3252.848830,-12287.418637,-3108.864956,1608.800546
3252.849167,-11547.212695,-1924.535449,-1685.410096
3252.849505,-9474.636058,-962.267725,-1378.971896
3252.849842,-8586.388927,-592.164754,-766.095498
3252.850179,-9548.656652,-1332.370696,-919.314598
3252.850517,-10807.006753,-518.144159,-842.705048
3252.850854,-10658.965565,-666.185348,689.485948
3252.851191,-11547.212695,-1184.329507,3217.601092
3252.851528,-12361.439231,-1332.370696,2451.505594
3252.851866,-10140.821405,1628.453072,0.000000
3252.852203,-8512.368333,1776.494261,229.828649
3252.852540,-9696.697840,1480.411884,383.047749
3252.852877,-9474.636058,814.226536,-383.047749
3252.853215,-9770.718434,888.247130,766.095498
3252.853552,-9326.594869,296.082377,2374.896044
3252.853889,-10658.965565,74.020594,1378.971896
3252.854227,-10658.965565,518.144159,-1149.143247
3252.854564,-8142.265362,1406.391290,-2221.676944
3252.854901,-6809.894666,1628.453072,-1302.362347
3252.855238,-9178.553681,888.247130,-1915.238745
3252.855576,-9992.780217,296.082377,-2757.943793
3252.855913,-9548.656652,-1036.288319,-306.438199
3252.856250,-10658.965565,-962.267725,1762.019645
3252.856587,-11103.089130,-1258.350101,306.438199
3252.856925,-10140.821405,-444.123565,-766.095498
3252.857262,-8660.409521,0.000000,-459.657299
3252.857599,-9326.594869,-1110.308913,919.314598
3252.857937,-11177.109724,-962.267725,842.705048
3252.858274,-11473.192101,-1036.288319,2145.067394
3252.858611,-11547.212695,0.000000,3064.381992
3252.858948,-13175.665768,-1258.350101,2757.943793
3252.859286,-11769.274478,0.000000,153.219100
3252.859623,-9178.553681,0.000000,-612.876398
3252.859960,-8438.347739,0.000000,153.219100
3252.860297,-9622.677246,-296.082377,-995.924147
3252.860635,-10436.903782,0.000000,-1149.143247
3252.860972,-9844.739029,-1258.350101,0.000000
3252.861309,-10658.965565,-2294.638420,2145.067394
3252.861647,-11251.130318,-2442.679609,1149.143247
3252.861984,-8734.430116,-296.082377,-1302.362347
3252.862321,-7920.203579,0.000000,-1072.533697
3252.862658,-8734.430116,-1184.329507,-229.828649
3252.862996,-9622.677246,-1258.350101,-153.219100
3252.863333,-9622.677246,-1776.494261,1225.752797
3252.863670,-9992.780217,-1258.350101,2757.943793
3252.864007,-11769.274478,-1036.288319,2145.067394
3252.864345,-11547.212695,-666.185348,-383.047749
3252.864682,-8364.327145,962.267725,-1225.752797
3252.865019,-8512.368333,1332.370696,153.219100
3252.865357,-10140.821405,1628.453072,306.438199
3252.865694,-10510.924376,1998.556043,0.000000
3252.866031,-10288.862594,1480.411884,1302.362347
3252.866368,-10881.027347,1258.350101,2604.724693
3252.866706,-11399.171507,1776.494261,1838.629195
3252.867043,-10732.986159,2516.700203,229.828649
3252.867380,-8660.409521,2738.761985,-306.438199
3252.867717,-9474.636058,2294.638420,0.000000
3252.868055,-10955.047942,1258.350101,-536.266849
3252.868392,-9622.677246,74.020594,-153.219100
3252.868729,-9474.636058,-1184.329507,1685.410096
3252.869067,-10807.006753,-1332.370696,229.828649
3252.869404,-9326.594869,-888.247130,-2451.505594
3252.869741,-7550.100608,-740.205942,-2987.772442
3252.870078,-7402.059420,-1258.350101,-766.095498
3252.870416,-9474.636058,-2294.638420,-1532.190996
3252.870753,-9918.759623,-1702.473667,-1302.362347
3252.871090,-10066.800811,-2294.638420,766.095498
3252.871427,-10881.027347,-3701.029710,2604.724693
3252.871765,-11399.171507,-2368.659014,1225.752797
3252.872102,-9474.636058,-1702.473667,153.219100
3252.872439,-9178.553681,0.000000,383.047749
3252.872777,-10288.862594,-1258.350101,76.609550
3252.873114,-11547.212695,-1258.350101,383.047749
3252.873451,-10658.965565,0.000000,1685.410096
3252.873788,-11251.130318,-814.226536,3524.039291
3252.874126,-12953.603985,0.000000,3064.381992
3252.874463,-11769.274478,518.144159,-459.657299
3252.874800,-9474.636058,1184.329507,-229.828649
3252.875137,-9030.512492,1628.453072,229.828649
3252.875475,-9992.780217,370.102971,-689.485948
3252.875812,-10881.027347,518.144159,-1532.190996
3252.876149,-9918.759623,-148.041188,0.000000
3252.876487,-10362.883188,-592.164754,919.314598
3252.876824,-10362.883188,-888.247130,229.828649
3252.877161,-8438.347739,0.000000,-995.924147
3252.877498,-7105.977043,296.082377,-459.657299
3252.877836,-9252.574275,74.020594,459.657299
3252.878173,-10362.883188,-148.041188,459.657299
3252.878510,-9178.553681,-296.082377,1072.533697
3252.878847,-9844.739029,-370.102971,3370.820191
3252.879185,-11325.150913,-518.144159,2757.943793
3252.879522,-10732.986159,518.144159,229.828649
3252.879859,-8660.409521,1184.329507,0.000000
3252.880197,-8290.306550,888.247130,229.828649
3252.880534,-9770.718434,740.205942,0.000000
3252.880871,-10658.965565,962.267725,-1455.581446
3252.881208,-9548.656652,0.000000,229.828649
3252.881546,-10881.027347,-1332.370696,1532.190996
3252.881883,-10955.047942,0.000000,229.828649
3252.882220,-10436.903782,592.164754,-1225.752797
3252.882557,-9178.553681,592.164754,-1378.971896
3252.882895,-9918.759623,-518.144159,-1225.752797
3252.883232,-11103.089130,-1332.370696,-1149.143247
3252.883569,-9770.718434,-1332.370696,0.000000
3252.883907,-10436.903782,-2664.741391,1608.800546
3252.884244,-12213.398043,-3108.864956,306.438199
3252.884581,-10362.883188,-2442.679609,-1762.019645
3252.884918,-9178.553681,-1554.432478,-612.876398
3252.885256,-8586.388927,-1184.329507,-383.047749
3252.885593,-9992.780217,-1480.411884,-842.705048
3252.885930,-10288.862594,-1406.391290,-1302.362347
3252.886267,-9474.636058,-2072.576638,1302.362347
3252.886605,-11029.068536,-1406.391290,4443.353888
3252.886942,-11251.130318,-962.267725,2451.505594
3252.887279,-9548.656652,814.226536,612.876398
3252.887617,-9030.512492,1850.514855,383.047749
3252.887954,-9844.739029,1036.288319,1378.971896
3252.888291,-10066.800811,1628.453072,536.266849
3252.888628,-9918.759623,1332.370696,1378.971896
3252.888966,-10510.924376,1184.329507,2681.334243
3252.889303,-11325.150913,1184.329507,459.657299
3252.889640,-10436.903782,1184.329507,-1225.752797
3252.889977,-7920.203579,1702.473667,-842.705048
3252.890315,-7476.080014,1184.329507,-766.095498
3252.890652,-9770.718434,1628.453072,-1608.800546
3252.890989,-10732.986159,1036.288319,-2298.286494
3252.891327,-9696.697840,-444.123565,0.000000
3252.891664,-10732.986159,-1776.494261,1455.581446
3252.892001,-10955.047942,-370.102971,689.485948
3252.892338,-9400.615463,74.020594,-612.876398
3252.892676,-8734.430116,148.041188,0.000000
3252.893013,-9622.677246,-666.185348,689.485948
3252.893350,-10732.986159,-1406.391290,766.095498
3252.893687,-10214.842000,-1110.308913,1838.629195
3252.894025,-11695.253884,-1480.411884,4290.134789
3252.894362,-12657.521608,-1110.308913,2451.505594
3252.894699,-10436.903782,-666.185348,0.000000
3252.895037,-8586.388927,0.000000,76.609550
3252.895374,-8364.327145,74.020594,612.876398
3252.895711,-10362.883188,-740.205942,-766.095498
3252.896048,-10436.903782,-666.185348,-1608.800546
3252.896386,-9400.615463,-1554.432478,-306.438199
3252.896723,-10955.047942,-2072.576638,1991.848295
3252.897060,-11103.089130,-1924.535449,-383.047749
3252.897398,-8734.430116,0.000000,-1838.629195
3252.897735,-8142.265362,148.041188,-1149.143247
3252.898072,-9696.697840,-1258.350101,-1225.752797
3252.898409,-11177.109724,-814.226536,-766.095498
3252.898747,-9770.718434,-1406.391290,1072.533697
3252.899084,-10362.883188,-1258.350101,2451.505594
3252.899421,-11769.274478,-740.205942,1378.971896
3252.899758,-10881.027347,148.041188,76.609550
3252.900096,-8882.471304,296.082377,459.657299
3252.900433,-8734.430116,592.164754,1072.533697
3252.900770,-10732.986159,1702.473667,459.657299
3252.901108,-10881.027347,1184.329507,0.000000
3252.901445,-9178.553681,592.164754,1838.629195
3252.901782,-10436.903782,740.205942,2757.943793
3252.902119,-10436.903782,518.144159,1149.143247
3252.902457,-9326.594869,2960.823768,-306.438199
3252.902794,-8586.388927,1850.514855,-612.876398
3252.903131,-9474.636058,1628.453072,-383.047749
3252.903468,-10066.800811,148.041188,-1685.410096
3252.903806,-9104.533087,0.000000,-76.609550
3252.904143,-9474.636058,-1110.308913,1838.629195
3252.904480,-10584.944971,-1924.535449,383.047749
3252.904818,-9400.615463,-1332.370696,-2068.457845
3252.905155,-7994.224174,-740.205942,-2068.457845
3252.905492,-8660.409521,-1258.350101,-153.219100
3252.905829,-10732.986159,-2368.659014,-612.876398
3252.906167,-10214.842000,-1406.391290,-689.485948
3252.906504,-10362.883188,-2294.638420,383.047749
3252.906841,-11547.212695,-2664.741391,2221.676944
3252.907178,-11917.315666,-2368.659014,229.828649
3252.907516,-9992.780217,-1258.350101,-383.047749
3252.907853,-9178.553681,0.000000,766.095498
3252.908190,-10658.965565,-814.226536,229.828649
3252.908528,-11695.253884,-666.185348,459.657299
3252.908865,-10955.047942,-370.102971,1608.800546
3252.909202,-11547.212695,-444.123565,3447.429741
3252.909539,-12213.398043,-592.164754,2221.676944
3252.909877,-10584.944971,74.020594,-306.438199
3252.910214,-8956.491898,1184.329507,0.000000
3252.910551,-9178.553681,666.185348,536.266849
3252.910888,-10214.842000,148.041188,-766.095498
3252.911226,-9548.656652,592.164754,-1762.019645
3252.911563,-9326.594869,-592.164754,459.657299
3252.911900,-10436.903782,-1110.308913,1149.143247
3252.912238,-9696.697840,-592.164754,-766.095498
3252.912575,-8142.265362,222.061783,-1378.971896
3252.912912,-7698.141797,518.144159,-229.828649
3252.913249,-8438.347739,0.000000,306.438199
3252.913587,-9622.677246,148.041188,0.000000
3252.913924,-9178.553681,0.000000,1608.800546
3252.914261,-10214.842000,0.000000,3677.258390
3252.914598,-12065.356855,-296.082377,2911.162892
3252.914936,-10807.006753,1776.494261,536.266849
3252.915273,-8956.491898,1628.453072,76.609550
3252.915610,-9696.697840,1850.514855,919.314598
3252.915948,-10510.924376,666.185348,-383.047749
3252.916285,-10140.821405,962.267725,-612.876398
3252.916622,-9770.718434,592.164754,995.924147
3252.916959,-11621.233289,-666.185348,919.314598
3252.917297,-11473.192101,222.061783,-1149.143247
3252.917634,-9622.677246,296.082377,-1838.629195
3252.917971,-8882.471304,592.164754,-1685.410096
3252.918308,-10732.986159,-740.205942,-842.705048
3252.918646,-11103.089130,-740.205942,-1455.581446
3252.918983,-9770.718434,-2146.597232,0.000000
3252.919320,-10658.965565,-2516.700203,1838.629195
3252.919658,-11917.315666,-3034.844362,766.095498
3252.919995,-10214.842000,-2886.803174,-1762.019645
3252.920332,-8364.327145,-1628.453072,-1378.971896
3252.920669,-9030.512492,-2072.576638,229.828649
3252.921007,-10288.862594,-1628.453072,-1225.752797
3252.921344,-9326.594869,-2442.679609,-995.924147
3252.921681,-9918.759623,-2664.741391,2681.334243
3252.922018,-10288.862594,-1850.514855,4290.134789
3252.922356,-11251.130318,-666.185348,1991.848295
3252.922693,-10066.800811,740.205942,229.828649
3252.923030,-8956.491898,1554.432478,536.266849
3252.923368,-10066.800811,1110.308913,1225.752797
3252.923705,-10881.027347,1258.350101,459.657299
3252.924042,-9252.574275,962.267725,1608.800546
3252.924380,-11029.068536,814.226536,2681.334243
3252.924717,-11177.109724,814.226536,536.266849
3252.925055,-10140.821405,1776.494261,-612.876398
3252.925392,-8586.388927,1998.556043,-306.438199
3252.925729,-8734.430116,1554.432478,-919.314598
3252.926067,-10066.800811,1628.453072,-1762.019645
3252.926404,-9844.739029,148.041188,-919.314598
3252.926742,-9696.697840,-148.041188,1532.190996
3252.927079,-11325.150913,-1332.370696,1838.629195
3252.927416,-10732.986159,-592.164754,1149.143247
3252.927754,-9400.615463,0.000000,-766.095498
3252.928091,-8586.388927,0.000000,0.000000
3252.928429,-9622.677246,-1332.370696,612.876398
3252.928766,-9622.677246,-2220.617826,995.924147
3252.929103,-8956.491898,-1258.350101,1991.848295
3252.929441,-10362.883188,-1850.514855,3753.867940
3252.929778,-11991.336260,-1036.288319,1685.410096
3252.930116,-10214.842000,-814.226536,-1072.533697
3252.930453,-8438.347739,444.123565,0.000000
3252.930790,-9030.512492,-296.082377,306.438199
3252.931128,-10214.842000,-296.082377,-689.485948
3252.931465,-9622.677246,-1036.288319,-1225.752797
3252.931803,-10214.842000,-962.267725,0.000000
3252.932140,-11843.295072,-1924.535449,1072.533697
3252.932477,-12509.480420,-888.247130,-1149.143247
3252.932815,-9178.553681,296.082377,-2834.553343
3252.933152,-8882.471304,0.000000,-1838.629195
3252.933489,-10658.965565,-888.247130,-1532.190996
3252.933827,-10510.924376,-1110.308913,-1915.238745
3252.934164,-10436.903782,-1332.370696,1455.581446
3252.934502,-11547.212695,-1332.370696,2987.772442
3252.934839,-11843.295072,-666.185348,995.924147
3252.935176,-10807.006753,370.102971,-306.438199
3252.935514,-9030.512492,296.082377,306.438199
3252.935851,-8882.471304,222.061783,919.314598
3252.936189,-9770.718434,814.226536,383.047749
3252.936526,-9326.594869,962.267725,1149.143247
3252.936863,-9770.718434,962.267725,2757.943793
3252.937201,-10955.047942,666.185348,2451.505594
3252.937538,-10140.821405,1258.350101,536.266849
3252.937876,-7772.162391,2516.700203,-229.828649
3252.938213,-8068.244768,1998.556043,766.095498
3252.938550,-9178.553681,1258.350101,0.000000
3252.938888,-9474.636058,592.164754,-229.828649
3252.939225,-9178.553681,518.144159,1455.581446
3252.939563,-10881.027347,-1110.308913,2145.067394
3252.939900,-11325.150913,-666.185348,0.000000
3252.940237,-9326.594869,-592.164754,-3064.381992
3252.940575,-7772.162391,-666.185348,-2145.067394
3252.940912,-8808.450710,-1184.329507,-995.924147
3252.941250,-10362.883188,-888.247130,-1302.362347
3252.941587,-10362.883188,-1924.535449,-1225.752797
3252.941924,-11325.150913,-1554.432478,1685.410096
3252.942262,-13397.727550,-2664.741391,2451.505594
3252.942599,-12509.480420,-2072.576638,1302.362347
3252.942936,-9548.656652,-1110.308913,0.000000
3252.943274,-9252.574275,-888.247130,1149.143247
3252.943611,-10510.924376,-888.247130,459.657299
3252.943949,-10066.800811,-962.267725,0.000000
3252.944286,-10658.965565,-2072.576638,2834.553343
3252.944623,-11399.171507,-1480.411884,3753.867940
3252.944961,-11917.315666,-1258.350101,1685.410096
3252.945298,-10288.862594,0.000000,-459.657299
3252.945636,-7846.182985,296.082377,-459.657299
3252.945973,-8216.285956,-296.082377,229.828649
3252.946310,-9474.636058,-444.123565,-1149.143247
3252.946648,-8808.450710,-592.164754,-1072.533697
3252.946985,-9770.718434,-1184.329507,1072.533697
3252.947323,-11103.089130,-1998.556043,1225.752797
3252.947660,-9548.656652,-444.123565,-1149.143247
3252.947997,-7846.182985,296.082377,-1608.800546
3252.948335,-8142.265362,740.205942,-459.657299
3252.948672,-9770.718434,-296.082377,-842.705048
3252.949010,-10362.883188,0.000000,-766.095498
3252.949347,-9918.759623,740.205942,1915.238745
3252.949684,-11769.274478,-370.102971,3370.820191
3252.950022,-12657.521608,518.144159,1455.581446
3252.950359,-10510.924376,1110.308913,-306.438199
3252.950697,-9030.512492,2516.700203,306.438199
3252.951034,-9770.718434,1406.391290,229.828649
3252.951371,-10955.047942,814.226536,-153.219100
3252.951709,-10214.842000,518.144159,-1149.143247
3252.952046,-10140.821405,-74.020594,1149.143247
3252.952384,-11917.315666,-740.205942,1378.971896
3252.952721,-10214.842000,-1036.288319,-1149.143247
3252.953058,-8142.265362,0.000000,-1302.362347
3252.953396,-8364.327145,0.000000,-536.266849
3252.953733,-9992.780217,-740.205942,-919.314598
3252.954070,-10510.924376,-1554.432478,-766.095498
3252.954408,-9548.656652,-2516.700203,919.314598
3252.954745,-10658.965565,-3108.864956,2298.286494
3252.955083,-11547.212695,-2738.761985,536.266849
3252.955420,-9474.636058,-1924.535449,-1532.190996
3252.955757,-8512.368333,-1554.432478,-1302.362347
3252.956095,-9400.615463,-1776.494261,-689.485948
3252.956432,-9696.697840,-1628.453072,-1608.800546
3252.956770,-9992.780217,-1406.391290,612.876398
3252.957107,-11325.150913,-1702.473667,3830.477490
3252.957444,-11843.295072,-1184.329507,2987.772442
3252.957782,-11251.130318,666.185348,1225.752797
3252.958119,-9622.677246,1406.391290,766.095498
3252.958457,-9770.718434,1628.453072,1762.019645
3252.958794,-10510.924376,814.226536,1225.752797
3252.959131,-10584.944971,1850.514855,383.047749
3252.959469,-10140.821405,1110.308913,2451.505594
3252.959806,-11325.150913,666.185348,2451.505594
3252.960144,-11325.150913,814.226536,0.000000
3252.960481,-8882.471304,1480.411884,-2221.676944
3252.960818,-7772.162391,2368.659014,-1915.238745
3252.961156,-8660.409521,1850.514855,-1762.019645
3252.961493,-9474.636058,370.102971,-2451.505594
3252.961831,-8142.265362,370.102971,-1455.581446
3252.962168,-10066.800811,-1702.473667,1532.190996
3252.962505,-10510.924376,-740.205942,1762.019645
3252.962843,-10436.903782,-518.144159,-612.876398
3252.963180,-8956.491898,518.144159,-1225.752797
3252.963517,-7772.162391,148.041188,-1608.800546
3252.963855,-9696.697840,-1110.308913,-612.876398
3252.964192,-9918.759623,-1258.350101,1072.533697
3252.964530,-9326.594869,-1406.391290,2374.896044
3252.964867,-11695.253884,-962.267725,3217.601092
3252.965204,-12435.459826,-814.226536,229.828649
3252.965542,-10362.883188,296.082377,-1608.800546
3252.965879,-8956.491898,296.082377,-766.095498
3252.966217,-9548.656652,0.000000,0.000000
3252.966554,-10658.965565,-148.041188,-536.266849
3252.966891,-10510.924376,-1110.308913,-306.438199
3252.967229,-10955.047942,-1776.494261,1455.581446
3252.967566,-12361.439231,-2442.679609,612.876398
3252.967904,-11251.130318,-1332.370696,-459.657299
3252.968241,-8808.450710,-296.082377,-2298.286494
3252.968578,-8512.368333,-740.205942,-1225.752797
3252.968916,-10140.821405,-1776.494261,-459.657299
3252.969253,-9622.677246,-1628.453072,-919.314598
3252.969591,-9622.677246,-1850.514855,1838.629195
3252.969928,-11473.192101,-2368.659014,3294.210641
3252.970265,-11917.315666,-1628.453072,612.876398
3252.970603,-9548.656652,0.000000,-153.219100
3252.970940,-7846.182985,518.144159,1225.752797
3252.971278,-9030.512492,0.000000,1149.143247
3252.971615,-10066.800811,222.061783,842.705048
3252.971952,-9400.615463,1332.370696,1991.848295
3252.972290,-11177.109724,0.000000,3983.696590
3252.972627,-11621.233289,0.000000,2681.334243
3252.972965,-10066.800811,1998.556043,0.000000
3252.973302,-8364.327145,2590.720797,-76.609550
3252.973639,-8438.347739,2812.782580,153.219100
3252.973977,-9918.759623,1332.370696,-766.095498
3252.974314,-9918.759623,1406.391290,-1532.190996
3252.974651,-9770.718434,-222.061783,689.485948
3252.974989,-12065.356855,0.000000,2451.505594
3252.975326,-11029.068536,-444.123565,-1072.533697
3252.975664,-9030.512492,74.020594,-3217.601092
3252.976001,-7772.162391,-592.164754,-2068.457845
3252.976338,-8586.388927,-1258.350101,-995.924147
3252.976676,-10140.821405,-962.267725,-766.095498
3252.977013,-10510.924376,-2220.617826,-459.657299
3252.977351,-11103.089130,-2590.720797,1838.629195
3252.977688,-12139.377449,-2590.720797,1225.752797
3252.978025,-10807.006753,-1702.473667,-383.047749
3252.978363,-8438.347739,0.000000,-842.705048
3252.978700,-8956.491898,-962.267725,76.609550
3252.979038,-10658.965565,-1184.329507,0.000000
3252.979375,-10214.842000,-1184.329507,-306.438199
3252.979712,-10732.986159,-1184.329507,3064.381992
3252.980050,-11917.315666,-1998.556043,3140.991542
3252.980387,-11399.171507,-148.041188,0.000000
3252.980725,-9178.553681,370.102971,-1532.190996
3252.981062,-8364.327145,592.164754,-306.438199
3252.981399,-8734.430116,0.000000,-459.657299
3252.981737,-10066.800811,148.041188,-1455.581446
3252.982074,-9696.697840,-148.041188,-842.705048
3252.982412,-10807.006753,-592.164754,306.438199
3252.982749,-11769.274478,-1332.370696,0.000000
3252.983086,-9548.656652,0.000000,-1225.752797
3252.983424,-7772.162391,222.061783,-153.219100
3252.983761,-8808.450710,888.247130,612.876398
3252.984098,-9918.759623,148.041188,0.000000
3252.984436,-9918.759623,370.102971,919.314598
3252.984773,-10140.821405,-444.123565,3524.039291
3252.985111,-11769.274478,222.061783,4136.915689
3252.985448,-11325.150913,740.205942,1685.410096
3252.985785,-9474.636058,1110.308913,612.876398
3252.986123,-7994.224174,2072.576638,1072.533697
3252.986460,-9252.574275,1110.308913,459.657299
3252.986798,-10584.944971,1406.391290,0.000000
3252.987135,-10066.800811,444.123565,-459.657299
3252.987472,-10140.821405,-296.082377,1302.362347
3252.987810,-10658.965565,0.000000,1302.362347
3252.988147,-9548.656652,-370.102971,-1302.362347
3252.988485,-7994.224174,888.247130,-1532.190996
3252.988822,-8660.409521,-148.041188,-1378.971896
3252.989159,-10066.800811,-296.082377,-1378.971896
3252.989497,-10732.986159,-888.247130,-1378.971896
3252.989834,-10362.883188,-2294.638420,306.438199
3252.990172,-11621.233289,-2738.761985,689.485948
3252.990509,-11547.212695,-2442.679609,-842.705048
3252.990846,-9474.636058,-1036.288319,-1532.190996
3252.991184,-8660.409521,-1110.308913,-995.924147
3252.991521,-9622.677246,-1480.411884,0.000000
3252.991859,-10881.027347,-1998.556043,-1302.362347
3252.992196,-10140.821405,-1554.432478,995.924147
3252.992533,-11325.150913,-2368.659014,3753.867940
3252.992871,-12435.459826,-1924.535449,3524.039291
3252.993208,-10436.903782,0.000000,842.705048
3252.993546,-8734.430116,1258.350101,612.876398
3252.993883,-9548.656652,1110.308913,1685.410096
3252.994220,-10732.986159,518.144159,1302.362347
3252.994558,-10140.821405,296.082377,919.314598
3252.994895,-9992.780217,444.123565,1915.238745
3252.995232,-11325.150913,74.020594,1838.629195
3252.995570,-10584.944971,666.185348,-766.095498
3252.995907,-7846.182985,1110.308913,-2374.896044
3252.996245,-7476.080014,1332.370696,-1225.752797
3252.996582,-9104.533087,962.267725,-1302.362347
3252.996919,-9770.718434,444.123565,-2221.676944
3252.997257,-9178.553681,0.000000,-766.095498
3252.997594,-10436.903782,-1258.350101,2298.286494
3252.997932,-10955.047942,-370.102971,1072.533697
3252.998269,-9992.780217,0.000000,-383.047749
3252.998606,-9030.512492,1480.411884,306.438199
3252.998944,-9030.512492,-888.247130,306.438199
3252.999281,-10510.924376,-222.061783,612.876398
3252.999619,-10584.944971,-444.123565,919.314598
3252.999956,-10955.047942,-1258.350101,3064.381992
3253.000293,-11399.171507,-370.102971,2145.067394
3253.000631,-11695.253884,-296.082377,76.609550
3253.000968,-9696.697840,962.267725,-612.876398
3253.001306,-8586.388927,222.061783,0.000000
3253.001643,-10584.944971,0.000000,612.876398
3253.001980,-10658.965565,0.000000,-842.705048
3253.002318,-10436.903782,-1110.308913,-306.438199
3253.002655,-10807.006753,-1998.556043,1608.800546
3253.002993,-11177.109724,-2072.576638,383.047749
3253.003330,-9622.677246,-518.144159,-1072.533697
3253.003667,-9030.512492,74.020594,-2068.457845
3253.004005,-8290.306550,-962.267725,-1149.143247
3253.004342,-10658.965565,-2220.617826,-766.095498
3253.004679,-9400.615463,-2368.659014,0.000000
3253.005017,-9844.739029,-1184.329507,2681.334243
3253.005354,-11917.315666,-1480.411884,2834.553343
3253.005692,-11695.253884,-666.185348,0.000000
3253.006029,-8660.409521,74.020594,-919.314598
3253.006366,-8512.368333,518.144159,1149.143247
3253.006704,-9918.759623,444.123565,1302.362347
3253.007041,-10584.944971,666.185348,0.000000
3253.007379,-9474.636058,814.226536,1302.362347
3253.007716,-10436.903782,0.000000,2987.772442
3253.008053,-11325.150913,962.267725,2145.067394
3253.008391,-9770.718434,2220.617826,0.000000
3253.008728,-8364.327145,2368.659014,306.438199
3253.009066,-9474.636058,2146.597232,612.876398
3253.009403,-10288.862594,1554.432478,-306.438199
3253.009740,-10140.821405,1332.370696,-153.219100
3253.010078,-9918.759623,148.041188,1149.143247
3253.010415,-11399.171507,-296.082377,536.266849
3253.010753,-10288.862594,-296.082377,-2145.067394
3253.011090,-8364.327145,0.000000,-2911.162892
3253.011427,-7698.141797,-962.267725,-1532.190996
3253.011765,-9326.594869,-1332.370696,-1302.362347
3253.012102,-9844.739029,-2072.576638,-2298.286494
3253.012440,-10140.821405,-1998.556043,0.000000
3253.012777,-10658.965565,-2368.659014,1072.533697
3253.013114,-11399.171507,-2664.741391,1225.752797
3253.013452,-10066.800811,-888.247130,383.047749
3253.013789,-8660.409521,0.000000,0.000000
3253.014127,-9992.780217,-1258.350101,1149.143247
3253.014464,-11325.150913,-1258.350101,612.876398
3253.014801,-9992.780217,-1036.288319,1378.971896
3253.015139,-11103.089130,-1110.308913,3677.258390
3253.015476,-11843.295072,-1554.432478,2451.505594
3253.015813,-11177.109724,-592.164754,-1072.533697
3253.016151,-9030.512492,888.247130,-919.314598
3253.016488,-8660.409521,740.205942,-229.828649
3253.016826,-9918.759623,370.102971,-459.657299
3253.017163,-10436.903782,222.061783,-2145.067394
3253.017500,-9548.656652,148.041188,-383.047749
3253.017838,-10732.986159,-444.123565,1149.143247
3253.018175,-11843.295072,-666.185348,536.266849
3253.018513,-9696.697840,-148.041188,-919.314598
3253.018850,-8290.306550,222.061783,995.924147
3253.019187,-9326.594869,0.000000,689.485948
3253.019525,-10584.944971,-518.144159,383.047749
3253.019862,-9548.656652,-370.102971,1455.581446
3253.020200,-9918.759623,-592.164754,2987.772442
3253.020537,-11325.150913,-370.102971,3217.601092
3253.020874,-10732.986159,740.205942,459.657299
3253.021212,-9178.553681,2220.617826,612.876398
3253.021549,-8586.388927,1332.370696,1149.143247
3253.021887,-9474.636058,1628.453072,229.828649
3253.022224,-10362.883188,1184.329507,-689.485948
3253.022561,-9622.677246,296.082377,612.876398
3253.022899,-10066.800811,-666.185348,1762.019645
3253.023236,-10807.006753,0.000000,612.876398
3253.023574,-9474.636058,814.226536,-1378.971896
3253.023911,-8364.327145,1110.308913,-1608.800546
3253.024248,-9770.718434,-370.102971,-1149.143247
3253.024585,-10288.862594,-370.102971,-1838.629195
3253.024923,-10140.821405,-1184.329507,-919.314598
3253.025260,-10732.986159,-2146.597232,1378.971896
3253.025597,-11695.253884,-2294.638420,536.266849
3253.025935,-11325.150913,-2442.679609,-919.314598
3253.026272,-9844.739029,-1406.391290,-1608.800546
3253.026609,-8882.471304,-1332.370696,-536.266849
3253.026947,-10362.883188,-1924.535449,-766.095498
3253.027284,-10584.944971,-2220.617826,-766.095498
3253.027621,-9622.677246,-2294.638420,536.266849
3253.027959,-11251.130318,-2146.597232,3217.601092
3253.028296,-11843.295072,-814.226536,2528.115143
3253.028633,-10066.800811,296.082377,153.219100
3253.028971,-9178.553681,1036.288319,919.314598
3253.029308,-9696.697840,1332.370696,1225.752797
3253.029646,-10955.047942,296.082377,842.705048
3253.029983,-9770.718434,592.164754,1072.533697
3253.030320,-9622.677246,148.041188,1915.238745
3253.030658,-10955.047942,666.185348,1225.752797
3253.030995,-10214.842000,740.205942,-1225.752797
3253.031332,-8290.306550,1184.329507,-1225.752797
3253.031670,-8290.306550,1184.329507,-842.705048
3253.032007,-9104.533087,1036.288319,-1455.581446
3253.032344,-9844.739029,222.061783,-2528.115143
3253.032682,-9474.636058,0.000000,0.000000
3253.033019,-10214.842000,-666.185348,1991.848295
3253.033356,-11325.150913,-296.082377,1455.581446
3253.033694,-10066.800811,814.226536,-766.095498
3253.034031,-8882.471304,962.267725,0.000000
3253.034369,-10214.842000,-592.164754,919.314598
3253.034706,-10584.944971,-814.226536,842.705048
3253.035043,-10288.862594,-148.041188,1685.410096
3253.035381,-10732.986159,-888.247130,2834.553343
3253.035718,-11695.253884,-740.205942,1455.581446
3253.036055,-11251.130318,-444.123565,0.000000
3253.036393,-8734.430116,740.205942,-766.095498
3253.036730,-9030.512492,74.020594,536.266849
3253.037067,-10658.965565,-148.041188,-612.876398
3253.037405,-9918.759623,-666.185348,-1838.629195
3253.037742,-9548.656652,-1184.329507,-153.219100
3253.038079,-10658.965565,-2442.679609,1455.581446
3253.038417,-11473.192101,-2072.576638,459.657299
3253.038754,-9992.780217,-1110.308913,-1302.362347
3253.039091,-8660.409521,-148.041188,-1455.581446
3253.039429,-9474.636058,-2072.576638,-919.314598
3253.039766,-10584.944971,-2220.617826,-153.219100
3253.040104,-9770.718434,-2072.576638,459.657299
3253.040441,-10288.862594,-2146.597232,2528.115143
3253.040778,-11991.336260,-1332.370696,2221.676944
3253.041116,-11325.150913,-370.102971,-689.485948
3253.041453,-9030.512492,0.000000,-229.828649
3253.041790,-9030.512492,962.267725,1225.752797
3253.042128,-11029.068536,0.000000,1225.752797
3253.042465,-10140.821405,1554.432478,229.828649
3253.042802,-9622.677246,888.247130,1072.533697
3253.043140,-11399.171507,592.164754,3064.381992
3253.043477,-11251.130318,1332.370696,536.266849
3253.043814,-9474.636058,2516.700203,-459.657299
3253.044152,-8660.409521,2368.659014,459.657299
3253.044489,-9030.512492,1776.494261,536.266849
3253.044827,-9844.739029,1406.391290,-612.876398
3253.045164,-9474.636058,1036.288319,-383.047749
3253.045501,-9992.780217,296.082377,1302.362347
3253.045839,-11621.233289,-370.102971,0.000000
3253.046176,-9992.780217,148.041188,-2757.943793
3253.046513,-7994.224174,0.000000,-2604.724693
3253.046851,-8142.265362,-1184.329507,-995.924147
3253.047188,-9474.636058,-1258.350101,-995.924147
3253.047525,-9918.759623,-1702.473667,-1532.190996
3253.047863,-9918.759623,-1702.473667,1072.533697
3253.048200,-11103.089130,-2516.700203,2068.457845
3253.048537,-11991.336260,-2146.597232,995.924147
3253.048875,-10732.986159,-962.267725,459.657299
3253.049212,-8956.491898,-74.020594,689.485948
3253.049550,-10288.862594,-1258.350101,1302.362347
3253.049887,-10955.047942,-1332.370696,1072.533697
3253.050224,-10066.800811,-1998.556043,1302.362347
3253.050562,-11325.150913,-1406.391290,3753.867940
3253.050899,-12583.501014,-1110.308913,2145.067394
3253.051236,-11621.233289,-74.020594,-919.314598
3253.051574,-9326.594869,444.123565,-1225.752797
3253.051911,-8364.327145,740.205942,229.828649
3253.052248,-10436.903782,-518.144159,-306.438199
3253.052586,-9622.677246,-518.144159,-1915.238745
3253.052923,-9252.574275,-1332.370696,-306.438199
3253.053260,-11029.068536,-1554.432478,1838.629195
3253.053598,-10732.986159,-740.205942,-306.438199
3253.053935,-9104.533087,-222.061783,-1225.752797
3253.054273,-8216.285956,222.061783,0.000000
3253.054610,-9030.512492,-518.144159,689.485948
3253.054947,-10140.821405,-370.102971,459.657299
3253.055285,-9326.594869,-148.041188,1225.752797
3253.055622,-10955.047942,0.000000,3677.258390
3253.055959,-12361.439231,0.000000,2528.115143
3253.056297,-10436.903782,1036.288319,-153.219100
3253.056634,-8512.368333,2368.659014,383.047749
3253.056971,-8660.409521,1258.350101,766.095498
3253.057309,-9548.656652,1480.411884,0.000000
3253.057646,-10584.944971,1332.370696,-919.314598
3253.057983,-10288.862594,740.205942,766.095498
3253.058321,-11325.150913,222.061783,1072.533697
3253.058658,-11029.068536,74.020594,-229.828649
3253.058996,-9252.574275,370.102971,-1685.410096
3253.059333,-7328.038826,740.205942,-1762.019645
3253.059670,-9178.553681,-592.164754,-766.095498
3253.060008,-10510.924376,-1702.473667,-1149.143247
3253.060345,-9400.615463,-1628.453072,-612.876398
3253.060682,-10807.006753,-2368.659014,1608.800546
3253.061020,-12287.418637,-2590.720797,689.485948
3253.061357,-10436.903782,-2368.659014,-995.924147
3253.061694,-8882.471304,-1110.308913,-1072.533697
3253.062032,-8808.450710,-1184.329507,-306.438199
3253.062369,-10510.924376,-1924.535449,-1149.143247
3253.062706,-11103.089130,-1776.494261,-842.705048
3253.063044,-9548.656652,-1924.535449,1685.410096
3253.063381,-11547.212695,-2072.576638,4136.915689
3253.063718,-12065.356855,-296.082377,2298.286494
3253.064056,-9696.697840,1406.391290,-153.219100
3253.064393,-9474.636058,1110.308913,919.314598
3253.064731,-9992.780217,370.102971,1455.581446
3253.065068,-10510.924376,962.267725,842.705048
3253.065405,-9770.718434,740.205942,1685.410096
3253.065743,-10658.965565,0.000000,2911.162892
3253.066080,-11399.171507,814.226536,536.266849
3253.066417,-9696.697840,814.226536,-1685.410096
3253.066755,-7772.162391,1628.453072,-919.314598
3253.067092,-7994.224174,666.185348,-1532.190996
3253.067429,-9178.553681,1110.308913,-2068.457845
3253.067767,-9326.594869,814.226536,-2451.505594
3253.068104,-9326.594869,-666.185348,229.828649
3253.068441,-10510.924376,-148.041188,2298.286494
3253.068779,-10955.047942,-370.102971,536.266849
3253.069116,-9400.615463,1110.308913,-842.705048
3253.069454,-9474.636058,1110.308913,76.609550
3253.069791,-10732.986159,-370.102971,612.876398
3253.070128,-10288.862594,-888.247130,383.047749
3253.070466,-9696.697840,-814.226536,1685.410096
3253.070803,-10807.006753,-814.226536,3524.039291
3253.071140,-11843.295072,-1184.329507,1225.752797
3253.071478,-10881.027347,74.020594,-612.876398
3253.071815,-9030.512492,222.061783,-995.924147
3253.072152,-8808.450710,444.123565,0.000000
3253.072490,-10658.965565,-222.061783,-842.705048
3253.072827,-10214.842000,-1036.288319,-1685.410096
3253.073164,-9474.636058,-1998.556043,0.000000
3253.073502,-10881.027347,-2516.700203,1608.800546
3253.073839,-11325.150913,-2146.597232,-383.047749
3253.074177,-9252.574275,-1480.411884,-2451.505594
3253.074514,-8734.430116,-1628.453072,-1072.533697
3253.074851,-9030.512492,-1998.556043,-1455.581446
3253.075189,-9770.718434,-2812.782580,-383.047749
3253.075526,-9474.636058,-2738.761985,1532.190996
3253.075863,-11177.109724,-2368.659014,2987.772442
3253.076201,-12805.562797,-1332.370696,1608.800546
3253.076538,-11177.109724,-888.247130,-383.047749
3253.076875,-8882.471304,74.020594,0.000000
3253.077213,-8956.491898,0.000000,1532.190996
3253.077550,-10658.965565,370.102971,919.314598
3253.077887,-10066.800811,1110.308913,689.485948
3253.078225,-10066.800811,74.020594,2374.896044
3253.078562,-11103.089130,666.185348,3217.601092
3253.078900,-11251.130318,1480.411884,766.095498
3253.079237,-9326.594869,3775.050304,0.000000
3253.079574,-8586.388927,2590.720797,-612.876398
3253.079912,-9622.677246,1332.370696,229.828649
3253.080249,-8882.471304,1258.350101,-1149.143247
3253.080586,-9030.512492,518.144159,1608.800546
3253.080924,-10881.027347,222.061783,2834.553343
3253.081261,-11399.171507,-592.164754,0.000000
3253.081598,-10362.883188,0.000000,-2374.896044
3253.081936,-7254.018232,518.144159,-2604.724693
3253.082273,-8068.244768,-962.267725,-919.314598
3253.082610,-9030.512492,-1258.350101,-995.924147
3253.082948,-8956.491898,-1258.350101,-1072.533697
3253.083285,-9918.759623,-1850.514855,766.095498
3253.083623,-11695.253884,-2368.659014,1685.410096
3253.083960,-11325.150913,-1554.432478,459.657299
3253.084297,-10288.862594,0.000000,153.219100
3253.084635,-9326.594869,0.000000,229.828649
3253.084972,-10066.800811,-592.164754,689.485948
3253.085309,-10436.903782,-1184.329507,536.266849
3253.085647,-10584.944971,-1184.329507,2604.724693
3253.085984,-11399.171507,-1850.514855,3140.991542
3253.086321,-12435.459826,-962.267725,1378.971896
3253.086659,-10955.047942,370.102971,-1608.800546
3253.086996,-8956.491898,222.061783,-1149.143247
3253.087333,-8438.347739,222.061783,0.000000
3253.087671,-10066.800811,-74.020594,-2068.457845
3253.088008,-9622.677246,74.020594,-1378.971896
3253.088345,-9992.780217,-1258.350101,0.000000
3253.088683,-11325.150913,-1702.473667,1455.581446
3253.089020,-11103.089130,-1036.288319,-306.438199
3253.089358,-8956.491898,518.144159,-612.876398
3253.089695,-8438.347739,370.102971,0.000000
3253.090032,-9474.636058,-444.123565,0.000000
3253.090370,-9474.636058,-148.041188,306.438199
3253.090707,-9474.636058,-592.164754,2145.067394
3253.091044,-11029.068536,0.000000,3753.867940
3253.091382,-11547.212695,-148.041188,2298.286494
3253.091719,-10436.903782,1258.350101,-153.219100
3253.092056,-8068.244768,3034.844362,76.609550
3253.092394,-9400.615463,2294.638420,612.876398
3253.092731,-10510.924376,1776.494261,-995.924147
3253.093068,-9844.739029,962.267725,-766.095498
3253.093406,-10214.842000,370.102971,2298.286494
3253.093743,-11621.233289,-148.041188,1991.848295
3253.094081,-11325.150913,0.000000,306.438199
3253.094418,-9474.636058,1036.288319,-1838.629195
3253.094755,-7402.059420,0.000000,-2068.457845
3253.095093,-9548.656652,-592.164754,-153.219100
3253.095430,-10066.800811,-1628.453072,-459.657299
3253.095767,-9030.512492,-1850.514855,766.095498
3253.096105,-11325.150913,-2664.741391,1915.238745
3253.096442,-12435.459826,-2960.823768,0.000000
3253.096779,-10140.821405,-1776.494261,-766.095498
3253.097117,-8290.306550,-1332.370696,-689.485948
3253.097454,-8216.285956,-1776.494261,459.657299
3253.097791,-10584.944971,-1480.411884,-1455.581446
3253.098129,-10881.027347,-1850.514855,-153.219100
3253.098466,-11325.150913,-2590.720797,2068.457845
3253.098804,-11843.295072,-2220.617826,4136.915689
3253.099141,-11325.150913,0.000000,1685.410096
3253.099478,-9030.512492,1332.370696,536.266849
3253.099816,-9030.512492,1776.494261,1225.752797
3253.100153,-10732.986159,370.102971,1685.410096
3253.100490,-10732.986159,740.205942,1225.752797
3253.100828,-9844.739029,1184.329507,2145.067394
3253.101165,-11695.253884,666.185348,3064.381992
3253.101502,-11917.315666,-296.082377,536.266849
3253.101840,-8882.471304,1184.329507,-2145.067394
3253.102177,-7105.977043,1776.494261,-1378.971896
3253.102514,-7772.162391,1110.308913,-1072.533697
3253.102852,-9474.636058,444.123565,-3064.381992
3253.103189,-9326.594869,-148.041188,-1762.019645
3253.103527,-9548.656652,-1258.350101,1532.190996
3253.103864,-10214.842000,-1036.288319,1915.238745
3253.104201,-10955.047942,-222.061783,383.047749
3253.104539,-8808.450710,1850.514855,-995.924147
3253.104876,-8364.327145,592.164754,-229.828649
3253.105213,-10584.944971,-444.123565,536.266849
3253.105551,-10140.821405,-814.226536,689.485948
3253.105888,-10658.965565,-1628.453072,2145.067394
3253.106225,-11991.336260,-666.185348,2757.943793
3253.106563,-11843.295072,-666.185348,0.000000
3253.106900,-10140.821405,222.061783,-1378.971896
3253.107237,-8882.471304,296.082377,-459.657299
3253.107575,-9474.636058,444.123565,-842.705048
3253.107912,-11029.068536,370.102971,-1532.190996
3253.108250,-11103.089130,-740.205942,-1685.410096
3253.108587,-10436.903782,-1776.494261,612.876398
3253.108924,-11621.233289,-2886.803174,2145.067394
3253.109262,-10436.903782,-1110.308913,-383.047749
3253.109599,-8586.388927,-888.247130,-1838.629195
3253.109936,-8882.471304,-1332.370696,-612.876398
3253.110274,-9918.759623,-2516.700203,0.000000
3253.110611,-10140.821405,-2072.576638,306.438199
3253.110948,-10288.862594,-2072.576638,1838.629195
3253.111286,-11177.109724,-2146.597232,2834.553343
3253.111623,-11769.274478,-1924.535449,1072.533697
3253.111960,-9178.553681,-222.061783,-229.828649
3253.112298,-8216.285956,0.000000,995.924147
3253.112635,-8734.430116,370.102971,1072.533697
3253.112972,-11029.068536,592.164754,1149.143247
3253.113310,-10584.944971,1110.308913,1225.752797
3253.113647,-10066.800811,222.061783,1838.629195
3253.113985,-10881.027347,888.247130,3140.991542
3253.114322,-10955.047942,1776.494261,995.924147
3253.114659,-8660.409521,2812.782580,0.000000
3253.114997,-8956.491898,3478.967927,0.000000
3253.115334,-10066.800811,1554.432478,-689.485948
3253.115671,-9992.780217,1628.453072,-612.876398
3253.116009,-9992.780217,444.123565,1762.019645
3253.116346,-10881.027347,814.226536,1762.019645
3253.116683,-11695.253884,592.164754,-1149.143247
3253.117021,-9622.677246,888.247130,-3294.210641
3253.117358,-7550.100608,0.000000,-2221.676944
3253.117695,-8956.491898,-962.267725,-383.047749
3253.118033,-9844.739029,-888.247130,-842.705048
3253.118370,-9622.677246,-1850.514855,-1225.752797
3253.118708,-10510.924376,-2886.803174,919.314598
3253.119045,-11177.109724,-3034.844362,1991.848295
3253.119382,-10584.944971,-1332.370696,536.266849
3253.119720,-8956.491898,-296.082377,-459.657299
3253.120057,-9548.656652,-666.185348,536.266849
3253.120394,-10881.027347,-1258.350101,689.485948
3253.120732,-10436.903782,-962.267725,306.438199
3253.121069,-10214.842000,-1110.308913,1915.238745
3253.121406,-11695.253884,-1702.473667,2221.676944
3253.121744,-11917.315666,-444.123565,0.000000
3253.122081,-10584.944971,-296.082377,-1149.143247
3253.122418,-8216.285956,592.164754,-1149.143247
3253.122756,-9770.718434,148.041188,-306.438199
3253.123093,-10955.047942,-592.164754,-1762.019645
3253.123431,-9844.739029,-592.164754,-995.924147
3253.123768,-10362.883188,-1258.350101,1072.533697
3253.124105,-11621.233289,-1628.453072,1532.190996
3253.124443,-9844.739029,-814.226536,-612.876398
3253.124780,-8660.409521,0.000000,-306.438199
3253.125117,-8734.430116,222.061783,383.047749
3253.125455,-9770.718434,-148.041188,153.219100
3253.125792,-9622.677246,-370.102971,536.266849
3253.126129,-9400.615463,-666.185348,2528.115143
3253.126466,-11029.068536,-296.082377,4136.915689
3253.126804,-11325.150913,0.000000,1991.848295
3253.127141,-9178.553681,1036.288319,766.095498
3253.127478,-8290.306550,2146.597232,1532.190996
3253.127815,-9474.636058,1554.432478,1225.752797
3253.128153,-10288.862594,1554.432478,-612.876398
3253.128490,-9548.656652,814.226536,0.000000
3253.128827,-10362.883188,148.041188,2451.505594
3253.129164,-10807.006753,-222.061783,1072.533697
3253.129502,-10214.842000,518.144159,-1532.190996
3253.129839,-8808.450710,1184.329507,-2068.457845
3253.130176,-8956.491898,-148.041188,-1608.800546
3253.130513,-10140.821405,-518.144159,-842.705048
3253.130851,-10140.821405,-962.267725,-383.047749
3253.131188,-10214.842000,-1924.535449,766.095498
3253.131525,-11399.171507,-3108.864956,2068.457845
3253.131862,-11547.212695,-2146.597232,229.828649
3253.132200,-10288.862594,-1258.350101,-1225.752797
3253.132537,-8882.471304,-1184.329507,-76.609550
3253.132874,-9918.759623,-1480.411884,-76.609550
3253.133211,-11399.171507,-1850.514855,-995.924147
3253.133549,-9844.739029,-2146.597232,-766.095498
3253.133886,-10362.883188,-2368.659014,2374.896044
3253.134223,-11547.212695,-1702.473667,2681.334243
3253.134560,-9844.739029,-296.082377,842.705048
3253.134898,-8808.450710,1184.329507,153.219100
3253.135235,-9400.615463,888.247130,995.924147
3253.135572,-10732.986159,814.226536,1378.971896
3253.135909,-10658.965565,296.082377,995.924147
3253.136247,-9696.697840,518.144159,2374.896044
3253.136584,-11103.089130,666.185348,2068.457845
3253.136921,-11325.150913,370.102971,-306.438199
3253.137258,-9030.512492,1480.411884,-1532.190996
3253.137596,-7550.100608,1628.453072,-536.266849
3253.137933,-9104.533087,1184.329507,-1072.533697
3253.138270,-10436.903782,888.247130,-2451.505594
3253.138607,-9474.636058,592.164754,-1685.410096
3253.138945,-9992.780217,-370.102971,1532.190996
3253.139282,-9844.739029,0.000000,612.876398
3253.139619,-9992.780217,740.205942,-536.266849
3253.139956,-8956.491898,1332.370696,-383.047749
3253.140294,-9252.574275,888.247130,383.047749
3253.140631,-11029.068536,-296.082377,1455.581446
3253.140968,-10955.047942,-74.020594,1532.190996
3253.141305,-9696.697840,-962.267725,2451.505594
3253.141643,-11843.295072,-666.185348,2757.943793
3253.141980,-10658.965565,-592.164754,536.266849
3253.142317,-9030.512492,370.102971,-842.705048
3253.142654,-8882.471304,296.082377,229.828649
3253.142992,-9400.615463,0.000000,-459.657299
3253.143329,-10658.965565,-444.123565,-1149.143247
3253.143666,-10362.883188,-592.164754,-1378.971896
3253.144003,-9474.636058,-1924.535449,766.095498
3253.144341,-11251.130318,-2368.659014,842.705048
3253.144678,-9696.697840,-1628.453072,-1685.410096
3253.145015,-8882.471304,-296.082377,-1915.238745
3253.145352,-9696.697840,-1480.411884,-229.828649
3253.145690,-11251.130318,-2442.679609,76.609550
3253.146027,-10066.800811,-1850.514855,0.000000
3253.146364,-10066.800811,-2516.700203,2221.676944
3253.146701,-11695.253884,-1702.473667,3217.601092
3253.147039,-11843.295072,-1332.370696,153.219100
3253.147376,-9696.697840,-222.061783,229.828649
3253.147713,-9252.574275,0.000000,1225.752797
3253.148051,-9992.780217,148.041188,1762.019645
3253.148388,-11103.089130,592.164754,459.657299
3253.148725,-9548.656652,0.000000,919.314598
3253.149062,-9474.636058,222.061783,2681.334243
3253.149400,-10732.986159,222.061783,2068.457845
3253.149737,-10066.800811,1554.432478,0.000000
3253.150074,-8438.347739,2368.659014,0.000000
3253.150411,-8808.450710,1924.535449,459.657299
3253.150749,-9696.697840,962.267725,-306.438199
3253.151086,-9252.574275,1110.308913,-612.876398
3253.151423,-9474.636058,666.185348,1915.238745
3253.151760,-11251.130318,0.000000,1225.752797
3253.152098,-10658.965565,148.041188,-1455.581446
3253.152435,-9178.553681,814.226536,-2911.162892
3253.152772,-8512.368333,-370.102971,-995.924147
3253.153109,-9178.553681,-1258.350101,-919.314598
3253.153447,-10066.800811,-666.185348,-1532.190996
3253.153784,-9770.718434,-1480.411884,-536.266849
3253.154121,-10140.821405,-1850.514855,459.657299
3253.154458,-11695.253884,-2442.679609,1072.533697
3253.154796,-11103.089130,-518.144159,-842.705048
3253.155133,-9474.636058,0.000000,0.000000
3253.155470,-10066.800811,-222.061783,1072.533697
3253.155807,-10584.944971,-1406.391290,536.266849
3253.156145,-10140.821405,-1110.308913,766.095498
3253.156482,-10362.883188,-1406.391290,2221.676944
3253.156819,-11621.233289,-1406.391290,2604.724693
3253.157156,-11917.315666,-888.247130,0.000000
3253.157494,-9622.677246,-370.102971,-1302.362347
3253.157831,-8216.285956,296.082377,-459.657299
3253.158168,-9474.636058,-592.164754,-383.047749
3253.158505,-10510.924376,0.000000,-1838.629195
3253.158843,-9844.739029,-1184.329507,-1149.143247
3253.159180,-10214.842000,-1184.329507,1225.752797
3253.159517,-11177.109724,-1258.350101,306.438199
3253.159854,-10140.821405,-740.205942,-995.924147
3253.160192,-8512.368333,444.123565,-766.095498
3253.160529,-9770.718434,222.061783,1149.143247
3253.160866,-10584.944971,296.082377,1455.581446
3253.161203,-9474.636058,-296.082377,536.266849
3253.161541,-10066.800811,-518.144159,3830.477490
3253.161878,-10955.047942,592.164754,3524.039291
3253.162215,-11399.171507,962.267725,1455.581446
3253.162552,-9622.677246,2590.720797,536.266849
3253.162890,-8438.347739,2738.761985,995.924147
3253.163227,-10214.842000,2220.617826,1915.238745
3253.163564,-9992.780217,1628.453072,-383.047749
3253.163901,-8956.491898,1110.308913,306.438199
3253.164239,-10881.027347,592.164754,2451.505594
3253.164576,-11029.068536,74.020594,153.219100
3253.164913,-9252.574275,1184.329507,-1685.410096
3253.165250,-7846.182985,1036.288319,-2298.286494
3253.165588,-8882.471304,518.144159,-995.924147
3253.165925,-9992.780217,-1480.411884,-1762.019645
3253.166262,-9400.615463,-1554.432478,-1072.533697
3253.166599,-9622.677246,-1998.556043,536.266849
3253.166937,-11991.336260,-2886.803174,1378.971896
3253.167274,-11695.253884,-1924.535449,-842.705048
3253.167611,-9622.677246,-1406.391290,-1762.019645
3253.167948,-8882.471304,-1184.329507,153.219100
3253.168286,-10362.883188,-1998.556043,76.609550
3253.168623,-10807.006753,-2368.659014,-1072.533697
3253.168960,-10214.842000,-2442.679609,229.828649
3253.169297,-10955.047942,-2368.659014,3140.991542
3253.169635,-11917.315666,-1850.514855,2145.067394
3253.169972,-10510.924376,-296.082377,-76.609550
3253.170309,-9104.533087,888.247130,229.828649
3253.170646,-9770.718434,74.020594,1532.190996
3253.170984,-11251.130318,370.102971,1149.143247
3253.171321,-9992.780217,-222.061783,536.266849
3253.171658,-9992.780217,0.000000,2374.896044
3253.171995,-11029.068536,0.000000,1838.629195
3253.172333,-11695.253884,148.041188,-689.485948
3253.172670,-8512.368333,888.247130,-1685.410096
3253.173007,-7846.182985,666.185348,-766.095498
3253.173344,-9548.656652,444.123565,-612.876398
3253.173682,-9474.636058,74.020594,-2757.943793
3253.174019,-8734.430116,74.020594,0.000000
3253.174356,-10214.842000,-666.185348,2298.286494
3253.174693,-10288.862594,-962.267725,1302.362347
3253.175031,-9696.697840,1110.308913,536.266849
3253.175368,-8512.368333,888.247130,459.657299
3253.175705,-9326.594869,592.164754,1685.410096
3253.176042,-10658.965565,-370.102971,1225.752797
3253.176380,-9622.677246,-296.082377,1149.143247
3253.176717,-10288.862594,-74.020594,3524.039291
3253.177054,-11843.295072,-740.205942,2451.505594
3253.177391,-10807.006753,444.123565,383.047749
3253.177729,-9474.636058,962.267725,-1149.143247
3253.178066,-9104.533087,666.185348,0.000000
3253.178403,-9918.759623,222.061783,-1378.971896
3253.178740,-10362.883188,-222.061783,-1149.143247
3253.179078,-9770.718434,-592.164754,-459.657299
3253.179415,-10436.903782,-1850.514855,1072.533697
3253.179752,-11325.150913,-1554.432478,0.000000
3253.180089,-10066.800811,-1184.329507,-2451.505594
3253.180427,-9030.512492,-444.123565,-1838.629195
3253.180764,-9548.656652,-1850.514855,-1302.362347
3253.181101,-10214.842000,-1850.514855,-995.924147
3253.181438,-9696.697840,-2738.761985,-612.876398
3253.181776,-9918.759623,-2368.659014,1455.581446
3253.182113,-11843.295072,-2294.638420,2451.505594
3253.182450,-11473.192101,-1628.453072,0.000000
3253.182787,-8882.471304,-296.082377,-689.485948
3253.183125,-8808.450710,-296.082377,1685.410096
3253.183462,-9844.739029,0.000000,1532.190996
3253.183799,-10140.821405,222.061783,306.438199
3253.184136,-10436.903782,-370.102971,1532.190996
3253.184474,-10362.883188,0.000000,2145.067394
3253.184811,-11029.068536,0.000000,1225.752797
3253.185148,-9844.739029,1998.556043,76.609550
3253.185485,-8660.409521,2442.679609,-153.219100
3253.185823,-9622.677246,1702.473667,153.219100
3253.186160,-9622.677246,1184.329507,-766.095498
3253.186497,-8808.450710,666.185348,76.609550
3253.186834,-9844.739029,962.267725,2987.772442
3253.187172,-12065.356855,0.000000,1762.019645
3253.187509,-10807.006753,1110.308913,-1685.410096
3253.187846,-9474.636058,1258.350101,-2757.943793
3253.188183,-8142.265362,74.020594,-1302.362347
3253.188521,-9326.594869,-444.123565,-766.095498
3253.188858,-9992.780217,-1480.411884,-995.924147
3253.189195,-9030.512492,-888.247130,153.219100
3253.189532,-11029.068536,-2516.700203,1532.190996
3253.189870,-11843.295072,-1776.494261,1302.362347
3253.190207,-10732.986159,-592.164754,-612.876398
3253.190544,-9178.553681,518.144159,229.828649
3253.190881,-9992.780217,74.020594,1378.971896
3253.191219,-10732.986159,-962.267725,766.095498
3253.191556,-9844.739029,-1480.411884,1532.190996
3253.191893,-10362.883188,-1036.288319,2681.334243
3253.192230,-12361.439231,-888.247130,2757.943793
3253.192568,-11177.109724,-74.020594,-689.485948
3253.192905,-9178.553681,370.102971,-995.924147
3253.193242,-8586.388927,222.061783,-306.438199
3253.193579,-9770.718434,-592.164754,-1302.362347
3253.193917,-9770.718434,-370.102971,-2221.676944
3253.194254,-9400.615463,-1480.411884,-766.095498
3253.194591,-10658.965565,-1850.514855,1225.752797
3253.194928,-11695.253884,-1554.432478,153.219100
3253.195266,-9474.636058,-666.185348,-1378.971896
3253.195603,-8956.491898,592.164754,-306.438199
3253.195940,-10214.842000,-1110.308913,689.485948
3253.196277,-9770.718434,-444.123565,-383.047749
3253.196615,-8734.430116,-666.185348,689.485948
3253.196952,-10510.924376,-1110.308913,4136.915689
3253.197289,-11769.274478,-1110.308913,3447.429741
3253.197626,-11177.109724,148.041188,689.485948
3253.197964,-9030.512492,2516.700203,76.609550
3253.198301,-8882.471304,1850.514855,842.705048
3253.198638,-10140.821405,962.267725,689.485948
3253.198975,-9770.718434,1406.391290,-153.219100
3253.199313,-9474.636058,1184.329507,153.219100
3253.199650,-10955.047942,222.061783,1378.971896
3253.199987,-11325.150913,0.000000,0.000000
3253.200324,-9104.533087,1332.370696,-1915.238745
3253.200662,-7994.224174,1258.350101,-1991.848295
3253.200999,-8956.491898,444.123565,-919.314598
3253.201336,-10066.800811,-1036.288319,-1915.238745
3253.201673,-9252.574275,-888.247130,-459.657299
3253.202011,-10362.883188,-2442.679609,2145.067394
3253.202348,-11251.130318,-2072.576638,1225.752797
3253.202685,-11103.089130,-1406.391290,-1149.143247
3253.203022,-9548.656652,-1036.288319,-1149.143247
3253.203360,-8438.347739,-962.267725,229.828649
3253.203697,-9992.780217,-1554.432478,-383.047749
3253.204034,-10584.944971,-1554.432478,-536.266849
3253.204371,-9992.780217,-2072.576638,1302.362347
3253.204709,-11695.253884,-2368.659014,3370.820191
3253.205046,-12065.356855,-888.247130,1762.019645
3253.205383,-10362.883188,518.144159,0.000000
3253.205720,-9030.512492,1036.288319,689.485948
3253.206058,-9548.656652,296.082377,1072.533697
3253.206395,-10362.883188,518.144159,1072.533697
3253.206732,-10362.883188,518.144159,2068.457845
3253.207069,-10955.047942,-370.102971,2911.162892
3253.207407,-11843.295072,0.000000,1608.800546
3253.207744,-11103.089130,296.082377,-995.924147
3253.208081,-8438.347739,1776.494261,-1378.971896
3253.208418,-8216.285956,962.267725,-995.924147
3253.208756,-9474.636058,296.082377,-1302.362347
3253.209093,-9474.636058,0.000000,-2528.115143
3253.209430,-9474.636058,-518.144159,383.047749
3253.209767,-10807.006753,-1258.350101,2374.896044
3253.210105,-10807.006753,-1110.308913,306.438199
3253.210442,-9474.636058,888.247130,-306.438199
3253.210779,-8216.285956,740.205942,766.095498
3253.211116,-9844.739029,222.061783,1532.190996
3253.211454,-10066.800811,-962.267725,536.266849
3253.211791,-9844.739029,0.000000,1302.362347
3253.212128,-10510.924376,-1110.308913,3140.991542
3253.212465,-11769.274478,-222.061783,1608.800546
3253.212803,-10140.821405,296.082377,-766.095498
3253.213140,-8586.388927,814.226536,-1225.752797
3253.213477,-8142.265362,888.247130,-919.314598
3253.213814,-9770.718434,148.041188,-1915.238745
3253.214152,-10214.842000,296.082377,-1838.629195
3253.214489,-10288.862594,-592.164754,383.047749
3253.214826,-11473.192101,-2072.576638,1225.752797
3253.215163,-11843.295072,-1406.391290,-306.438199
3253.215501,-10362.883188,-370.102971,-1608.800546
3253.215838,-8808.450710,-592.164754,-1762.019645
3253.216175,-9178.553681,-1628.453072,-1149.143247
3253.216512,-10658.965565,-2368.659014,-612.876398
3253.216850,-10214.842000,-2368.659014,229.828649
3253.217187,-10807.006753,-2442.679609,2451.505594
3253.217524,-12139.377449,-2220.617826,1838.629195
3253.217861,-11103.089130,-1110.308913,76.609550
3253.218199,-9030.512492,0.000000,-76.609550
3253.218536,-8512.368333,-148.041188,1455.581446
3253.218873,-10362.883188,-888.247130,1838.629195
3253.219210,-10140.821405,518.144159,1149.143247
3253.219548,-10362.883188,296.082377,2681.334243
3253.219885,-11695.253884,-592.164754,2987.772442
3253.220222,-11325.150913,444.123565,842.705048
3253.220560,-8956.491898,1998.556043,0.000000
3253.220897,-7772.162391,2960.823768,612.876398
3253.221234,-9030.512492,1184.329507,-612.876398
3253.221571,-9548.656652,666.185348,-1302.362347
3253.221909,-8882.471304,888.247130,0.000000
3253.222246,-10732.986159,814.226536,2451.505594
3253.222583,-11843.295072,0.000000,1455.581446
3253.222920,-10584.944971,1406.391290,-2681.334243
3253.223258,-8512.368333,814.226536,-2145.067394
3253.223595,-8660.409521,-74.020594,-995.924147
3253.223932,-9400.615463,-962.267725,-689.485948
3253.224269,-9992.780217,-962.267725,-995.924147
3253.224607,-9844.739029,-1258.350101,459.657299
3253.224944,-10732.986159,-2220.617826,1455.581446
3253.225281,-11547.212695,-962.267725,536.266849
3253.225618,-10066.800811,74.020594,-459.657299
3253.225956,-8660.409521,296.082377,153.219100
3253.226293,-10066.800811,0.000000,689.485948
3253.226630,-10658.965565,0.000000,459.657299
3253.226967,-9918.759623,-518.144159,1149.143247
3253.227305,-10732.986159,-1480.411884,3064.381992
3253.227642,-11769.274478,-1480.411884,2068.457845
3253.227979,-10658.965565,-444.123565,-1225.752797
3253.228316,-8660.409521,370.102971,-1455.581446
3253.228654,-8438.347739,-592.164754,-1149.143247
3253.228991,-9548.656652,-962.267725,-1532.190996
3253.229328,-9474.636058,-666.185348,-2068.457845
3253.229665,-9844.739029,-1332.370696,0.000000
3253.230003,-10732.986159,-1998.556043,1225.752797
3253.230340,-11177.109724,-1258.350101,-459.657299
3253.230677,-9474.636058,-148.041188,-1302.362347
3253.231014,-8216.285956,0.000000,-229.828649
3253.231352,-10362.883188,-592.164754,383.047749
3253.231689,-10732.986159,-814.226536,0.000000
3253.232026,-9400.615463,-888.247130,1225.752797
3253.232363,-10807.006753,-1184.329507,4596.572988
3253.232701,-12435.459826,-1036.288319,3830.477490
3253.233038,-11177.109724,370.102971,612.876398
3253.233375,-9178.553681,2368.659014,306.438199
3253.233712,-9474.636058,1628.453072,1302.362347
3253.234050,-10658.965565,1554.432478,612.876398
3253.234387,-9992.780217,888.247130,-306.438199
3253.234724,-9326.594869,962.267725,766.095498
3253.235061,-11325.150913,0.000000,1838.629195
3253.235399,-11399.171507,0.000000,0.000000
3253.235736,-8660.409521,814.226536,-2374.896044
3253.236073,-7624.121203,444.123565,-1225.752797
3253.236410,-9178.553681,-296.082377,-1072.533697
3253.236748,-9844.739029,-1184.329507,-1302.362347
3253.237085,-9326.594869,-1702.473667,0.000000
3253.237422,-10362.883188,-2960.823768,1455.581446
3253.237759,-11251.130318,-2146.597232,459.657299
3253.238097,-10510.924376,-1480.411884,-1455.581446
3253.238434,-8882.471304,-296.082377,-842.705048
3253.238771,-8512.368333,-1702.473667,0.000000
3253.239109,-10214.842000,-1850.514855,-766.095498
3253.239446,-10066.800811,-1776.494261,-995.924147
3253.239783,-10436.903782,-1998.556043,1838.629195
3253.240120,-11769.274478,-2220.617826,2451.505594
3253.240458,-11769.274478,-1110.308913,1685.410096
3253.240795,-10066.800811,1110.308913,459.657299
3253.241132,-9400.615463,1628.453072,383.047749
3253.241469,-11029.068536,444.123565,1532.190996
3253.241807,-10510.924376,592.164754,229.828649
3253.242144,-9844.739029,148.041188,1915.238745
3253.242481,-10732.986159,0.000000,2681.334243
3253.242818,-11473.192101,0.000000,459.657299
3253.243156,-10510.924376,148.041188,-1225.752797
3253.243493,-7994.224174,1036.288319,-1838.629195
3253.243830,-7772.162391,666.185348,-1149.143247
3253.244167,-9548.656652,-148.041188,-1608.800546
3253.244505,-9030.512492,-74.020594,-2068.457845
3253.244842,-8956.491898,-1110.308913,842.705048
3253.245179,-10732.986159,-1480.411884,2221.676944
3253.245516,-10436.903782,-148.041188,536.266849
3253.245854,-8808.450710,444.123565,0.000000
3253.246191,-8290.306550,814.226536,1302.362347
3253.246528,-9474.636058,222.061783,1532.190996
3253.246865,-10955.047942,222.061783,995.924147
3253.247203,-10140.821405,444.123565,2068.457845
3253.247540,-11177.109724,-74.020594,2528.115143
3253.247877,-11843.295072,296.082377,1608.800546
3253.248214,-10658.965565,1258.350101,-1072.533697
3253.248552,-9030.512492,1332.370696,-1072.533697
3253.248889,-9252.574275,814.226536,-536.266849
3253.249226,-10436.903782,740.205942,-842.705048
3253.249563,-10510.924376,296.082377,-1378.971896
3253.249901,-10584.944971,-1110.308913,689.485948
3253.250238,-11621.233289,-1628.453072,1455.581446
3253.250575,-11103.089130,-1258.350101,-919.314598
3253.250913,-9474.636058,0.000000,-1915.238745
3253.251250,-9030.512492,-666.185348,-1838.629195
3253.251587,-10066.800811,-2294.638420,-919.314598
3253.251924,-9474.636058,-2220.617826,-1455.581446
3253.252262,-9622.677246,-2590.720797,689.485948
3253.252599,-10362.883188,-2738.761985,2145.067394
3253.252936,-11325.150913,-2590.720797,766.095498
3253.253273,-10140.821405,-1776.494261,0.000000
3253.253611,-7402.059420,-592.164754,0.000000
3253.253948,-8956.491898,-518.144159,2451.505594
3253.254285,-11103.089130,-592.164754,2145.067394
3253.254622,-9992.780217,-296.082377,1455.581446
3253.254960,-10510.924376,148.041188,3370.820191
3253.255297,-11325.150913,-592.164754,2987.772442
3253.255634,-11325.150913,592.164754,1378.971896
3253.255971,-9770.718434,2072.576638,0.000000
3253.256309,-8882.471304,2294.638420,383.047749
3253.256646,-9770.718434,1184.329507,0.000000
3253.256983,-10214.842000,888.247130,-995.924147
3253.257320,-9474.636058,370.102971,459.657299
3253.257658,-10436.903782,74.020594,1838.629195
3253.257995,-11843.295072,296.082377,459.657299
3253.258332,-10140.821405,962.267725,-2681.334243
3253.258669,-8364.327145,666.185348,-1608.800546
3253.259007,-8586.388927,0.000000,-383.047749
3253.259344,-9918.759623,-1036.288319,-1225.752797
3253.259681,-9548.656652,-888.247130,-766.095498
3253.260018,-9622.677246,-1998.556043,689.485948
3253.260356,-10584.944971,-2516.700203,1532.190996
3253.260693,-10288.862594,-1554.432478,0.000000
3253.261030,-9104.533087,296.082377,0.000000
3253.261367,-8882.471304,0.000000,689.485948
3253.261705,-10362.883188,-296.082377,0.000000
3253.262042,-10732.986159,-370.102971,306.438199
3253.262379,-10288.862594,-296.082377,1302.362347
3253.262716,-11177.109724,-888.247130,2298.286494
3253.263054,-11991.336260,-814.226536,459.657299
3253.263391,-10214.842000,148.041188,-1378.971896
3253.263728,-8364.327145,814.226536,-1378.971896
3253.264066,-9548.656652,-222.061783,-383.047749
3253.264403,-10732.986159,74.020594,-1838.629195
3253.264740,-10066.800811,-888.247130,-2145.067394
3253.265077,-10436.903782,-814.226536,306.438199
3253.265415,-11325.150913,-1332.370696,306.438199
3253.265752,-10955.047942,-888.247130,-459.657299
3253.266089,-8734.430116,0.000000,-689.485948
3253.266426,-8660.409521,-222.061783,536.266849
3253.266764,-11103.089130,-74.020594,1302.362347
3253.267101,-10584.944971,-740.205942,306.438199
3253.267438,-9474.636058,-814.226536,2298.286494
3253.267775,-10955.047942,-592.164754,4060.306139
3253.268113,-11399.171507,-296.082377,2374.896044
3253.268450,-9474.636058,1406.391290,0.000000
3253.268787,-8586.388927,1406.391290,766.095498
3253.269124,-8660.409521,1332.370696,919.314598
3253.269462,-9992.780217,1110.308913,229.828649
3253.269799,-9918.759623,1924.535449,536.266849
3253.270136,-9992.780217,222.061783,1378.971896
3253.270473,-11547.212695,370.102971,1225.752797
3253.270811,-10362.883188,888.247130,-229.828649
3253.271148,-8956.491898,1332.370696,-612.876398
3253.271485,-8808.450710,296.082377,-76.609550
3253.271822,-9622.677246,0.000000,-1225.752797
3253.272160,-10362.883188,-962.267725,-842.705048
3253.272497,-9622.677246,-1332.370696,383.047749
3253.272834,-10658.965565,-1924.535449,1532.190996
3253.273171,-11621.233289,-1776.494261,-153.219100
3253.273509,-10214.842000,-888.247130,-1915.238745
3253.273846,-9030.512492,-74.020594,-689.485948
3253.274183,-9474.636058,-1554.432478,-153.219100
3253.274520,-10362.883188,-1702.473667,-612.876398
3253.274858,-10140.821405,-1628.453072,-459.657299
3253.275195,-10510.924376,-1998.556043,1838.629195
3253.275532,-11621.233289,-1628.453072,1608.800546
3253.275870,-11399.171507,-1406.391290,383.047749
3253.276207,-8586.388927,370.102971,-459.657299
3253.276544,-8660.409521,-74.020594,1149.143247
3253.276881,-10807.006753,0.000000,1302.362347
3253.277219,-10140.821405,-592.164754,153.219100
3253.277556,-9992.780217,-444.123565,1838.629195
3253.277893,-11177.109724,-444.123565,2068.457845
3253.278230,-11621.233289,-518.144159,0.000000
3253.278568,-9992.780217,444.123565,-1378.971896
3253.278905,-7994.224174,296.082377,-1225.752797
3253.279242,-8586.388927,74.020594,-689.485948
3253.279579,-9844.739029,-518.144159,-1915.238745
3253.279917,-9474.636058,-444.123565,-995.924147
3253.280254,-9918.759623,-1554.432478,1302.362347
3253.280591,-11177.109724,-1258.350101,1685.410096
3253.280928,-10214.842000,222.061783,689.485948
3253.281266,-9030.512492,962.267725,-383.047749
3253.281603,-8882.471304,1036.288319,1455.581446
3253.281940,-10362.883188,-296.082377,1149.143247
3253.282277,-10362.883188,74.020594,1455.581446
3253.282615,-10436.903782,222.061783,2987.772442
3253.282952,-11547.212695,-370.102971,2987.772442
3253.283289,-11325.150913,74.020594,689.485948
3253.283626,-9400.615463,1036.288319,-1149.143247
3253.283964,-8438.347739,1480.411884,0.000000
3253.284301,-9030.512492,222.061783,-153.219100
3253.284638,-10436.903782,-148.041188,-842.705048
3253.284975,-9622.677246,444.123565,-842.705048
3253.285313,-10066.800811,-962.267725,766.095498
3253.285650,-11325.150913,-1184.329507,919.314598
3253.285987,-10807.006753,-1332.370696,-1532.190996
3253.286324,-9104.533087,74.020594,-1378.971896
3253.286662,-8734.430116,-962.267725,-1072.533697
3253.286999,-9844.739029,-2146.597232,-229.828649
3253.287336,-10214.842000,-2072.576638,-689.485948
3253.287673,-9918.759623,-2072.576638,1455.581446
3253.288011,-11177.109724,-1702.473667,1685.410096
3253.288348,-11769.274478,-1776.494261,0.000000
3253.288685,-9844.739029,-296.082377,-459.657299
3253.289023,-8290.306550,-148.041188,-76.609550
3253.289360,-9696.697840,370.102971,1532.190996
3253.289697,-10955.047942,518.144159,689.485948
3253.290034,-10288.862594,0.000000,459.657299
3253.290372,-10362.883188,0.000000,2451.505594
3253.290709,-11473.192101,-222.061783,2451.505594
3253.291046,-10881.027347,888.247130,306.438199
3253.291383,-8586.388927,1406.391290,0.000000
3253.291721,-9178.553681,2294.638420,229.828649
3253.292058,-9918.759623,518.144159,-76.609550
3253.292395,-9252.574275,370.102971,-1455.581446
3253.292732,-9252.574275,0.000000,612.876398
3253.293070,-11103.089130,-740.205942,1915.238745
3253.293407,-10584.944971,0.000000,-612.876398
3253.293744,-9474.636058,148.041188,-2987.772442
3253.294081,-7624.121203,296.082377,-1608.800546
3253.294419,-9474.636058,-740.205942,-536.266849
3253.294756,-10066.800811,-1406.391290,-612.876398
3253.295093,-9030.512492,-814.226536,-536.266849
3253.295430,-9918.759623,-2442.679609,1991.848295
3253.295768,-11473.192101,-2590.720797,2374.896044
3253.296105,-10362.883188,-888.247130,612.876398
3253.296442,-9030.512492,370.102971,842.705048
3253.296779,-9622.677246,296.082377,1685.410096
3253.297117,-11103.089130,-518.144159,536.266849
3253.297454,-10436.903782,-296.082377,459.657299
3253.297791,-10066.800811,-740.205942,2145.067394
3253.298128,-11621.233289,-592.164754,3294.210641
3253.298466,-12435.459826,74.020594,0.000000
3253.298803,-10510.924376,444.123565,-1455.581446
3253.299140,-8512.368333,740.205942,-1532.190996
3253.299477,-9992.780217,-148.041188,-689.485948
3253.299815,-10807.006753,-740.205942,-1762.019645
3253.300152,-9400.615463,-962.267725,-2298.286494
3253.300489,-9770.718434,-1776.494261,1302.362347
3253.300826,-11103.089130,-2146.597232,1455.581446
3253.301164,-9844.739029,-814.226536,-536.266849
3253.301501,-9030.512492,0.000000,-459.657299
3253.301838,-8956.491898,-444.123565,536.266849
3253.302176,-9844.739029,-814.226536,766.095498
3253.302513,-9844.739029,-1036.288319,1072.533697
3253.302850,-9326.594869,-592.164754,2987.772442
3253.303187,-11177.109724,-1628.453072,4213.525239
3253.303525,-11177.109724,-148.041188,1532.190996
3253.303862,-8660.409521,1110.308913,153.219100
3253.304199,-9030.512492,1406.391290,1225.752797
3253.304536,-9622.677246,1258.350101,995.924147
3253.304874,-10436.903782,1480.411884,-459.657299
3253.305211,-10066.800811,1480.411884,306.438199
3253.305548,-10436.903782,518.144159,1149.143247
3253.305885,-11695.253884,518.144159,612.876398
3253.306223,-10732.986159,592.164754,-1455.581446
3253.306560,-9104.533087,1480.411884,-1762.019645
3253.306897,-9252.574275,666.185348,-612.876398
3253.307234,-9992.780217,-814.226536,-1838.629195
3253.307572,-9178.553681,-1110.308913,-1149.143247
3253.307909,-9992.780217,-1850.514855,1072.533697
3253.308246,-11695.253884,-1258.350101,2451.505594
3253.308583,-11917.315666,-2072.576638,-1149.143247
3253.308921,-9992.780217,-814.226536,-2145.067394
3253.309258,-8364.327145,0.000000,-995.924147
3253.309595,-9844.739029,-666.185348,-689.485948
3253.309932,-9918.759623,-1258.350101,-689.485948
3253.310270,-9474.636058,-1702.473667,-536.266849
3253.310607,-10066.800811,-1924.535449,2451.505594
3253.310944,-11621.233289,-1332.370696,2298.286494
3253.311281,-10732.986159,148.041188,766.095498
3253.311619,-9178.553681,740.205942,-306.438199
3253.311956,-9400.615463,370.102971,766.095498
3253.312293,-10881.027347,740.205942,1225.752797
3253.312630,-9992.780217,0.000000,459.657299
3253.312968,-9474.636058,0.000000,2145.067394
3253.313305,-11473.192101,-296.082377,2451.505594
3253.313642,-11843.295072,222.061783,0.000000
3253.313980,-9548.656652,1184.329507,-2451.505594
3253.314317,-8808.450710,518.144159,-995.924147
3253.314654,-9326.594869,444.123565,-1378.971896
3253.314991,-9622.677246,74.020594,-1685.410096
3253.315329,-9030.512492,-814.226536,-306.438199
3253.315666,-10140.821405,-1184.329507,1991.848295
3253.316003,-11769.274478,-1036.288319,2451.505594
3253.316340,-10658.965565,222.061783,459.657299
3253.316678,-8438.347739,962.267725,0.000000
3253.317015,-9178.553681,444.123565,2451.505594
3253.317352,-10658.965565,-592.164754,2298.286494
3253.317689,-9474.636058,444.123565,1302.362347
3253.318027,-10362.883188,222.061783,2911.162892
3253.318364,-12361.439231,74.020594,3140.991542
3253.318701,-12065.356855,0.000000,229.828649
3253.319038,-9252.574275,1184.329507,-1378.971896
3253.319376,-7179.997637,518.144159,-459.657299
3253.319713,-8660.409521,148.041188,-536.266849
3253.320050,-9844.739029,0.000000,-2374.896044
3253.320387,-9474.636058,-222.061783,-612.876398
3253.320725,-10658.965565,-1480.411884,995.924147
3253.321062,-11843.295072,-1036.288319,689.485948
3253.321399,-10955.047942,-814.226536,-1149.143247
3253.321736,-8364.327145,0.000000,-2451.505594
3253.322074,-8734.430116,-1998.556043,-1532.190996
3253.322411,-10066.800811,-2294.638420,-689.485948
3253.322748,-9474.636058,-1850.514855,-766.095498
