#time,accel_x,accel_y,accel_z
3198.118595,-9844.739029,-2220.617826,2911.162892
3198.118933,-10066.800811,-2516.700203,842.705048
3198.119270,-10658.965565,-1850.514855,0.000000
3198.119608,-10362.883188,-2664.741391,-536.266849
3198.119946,-9918.759623,-3108.864956,0.000000
3198.120284,-9252.574275,-2664.741391,229.828649
3198.120622,-9178.553681,-2368.659014,0.000000
3198.120959,-10214.842000,-2368.659014,0.000000
3198.121297,-10214.842000,-2812.782580,1302.362347
3198.121635,-10362.883188,-2664.741391,2681.334243
3198.121973,-11103.089130,-1184.329507,2221.676944
3198.122310,-11325.150913,-1110.308913,2145.067394
3198.122648,-11251.130318,-370.102971,1838.629195
3198.122986,-11547.212695,-740.205942,2451.505594
3198.123324,-10140.821405,0.000000,1915.238745
3198.123661,-9696.697840,1480.411884,1838.629195
3198.123999,-9918.759623,1036.288319,2068.457845
3198.124337,-10732.986159,814.226536,1378.971896
3198.124675,-10436.903782,444.123565,919.314598
3198.125013,-9918.759623,296.082377,1762.019645
3198.125350,-9104.533087,518.144159,2298.286494
3198.125688,-8882.471304,148.041188,1378.971896
3198.126026,-9696.697840,-518.144159,1838.629195
3198.126364,-9844.739029,-1036.288319,1762.019645
3198.126701,-9104.533087,-1480.411884,1378.971896
3198.127039,-9104.533087,-1628.453072,1838.629195
3198.127377,-9030.512492,-2442.679609,2681.334243
3198.127715,-9474.636058,-2072.576638,2451.505594
3198.128052,-9622.677246,-1702.473667,2451.505594
3198.128390,-9326.594869,-1184.329507,2911.162892
3198.128728,-9252.574275,-1776.494261,3447.429741
3198.129066,-10510.924376,-2664.741391,3677.258390
3198.129403,-11621.233289,-3182.885551,4519.963438
3198.129741,-10658.965565,-3404.947333,4673.182538
3198.130079,-10066.800811,-2590.720797,5056.230287
3198.130417,-10510.924376,-1850.514855,4060.306139
3198.130755,-11325.150913,-2442.679609,1532.190996
3198.131092,-10584.944971,-2146.597232,383.047749
3198.131430,-10881.027347,-2960.823768,-689.485948
3198.131768,-9326.594869,-2442.679609,995.924147
3198.132106,-9474.636058,-3034.844362,459.657299
3198.132443,-10066.800811,-3775.050304,0.000000
3198.132781,-9844.739029,-3923.091493,-1302.362347
3198.133119,-9696.697840,-4071.132681,-1225.752797
3198.133457,-9844.739029,-3701.029710,-536.266849
3198.133794,-10066.800811,-2886.803174,-1302.362347
3198.134132,-11325.150913,-2664.741391,-1762.019645
3198.134470,-9992.780217,-3330.926739,-3294.210641
3198.134808,-9548.656652,-3552.988522,-1915.238745
3198.135146,-9104.533087,-4219.173869,-536.266849
3198.135483,-8586.388927,-4071.132681,1455.581446
3198.135821,-9474.636058,-2664.741391,1685.410096
3198.136159,-11251.130318,-1702.473667,1455.581446
3198.136497,-11399.171507,-592.164754,612.876398
3198.136834,-11251.130318,296.082377,-612.876398
3198.137172,-10066.800811,1110.308913,-766.095498
3198.137510,-9622.677246,2812.782580,-383.047749
3198.137848,-9622.677246,2590.720797,-1072.533697
3198.138185,-10140.821405,1998.556043,-766.095498
3198.138523,-10066.800811,1554.432478,-689.485948
3198.138861,-9622.677246,1702.473667,0.000000
3198.139199,-10584.944971,1628.453072,612.876398
3198.139536,-9992.780217,1036.288319,153.219100
3198.139874,-9548.656652,1850.514855,-306.438199
3198.140212,-9844.739029,2516.700203,0.000000
3198.140550,-9474.636058,3182.885551,-919.314598
3198.140888,-10436.903782,1258.350101,-766.095498
3198.141226,-10658.965565,592.164754,536.266849
3198.141563,-9844.739029,-444.123565,1149.143247
3198.141901,-10436.903782,592.164754,2145.067394
3198.142239,-10140.821405,444.123565,1072.533697
3198.142577,-9770.718434,-814.226536,229.828649
3198.142915,-9326.594869,-1110.308913,536.266849
3198.143253,-9474.636058,-1110.308913,2221.676944
3198.143591,-9030.512492,0.000000,2987.772442
3198.143928,-10584.944971,370.102971,2374.896044
3198.144266,-11251.130318,1110.308913,1072.533697
3198.144604,-10881.027347,962.267725,383.047749
3198.144942,-11325.150913,1776.494261,1838.629195
3198.145280,-10140.821405,1406.391290,1532.190996
3198.145618,-9992.780217,1406.391290,919.314598
3198.145955,-10510.924376,222.061783,766.095498
3198.146293,-9918.759623,-740.205942,919.314598
3198.146631,-9770.718434,-666.185348,2221.676944
3198.146969,-10140.821405,-518.144159,2451.505594
3198.147307,-10732.986159,296.082377,995.924147
3198.147645,-11251.130318,888.247130,-766.095498
3198.147983,-10288.862594,1554.432478,-2987.772442
3198.148320,-9548.656652,666.185348,-2604.724693
3198.148658,-9474.636058,148.041188,-1762.019645
3198.148996,-9548.656652,222.061783,0.000000
3198.149334,-9622.677246,-1406.391290,0.000000
3198.149672,-9178.553681,-1036.288319,842.705048
3198.150010,-9104.533087,-1480.411884,2221.676944
3198.150348,-10214.842000,-1258.350101,2528.115143
3198.150685,-9770.718434,0.000000,919.314598
3198.151023,-10066.800811,666.185348,0.000000
3198.151361,-9696.697840,1110.308913,0.000000
3198.151699,-9030.512492,1110.308913,383.047749
3198.152037,-10658.965565,-148.041188,1149.143247
3198.152375,-10288.862594,-148.041188,383.047749
3198.152713,-10288.862594,-740.205942,306.438199
3198.153050,-10140.821405,-518.144159,0.000000
3198.153388,-9030.512492,-1332.370696,-2451.505594
3198.153726,-9622.677246,-1850.514855,-1991.848295
3198.154064,-9400.615463,-2812.782580,-2145.067394
3198.154402,-8956.491898,-2738.761985,-1915.238745
3198.154740,-9548.656652,-1406.391290,-1225.752797
3198.155078,-10362.883188,-2812.782580,-2298.286494
3198.155415,-10732.986159,-2664.741391,-1072.533697
3198.155753,-10955.047942,-3108.864956,-229.828649
3198.156091,-11473.192101,-1480.411884,0.000000
3198.156429,-10881.027347,-2072.576638,-689.485948
3198.156767,-10288.862594,-3182.885551,0.000000
3198.157105,-10140.821405,-3849.070898,1762.019645
3198.157442,-9474.636058,-4589.276840,3677.258390
3198.157780,-9918.759623,-2590.720797,4136.915689
3198.158118,-11103.089130,-2294.638420,3064.381992
3198.158456,-11843.295072,-370.102971,1915.238745
3198.158794,-10955.047942,740.205942,0.000000
3198.159132,-10140.821405,1332.370696,229.828649
3198.159470,-9474.636058,666.185348,383.047749
3198.159807,-9770.718434,592.164754,842.705048
3198.160145,-9178.553681,0.000000,995.924147
3198.160483,-8586.388927,370.102971,612.876398
3198.160821,-9474.636058,-296.082377,2374.896044
3198.161159,-9918.759623,518.144159,1915.238745
3198.161497,-9696.697840,666.185348,383.047749
3198.161835,-9992.780217,1554.432478,0.000000
3198.162172,-9104.533087,1628.453072,-995.924147
3198.162510,-9104.533087,888.247130,0.000000
3198.162848,-9696.697840,148.041188,995.924147
3198.163186,-9918.759623,592.164754,1838.629195
3198.163524,-10436.903782,888.247130,1762.019645
3198.163862,-10732.986159,1184.329507,1455.581446
3198.164200,-9992.780217,1258.350101,229.828649
3198.164537,-10066.800811,0.000000,0.000000
3198.164875,-9696.697840,814.226536,459.657299
3198.165213,-9696.697840,0.000000,536.266849
3198.165551,-10214.842000,1258.350101,306.438199
3198.165889,-9844.739029,1110.308913,-306.438199
3198.166227,-10436.903782,814.226536,-536.266849
3198.166565,-10881.027347,1110.308913,-383.047749
3198.166902,-10584.944971,592.164754,-1302.362347
3198.167240,-10362.883188,1776.494261,-1762.019645
3198.167578,-10288.862594,0.000000,-1455.581446
3198.167916,-9622.677246,-814.226536,-919.314598
3198.168254,-9474.636058,-2368.659014,-689.485948
3198.168592,-9992.780217,-2294.638420,612.876398
3198.168929,-10807.006753,-1480.411884,-229.828649
3198.169267,-10955.047942,-1258.350101,-1608.800546
3198.169605,-11251.130318,-296.082377,-2451.505594
3198.169943,-10436.903782,-592.164754,-2528.115143
3198.170281,-9770.718434,-444.123565,-1685.410096
3198.170619,-9474.636058,-518.144159,-1225.752797
3198.170957,-10510.924376,-1110.308913,229.828649
3198.171294,-9770.718434,-1702.473667,1072.533697
3198.171632,-9696.697840,-1036.288319,2068.457845
3198.171970,-10584.944971,-74.020594,3294.210641
3198.172308,-11177.109724,370.102971,1915.238745
3198.172646,-10584.944971,1184.329507,1455.581446
3198.172984,-10140.821405,1850.514855,1685.410096
3198.173322,-9474.636058,1924.535449,2068.457845
3198.173659,-9770.718434,1258.350101,2298.286494
3198.173997,-9992.780217,0.000000,2145.067394
3198.174335,-9622.677246,1184.329507,1915.238745
3198.174673,-10214.842000,1036.288319,1149.143247
3198.175011,-9400.615463,518.144159,-306.438199
3198.175349,-8808.450710,0.000000,-306.438199
3198.175687,-8956.491898,-888.247130,-229.828649
3198.176024,-8660.409521,-444.123565,-612.876398
3198.176362,-9326.594869,-1036.288319,-995.924147
3198.176700,-9918.759623,-888.247130,-383.047749
3198.177038,-9918.759623,-1924.535449,-995.924147
3198.177376,-10140.821405,-1554.432478,229.828649
3198.177714,-10140.821405,-1628.453072,0.000000
3198.178051,-9844.739029,-1850.514855,-459.657299
3198.178389,-9548.656652,-2294.638420,0.000000
3198.178727,-9918.759623,-3256.906145,766.095498
3198.179065,-9770.718434,-2664.741391,1685.410096
3198.179403,-10362.883188,-2886.803174,2451.505594
3198.179741,-11399.171507,-1924.535449,2528.115143
3198.180079,-11621.233289,-1480.411884,1532.190996
3198.180416,-11251.130318,-222.061783,-153.219100
3198.180754,-10807.006753,-296.082377,-1532.190996
3198.181092,-10732.986159,-296.082377,-1915.238745
3198.181430,-10362.883188,-740.205942,-1608.800546
3198.181768,-9992.780217,-1998.556043,-995.924147
3198.182106,-9030.512492,-1628.453072,-995.924147
3198.182444,-9474.636058,-2220.617826,-383.047749
3198.182781,-10066.800811,-1776.494261,995.924147
3198.183119,-10288.862594,-1110.308913,-153.219100
3198.183457,-10436.903782,-888.247130,-612.876398
3198.183795,-10140.821405,74.020594,-229.828649
3198.184133,-9178.553681,-666.185348,229.828649
3198.184471,-9178.553681,-370.102971,1991.848295
3198.184809,-9992.780217,-592.164754,2374.896044
3198.185146,-9844.739029,-518.144159,2451.505594
3198.185484,-10140.821405,222.061783,2451.505594
3198.185822,-10362.883188,666.185348,1532.190996
3198.186160,-9548.656652,1110.308913,842.705048
3198.186498,-9474.636058,814.226536,153.219100
3198.186836,-9252.574275,1332.370696,536.266849
3198.187174,-9104.533087,2294.638420,1149.143247
3198.187511,-9844.739029,2146.597232,919.314598
3198.187849,-10214.842000,2368.659014,0.000000
3198.188187,-10807.006753,1850.514855,-76.609550
3198.188525,-10658.965565,2368.659014,-766.095498
3198.188863,-10140.821405,1258.350101,-612.876398
3198.189201,-9696.697840,1036.288319,-689.485948
3198.189538,-9474.636058,-370.102971,-995.924147
3198.189876,-9252.574275,-1554.432478,-689.485948
3198.190214,-9326.594869,-1998.556043,0.000000
3198.190552,-10214.842000,-1702.473667,383.047749
3198.190890,-11399.171507,-666.185348,-76.609550
3198.191228,-11177.109724,-962.267725,-1302.362347
3198.191566,-10732.986159,296.082377,-1455.581446
3198.191903,-9622.677246,-370.102971,-1455.581446
3198.192241,-9474.636058,-1110.308913,-842.705048
3198.192579,-10140.821405,-1850.514855,383.047749
3198.192917,-9770.718434,-2368.659014,536.266849
3198.193255,-9548.656652,-1554.432478,1915.238745
3198.193593,-11103.089130,-1258.350101,2757.943793
3198.193931,-10288.862594,-592.164754,1455.581446
3198.194268,-10584.944971,0.000000,689.485948
3198.194606,-10288.862594,1184.329507,842.705048
3198.194944,-9326.594869,1406.391290,229.828649
3198.195282,-9770.718434,592.164754,1532.190996
3198.195620,-10214.842000,518.144159,1455.581446
3198.195958,-10066.800811,666.185348,1685.410096
3198.196296,-11103.089130,1406.391290,1378.971896
3198.196633,-10214.842000,740.205942,-153.219100
3198.196971,-9474.636058,1036.288319,-1149.143247
3198.197309,-8734.430116,296.082377,-1685.410096
3198.197647,-8882.471304,-666.185348,-536.266849
3198.197985,-8882.471304,370.102971,0.000000
3198.198323,-9844.739029,0.000000,-229.828649
3198.198661,-10288.862594,0.000000,0.000000
3198.198998,-9770.718434,370.102971,0.000000
3198.199336,-10362.883188,370.102971,1072.533697
3198.199674,-10807.006753,74.020594,1455.581446
3198.200012,-10066.800811,74.020594,689.485948
3198.200350,-9992.780217,-222.061783,919.314598
3198.200688,-9696.697840,-518.144159,1378.971896
3198.201025,-9918.759623,-1850.514855,1685.410096
3198.201363,-9844.739029,-1850.514855,1838.629195
3198.201701,-10214.842000,-888.247130,1838.629195
3198.202039,-10955.047942,-370.102971,229.828649
3198.202377,-10732.986159,-74.020594,-1302.362347
3198.202715,-9474.636058,0.000000,-2451.505594
3198.203053,-9622.677246,-592.164754,-1302.362347
3198.203390,-10288.862594,-1554.432478,-612.876398
3198.203728,-10066.800811,-2294.638420,-536.266849
3198.204066,-9326.594869,-2812.782580,-612.876398
3198.204404,-9474.636058,-2442.679609,0.000000
3198.204742,-10510.924376,-2664.741391,0.000000
3198.205080,-11103.089130,-2368.659014,-689.485948
3198.205418,-10881.027347,-1628.453072,0.000000
3198.205755,-9844.739029,-1110.308913,-612.876398
3198.206093,-9622.677246,-1110.308913,0.000000
3198.206431,-9918.759623,-1332.370696,1915.238745
3198.206769,-10362.883188,-1850.514855,2911.162892
3198.207107,-11029.068536,-814.226536,3677.258390
3198.207445,-10658.965565,740.205942,2298.286494
3198.207783,-10658.965565,1258.350101,1149.143247
3198.208120,-10436.903782,1036.288319,612.876398
3198.208458,-9474.636058,592.164754,1072.533697
3198.208796,-9474.636058,1110.308913,1378.971896
3198.209134,-9030.512492,1924.535449,689.485948
3198.209472,-9474.636058,2516.700203,153.219100
3198.209810,-9918.759623,2072.576638,0.000000
3198.210147,-9474.636058,1702.473667,-919.314598
3198.210485,-9474.636058,2368.659014,-612.876398
3198.210823,-9474.636058,1332.370696,-153.219100
3198.211161,-9400.615463,1924.535449,-766.095498
3198.211499,-9326.594869,0.000000,-995.924147
3198.211837,-8660.409521,-74.020594,0.000000
3198.212175,-10140.821405,-1110.308913,1225.752797
3198.212512,-11399.171507,-814.226536,995.924147
3198.212850,-10881.027347,-444.123565,153.219100
3198.213188,-10807.006753,814.226536,-1762.019645
3198.213526,-9400.615463,74.020594,-1991.848295
3198.213864,-9252.574275,-296.082377,-1149.143247
3198.214202,-10066.800811,-1184.329507,612.876398
3198.214540,-10214.842000,-1406.391290,842.705048
3198.214877,-9992.780217,-296.082377,1225.752797
3198.215215,-10436.903782,-962.267725,1532.190996
3198.215553,-10955.047942,-666.185348,1838.629195
3198.215891,-11029.068536,-592.164754,1378.971896
3198.216229,-10955.047942,0.000000,383.047749
3198.216567,-10288.862594,666.185348,76.609550
3198.216905,-10510.924376,-148.041188,0.000000
3198.217242,-10214.842000,-888.247130,383.047749
3198.217580,-9770.718434,-1184.329507,689.485948
3198.217918,-10510.924376,-962.267725,689.485948
3198.218256,-10584.944971,-296.082377,0.000000
3198.218594,-9622.677246,-370.102971,-1608.800546
3198.218932,-9474.636058,-666.185348,-1685.410096
3198.219270,-9474.636058,-814.226536,-919.314598
3198.219607,-9474.636058,-814.226536,0.000000
3198.219945,-9844.739029,0.000000,1302.362347
3198.220283,-10140.821405,0.000000,842.705048
3198.220621,-10066.800811,222.061783,766.095498
3198.220959,-9992.780217,-74.020594,1608.800546
3198.221297,-10288.862594,370.102971,1915.238745
3198.221634,-9992.780217,1036.288319,2298.286494
3198.221972,-9844.739029,1036.288319,1532.190996
3198.222310,-9696.697840,888.247130,1532.190996
3198.222648,-9104.533087,0.000000,2068.457845
3198.222986,-8808.450710,0.000000,2451.505594
3198.223324,-10658.965565,666.185348,2374.896044
3198.223662,-11177.109724,1924.535449,612.876398
3198.223999,-11177.109724,1406.391290,-1455.581446
3198.224337,-10066.800811,1554.432478,-2757.943793
3198.224675,-9178.553681,296.082377,-2911.162892
3198.225013,-9548.656652,-518.144159,-1532.190996
3198.225351,-9252.574275,-1850.514855,-1225.752797
3198.225689,-8808.450710,-2738.761985,-1225.752797
3198.226027,-9178.553681,-2886.803174,-383.047749
3198.226364,-10140.821405,-2812.782580,0.000000
3198.226702,-11103.089130,-1924.535449,153.219100
3198.227040,-11251.130318,-1406.391290,-306.438199
3198.227378,-10732.986159,-1036.288319,-383.047749
3198.227716,-9696.697840,-1628.453072,76.609550
3198.228054,-9918.759623,-2072.576638,1149.143247
3198.228392,-10658.965565,-2664.741391,2451.505594
3198.228729,-10658.965565,-2368.659014,2221.676944
3198.229067,-10658.965565,-444.123565,2221.676944
3198.229405,-11251.130318,-518.144159,1532.190996
3198.229743,-10288.862594,74.020594,536.266849
3198.230081,-9474.636058,-740.205942,-306.438199
3198.230419,-9696.697840,-74.020594,689.485948
3198.230757,-9474.636058,888.247130,766.095498
3198.231094,-10066.800811,888.247130,536.266849
3198.231432,-10066.800811,740.205942,0.000000
3198.231770,-9992.780217,1258.350101,-306.438199
3198.232108,-11177.109724,1258.350101,612.876398
3198.232446,-10362.883188,1850.514855,-995.924147
3198.232784,-9178.553681,666.185348,-1072.533697
3198.233121,-9326.594869,74.020594,-153.219100
3198.233459,-8438.347739,-518.144159,76.609550
3198.233797,-9104.533087,-222.061783,1991.848295
3198.234135,-10436.903782,-222.061783,1991.848295
3198.234473,-10362.883188,888.247130,995.924147
3198.234811,-11325.150913,1776.494261,153.219100
3198.235149,-10955.047942,1702.473667,0.000000
3198.235486,-9696.697840,1850.514855,0.000000
3198.235824,-9474.636058,444.123565,306.438199
3198.236162,-9918.759623,296.082377,1455.581446
3198.236500,-9696.697840,-444.123565,536.266849
3198.236838,-9548.656652,-592.164754,536.266849
3198.237176,-9770.718434,-370.102971,842.705048
3198.237514,-10288.862594,-740.205942,459.657299
3198.237851,-10658.965565,592.164754,-689.485948
3198.238189,-10214.842000,0.000000,-1225.752797
3198.238527,-9622.677246,370.102971,-919.314598
3198.238864,-9622.677246,-1036.288319,-1225.752797
3198.239202,-10362.883188,-1332.370696,306.438199
3198.239539,-10362.883188,-2146.597232,153.219100
3198.239877,-10807.006753,-1406.391290,-383.047749
3198.240214,-10362.883188,-1924.535449,-1225.752797
3198.240552,-10584.944971,-1480.411884,-1762.019645
3198.240889,-9696.697840,-2590.720797,-1225.752797
3198.241227,-9992.780217,-2368.659014,-766.095498
3198.241564,-9252.574275,-1702.473667,-306.438199
3198.241902,-10140.821405,-1332.370696,76.609550
3198.242239,-10658.965565,-888.247130,689.485948
3198.242577,-10510.924376,-518.144159,1072.533697
3198.242914,-10658.965565,0.000000,2145.067394
3198.243252,-10510.924376,888.247130,1838.629195
3198.243589,-9918.759623,1036.288319,1225.752797
3198.243927,-10066.800811,666.185348,2145.067394
3198.244264,-9400.615463,0.000000,2145.067394
3198.244602,-8660.409521,0.000000,2681.334243
3198.244939,-9474.636058,1036.288319,2834.553343
3198.245277,-10066.800811,1184.329507,1302.362347
3198.245614,-11029.068536,2146.597232,0.000000
3198.245952,-9844.739029,2368.659014,-1838.629195
3198.246290,-9030.512492,1480.411884,-1838.629195
3198.246627,-9178.553681,1406.391290,-1072.533697
3198.246965,-9326.594869,-518.144159,-842.705048
3198.247302,-8660.409521,-296.082377,-383.047749
3198.247640,-9474.636058,-1628.453072,612.876398
3198.247977,-9622.677246,-814.226536,1685.410096
3198.248315,-10658.965565,-1702.473667,995.924147
3198.248652,-11029.068536,-592.164754,842.705048
3198.248990,-10214.842000,-518.144159,76.609550
3198.249327,-10214.842000,-444.123565,306.438199
3198.249665,-9918.759623,-1110.308913,1149.143247
3198.250002,-9992.780217,-1480.411884,2068.457845
3198.250340,-10658.965565,-1480.411884,2221.676944
3198.250677,-10658.965565,-296.082377,1532.190996
3198.251015,-11177.109724,-444.123565,689.485948
3198.251352,-10510.924376,-962.267725,-306.438199
3198.251690,-9548.656652,-962.267725,-1149.143247
3198.252027,-9622.677246,-1184.329507,-229.828649
3198.252365,-9400.615463,-962.267725,-536.266849
3198.252702,-9326.594869,-666.185348,-1225.752797
3198.253040,-10807.006753,-1036.288319,-1149.143247
3198.253377,-10362.883188,-148.041188,-1455.581446
3198.253715,-10584.944971,-444.123565,-1455.581446
3198.254052,-9992.780217,0.000000,-1149.143247
3198.254390,-9400.615463,-370.102971,-1838.629195
3198.254727,-9622.677246,-592.164754,-1378.971896
3198.255065,-9400.615463,-962.267725,-306.438199
3198.255402,-9252.574275,-1554.432478,1072.533697
3198.255740,-10066.800811,-1036.288319,2681.334243
3198.256077,-10807.006753,74.020594,1915.238745
3198.256415,-11251.130318,1332.370696,1302.362347
3198.256752,-10658.965565,2072.576638,689.485948
3198.257090,-10288.862594,2220.617826,-153.219100
3198.257427,-9622.677246,2220.617826,536.266849
3198.257765,-9400.615463,1036.288319,766.095498
3198.258102,-9252.574275,1184.329507,1302.362347
3198.258440,-9030.512492,592.164754,1225.752797
3198.258777,-9474.636058,1554.432478,1685.410096
3198.259115,-10584.944971,1258.350101,1225.752797
3198.259452,-11325.150913,814.226536,919.314598
3198.259790,-10658.965565,1702.473667,-536.266849
3198.260127,-9104.533087,740.205942,-1762.019645
3198.260465,-9474.636058,666.185348,-1225.752797
3198.260802,-9844.739029,-888.247130,76.609550
3198.261140,-9622.677246,-1998.556043,995.924147
3198.261477,-9696.697840,-2368.659014,536.266849
3198.261815,-10732.986159,-1628.453072,1149.143247
3198.262152,-10658.965565,-592.164754,-76.609550
3198.262490,-10584.944971,-1998.556043,-766.095498
3198.262828,-9844.739029,-2368.659014,-229.828649
3198.263165,-9400.615463,-2146.597232,0.000000
3198.263503,-9918.759623,-1554.432478,919.314598
3198.263840,-11251.130318,-1110.308913,689.485948
3198.264178,-11325.150913,-1332.370696,459.657299
3198.264515,-10658.965565,-518.144159,995.924147
3198.264853,-11029.068536,0.000000,842.705048
3198.265190,-10436.903782,444.123565,229.828649
3198.265528,-10288.862594,-148.041188,306.438199
3198.265865,-9622.677246,-444.123565,306.438199
3198.266203,-9178.553681,-592.164754,919.314598
3198.266540,-9918.759623,-814.226536,1532.190996
3198.266878,-10807.006753,0.000000,1838.629195
3198.267215,-11177.109724,888.247130,76.609550
3198.267553,-11103.089130,1850.514855,-1225.752797
3198.267890,-9622.677246,1628.453072,-2834.553343
3198.268228,-9104.533087,370.102971,-2451.505594
3198.268565,-8882.471304,-444.123565,-1685.410096
3198.268903,-8808.450710,-814.226536,-995.924147
3198.269240,-8660.409521,-814.226536,459.657299
3198.269578,-8956.491898,-666.185348,1225.752797
3198.269915,-9474.636058,-148.041188,1762.019645
3198.270253,-10658.965565,0.000000,1149.143247
3198.270590,-10584.944971,1036.288319,1302.362347
3198.270928,-10732.986159,1406.391290,1608.800546
3198.271265,-9770.718434,814.226536,1225.752797
3198.271603,-9622.677246,444.123565,1915.238745
3198.271940,-9770.718434,-1036.288319,2145.067394
3198.272278,-10214.842000,-592.164754,2068.457845
3198.272615,-10807.006753,-74.020594,1378.971896
3198.272953,-10658.965565,-74.020594,-612.876398
3198.273290,-9770.718434,0.000000,-1302.362347
3198.273628,-9696.697840,-1258.350101,-1225.752797
3198.273965,-8734.430116,-1184.329507,-919.314598
3198.274303,-9918.759623,-1480.411884,-459.657299
3198.274640,-9918.759623,-592.164754,-1378.971896
3198.274978,-10732.986159,-1406.391290,-2068.457845
3198.275315,-11029.068536,-1554.432478,-919.314598
3198.275653,-10955.047942,-1924.535449,-842.705048
3198.275990,-9992.780217,-1702.473667,-612.876398
3198.276328,-9992.780217,-1776.494261,-1225.752797
3198.276665,-9696.697840,-2664.741391,-766.095498
3198.277003,-9474.636058,-2664.741391,306.438199
3198.277340,-9474.636058,-2664.741391,2374.896044
3198.277678,-10881.027347,-1998.556043,3907.087040
3198.278015,-11029.068536,-296.082377,1608.800546
3198.278353,-11547.212695,592.164754,919.314598
3198.278690,-10658.965565,1850.514855,0.000000
3198.279028,-9252.574275,1702.473667,-536.266849
3198.279366,-9622.677246,1776.494261,766.095498
3198.279703,-10140.821405,518.144159,1149.143247
3198.280041,-9252.574275,518.144159,995.924147
3198.280378,-9030.512492,814.226536,919.314598
3198.280716,-9474.636058,1702.473667,1149.143247
3198.281053,-10658.965565,814.226536,306.438199
3198.281391,-9918.759623,1110.308913,0.000000
3198.281728,-9326.594869,2294.638420,-459.657299
3198.282066,-9548.656652,1924.535449,-536.266849
3198.282403,-9696.697840,666.185348,-459.657299
3198.282741,-9548.656652,-740.205942,459.657299
3198.283078,-9992.780217,-740.205942,1838.629195
3198.283416,-10214.842000,-444.123565,1991.848295
3198.283753,-10807.006753,-370.102971,459.657299
3198.284091,-10140.821405,-962.267725,-306.438199
3198.284428,-9548.656652,-1776.494261,-612.876398
3198.284766,-9252.574275,-1924.535449,-153.219100
3198.285103,-9178.553681,-888.247130,306.438199
3198.285441,-10214.842000,-740.205942,1072.533697
3198.285778,-10584.944971,-296.082377,-459.657299
3198.286116,-10584.944971,222.061783,-153.219100
3198.286453,-11251.130318,148.041188,229.828649
3198.286791,-10881.027347,-296.082377,153.219100
3198.287128,-10658.965565,0.000000,0.000000
3198.287466,-9844.739029,-888.247130,-229.828649
3198.287803,-9474.636058,-2072.576638,0.000000
3198.288141,-9400.615463,-1850.514855,383.047749
3198.288478,-10362.883188,-1924.535449,1225.752797
3198.288816,-11473.192101,-1258.350101,0.000000
3198.289153,-11103.089130,74.020594,-2145.067394
3198.289491,-10436.903782,296.082377,-2604.724693
3198.289828,-9474.636058,-370.102971,-2604.724693
3198.290166,-8660.409521,-1480.411884,-1532.190996
3198.290503,-9474.636058,-592.164754,-306.438199
3198.290841,-9696.697840,-1406.391290,306.438199
3198.291178,-9844.739029,-592.164754,919.314598
3198.291516,-10362.883188,-1184.329507,2145.067394
3198.291853,-9918.759623,-296.082377,1991.848295
3198.292191,-10584.944971,222.061783,2068.457845
3198.292528,-10732.986159,1406.391290,1225.752797
3198.292866,-9030.512492,1850.514855,1608.800546
3198.293203,-9844.739029,1628.453072,1762.019645
3198.293541,-9474.636058,888.247130,2374.896044
3198.293878,-10066.800811,592.164754,2451.505594
3198.294216,-10140.821405,740.205942,2451.505594
3198.294553,-10288.862594,888.247130,919.314598
3198.294891,-10140.821405,1258.350101,0.000000
3198.295228,-9474.636058,0.000000,-1378.971896
3198.295566,-8734.430116,-666.185348,-1302.362347
3198.295904,-9104.533087,-592.164754,-1225.752797
3198.296241,-9918.759623,-888.247130,-1608.800546
3198.296579,-9844.739029,-962.267725,-1838.629195
3198.296916,-9918.759623,-1850.514855,-1991.848295
3198.297254,-10214.842000,-1480.411884,-306.438199
3198.297591,-10584.944971,-1184.329507,-306.438199
3198.297929,-11251.130318,-592.164754,0.000000
3198.298266,-10288.862594,-2368.659014,-536.266849
3198.298604,-9918.759623,-3404.947333,459.657299
3198.298941,-9696.697840,-3256.906145,2451.505594
3198.299279,-10436.903782,-2146.597232,3217.601092
3198.299616,-11621.233289,-1480.411884,2068.457845
3198.299954,-11621.233289,-370.102971,229.828649
3198.300291,-11029.068536,740.205942,-612.876398
3198.300629,-10066.800811,444.123565,-1302.362347
3198.300966,-9104.533087,74.020594,-1072.533697
3198.301304,-9474.636058,-222.061783,306.438199
3198.301641,-9770.718434,-592.164754,766.095498
3198.301979,-8586.388927,-148.041188,459.657299
3198.302316,-9400.615463,222.061783,612.876398
3198.302654,-10584.944971,222.061783,0.000000
3198.302991,-10955.047942,296.082377,-153.219100
3198.303329,-10510.924376,814.226536,-612.876398
3198.303666,-8882.471304,1406.391290,-766.095498
3198.304004,-8956.491898,222.061783,0.000000
3198.304341,-9622.677246,0.000000,1302.362347
3198.304679,-9844.739029,-370.102971,1608.800546
3198.305016,-10658.965565,592.164754,2528.115143
3198.305354,-10362.883188,888.247130,1762.019645
3198.305691,-9992.780217,444.123565,842.705048
3198.306029,-9696.697840,666.185348,919.314598
3198.306366,-9400.615463,0.000000,536.266849
3198.306704,-9030.512492,888.247130,842.705048
3198.307041,-9844.739029,592.164754,612.876398
3198.307379,-10214.842000,1110.308913,459.657299
3198.307716,-10362.883188,222.061783,-306.438199
3198.308054,-10214.842000,814.226536,-612.876398
3198.308391,-10362.883188,148.041188,-536.266849
3198.308729,-9548.656652,-370.102971,-766.095498
3198.309066,-9178.553681,-370.102971,-1378.971896
3198.309404,-9474.636058,-1776.494261,-766.095498
3198.309741,-9548.656652,-2072.576638,0.000000
3198.310079,-10288.862594,-2368.659014,153.219100
3198.310416,-11399.171507,-1554.432478,153.219100
3198.310754,-10955.047942,-962.267725,-1378.971896
3198.311091,-11029.068536,-1702.473667,-2451.505594
3198.311429,-9918.759623,-1850.514855,-2145.067394
3198.311767,-9178.553681,-1480.411884,-1915.238745
3198.312104,-9844.739029,-2146.597232,-536.266849
3198.312442,-10214.842000,-2590.720797,-919.314598
3198.312779,-9400.615463,-2738.761985,1225.752797
3198.313117,-10436.903782,-1998.556043,2681.334243
3198.313454,-9844.739029,-1110.308913,2145.067394
3198.313792,-11251.130318,0.000000,1838.629195
3198.314129,-11325.150913,518.144159,1532.190996
3198.314467,-9770.718434,1332.370696,1225.752797
3198.314804,-9548.656652,1628.453072,1915.238745
3198.315142,-10362.883188,740.205942,2604.724693
3198.315479,-10140.821405,888.247130,2681.334243
3198.315817,-10066.800811,370.102971,1915.238745
3198.316154,-9844.739029,1480.411884,1378.971896
3198.316492,-9548.656652,740.205942,-383.047749
3198.316829,-9474.636058,222.061783,-536.266849
3198.317167,-8512.368333,74.020594,-1225.752797
3198.317504,-8364.327145,74.020594,-842.705048
3198.317842,-9326.594869,518.144159,-1302.362347
3198.318179,-10066.800811,296.082377,-919.314598
3198.318517,-10436.903782,0.000000,-842.705048
3198.318854,-10066.800811,-148.041188,0.000000
3198.319192,-10436.903782,444.123565,766.095498
3198.319529,-10066.800811,-370.102971,766.095498
3198.319867,-9770.718434,-1110.308913,229.828649
3198.320204,-9474.636058,-2072.576638,536.266849
3198.320542,-9622.677246,-1702.473667,1378.971896
3198.320879,-9696.697840,-1554.432478,2451.505594
3198.321217,-11547.212695,-888.247130,2451.505594
3198.321554,-11103.089130,0.000000,612.876398
3198.321892,-11843.295072,814.226536,-229.828649
3198.322229,-10955.047942,888.247130,-1225.752797
3198.322567,-9622.677246,74.020594,-2145.067394
3198.322904,-9696.697840,-888.247130,-766.095498
3198.323242,-9844.739029,-1184.329507,-612.876398
3198.323579,-9326.594869,-1702.473667,-1149.143247
3198.323917,-10288.862594,-814.226536,-76.609550
3198.324254,-10436.903782,-1554.432478,-766.095498
3198.324592,-10658.965565,-888.247130,-1072.533697
3198.324929,-10658.965565,-296.082377,-1225.752797
3198.325267,-9622.677246,-592.164754,-842.705048
3198.325604,-9548.656652,0.000000,229.828649
3198.325942,-9474.636058,-444.123565,536.266849
3198.326279,-9696.697840,-666.185348,1762.019645
3198.326617,-10807.006753,-518.144159,2911.162892
3198.326954,-11029.068536,-296.082377,2911.162892
3198.327292,-9992.780217,666.185348,1455.581446
3198.327629,-9844.739029,740.205942,919.314598
3198.327967,-9400.615463,888.247130,306.438199
3198.328305,-8956.491898,666.185348,153.219100
3198.328642,-9252.574275,1776.494261,1225.752797
3198.328980,-10066.800811,1776.494261,306.438199
3198.329317,-10214.842000,2146.597232,-76.609550
3198.329655,-10140.821405,2146.597232,-536.266849
3198.329992,-9918.759623,1628.453072,0.000000
3198.330330,-9992.780217,740.205942,0.000000
3198.330667,-9030.512492,1110.308913,-306.438199
3198.331005,-9400.615463,-296.082377,0.000000
3198.331342,-9548.656652,-1628.453072,-153.219100
3198.331680,-9326.594869,-1628.453072,0.000000
3198.332017,-9622.677246,-1850.514855,766.095498
3198.332355,-10436.903782,-1776.494261,229.828649
3198.332692,-10288.862594,-1184.329507,-1225.752797
3198.333030,-10807.006753,-1406.391290,-1608.800546
3198.333367,-9252.574275,-518.144159,-1991.848295
3198.333705,-9992.780217,-2072.576638,-919.314598
3198.334042,-9992.780217,-2664.741391,229.828649
3198.334380,-9474.636058,-2960.823768,919.314598
3198.334717,-9918.759623,-2664.741391,2145.067394
3198.335055,-10807.006753,-1554.432478,2068.457845
3198.335392,-11029.068536,-1554.432478,1608.800546
3198.335730,-11843.295072,-444.123565,919.314598
3198.336067,-10807.006753,0.000000,842.705048
3198.336405,-9992.780217,518.144159,1455.581446
3198.336742,-9992.780217,0.000000,1302.362347
3198.337080,-10214.842000,-370.102971,1532.190996
3198.337417,-10066.800811,-222.061783,2068.457845
3198.337755,-10807.006753,-444.123565,1302.362347
3198.338092,-10807.006753,740.205942,842.705048
3198.338430,-10584.944971,0.000000,-1532.190996
3198.338767,-9326.594869,370.102971,-1378.971896
3198.339105,-8216.285956,-1036.288319,-1838.629195
3198.339442,-8660.409521,0.000000,153.219100
3198.339780,-9474.636058,148.041188,76.609550
3198.340117,-10288.862594,-296.082377,0.000000
3198.340455,-10362.883188,1184.329507,383.047749
3198.340792,-9844.739029,962.267725,459.657299
3198.341130,-10214.842000,592.164754,1378.971896
3198.341467,-9474.636058,148.041188,1455.581446
3198.341805,-9030.512492,0.000000,1838.629195
3198.342142,-9918.759623,444.123565,2145.067394
3198.342480,-9770.718434,-296.082377,1302.362347
3198.342818,-10584.944971,518.144159,2834.553343
3198.343155,-11177.109724,222.061783,1225.752797
3198.343493,-10881.027347,1184.329507,0.000000
3198.343830,-10140.821405,1628.453072,-1915.238745
3198.344168,-8956.491898,666.185348,-2528.115143
3198.344505,-9178.553681,0.000000,-1915.238745
3198.344843,-10140.821405,-740.205942,-536.266849
3198.345180,-9770.718434,-888.247130,-1149.143247
3198.345518,-9622.677246,-1702.473667,-995.924147
3198.345855,-10436.903782,-1480.411884,-459.657299
3198.346193,-10584.944971,-1776.494261,-459.657299
3198.346530,-11251.130318,-1628.453072,-306.438199
3198.346868,-10214.842000,-1184.329507,-536.266849
3198.347205,-9992.780217,-962.267725,-383.047749
3198.347543,-10436.903782,-962.267725,536.266849
3198.347880,-10140.821405,-1776.494261,612.876398
3198.348218,-10288.862594,-2146.597232,2451.505594
3198.348555,-10362.883188,-1850.514855,2911.162892
3198.348893,-10510.924376,0.000000,2987.772442
3198.349230,-10807.006753,666.185348,1685.410096
3198.349568,-10066.800811,592.164754,76.609550
3198.349905,-9400.615463,296.082377,229.828649
3198.350243,-9400.615463,666.185348,1378.971896
3198.350580,-9326.594869,2072.576638,1072.533697
3198.350918,-10214.842000,1406.391290,0.000000
3198.351256,-9992.780217,2368.659014,-383.047749
3198.351593,-9770.718434,1924.535449,-383.047749
3198.351931,-9992.780217,1702.473667,153.219100
3198.352268,-8956.491898,1110.308913,0.000000
3198.352606,-9252.574275,222.061783,-536.266849
3198.352943,-9030.512492,-370.102971,-76.609550
3198.353281,-8734.430116,-592.164754,306.438199
3198.353618,-9918.759623,-888.247130,1991.848295
3198.353956,-10732.986159,0.000000,1762.019645
3198.354293,-11325.150913,74.020594,612.876398
3198.354631,-11473.192101,1036.288319,-689.485948
3198.354968,-9918.759623,148.041188,-1838.629195
3198.355306,-9400.615463,-518.144159,-689.485948
3198.355643,-9770.718434,-1924.535449,766.095498
3198.355981,-9548.656652,-1924.535449,1302.362347
3198.356318,-9474.636058,-1184.329507,1149.143247
3198.356656,-10584.944971,-1332.370696,1685.410096
3198.356993,-11103.089130,-888.247130,1302.362347
3198.357331,-11769.274478,-1110.308913,919.314598
3198.357668,-10955.047942,0.000000,919.314598
3198.358006,-9622.677246,592.164754,-383.047749
3198.358343,-10140.821405,-444.123565,76.609550
3198.358681,-9918.759623,-1332.370696,536.266849
3198.359018,-9548.656652,-2368.659014,459.657299
3198.359356,-10288.862594,-1924.535449,995.924147
3198.359693,-10881.027347,-1480.411884,-153.219100
3198.360031,-10584.944971,-1258.350101,-2068.457845
3198.360369,-9918.759623,-2072.576638,-2451.505594
3198.360706,-8512.368333,-1480.411884,-1915.238745
3198.361044,-8882.471304,-1850.514855,-459.657299
3198.361381,-9770.718434,-518.144159,383.047749
3198.361719,-10214.842000,222.061783,0.000000
3198.362056,-10584.944971,222.061783,0.000000
3198.362394,-10362.883188,740.205942,995.924147
3198.362731,-10584.944971,148.041188,2298.286494
3198.363069,-10214.842000,1184.329507,2374.896044
3198.363406,-9252.574275,1110.308913,1072.533697
3198.363744,-9474.636058,888.247130,1378.971896
3198.364081,-9178.553681,740.205942,1608.800546
3198.364419,-9770.718434,962.267725,2757.943793
3198.364756,-10510.924376,2072.576638,2451.505594
3198.365094,-10732.986159,2590.720797,153.219100
3198.365431,-10881.027347,2590.720797,-1072.533697
3198.365769,-9474.636058,2368.659014,-2528.115143
3198.366106,-8586.388927,1628.453072,-2451.505594
3198.366444,-9548.656652,0.000000,-919.314598
3198.366781,-9844.739029,-1110.308913,-612.876398
3198.367119,-8734.430116,-1110.308913,-536.266849
3198.367456,-8956.491898,-1554.432478,0.000000
3198.367794,-9992.780217,-1998.556043,383.047749
3198.368131,-10436.903782,-1554.432478,153.219100
3198.368469,-11029.068536,-962.267725,0.000000
3198.368807,-10066.800811,-592.164754,306.438199
3198.369144,-10066.800811,-592.164754,459.657299
3198.369482,-10658.965565,-1480.411884,2145.067394
3198.369819,-10584.944971,-2516.700203,2451.505594
3198.370157,-10436.903782,-2368.659014,2911.162892
3198.370494,-10955.047942,-888.247130,2451.505594
3198.370832,-10955.047942,-962.267725,842.705048
3198.371169,-11177.109724,-592.164754,0.000000
3198.371507,-10066.800811,-1332.370696,-153.219100
3198.371844,-9178.553681,-148.041188,-383.047749
3198.372182,-10214.842000,148.041188,766.095498
3198.372519,-10584.944971,518.144159,-536.266849
3198.372857,-9400.615463,444.123565,-1378.971896
3198.373194,-10436.903782,592.164754,-612.876398
3198.373532,-10066.800811,740.205942,229.828649
3198.373869,-10214.842000,740.205942,-536.266849
3198.374207,-9770.718434,222.061783,-1225.752797
3198.374544,-8956.491898,-888.247130,-766.095498
3198.374882,-8660.409521,-740.205942,153.219100
3198.375219,-8660.409521,-1554.432478,1685.410096
3198.375557,-10140.821405,-370.102971,2374.896044
3198.375894,-10732.986159,296.082377,689.485948
3198.376232,-11029.068536,1850.514855,-536.266849
3198.376569,-10214.842000,1998.556043,-612.876398
3198.376907,-9178.553681,814.226536,-76.609550
3198.377244,-8808.450710,1036.288319,383.047749
3198.377582,-9400.615463,148.041188,842.705048
3198.377920,-9474.636058,592.164754,1378.971896
3198.378257,-9622.677246,222.061783,1455.581446
3198.378595,-10658.965565,0.000000,1378.971896
3198.378932,-10732.986159,0.000000,1149.143247
3198.379270,-10732.986159,666.185348,-459.657299
3198.379607,-9770.718434,518.144159,-842.705048
3198.379945,-9326.594869,0.000000,-1225.752797
3198.380282,-10066.800811,-296.082377,612.876398
3198.380620,-10362.883188,-1554.432478,1225.752797
3198.380957,-10362.883188,-1702.473667,919.314598
3198.381295,-11029.068536,-2072.576638,689.485948
3198.381632,-11177.109724,-1924.535449,0.000000
3198.381970,-10140.821405,-2442.679609,-1225.752797
3198.382307,-9326.594869,-2590.720797,-1149.143247
3198.382645,-9030.512492,-2960.823768,-383.047749
3198.382982,-9474.636058,-1850.514855,0.000000
3198.383320,-10955.047942,-1628.453072,-229.828649
3198.383657,-10658.965565,-888.247130,-612.876398
3198.383995,-10658.965565,-1184.329507,536.266849
3198.384332,-10140.821405,-370.102971,1532.190996
3198.384670,-9992.780217,0.000000,1915.238745
3198.385007,-9918.759623,370.102971,2298.286494
3198.385345,-9548.656652,148.041188,1685.410096
3198.385682,-9622.677246,-222.061783,1455.581446
3198.386020,-10214.842000,444.123565,1915.238745
3198.386358,-10362.883188,814.226536,1762.019645
3198.386695,-10658.965565,1332.370696,153.219100
3198.387033,-10214.842000,1480.411884,-612.876398
3198.387370,-9844.739029,2442.679609,-2374.896044
3198.387708,-9400.615463,1702.473667,-2528.115143
3198.388045,-8956.491898,1628.453072,-2757.943793
3198.388383,-9252.574275,74.020594,-1532.190996
3198.388720,-9030.512492,-1110.308913,-306.438199
3198.389058,-8438.347739,-370.102971,306.438199
3198.389395,-9918.759623,-222.061783,1762.019645
3198.389733,-10807.006753,0.000000,919.314598
3198.390070,-10658.965565,-814.226536,0.000000
3198.390408,-10732.986159,0.000000,306.438199
3198.390745,-9474.636058,592.164754,689.485948
3198.391083,-9918.759623,-666.185348,1378.971896
3198.391420,-9622.677246,-1554.432478,1915.238745
3198.391758,-9918.759623,-1036.288319,2681.334243
3198.392095,-10955.047942,-592.164754,2987.772442
3198.392433,-11103.089130,-370.102971,1149.143247
3198.392770,-10140.821405,-666.185348,229.828649
3198.393108,-10881.027347,-814.226536,229.828649
3198.393445,-9474.636058,-666.185348,-459.657299
3198.393783,-9474.636058,-518.144159,0.000000
3198.394120,-10066.800811,-740.205942,-459.657299
3198.394458,-10658.965565,-444.123565,-1532.190996
3198.394795,-10732.986159,-444.123565,-1608.800546
3198.395133,-10807.006753,-518.144159,-1149.143247
3198.395471,-9844.739029,-962.267725,-1149.143247
3198.395808,-9844.739029,-1258.350101,-689.485948
3198.396146,-9326.594869,-1554.432478,-1302.362347
3198.396483,-9030.512492,-1998.556043,76.609550
3198.396821,-9770.718434,-1406.391290,1838.629195
3198.397158,-10066.800811,-888.247130,2221.676944
3198.397496,-10658.965565,-148.041188,1915.238745
3198.397833,-11473.192101,592.164754,536.266849
3198.398171,-10807.006753,2072.576638,153.219100
3198.398508,-9844.739029,1998.556043,-229.828649
3198.398846,-8808.450710,1702.473667,-383.047749
3198.399183,-9178.553681,1406.391290,229.828649
3198.399521,-9474.636058,444.123565,1149.143247
3198.399858,-9104.533087,666.185348,995.924147
3198.400196,-8882.471304,962.267725,459.657299
3198.400533,-10288.862594,1258.350101,919.314598
3198.400871,-10214.842000,814.226536,383.047749
3198.401208,-10658.965565,1184.329507,-76.609550
3198.401546,-9178.553681,1998.556043,-1455.581446
3198.401883,-9918.759623,1258.350101,-1302.362347
3198.402221,-10732.986159,-222.061783,-153.219100
3198.402558,-9548.656652,-1776.494261,76.609550
3198.402896,-9992.780217,-2220.617826,1225.752797
3198.403233,-10362.883188,-2146.597232,306.438199
3198.403571,-9844.739029,-2146.597232,-612.876398
3198.403909,-10436.903782,-1998.556043,-766.095498
3198.404246,-9696.697840,-3182.885551,-536.266849
3198.404584,-9030.512492,-2368.659014,0.000000
3198.404921,-10510.924376,-1554.432478,995.924147
3198.405259,-10807.006753,-1480.411884,229.828649
3198.405596,-11103.089130,-1258.350101,383.047749
3198.405934,-10955.047942,-1110.308913,766.095498
3198.406271,-9992.780217,-1184.329507,1762.019645
3198.406609,-10584.944971,-592.164754,1378.971896
3198.406946,-10288.862594,-1110.308913,919.314598
3198.407284,-9770.718434,-1776.494261,0.000000
3198.407621,-9548.656652,-1406.391290,1608.800546
3198.407959,-9992.780217,-1110.308913,1455.581446
3198.408296,-9918.759623,-814.226536,1149.143247
3198.408634,-10658.965565,222.061783,76.609550
3198.408971,-10658.965565,1480.411884,-1302.362347
3198.409309,-9844.739029,1628.453072,-2145.067394
3198.409646,-9326.594869,666.185348,-2604.724693
3198.409984,-9104.533087,0.000000,-1225.752797
3198.410321,-9770.718434,-1332.370696,0.000000
3198.410659,-8808.450710,0.000000,383.047749
3198.410996,-8660.409521,-296.082377,1302.362347
3198.411334,-9696.697840,0.000000,1532.190996
3198.411671,-10436.903782,666.185348,1072.533697
3198.412009,-11177.109724,1406.391290,1225.752797
3198.412346,-10140.821405,2516.700203,1149.143247
3198.412684,-9252.574275,2368.659014,1302.362347
3198.413022,-10066.800811,1184.329507,2068.457845
3198.413359,-9696.697840,1184.329507,1838.629195
3198.413697,-10066.800811,370.102971,2068.457845
3198.414034,-10658.965565,1036.288319,1915.238745
3198.414372,-10140.821405,814.226536,0.000000
3198.414709,-10362.883188,0.000000,-536.266849
3198.415047,-9030.512492,-370.102971,-1838.629195
3198.415384,-7994.224174,-888.247130,-1225.752797
3198.415722,-9400.615463,-592.164754,-536.266849
3198.416059,-10510.924376,-666.185348,-1378.971896
3198.416397,-10288.862594,0.000000,-1991.848295
3198.416734,-11029.068536,-962.267725,-1532.190996
3198.417072,-10584.944971,-1702.473667,-459.657299
3198.417409,-10288.862594,-1924.535449,-766.095498
3198.417747,-9844.739029,-2516.700203,-306.438199
3198.418084,-9474.636058,-2294.638420,0.000000
3198.418422,-9696.697840,-3849.070898,459.657299
3198.418759,-10066.800811,-3034.844362,2145.067394
3198.419097,-11103.089130,-2516.700203,2374.896044
3198.419434,-11843.295072,-74.020594,1762.019645
3198.419772,-11547.212695,222.061783,229.828649
3198.420109,-10732.986159,1036.288319,-383.047749
3198.420447,-9696.697840,888.247130,-383.047749
3198.420784,-9252.574275,592.164754,229.828649
3198.421122,-10214.842000,-148.041188,1302.362347
3198.421460,-9622.677246,-74.020594,459.657299
3198.421797,-9400.615463,814.226536,842.705048
3198.422135,-10066.800811,370.102971,612.876398
3198.422472,-10510.924376,444.123565,383.047749
3198.422810,-9992.780217,666.185348,306.438199
3198.423147,-9548.656652,1184.329507,-229.828649
3198.423485,-7994.224174,1850.514855,-1378.971896
3198.423822,-9770.718434,740.205942,-306.438199
3198.424160,-9622.677246,-814.226536,1149.143247
3198.424497,-9326.594869,-814.226536,2068.457845
3198.424835,-9918.759623,-518.144159,3064.381992
3198.425172,-10288.862594,148.041188,1225.752797
3198.425510,-10214.842000,-740.205942,76.609550
3198.425847,-9844.739029,-1036.288319,-76.609550
3198.426185,-9326.594869,-1332.370696,612.876398
3198.426522,-9696.697840,-148.041188,1455.581446
3198.426860,-10066.800811,-592.164754,842.705048
3198.427197,-10510.924376,0.000000,-153.219100
3198.427535,-10658.965565,296.082377,459.657299
3198.427872,-10658.965565,222.061783,842.705048
3198.428210,-10955.047942,0.000000,919.314598
3198.428547,-10732.986159,-296.082377,0.000000
3198.428885,-9918.759623,-592.164754,0.000000
3198.429222,-9622.677246,-1850.514855,-383.047749
3198.429560,-9696.697840,-2146.597232,306.438199
3198.429897,-10362.883188,-1850.514855,689.485948
3198.430235,-10955.047942,-1406.391290,383.047749
3198.430573,-10955.047942,222.061783,-1762.019645
3198.430910,-11177.109724,-814.226536,-2757.943793
3198.431248,-9474.636058,-370.102971,-2528.115143
3198.431585,-9326.594869,-1776.494261,-1685.410096
3198.431923,-9326.594869,-1924.535449,0.000000
3198.432260,-9178.553681,-1776.494261,995.924147
3198.432598,-9844.739029,-1776.494261,1685.410096
3198.432935,-9992.780217,-888.247130,2374.896044
3198.433273,-10362.883188,-296.082377,1685.410096
3198.433610,-11399.171507,666.185348,2145.067394
3198.433948,-10658.965565,1184.329507,1608.800546
3198.434285,-9400.615463,2368.659014,1072.533697
3198.434623,-9252.574275,1628.453072,1532.190996
3198.434960,-9696.697840,1406.391290,2298.286494
3198.435298,-10510.924376,1258.350101,2757.943793
3198.435635,-10436.903782,1406.391290,2298.286494
3198.435973,-9844.739029,1406.391290,1225.752797
3198.436310,-9474.636058,1924.535449,-229.828649
3198.436648,-9252.574275,814.226536,-766.095498
3198.436985,-8808.450710,296.082377,-1378.971896
3198.437323,-8956.491898,74.020594,-1225.752797
3198.437660,-9770.718434,962.267725,-1149.143247
3198.437998,-9992.780217,-370.102971,-3140.991542
3198.438335,-10140.821405,-888.247130,-2221.676944
3198.438673,-9770.718434,-1406.391290,-306.438199
3198.439011,-9400.615463,-1406.391290,306.438199
3198.439348,-9844.739029,-1480.411884,229.828649
3198.439686,-9992.780217,-2146.597232,-689.485948
3198.440023,-9770.718434,-2960.823768,306.438199
3198.440361,-10066.800811,-3404.947333,1532.190996
3198.440698,-10510.924376,-1406.391290,2681.334243
3198.441036,-11325.150913,-1628.453072,2451.505594
3198.441373,-11843.295072,-444.123565,919.314598
3198.441711,-10881.027347,592.164754,-1149.143247
3198.442048,-10362.883188,370.102971,-1225.752797
3198.442386,-9548.656652,148.041188,-766.095498
3198.442723,-9918.759623,-1184.329507,-459.657299
3198.443061,-9548.656652,-666.185348,-536.266849
3198.443398,-9030.512492,-518.144159,-153.219100
3198.443736,-10066.800811,-518.144159,689.485948
3198.444073,-10436.903782,-592.164754,76.609550
3198.444411,-11103.089130,370.102971,-76.609550
3198.444749,-10732.986159,592.164754,-536.266849
3198.445086,-9474.636058,888.247130,-612.876398
3198.445424,-9548.656652,666.185348,459.657299
3198.445761,-9844.739029,-888.247130,1225.752797
3198.446099,-9474.636058,-296.082377,2298.286494
3198.446436,-10066.800811,-444.123565,2911.162892
3198.446774,-10066.800811,74.020594,2451.505594
3198.447111,-9770.718434,0.000000,1302.362347
3198.447449,-9696.697840,0.000000,383.047749
3198.447786,-8734.430116,74.020594,842.705048
3198.448124,-8290.306550,666.185348,689.485948
3198.448462,-9992.780217,1924.535449,1455.581446
3198.448799,-10362.883188,1332.370696,842.705048
3198.449137,-10436.903782,1776.494261,229.828649
3198.449474,-10510.924376,1406.391290,1072.533697
3198.449812,-10732.986159,740.205942,689.485948
3198.450149,-9770.718434,0.000000,-536.266849
3198.450487,-9622.677246,-592.164754,-612.876398
3198.450824,-8882.471304,-1406.391290,-383.047749
3198.451162,-9474.636058,-2220.617826,0.000000
3198.451499,-10214.842000,-2664.741391,0.000000
3198.451837,-10584.944971,-1110.308913,-229.828649
3198.452174,-11547.212695,-1776.494261,-1149.143247
3198.452512,-11399.171507,-1036.288319,-2451.505594
3198.452850,-9696.697840,-1628.453072,-2451.505594
3198.453187,-9770.718434,-1628.453072,-1149.143247
3198.453525,-8882.471304,-2294.638420,-766.095498
3198.453862,-10066.800811,-3182.885551,-689.485948
3198.454200,-9992.780217,-3034.844362,306.438199
3198.454537,-9992.780217,-2960.823768,1838.629195
3198.454875,-10881.027347,-666.185348,1838.629195
3198.455212,-11029.068536,-1258.350101,995.924147
3198.455550,-11103.089130,444.123565,1149.143247
3198.455887,-9770.718434,814.226536,383.047749
3198.456225,-9474.636058,1184.329507,995.924147
3198.456562,-9918.759623,814.226536,2068.457845
3198.456900,-10214.842000,148.041188,2221.676944
3198.457238,-10510.924376,1258.350101,2451.505594
3198.457575,-10140.821405,1258.350101,689.485948
3198.457913,-9918.759623,1480.411884,153.219100
3198.458250,-9622.677246,666.185348,-689.485948
3198.458588,-8734.430116,148.041188,-1378.971896
3198.458925,-8142.265362,592.164754,-536.266849
3198.459263,-9622.677246,962.267725,-766.095498
3198.459600,-9918.759623,740.205942,-995.924147
3198.459938,-10436.903782,592.164754,-919.314598
3198.460275,-10214.842000,962.267725,306.438199
3198.460613,-10362.883188,592.164754,1072.533697
3198.460950,-10214.842000,518.144159,1149.143247
3198.461288,-10066.800811,-296.082377,1455.581446
3198.461626,-10066.800811,-1184.329507,1072.533697
3198.461963,-9252.574275,-1480.411884,1608.800546
3198.462301,-9696.697840,-1258.350101,2604.724693
3198.462638,-11029.068536,-370.102971,2451.505594
3198.462976,-11103.089130,444.123565,689.485948
3198.463313,-10807.006753,814.226536,-689.485948
3198.463651,-10436.903782,1332.370696,-1685.410096
3198.463988,-9844.739029,962.267725,-1608.800546
3198.464326,-10214.842000,-666.185348,-689.485948
3198.464663,-9474.636058,-1480.411884,-1225.752797
3198.465001,-9474.636058,-1628.453072,-612.876398
3198.465338,-9844.739029,-1776.494261,229.828649
3198.465676,-10288.862594,-2146.597232,-153.219100
3198.466014,-11103.089130,-1554.432478,-689.485948
3198.466351,-10732.986159,-1554.432478,-1225.752797
3198.466689,-10066.800811,-666.185348,-1149.143247
3198.467026,-9918.759623,-1184.329507,-536.266849
3198.467364,-9622.677246,-962.267725,153.219100
3198.467701,-10066.800811,-2072.576638,842.705048
3198.468039,-10066.800811,-1332.370696,2298.286494
3198.468376,-10732.986159,-1036.288319,2834.553343
3198.468714,-10881.027347,-296.082377,2221.676944
3198.469051,-10140.821405,592.164754,536.266849
3198.469389,-10288.862594,518.144159,536.266849
3198.469727,-9622.677246,444.123565,612.876398
3198.470064,-9030.512492,1258.350101,1072.533697
3198.470402,-9622.677246,1406.391290,1225.752797
3198.470739,-9844.739029,2368.659014,229.828649
3198.471077,-10658.965565,1628.453072,-306.438199
3198.471414,-9918.759623,1924.535449,76.609550
3198.471752,-9178.553681,1406.391290,-612.876398
3198.472089,-9252.574275,1184.329507,76.609550
3198.472427,-9400.615463,444.123565,-383.047749
3198.472764,-8734.430116,-296.082377,-536.266849
3198.473102,-9844.739029,-1110.308913,229.828649
3198.473439,-10362.883188,-962.267725,-229.828649
3198.473777,-10732.986159,-814.226536,-689.485948
3198.474115,-11251.130318,-740.205942,-1302.362347
3198.474452,-10362.883188,0.000000,-1762.019645
3198.474790,-9104.533087,-518.144159,-1991.848295
3198.475127,-9178.553681,-1184.329507,-995.924147
3198.475465,-9770.718434,-2368.659014,-459.657299
3198.475802,-10584.944971,-2516.700203,1149.143247
3198.476140,-10140.821405,-1628.453072,1762.019645
3198.476477,-10066.800811,-1554.432478,1915.238745
3198.476815,-11251.130318,-962.267725,2068.457845
3198.477152,-10955.047942,-444.123565,919.314598
3198.477490,-10732.986159,370.102971,76.609550
3198.477827,-10214.842000,148.041188,0.000000
3198.478165,-9992.780217,296.082377,229.828649
3198.478503,-10436.903782,-1332.370696,1149.143247
3198.478840,-9844.739029,-1184.329507,1378.971896
3198.479178,-9622.677246,-740.205942,1455.581446
3198.479515,-10658.965565,-444.123565,842.705048
3198.479853,-10807.006753,0.000000,-919.314598
3198.480190,-9178.553681,-962.267725,-1608.800546
3198.480528,-9252.574275,-370.102971,-1532.190996
3198.480865,-8660.409521,0.000000,-612.876398
3198.481203,-10140.821405,0.000000,919.314598
3198.481540,-10140.821405,0.000000,0.000000
3198.481878,-9770.718434,74.020594,459.657299
3198.482215,-10510.924376,592.164754,1532.190996
3198.482553,-10288.862594,592.164754,1532.190996
3198.482891,-10214.842000,74.020594,1991.848295
3198.483228,-9696.697840,666.185348,2298.286494
3198.483566,-8512.368333,0.000000,1532.190996
3198.483903,-9696.697840,444.123565,2374.896044
3198.484241,-10214.842000,148.041188,2528.115143
3198.484578,-10807.006753,1332.370696,1685.410096
3198.484916,-11621.233289,2146.597232,383.047749
3198.485253,-10955.047942,2294.638420,-2221.676944
3198.485591,-9252.574275,1554.432478,-2911.162892
3198.485928,-9178.553681,74.020594,-2911.162892
3198.486266,-8956.491898,-888.247130,-1302.362347
3198.486603,-8808.450710,-1776.494261,-1225.752797
3198.486941,-9178.553681,-2146.597232,-766.095498
3198.487279,-9918.759623,-1998.556043,-919.314598
3198.487616,-11103.089130,-1258.350101,842.705048
3198.487954,-11399.171507,-1628.453072,-383.047749
3198.488291,-10658.965565,-1332.370696,-766.095498
3198.488629,-9992.780217,-962.267725,-306.438199
3198.488966,-9992.780217,-1184.329507,-612.876398
3198.489304,-9844.739029,-2146.597232,536.266849
3198.489641,-10214.842000,-2738.761985,1302.362347
3198.489979,-10881.027347,-1776.494261,2987.772442
3198.490316,-11325.150913,-1628.453072,2987.772442
3198.490654,-10584.944971,0.000000,1225.752797
3198.490992,-10066.800811,-666.185348,306.438199
3198.491329,-9474.636058,0.000000,229.828649
3198.491667,-9178.553681,222.061783,536.266849
3198.492004,-10140.821405,1110.308913,1378.971896
3198.492342,-10510.924376,1406.391290,536.266849
3198.492679,-10214.842000,1702.473667,-1072.533697
3198.493017,-10214.842000,1258.350101,-459.657299
3198.493354,-9770.718434,1332.370696,0.000000
3198.493692,-9548.656652,666.185348,-612.876398
3198.494029,-9252.574275,370.102971,-612.876398
3198.494367,-8364.327145,-370.102971,-612.876398
3198.494704,-8586.388927,-814.226536,536.266849
3198.495042,-9474.636058,-518.144159,1302.362347
3198.495380,-10066.800811,0.000000,1072.533697
3198.495717,-11621.233289,888.247130,995.924147
3198.496055,-11325.150913,962.267725,-153.219100
3198.496392,-9770.718434,1480.411884,-1762.019645
3198.496730,-9474.636058,518.144159,-229.828649
3198.497067,-9844.739029,-666.185348,1455.581446
3198.497405,-9474.636058,-962.267725,612.876398
3198.497742,-9992.780217,-1110.308913,1685.410096
3198.498080,-9474.636058,-518.144159,1302.362347
3198.498417,-10732.986159,-814.226536,1149.143247
3198.498755,-11029.068536,-592.164754,1302.362347
3198.499092,-10510.924376,0.000000,0.000000
3198.499430,-10584.944971,1110.308913,0.000000
3198.499768,-10066.800811,0.000000,-1302.362347
3198.500105,-9992.780217,-962.267725,-383.047749
3198.500443,-9622.677246,-2738.761985,919.314598
3198.500780,-9474.636058,-1776.494261,1072.533697
3198.501118,-10436.903782,-2368.659014,612.876398
3198.501455,-10510.924376,-1924.535449,-842.705048
3198.501793,-9992.780217,-2072.576638,-1838.629195
3198.502130,-9844.739029,-2590.720797,-1532.190996
3198.502468,-8512.368333,-2146.597232,-919.314598
3198.502805,-9548.656652,-1850.514855,0.000000
3198.503143,-10584.944971,-740.205942,536.266849
3198.503480,-9992.780217,-296.082377,76.609550
3198.503818,-11029.068536,148.041188,1072.533697
3198.504156,-10881.027347,-296.082377,1991.848295
3198.504493,-10362.883188,518.144159,2221.676944
3198.504831,-11029.068536,1184.329507,2374.896044
3198.505168,-9548.656652,740.205942,766.095498
3198.505506,-9252.574275,740.205942,1762.019645
3198.505843,-9770.718434,74.020594,2528.115143
3198.506181,-9770.718434,1406.391290,1762.019645
3198.506518,-10955.047942,2886.803174,842.705048
3198.506856,-10955.047942,2812.782580,-689.485948
3198.507193,-9474.636058,2590.720797,-2528.115143
3198.507531,-8660.409521,1554.432478,-2911.162892
3198.507868,-8808.450710,1184.329507,-1532.190996
3198.508206,-9030.512492,0.000000,-536.266849
3198.508544,-9178.553681,-444.123565,-689.485948
3198.508881,-8882.471304,-888.247130,-229.828649
3198.509219,-10214.842000,-1628.453072,536.266849
3198.509556,-10362.883188,-962.267725,383.047749
3198.509894,-10436.903782,-888.247130,0.000000
3198.510231,-9622.677246,-888.247130,-229.828649
3198.510569,-9474.636058,0.000000,0.000000
3198.510906,-10584.944971,-1554.432478,1455.581446
3198.511244,-10066.800811,-1258.350101,1608.800546
3198.511581,-10584.944971,-2368.659014,2374.896044
3198.511919,-11251.130318,-666.185348,2528.115143
3198.512257,-10510.924376,222.061783,536.266849
3198.512594,-11103.089130,-518.144159,76.609550
3198.512932,-10066.800811,-1258.350101,0.000000
3198.513269,-9252.574275,-814.226536,-76.609550
3198.513607,-10066.800811,0.000000,-383.047749
3198.513944,-10658.965565,-222.061783,-612.876398
3198.514282,-10066.800811,0.000000,-919.314598
3198.514619,-10436.903782,-592.164754,-995.924147
3198.514957,-10214.842000,74.020594,306.438199
3198.515294,-10140.821405,-296.082377,-612.876398
3198.515632,-10436.903782,-592.164754,-919.314598
3198.515969,-9326.594869,-1332.370696,-1072.533697
3198.516307,-8734.430116,-2146.597232,0.000000
3198.516645,-9104.533087,-1554.432478,2068.457845
3198.516982,-9696.697840,-1702.473667,1455.581446
3198.517320,-10732.986159,0.000000,1225.752797
3198.517657,-11029.068536,592.164754,919.314598
3198.517995,-10436.903782,1406.391290,-766.095498
3198.518332,-9326.594869,1480.411884,-306.438199
3198.518670,-8882.471304,666.185348,919.314598
3198.519007,-9030.512492,0.000000,1225.752797
3198.519345,-9400.615463,740.205942,1915.238745
3198.519682,-9474.636058,1036.288319,2298.286494
3198.520020,-10510.924376,814.226536,1838.629195
3198.520357,-11103.089130,814.226536,1302.362347
3198.520695,-11103.089130,2072.576638,383.047749
3198.521033,-10436.903782,1184.329507,-842.705048
3198.521370,-9178.553681,1184.329507,-1532.190996
3198.521708,-9104.533087,-296.082377,-995.924147
3198.522045,-9770.718434,-1036.288319,842.705048
3198.522383,-9474.636058,-1554.432478,689.485948
3198.522720,-10510.924376,-1924.535449,612.876398
3198.523058,-10881.027347,-1406.391290,0.000000
3198.523395,-10510.924376,-1702.473667,-919.314598
3198.523733,-10362.883188,-1850.514855,-842.705048
3198.524070,-8956.491898,-2368.659014,-536.266849
3198.524408,-9474.636058,-1924.535449,306.438199
3198.524745,-10214.842000,-1998.556043,612.876398
3198.525083,-10732.986159,-1480.411884,0.000000
3198.525421,-10807.006753,-1036.288319,612.876398
3198.525758,-11251.130318,-1110.308913,919.314598
3198.526096,-9844.739029,74.020594,612.876398
3198.526433,-9918.759623,-222.061783,229.828649
3198.526771,-10066.800811,0.000000,919.314598
3198.527108,-9326.594869,-666.185348,612.876398
3198.527446,-9474.636058,0.000000,1378.971896
3198.527783,-10584.944971,592.164754,1762.019645
3198.528121,-10881.027347,888.247130,612.876398
3198.528458,-11399.171507,1776.494261,-306.438199
3198.528796,-10362.883188,1406.391290,-1149.143247
3198.529133,-8882.471304,1924.535449,-2145.067394
3198.529471,-8882.471304,814.226536,-1685.410096
3198.529809,-9548.656652,-74.020594,-1378.971896
3198.530146,-8808.450710,-1184.329507,-842.705048
3198.530484,-8882.471304,-1036.288319,383.047749
3198.530821,-9326.594869,370.102971,1532.190996
3198.531159,-10807.006753,-296.082377,1302.362347
3198.531496,-10732.986159,0.000000,1149.143247
3198.531834,-10214.842000,740.205942,229.828649
3198.532171,-10140.821405,370.102971,1225.752797
3198.532509,-9992.780217,296.082377,1762.019645
3198.532846,-9474.636058,-1184.329507,1762.019645
3198.533184,-10214.842000,-740.205942,3294.210641
3198.533522,-9992.780217,-666.185348,2681.334243
3198.533859,-10807.006753,0.000000,1532.190996
3198.534197,-10362.883188,-74.020594,229.828649
3198.534534,-10288.862594,-592.164754,-229.828649
3198.534872,-9474.636058,-222.061783,-766.095498
3198.535209,-9474.636058,-888.247130,-919.314598
3198.535547,-9992.780217,0.000000,536.266849
3198.535884,-10510.924376,-1110.308913,-1072.533697
3198.536222,-10436.903782,-740.205942,-612.876398
3198.536559,-10658.965565,-1036.288319,-689.485948
3198.536897,-10584.944971,-2072.576638,-229.828649
3198.537234,-10288.862594,-1480.411884,-766.095498
3198.537572,-9918.759623,-2516.700203,-536.266849
3198.537910,-9622.677246,-1850.514855,-306.438199
3198.538247,-9844.739029,-2220.617826,153.219100
3198.538585,-10140.821405,-1702.473667,1225.752797
3198.538922,-10584.944971,-1110.308913,1302.362347
3198.539260,-11547.212695,74.020594,1225.752797
3198.539597,-11177.109724,1184.329507,229.828649
3198.539935,-9918.759623,1110.308913,-306.438199
3198.540272,-9548.656652,1628.453072,229.828649
3198.540610,-9770.718434,592.164754,842.705048
3198.540947,-9918.759623,1258.350101,919.314598
3198.541285,-9400.615463,888.247130,153.219100
3198.541622,-9400.615463,1110.308913,612.876398
3198.541960,-9770.718434,1628.453072,153.219100
3198.542297,-9992.780217,1406.391290,-153.219100
3198.542635,-9918.759623,1998.556043,-766.095498
3198.542972,-8882.471304,2072.576638,-1532.190996
3198.543310,-9178.553681,1776.494261,-995.924147
3198.543647,-10066.800811,296.082377,-536.266849
3198.543985,-9844.739029,-592.164754,76.609550
3198.544322,-9844.739029,-1184.329507,1225.752797
3198.544660,-10140.821405,-1184.329507,766.095498
3198.544997,-10436.903782,-518.144159,229.828649
3198.545335,-9992.780217,-1332.370696,-1072.533697
3198.545672,-9474.636058,-1924.535449,-842.705048
3198.546010,-9104.533087,-1998.556043,0.000000
3198.546347,-10288.862594,-1628.453072,1072.533697
3198.546685,-10658.965565,-444.123565,995.924147
3198.547022,-11177.109724,-888.247130,689.485948
3198.547360,-11325.150913,-296.082377,612.876398
3198.547697,-10658.965565,-814.226536,919.314598
3198.548035,-10658.965565,0.000000,1302.362347
3198.548372,-10066.800811,-1110.308913,536.266849
3198.548710,-9622.677246,-1850.514855,383.047749
3198.549047,-9622.677246,-1332.370696,76.609550
3198.549385,-10066.800811,-1628.453072,1072.533697
3198.549722,-10658.965565,-1554.432478,1455.581446
3198.550059,-10510.924376,-518.144159,-612.876398
3198.550397,-11029.068536,-148.041188,-689.485948
3198.550734,-9770.718434,444.123565,-2145.067394
3198.551072,-9326.594869,-740.205942,-1991.848295
3198.551409,-9104.533087,-1184.329507,-919.314598
3198.551747,-9178.553681,-1406.391290,-153.219100
3198.552084,-9474.636058,-666.185348,536.266849
3198.552422,-9992.780217,-814.226536,766.095498
3198.552759,-9844.739029,-296.082377,842.705048
3198.553097,-10584.944971,-592.164754,1762.019645
3198.553434,-10658.965565,444.123565,1991.848295
3198.553772,-9918.759623,1184.329507,1532.190996
3198.554109,-10214.842000,1258.350101,1532.190996
3198.554447,-9918.759623,1702.473667,1991.848295
3198.554784,-9622.677246,370.102971,2528.115143
3198.555122,-10436.903782,1258.350101,3140.991542
3198.555459,-10362.883188,888.247130,2528.115143
3198.555797,-10881.027347,1628.453072,536.266849
3198.556134,-10436.903782,1480.411884,-536.266849
3198.556472,-9548.656652,0.000000,-1685.410096
3198.556809,-8660.409521,0.000000,-1225.752797
3198.557147,-8956.491898,-888.247130,-1378.971896
3198.557484,-9252.574275,-444.123565,-1225.752797
3198.557821,-9696.697840,-1258.350101,-1685.410096
3198.558159,-9844.739029,-740.205942,-766.095498
3198.558496,-10732.986159,-1776.494261,-306.438199
3198.558834,-10362.883188,-1850.514855,153.219100
3198.559171,-10140.821405,-1702.473667,0.000000
3198.559509,-9844.739029,-2146.597232,153.219100
3198.559846,-9548.656652,-2812.782580,0.000000
3198.560184,-9474.636058,-3330.926739,1608.800546
3198.560521,-10955.047942,-2146.597232,2528.115143
3198.560859,-11547.212695,-666.185348,1532.190996
3198.561196,-12213.398043,-296.082377,153.219100
3198.561534,-10510.924376,814.226536,-1225.752797
3198.561871,-9252.574275,296.082377,-766.095498
3198.562209,-9548.656652,296.082377,1149.143247
3198.562546,-10066.800811,222.061783,536.266849
3198.562884,-9918.759623,74.020594,842.705048
3198.563221,-10288.862594,740.205942,0.000000
3198.563559,-10140.821405,740.205942,-76.609550
3198.563896,-10807.006753,1332.370696,536.266849
3198.564234,-10510.924376,444.123565,76.609550
3198.564571,-9474.636058,1332.370696,-1225.752797
3198.564908,-8808.450710,1036.288319,-1532.190996
3198.565246,-9252.574275,74.020594,-689.485948
3198.565583,-9326.594869,-444.123565,766.095498
3198.565921,-9622.677246,-888.247130,1762.019645
3198.566258,-9548.656652,0.000000,1991.848295
3198.566596,-9992.780217,222.061783,919.314598
3198.566933,-10140.821405,1036.288319,0.000000
3198.567271,-9770.718434,-592.164754,-76.609550
3198.567608,-8808.450710,-444.123565,536.266849
3198.567946,-9400.615463,-222.061783,612.876398
3198.568283,-10214.842000,518.144159,1072.533697
3198.568621,-10214.842000,296.082377,76.609550
3198.568958,-10288.862594,0.000000,0.000000
3198.569296,-10140.821405,0.000000,229.828649
3198.569633,-9918.759623,-592.164754,842.705048
3198.569971,-10066.800811,296.082377,0.000000
3198.570308,-9770.718434,-1110.308913,76.609550
3198.570646,-9844.739029,-740.205942,-536.266849
3198.570983,-9622.677246,-1850.514855,842.705048
3198.571321,-11473.192101,-1554.432478,1455.581446
3198.571658,-11177.109724,-1776.494261,76.609550
3198.571996,-11399.171507,-1258.350101,-1225.752797
3198.572333,-10732.986159,-1110.308913,-1532.190996
3198.572670,-9992.780217,-1554.432478,-2221.676944
3198.573008,-9474.636058,-2368.659014,-1149.143247
3198.573345,-9770.718434,-1924.535449,-766.095498
3198.573683,-9622.677246,-2072.576638,76.609550
3198.574020,-9844.739029,-1554.432478,76.609550
3198.574358,-9770.718434,-1850.514855,1762.019645
3198.574695,-10362.883188,-1406.391290,2298.286494
3198.575033,-10881.027347,370.102971,2451.505594
3198.575370,-10362.883188,740.205942,1915.238745
3198.575708,-10288.862594,1702.473667,1915.238745
3198.576045,-9918.759623,1332.370696,2068.457845
3198.576383,-9474.636058,1110.308913,2221.676944
3198.576720,-9770.718434,888.247130,2757.943793
3198.577058,-10436.903782,1406.391290,2528.115143
3198.577395,-10066.800811,1850.514855,229.828649
3198.577733,-9992.780217,1850.514855,-536.266849
3198.578070,-8438.347739,1406.391290,-1838.629195
3198.578408,-8586.388927,222.061783,-1762.019645
3198.578745,-8956.491898,740.205942,-536.266849
3198.579083,-9326.594869,518.144159,-1225.752797
3198.579420,-10140.821405,740.205942,-1302.362347
3198.579758,-10436.903782,0.000000,-1532.190996
3198.580095,-10140.821405,-592.164754,-459.657299
3198.580432,-10288.862594,-1554.432478,459.657299
3198.580770,-9622.677246,-222.061783,76.609550
3198.581107,-9770.718434,-1332.370696,76.609550
3198.581445,-9622.677246,-2294.638420,76.609550
3198.581782,-9474.636058,-1924.535449,919.314598
3198.582120,-10807.006753,-1702.473667,2681.334243
3198.582457,-10807.006753,-666.185348,1838.629195
3198.582795,-11547.212695,-222.061783,995.924147
3198.583132,-11399.171507,0.000000,-229.828649
3198.583470,-9474.636058,0.000000,-1072.533697
3198.583807,-9622.677246,-518.144159,-459.657299
3198.584145,-9844.739029,-1258.350101,-229.828649
3198.584482,-9770.718434,-1110.308913,-229.828649
3198.584820,-9844.739029,-1332.370696,-76.609550
3198.585157,-9548.656652,-1258.350101,-919.314598
3198.585495,-10066.800811,-518.144159,-383.047749
3198.585832,-11177.109724,-814.226536,-306.438199
3198.586170,-9992.780217,0.000000,-766.095498
3198.586507,-9622.677246,148.041188,-919.314598
3198.586845,-9474.636058,-444.123565,229.828649
3198.587182,-9770.718434,-666.185348,995.924147
3198.587520,-9844.739029,-1332.370696,2298.286494
3198.587857,-10584.944971,-296.082377,2987.772442
3198.588194,-10732.986159,0.000000,2451.505594
3198.588532,-10362.883188,370.102971,1302.362347
3198.588869,-9844.739029,370.102971,459.657299
3198.589207,-9030.512492,518.144159,229.828649
3198.589544,-9400.615463,1258.350101,1608.800546
3198.589882,-9844.739029,1480.411884,1072.533697
3198.590219,-9548.656652,1702.473667,995.924147
3198.590557,-9844.739029,2294.638420,306.438199
3198.590894,-10584.944971,1258.350101,1225.752797
3198.591232,-10584.944971,2146.597232,76.609550
3198.591569,-9992.780217,814.226536,76.609550
3198.591907,-9770.718434,888.247130,-536.266849
3198.592244,-8956.491898,-370.102971,-995.924147
3198.592582,-9252.574275,-1628.453072,-459.657299
3198.592919,-9918.759623,-2146.597232,689.485948
3198.593257,-9918.759623,-1924.535449,229.828649
3198.593594,-10288.862594,-1258.350101,-689.485948
3198.593932,-11177.109724,-1110.308913,-1608.800546
3198.594269,-9844.739029,-1036.288319,-2145.067394
3198.594607,-9770.718434,-2146.597232,-1838.629195
3198.594944,-9326.594869,-1776.494261,-612.876398
3198.595281,-9548.656652,-2960.823768,-229.828649
3198.595619,-10881.027347,-2368.659014,1532.190996
3198.595956,-10658.965565,-2368.659014,1225.752797
3198.596294,-10658.965565,-1554.432478,1455.581446
3198.596631,-11325.150913,-518.144159,1685.410096
3198.596969,-11103.089130,-888.247130,536.266849
3198.597306,-10214.842000,888.247130,536.266849
3198.597644,-9770.718434,370.102971,689.485948
3198.597981,-9770.718434,148.041188,612.876398
3198.598319,-9918.759623,0.000000,1915.238745
3198.598656,-10510.924376,370.102971,2221.676944
3198.598994,-10214.842000,740.205942,1302.362347
3198.599331,-9992.780217,1036.288319,-536.266849
3198.599669,-10066.800811,962.267725,-919.314598
3198.600006,-9326.594869,0.000000,-1608.800546
3198.600344,-8364.327145,-222.061783,-1378.971896
3198.600681,-9030.512492,222.061783,-842.705048
3198.601019,-9326.594869,0.000000,306.438199
3198.601356,-9474.636058,0.000000,76.609550
3198.601694,-9770.718434,0.000000,0.000000
3198.602031,-9918.759623,444.123565,1608.800546
3198.602369,-9622.677246,666.185348,1608.800546
3198.602706,-10140.821405,518.144159,1378.971896
3198.603043,-9696.697840,370.102971,1072.533697
3198.603381,-9326.594869,-370.102971,1608.800546
3198.603718,-9844.739029,222.061783,3600.648841
3198.604056,-10510.924376,0.000000,2451.505594
3198.604393,-11325.150913,222.061783,1762.019645
3198.604731,-11103.089130,370.102971,76.609550
3198.605068,-9918.759623,592.164754,-1225.752797
3198.605406,-9252.574275,444.123565,-1685.410096
3198.605743,-9770.718434,-666.185348,-766.095498
3198.606081,-9770.718434,-740.205942,-1072.533697
3198.606418,-9918.759623,-1332.370696,-766.095498
3198.606756,-10066.800811,-1258.350101,-766.095498
3198.607093,-10066.800811,-2072.576638,-612.876398
3198.607431,-10955.047942,-1924.535449,-919.314598
3198.607768,-10584.944971,-2368.659014,-919.314598
3198.608106,-9844.739029,-1924.535449,-1072.533697
3198.608443,-9844.739029,-1480.411884,306.438199
3198.608781,-10140.821405,-2294.638420,536.266849
3198.609118,-9918.759623,-1924.535449,1072.533697
3198.609456,-10510.924376,-2072.576638,2068.457845
3198.609793,-11177.109724,-1110.308913,3064.381992
3198.610131,-10658.965565,-444.123565,1991.848295
3198.610468,-10584.944971,74.020594,689.485948
3198.610805,-9474.636058,814.226536,0.000000
3198.611143,-9548.656652,296.082377,612.876398
3198.611480,-9844.739029,1110.308913,2068.457845
3198.611818,-9992.780217,1628.453072,842.705048
3198.612155,-9844.739029,2220.617826,459.657299
3198.612493,-10436.903782,2146.597232,-229.828649
3198.612830,-10288.862594,1480.411884,153.219100
3198.613168,-9548.656652,1628.453072,0.000000
3198.613505,-9104.533087,1702.473667,-612.876398
3198.613843,-9252.574275,1184.329507,-919.314598
3198.614180,-9178.553681,370.102971,-612.876398
3198.614518,-9474.636058,0.000000,766.095498
3198.614855,-9918.759623,-518.144159,995.924147
3198.615193,-10436.903782,-518.144159,842.705048
3198.615530,-11029.068536,148.041188,536.266849
3198.615868,-10807.006753,-370.102971,-1685.410096
3198.616205,-9474.636058,0.000000,-842.705048
3198.616543,-8882.471304,-1110.308913,-689.485948
3198.616880,-9474.636058,-1776.494261,306.438199
3198.617218,-9918.759623,-1554.432478,766.095498
3198.617555,-10066.800811,-1850.514855,1072.533697
3198.617893,-10066.800811,-666.185348,1225.752797
3198.618230,-11029.068536,-1036.288319,1302.362347
3198.618567,-11103.089130,-518.144159,842.705048
3198.618905,-10658.965565,-296.082377,383.047749
3198.619242,-10140.821405,0.000000,842.705048
3198.619580,-9992.780217,74.020594,536.266849
3198.619917,-10140.821405,-1776.494261,536.266849
3198.620255,-10510.924376,-1776.494261,1225.752797
3198.620592,-10436.903782,-1554.432478,1149.143247
3198.620930,-10288.862594,-592.164754,0.000000
3198.621267,-10658.965565,-518.144159,-1302.362347
3198.621605,-9918.759623,-1110.308913,-1991.848295
3198.621942,-8660.409521,-1924.535449,-2068.457845
3198.622280,-9104.533087,-1184.329507,-612.876398
3198.622617,-9918.759623,-518.144159,76.609550
3198.622955,-10066.800811,-222.061783,0.000000
3198.623292,-10510.924376,222.061783,0.000000
3198.623630,-10362.883188,-222.061783,306.438199
3198.623967,-9992.780217,592.164754,1378.971896
3198.624305,-9992.780217,740.205942,1225.752797
3198.624642,-9770.718434,296.082377,1378.971896
3198.624980,-9400.615463,444.123565,1302.362347
3198.625317,-9474.636058,1036.288319,2068.457845
3198.625654,-9548.656652,740.205942,2451.505594
3198.625992,-10510.924376,1258.350101,2451.505594
3198.626329,-11029.068536,2220.617826,1378.971896
3198.626667,-10807.006753,2664.741391,-766.095498
3198.627004,-9844.739029,1702.473667,-2451.505594
3198.627342,-9178.553681,1258.350101,-2145.067394
3198.627679,-9400.615463,-518.144159,-1378.971896
3198.628017,-9474.636058,-222.061783,-1149.143247
3198.628354,-9030.512492,-962.267725,-689.485948
3198.628692,-9474.636058,-1480.411884,-383.047749
3198.629029,-9770.718434,-2220.617826,-383.047749
3198.629367,-11103.089130,-1554.432478,76.609550
3198.629704,-11251.130318,-1184.329507,229.828649
3198.630042,-10066.800811,-1110.308913,-459.657299
3198.630379,-9992.780217,-1554.432478,459.657299
3198.630717,-10066.800811,-1998.556043,1149.143247
3198.631054,-10436.903782,-2960.823768,2987.772442
3198.631392,-11177.109724,-2220.617826,3064.381992
3198.631729,-10955.047942,-1332.370696,2068.457845
3198.632067,-10955.047942,-222.061783,689.485948
3198.632404,-10362.883188,-444.123565,-459.657299
3198.632742,-9326.594869,-296.082377,-766.095498
3198.633079,-9474.636058,-666.185348,306.438199
3198.633416,-9844.739029,370.102971,842.705048
3198.633754,-9696.697840,518.144159,-306.438199
3198.634091,-10362.883188,814.226536,-306.438199
3198.634429,-10362.883188,888.247130,0.000000
3198.634766,-10140.821405,74.020594,0.000000
3198.635104,-9844.739029,1480.411884,-229.828649
3198.635441,-9992.780217,592.164754,-1455.581446
3198.635779,-9030.512492,-296.082377,-1455.581446
3198.636116,-9030.512492,-666.185348,-153.219100
3198.636454,-9252.574275,-962.267725,919.314598
3198.636791,-9918.759623,0.000000,1838.629195
3198.637129,-11325.150913,518.144159,689.485948
3198.637466,-11103.089130,1628.453072,-612.876398
3198.637804,-10140.821405,740.205942,-689.485948
3198.638141,-9474.636058,1776.494261,0.000000
3198.638479,-9770.718434,592.164754,306.438199
3198.638816,-9770.718434,222.061783,306.438199
3198.639154,-9252.574275,148.041188,0.000000
3198.639491,-9844.739029,74.020594,919.314598
3198.639829,-10214.842000,0.000000,842.705048
3198.640166,-10584.944971,-518.144159,612.876398
3198.640504,-10658.965565,74.020594,229.828649
3198.640841,-9400.615463,1184.329507,-1302.362347
3198.641178,-10140.821405,0.000000,-459.657299
3198.641516,-9992.780217,-592.164754,0.000000
3198.641853,-10066.800811,-1702.473667,995.924147
3198.642191,-11103.089130,-1628.453072,2298.286494
3198.642528,-10510.924376,-1554.432478,229.828649
3198.642866,-10658.965565,-1628.453072,-306.438199
3198.643203,-10510.924376,-2294.638420,-1762.019645
3198.643541,-9252.574275,-3034.844362,-1838.629195
3198.643878,-9326.594869,-2072.576638,-766.095498
3198.644215,-9992.780217,-2368.659014,689.485948
3198.644553,-10066.800811,-1628.453072,76.609550
3198.644890,-10510.924376,-1850.514855,306.438199
3198.645227,-10510.924376,-962.267725,1455.581446
3198.645565,-10881.027347,-222.061783,2374.896044
3198.645902,-10584.944971,0.000000,2374.896044
3198.646239,-10214.842000,592.164754,1838.629195
3198.646577,-9844.739029,222.061783,1762.019645
3198.646914,-9918.759623,518.144159,1838.629195
3198.647251,-10214.842000,-370.102971,2451.505594
3198.647589,-10140.821405,814.226536,2757.943793
3198.647926,-10436.903782,1332.370696,1149.143247
3198.648263,-10658.965565,2072.576638,-229.828649
3198.648601,-9622.677246,1998.556043,-1915.238745
3198.648938,-9252.574275,1110.308913,-2221.676944
3198.649275,-8808.450710,1332.370696,-2221.676944
3198.649613,-8808.450710,296.082377,-1762.019645
3198.649950,-9178.553681,222.061783,-1455.581446
3198.650287,-8956.491898,-888.247130,-459.657299
3198.650625,-9622.677246,-666.185348,0.000000
3198.650962,-10288.862594,-666.185348,153.219100
3198.651299,-11325.150913,-222.061783,0.000000
3198.651637,-10140.821405,0.000000,-1225.752797
3198.651974,-9696.697840,-518.144159,0.000000
3198.652311,-9844.739029,-740.205942,1149.143247
3198.652649,-10066.800811,-1110.308913,1608.800546
3198.652986,-10436.903782,-1776.494261,2604.724693
3198.653323,-11251.130318,-370.102971,2221.676944
3198.653661,-10584.944971,-74.020594,459.657299
3198.653998,-11103.089130,296.082377,-306.438199
3198.654335,-9992.780217,-296.082377,-1149.143247
3198.654673,-9326.594869,-888.247130,-689.485948
3198.655010,-9696.697840,-148.041188,0.000000
3198.655347,-10140.821405,-592.164754,-995.924147
3198.655685,-10140.821405,-592.164754,-612.876398
3198.656022,-10732.986159,-1184.329507,0.000000
3198.656359,-9992.780217,-740.205942,-842.705048
3198.656697,-9992.780217,-592.164754,-766.095498
3198.657034,-9474.636058,-518.144159,-995.924147
3198.657371,-9326.594869,-1480.411884,-1149.143247
3198.657709,-9400.615463,-2220.617826,612.876398
3198.658046,-9474.636058,-1480.411884,1685.410096
3198.658383,-9918.759623,-1480.411884,2757.943793
3198.658721,-11325.150913,-296.082377,2604.724693
3198.659058,-11103.089130,0.000000,1225.752797
3198.659395,-10436.903782,888.247130,229.828649
3198.659733,-9548.656652,1184.329507,306.438199
3198.660070,-9474.636058,1036.288319,612.876398
3198.660407,-9622.677246,518.144159,1225.752797
3198.660745,-9252.574275,1258.350101,995.924147
3198.661082,-9326.594869,1110.308913,1608.800546
3198.661419,-9326.594869,1332.370696,1455.581446
3198.661757,-9844.739029,1036.288319,1149.143247
3198.662094,-11029.068536,666.185348,1378.971896
3198.662431,-9918.759623,1332.370696,-306.438199
3198.662769,-9696.697840,1554.432478,-766.095498
3198.663106,-9770.718434,148.041188,-995.924147
3198.663443,-9400.615463,-666.185348,-306.438199
3198.663781,-9326.594869,-1628.453072,1225.752797
3198.664118,-9844.739029,-2368.659014,306.438199
3198.664455,-9622.677246,-1924.535449,-383.047749
3198.664793,-10658.965565,-2442.679609,-919.314598
3198.665130,-10066.800811,-1776.494261,-536.266849
3198.665467,-9622.677246,-1850.514855,-995.924147
3198.665805,-10066.800811,-1776.494261,-76.609550
3198.666142,-10362.883188,-1924.535449,0.000000
3198.666479,-10658.965565,-1480.411884,612.876398
3198.666817,-10658.965565,-1332.370696,766.095498
3198.667154,-10955.047942,-962.267725,689.485948
3198.667491,-10584.944971,-740.205942,306.438199
3198.667829,-10584.944971,74.020594,536.266849
3198.668166,-9844.739029,-296.082377,459.657299
3198.668503,-9770.718434,-222.061783,229.828649
3198.668841,-9548.656652,-740.205942,1225.752797
3198.669178,-10140.821405,-518.144159,1991.848295
3198.669515,-10584.944971,666.185348,1838.629195
3198.669852,-11103.089130,1184.329507,536.266849
3198.670190,-10584.944971,1036.288319,-1302.362347
3198.670527,-9474.636058,1702.473667,-2221.676944
3198.670864,-9178.553681,0.000000,-1455.581446
3198.671202,-9030.512492,296.082377,-1685.410096
3198.671539,-9030.512492,-592.164754,-1302.362347
3198.671876,-9400.615463,-444.123565,459.657299
3198.672214,-9104.533087,-444.123565,919.314598
3198.672551,-9992.780217,296.082377,1762.019645
3198.672888,-10288.862594,222.061783,1149.143247
3198.673226,-10214.842000,444.123565,766.095498
3198.673563,-9770.718434,888.247130,1225.752797
3198.673900,-10066.800811,1184.329507,1838.629195
3198.674238,-9770.718434,814.226536,2374.896044
3198.674575,-10510.924376,-222.061783,2834.553343
3198.674912,-10732.986159,222.061783,2681.334243
3198.675250,-10362.883188,296.082377,919.314598
3198.675587,-10658.965565,592.164754,306.438199
3198.675924,-9918.759623,-518.144159,-1225.752797
3198.676262,-9178.553681,-814.226536,-1378.971896
3198.676599,-9104.533087,-296.082377,-689.485948
3198.676936,-9548.656652,-1110.308913,-1225.752797
3198.677274,-10436.903782,-814.226536,-995.924147
3198.677611,-11029.068536,-1702.473667,-306.438199
3198.677948,-10658.965565,-1554.432478,-689.485948
3198.678286,-10288.862594,-1850.514855,-1072.533697
3198.678623,-10140.821405,-1850.514855,-919.314598
3198.678960,-9770.718434,-2368.659014,-995.924147
3198.679298,-9252.574275,-2368.659014,-766.095498
3198.679635,-9696.697840,-2516.700203,766.095498
3198.679972,-10288.862594,-2664.741391,1455.581446
3198.680310,-10288.862594,-2368.659014,2145.067394
3198.680647,-11621.233289,-592.164754,1915.238745
3198.680984,-10881.027347,0.000000,1072.533697
3198.681322,-9844.739029,1258.350101,0.000000
3198.681659,-9548.656652,1110.308913,-459.657299
3198.681996,-9992.780217,222.061783,459.657299
3198.682334,-10436.903782,1184.329507,995.924147
3198.682671,-10140.821405,962.267725,842.705048
3198.683008,-9474.636058,1036.288319,383.047749
3198.683346,-9844.739029,888.247130,689.485948
3198.683683,-9770.718434,592.164754,842.705048
3198.684020,-9474.636058,1628.453072,-689.485948
3198.684358,-9548.656652,1998.556043,-689.485948
3198.684695,-9622.677246,1628.453072,-1302.362347
3198.685032,-9548.656652,666.185348,0.000000
3198.685370,-10066.800811,-296.082377,1072.533697
3198.685707,-9918.759623,-740.205942,1915.238745
3198.686044,-9696.697840,0.000000,1532.190996
3198.686382,-10214.842000,-1110.308913,536.266849
3198.686719,-10362.883188,-518.144159,-383.047749
3198.687056,-8956.491898,-1110.308913,-995.924147
3198.687394,-9622.677246,-1406.391290,0.000000
3198.687731,-9918.759623,-1332.370696,1455.581446
3198.688068,-9844.739029,-814.226536,766.095498
3198.688406,-10510.924376,-296.082377,1072.533697
3198.688743,-10881.027347,-518.144159,919.314598
3198.689080,-10658.965565,-74.020594,459.657299
3198.689418,-11103.089130,74.020594,689.485948
3198.689755,-10732.986159,0.000000,459.657299
3198.690092,-10140.821405,-740.205942,-766.095498
3198.690430,-9696.697840,-1924.535449,0.000000
3198.690767,-9400.615463,-1406.391290,536.266849
3198.691104,-10732.986159,-962.267725,612.876398
3198.691442,-11325.150913,-962.267725,689.485948
3198.691779,-11029.068536,0.000000,-1838.629195
3198.692116,-10362.883188,-444.123565,-2451.505594
3198.692454,-9474.636058,-444.123565,-2298.286494
3198.692791,-8660.409521,-888.247130,-1608.800546
3198.693128,-9770.718434,-1554.432478,-76.609550
3198.693466,-9696.697840,-1184.329507,229.828649
3198.693803,-9548.656652,-888.247130,919.314598
3198.694140,-10288.862594,-444.123565,1762.019645
3198.694478,-11029.068536,-74.020594,2374.896044
3198.694815,-10436.903782,0.000000,1149.143247
3198.695152,-9252.574275,1184.329507,1532.190996
3198.695490,-9474.636058,2072.576638,2298.286494
3198.695827,-9770.718434,1406.391290,1378.971896
3198.696164,-9992.780217,1258.350101,2528.115143
3198.696502,-9992.780217,1258.350101,2681.334243
3198.696839,-10288.862594,1332.370696,2528.115143
3198.697176,-10584.944971,2294.638420,689.485948
3198.697514,-10066.800811,888.247130,-536.266849
3198.697851,-9178.553681,740.205942,-919.314598
3198.698188,-8956.491898,0.000000,-1149.143247
3198.698526,-9770.718434,222.061783,-995.924147
3198.698863,-9844.739029,-74.020594,-1225.752797
3198.699200,-9844.739029,-740.205942,-1149.143247
3198.699538,-10214.842000,-1480.411884,-383.047749
3198.699875,-9548.656652,-2146.597232,0.000000
3198.700212,-10140.821405,-1258.350101,459.657299
3198.700550,-10658.965565,-2146.597232,0.000000
3198.700887,-9918.759623,-1554.432478,-612.876398
3198.701224,-10214.842000,-2590.720797,536.266849
3198.701562,-10362.883188,-3108.864956,2374.896044
3198.701899,-10362.883188,-2516.700203,2987.772442
3198.702236,-11547.212695,-1702.473667,2911.162892
3198.702574,-11843.295072,-296.082377,1608.800546
3198.702911,-10584.944971,0.000000,-306.438199
3198.703248,-10066.800811,0.000000,-306.438199
3198.703586,-9622.677246,0.000000,-612.876398
3198.703923,-9770.718434,-222.061783,153.219100
3198.704260,-10140.821405,0.000000,459.657299
3198.704598,-9474.636058,0.000000,153.219100
3198.704935,-9622.677246,0.000000,459.657299
3198.705272,-10436.903782,0.000000,76.609550
3198.705610,-10140.821405,296.082377,0.000000
3198.705947,-10214.842000,888.247130,-842.705048
3198.706284,-9474.636058,518.144159,-1072.533697
3198.706622,-8586.388927,518.144159,-1072.533697
3198.706959,-9474.636058,-814.226536,306.438199
3198.707296,-9696.697840,-296.082377,1762.019645
3198.707634,-10214.842000,-518.144159,1149.143247
3198.707971,-10066.800811,1184.329507,536.266849
3198.708308,-9918.759623,1110.308913,0.000000
3198.708646,-9474.636058,444.123565,-459.657299
3198.708983,-9178.553681,222.061783,0.000000
3198.709320,-9326.594869,592.164754,919.314598
3198.709658,-10288.862594,1480.411884,1225.752797
3198.709995,-10362.883188,1406.391290,306.438199
3198.710332,-10436.903782,962.267725,689.485948
3198.710670,-10510.924376,592.164754,0.000000
3198.711007,-10362.883188,148.041188,459.657299
3198.711344,-9992.780217,888.247130,0.000000
3198.711682,-9178.553681,-222.061783,-1608.800546
3198.712019,-9030.512492,-1258.350101,-306.438199
3198.712356,-9696.697840,-1924.535449,0.000000
3198.712694,-9918.759623,-1628.453072,919.314598
3198.713031,-11251.130318,-1554.432478,919.314598
3198.713368,-11251.130318,-1406.391290,-766.095498
3198.713706,-10362.883188,-1628.453072,-2145.067394
3198.714043,-9770.718434,-1776.494261,-2068.457845
3198.714380,-9474.636058,-1702.473667,-1455.581446
3198.714718,-9770.718434,-2738.761985,-995.924147
3198.715055,-9992.780217,-2590.720797,229.828649
3198.715392,-9770.718434,-2886.803174,612.876398
3198.715730,-10288.862594,-2294.638420,2604.724693
3198.716067,-10881.027347,-1480.411884,2834.553343
3198.716404,-10584.944971,-888.247130,1838.629195
3198.716742,-10732.986159,666.185348,2374.896044
3198.717079,-10436.903782,1332.370696,1838.629195
3198.717416,-10066.800811,1406.391290,2145.067394
3198.717754,-10288.862594,0.000000,2068.457845
3198.718091,-9844.739029,1036.288319,2757.943793
3198.718428,-10881.027347,1480.411884,2528.115143
3198.718765,-10214.842000,1628.453072,1378.971896
3198.719103,-9696.697840,1480.411884,-306.438199
3198.719440,-9252.574275,814.226536,-766.095498
3198.719777,-8512.368333,444.123565,-1225.752797
3198.720115,-8660.409521,370.102971,-995.924147
3198.720452,-9474.636058,296.082377,-766.095498
3198.720789,-9104.533087,666.185348,-842.705048
3198.721127,-10732.986159,296.082377,-459.657299
3198.721464,-9844.739029,1036.288319,306.438199
3198.721801,-9770.718434,0.000000,229.828649
3198.722139,-10436.903782,74.020594,842.705048
3198.722476,-9548.656652,0.000000,-1072.533697
3198.722813,-9992.780217,-1258.350101,153.219100
3198.723151,-10362.883188,-1258.350101,1149.143247
3198.723488,-9622.677246,-1702.473667,1915.238745
3198.723825,-10732.986159,-518.144159,2528.115143
3198.724163,-11621.233289,-296.082377,1149.143247
3198.724500,-11029.068536,666.185348,-536.266849
3198.724837,-10881.027347,444.123565,-1225.752797
3198.725175,-9770.718434,74.020594,-1378.971896
3198.725512,-9474.636058,-296.082377,-1225.752797
3198.725849,-9844.739029,-1628.453072,-1225.752797
3198.726187,-9178.553681,-1924.535449,-306.438199
3198.726524,-9548.656652,-2368.659014,-229.828649
3198.726861,-10066.800811,-1776.494261,306.438199
3198.727199,-10436.903782,-1554.432478,-1378.971896
3198.727536,-10510.924376,-962.267725,-1532.190996
3198.727873,-10436.903782,-814.226536,-1302.362347
3198.728211,-9326.594869,-1036.288319,-536.266849
3198.728548,-9252.574275,-962.267725,995.924147
3198.728885,-10066.800811,-1776.494261,1838.629195
3198.729223,-10436.903782,-1184.329507,1302.362347
3198.729560,-10658.965565,-444.123565,2374.896044
3198.729897,-11177.109724,814.226536,1685.410096
3198.730235,-10214.842000,0.000000,306.438199
3198.730572,-9548.656652,666.185348,-76.609550
3198.730909,-8882.471304,666.185348,1072.533697
3198.731247,-9844.739029,1184.329507,1532.190996
3198.731584,-9844.739029,1332.370696,1072.533697
3198.731921,-9992.780217,2072.576638,919.314598
3198.732259,-10436.903782,1850.514855,689.485948
3198.732596,-10066.800811,2146.597232,459.657299
3198.732933,-10066.800811,1332.370696,0.000000
3198.733271,-9400.615463,1776.494261,-766.095498
3198.733608,-8808.450710,0.000000,-1149.143247
3198.733945,-9474.636058,0.000000,0.000000
3198.734283,-9474.636058,-888.247130,-306.438199
3198.734620,-10140.821405,-1332.370696,689.485948
3198.734957,-10584.944971,-1110.308913,0.000000
3198.735295,-10362.883188,-1184.329507,-995.924147
3198.735632,-9918.759623,0.000000,-995.924147
3198.735969,-10066.800811,-888.247130,-1072.533697
3198.736307,-9474.636058,-1110.308913,-995.924147
3198.736644,-10510.924376,-2294.638420,-306.438199
3198.736981,-10584.944971,-2368.659014,1149.143247
3198.737319,-10362.883188,-1702.473667,1915.238745
3198.737656,-10881.027347,-1702.473667,2528.115143
3198.737993,-10584.944971,-1184.329507,995.924147
3198.738331,-10658.965565,-666.185348,306.438199
3198.738668,-10732.986159,814.226536,995.924147
3198.739005,-9918.759623,74.020594,153.219100
3198.739343,-9844.739029,-148.041188,689.485948
3198.739680,-9770.718434,-296.082377,919.314598
3198.740017,-10214.842000,-370.102971,1302.362347
3198.740355,-9844.739029,-592.164754,995.924147
3198.740692,-10214.842000,518.144159,-383.047749
3198.741029,-10436.903782,148.041188,-689.485948
3198.741367,-9326.594869,222.061783,-1915.238745
3198.741704,-8956.491898,-814.226536,-1608.800546
3198.742041,-9474.636058,-74.020594,-612.876398
3198.742379,-9178.553681,-444.123565,-459.657299
3198.742716,-9696.697840,222.061783,306.438199
3198.743053,-10214.842000,0.000000,229.828649
3198.743391,-9696.697840,592.164754,612.876398
3198.743728,-9918.759623,592.164754,689.485948
3198.744065,-9770.718434,222.061783,536.266849
3198.744403,-9844.739029,1184.329507,689.485948
3198.744740,-9622.677246,-370.102971,1455.581446
3198.745077,-9548.656652,518.144159,1838.629195
3198.745414,-10140.821405,-148.041188,2221.676944
3198.745752,-11547.212695,1036.288319,2757.943793
3198.746089,-11177.109724,962.267725,0.000000
3198.746426,-10658.965565,814.226536,-995.924147
3198.746764,-9252.574275,888.247130,-1838.629195
3198.747101,-8882.471304,-370.102971,-2145.067394
3198.747438,-9400.615463,-888.247130,-919.314598
3198.747775,-9474.636058,-2146.597232,-689.485948
3198.748113,-9252.574275,-1850.514855,0.000000
3198.748450,-10066.800811,-1332.370696,0.000000
3198.748787,-11177.109724,-2220.617826,-229.828649
3198.749125,-10955.047942,-2368.659014,-766.095498
3198.749462,-10140.821405,-1702.473667,-612.876398
3198.749799,-9474.636058,-1554.432478,-383.047749
3198.750136,-9770.718434,-2072.576638,229.828649
3198.750474,-10584.944971,-2220.617826,995.924147
3198.750811,-10584.944971,-2886.803174,1762.019645
3198.751148,-10288.862594,-1924.535449,2911.162892
3198.751485,-10955.047942,-592.164754,2681.334243
3198.751823,-10658.965565,-444.123565,1455.581446
3198.752160,-9770.718434,0.000000,-306.438199
3198.752497,-9474.636058,518.144159,-153.219100
3198.752835,-9770.718434,1036.288319,1072.533697
3198.753172,-10214.842000,1554.432478,1225.752797
3198.753509,-10288.862594,1258.350101,459.657299
3198.753846,-10436.903782,2072.576638,153.219100
3198.754184,-10066.800811,1998.556043,0.000000
3198.754521,-10066.800811,1998.556043,0.000000
3198.754858,-9622.677246,1258.350101,-919.314598
3198.755195,-8808.450710,1184.329507,-919.314598
3198.755533,-8438.347739,74.020594,-919.314598
3198.755870,-8956.491898,0.000000,153.219100
3198.756207,-9252.574275,0.000000,1302.362347
3198.756545,-10288.862594,-222.061783,1762.019645
3198.756882,-10732.986159,1258.350101,0.000000
3198.757219,-10955.047942,1554.432478,-689.485948
3198.757556,-10288.862594,1184.329507,-919.314598
3198.757894,-9474.636058,-74.020594,-689.485948
3198.758231,-9474.636058,-592.164754,536.266849
3198.758568,-9474.636058,-518.144159,1149.143247
3198.758905,-9770.718434,-962.267725,689.485948
3198.759243,-9548.656652,-666.185348,1915.238745
3198.759580,-10881.027347,-888.247130,1455.581446
3198.759917,-11251.130318,0.000000,612.876398
3198.760255,-10732.986159,222.061783,153.219100
3198.760592,-10732.986159,666.185348,459.657299
3198.760929,-9992.780217,-518.144159,76.609550
3198.761266,-10066.800811,-962.267725,0.000000
3198.761604,-10214.842000,-2146.597232,919.314598
3198.761941,-10658.965565,-1998.556043,842.705048
3198.762278,-10362.883188,-1332.370696,-306.438199
3198.762615,-10807.006753,-1480.411884,-1991.848295
3198.762953,-9548.656652,-2072.576638,-2604.724693
3198.763290,-9474.636058,-2368.659014,-1532.190996
3198.763627,-8956.491898,-2516.700203,-612.876398
3198.763965,-9474.636058,-962.267725,383.047749
3198.764302,-10881.027347,-1110.308913,995.924147
3198.764639,-10955.047942,-1036.288319,612.876398
3198.764976,-10140.821405,-370.102971,919.314598
3198.765314,-10066.800811,-444.123565,1915.238745
3198.765651,-10288.862594,370.102971,1608.800546
3198.765988,-9844.739029,888.247130,1149.143247
3198.766326,-9252.574275,518.144159,612.876398
3198.766663,-9400.615463,518.144159,1149.143247
3198.767000,-9844.739029,814.226536,2068.457845
3198.767337,-10584.944971,1850.514855,2145.067394
3198.767675,-11177.109724,1554.432478,842.705048
3198.768012,-9992.780217,2220.617826,-842.705048
3198.768349,-9474.636058,2072.576638,-1225.752797
3198.768686,-9252.574275,1554.432478,-995.924147
3198.769024,-8882.471304,296.082377,-1915.238745
3198.769361,-9474.636058,-370.102971,-995.924147
3198.769698,-9252.574275,-962.267725,-383.047749
3198.770036,-8956.491898,-1406.391290,-306.438199
3198.770373,-10066.800811,-2294.638420,612.876398
3198.770710,-10066.800811,-1776.494261,0.000000
3198.771047,-10510.924376,-1406.391290,0.000000
3198.771385,-10140.821405,-814.226536,306.438199
3198.771722,-9400.615463,-592.164754,153.219100
3198.772059,-10584.944971,-2368.659014,2145.067394
3198.772396,-10732.986159,-2368.659014,2604.724693
3198.772734,-10510.924376,-1850.514855,2528.115143
3198.773071,-11399.171507,-1110.308913,2911.162892
3198.773408,-10807.006753,-888.247130,919.314598
3198.773746,-10288.862594,-1110.308913,-459.657299
3198.774083,-9770.718434,-814.226536,-536.266849
3198.774420,-9548.656652,-444.123565,0.000000
3198.774757,-9992.780217,-74.020594,153.219100
3198.775095,-10436.903782,148.041188,0.000000
3198.775432,-10214.842000,222.061783,-306.438199
3198.775769,-10362.883188,74.020594,-153.219100
3198.776106,-10510.924376,444.123565,229.828649
3198.776444,-9992.780217,0.000000,-612.876398
3198.776781,-9548.656652,444.123565,-1455.581446
3198.777118,-9400.615463,-296.082377,-1455.581446
3198.777456,-9178.553681,-888.247130,-383.047749
3198.777793,-9104.533087,-1184.329507,1302.362347
3198.778130,-9770.718434,-370.102971,1378.971896
3198.778467,-10807.006753,222.061783,612.876398
3198.778805,-10807.006753,1850.514855,-612.876398
3198.779142,-10362.883188,1924.535449,-766.095498
3198.779479,-9178.553681,1036.288319,-153.219100
3198.779816,-9104.533087,1258.350101,229.828649
3198.780154,-9770.718434,1258.350101,1378.971896
3198.780491,-10140.821405,666.185348,919.314598
3198.780828,-9474.636058,1036.288319,995.924147
3198.781166,-10436.903782,666.185348,1455.581446
3198.781503,-11029.068536,814.226536,919.314598
3198.781840,-10584.944971,1110.308913,0.000000
3198.782177,-9696.697840,962.267725,-383.047749
3198.782515,-9104.533087,444.123565,-919.314598
3198.782852,-9252.574275,-296.082377,-766.095498
3198.783189,-10288.862594,-1702.473667,995.924147
3198.783527,-10362.883188,-1702.473667,689.485948
3198.783864,-10510.924376,-1776.494261,842.705048
3198.784201,-10732.986159,-1998.556043,-229.828649
3198.784538,-10140.821405,-2146.597232,-1838.629195
3198.784876,-9696.697840,-2442.679609,-1302.362347
3198.785213,-9178.553681,-3108.864956,-1455.581446
3198.785550,-9622.677246,-2072.576638,0.000000
3198.785887,-10732.986159,-1554.432478,383.047749
3198.786225,-11103.089130,-2146.597232,612.876398
3198.786562,-10807.006753,-1184.329507,689.485948
3198.786899,-10658.965565,-1406.391290,1685.410096
3198.787237,-10362.883188,296.082377,2374.896044
3198.787574,-10362.883188,74.020594,1225.752797
3198.787911,-10066.800811,0.000000,536.266849
3198.788248,-9696.697840,0.000000,612.876398
3198.788586,-9844.739029,0.000000,1762.019645
3198.788923,-10288.862594,592.164754,2374.896044
3198.789260,-10732.986159,444.123565,1838.629195
3198.789597,-10584.944971,1332.370696,0.000000
3198.789935,-9770.718434,1702.473667,-1455.581446
3198.790272,-9400.615463,1258.350101,-1685.410096
3198.790609,-8956.491898,666.185348,-2068.457845
3198.790947,-8882.471304,-592.164754,-919.314598
3198.791284,-9178.553681,-296.082377,0.000000
3198.791621,-8660.409521,-370.102971,0.000000
3198.791958,-9548.656652,-444.123565,1225.752797
3198.792296,-10510.924376,-888.247130,766.095498
3198.792633,-10362.883188,-74.020594,0.000000
3198.792970,-10658.965565,370.102971,995.924147
3198.793307,-9622.677246,0.000000,383.047749
3198.793645,-9548.656652,-740.205942,1225.752797
3198.793982,-10214.842000,-888.247130,2451.505594
3198.794319,-9918.759623,-1036.288319,2681.334243
3198.794657,-10658.965565,-740.205942,1685.410096
3198.794994,-11177.109724,0.000000,1378.971896
3198.795331,-10732.986159,0.000000,0.000000
3198.795668,-10214.842000,-370.102971,-1302.362347
3198.796006,-9474.636058,0.000000,-919.314598
3198.796343,-9326.594869,-592.164754,-766.095498
3198.796680,-10436.903782,-222.061783,0.000000
3198.797017,-10140.821405,-888.247130,-995.924147
3198.797355,-10658.965565,-444.123565,-995.924147
3198.797692,-10658.965565,-1184.329507,-1149.143247
3198.798029,-10362.883188,-962.267725,-1302.362347
3198.798367,-9992.780217,-1480.411884,-995.924147
3198.798704,-9474.636058,-1554.432478,-1378.971896
3198.799041,-9474.636058,-1702.473667,-536.266849
3198.799378,-9474.636058,-1850.514855,766.095498
3198.799716,-10140.821405,-1110.308913,1762.019645
3198.800053,-10955.047942,-296.082377,1762.019645
3198.800390,-11695.253884,296.082377,1225.752797
3198.800728,-10510.924376,1998.556043,229.828649
3198.801065,-10436.903782,1036.288319,0.000000
3198.801402,-8882.471304,1480.411884,0.000000
3198.801739,-9326.594869,1702.473667,306.438199
3198.802077,-9918.759623,962.267725,1455.581446
3198.802414,-9178.553681,1110.308913,612.876398
3198.802751,-9252.574275,1406.391290,1455.581446
3198.803088,-10140.821405,1776.494261,766.095498
3198.803426,-9844.739029,1332.370696,766.095498
3198.803763,-10584.944971,1776.494261,536.266849
3198.804100,-9178.553681,1776.494261,-689.485948
3198.804438,-9178.553681,1258.350101,-995.924147
3198.804775,-10066.800811,0.000000,229.828649
3198.805112,-9918.759623,-1998.556043,306.438199
3198.805449,-9474.636058,-1776.494261,1532.190996
3198.805787,-9770.718434,-2294.638420,612.876398
3198.806124,-9918.759623,-1628.453072,0.000000
3198.806461,-10436.903782,-2072.576638,-1302.362347
3198.806798,-9918.759623,-2442.679609,-383.047749
3198.807136,-9400.615463,-1480.411884,0.000000
3198.807473,-10732.986159,-1850.514855,1149.143247
3198.807810,-11399.171507,-1110.308913,1072.533697
3198.808148,-11103.089130,-1776.494261,766.095498
3198.808485,-11029.068536,-666.185348,766.095498
3198.808822,-10362.883188,-740.205942,766.095498
3198.809159,-10436.903782,-1184.329507,842.705048
3198.809497,-10436.903782,-888.247130,229.828649
3198.809834,-9770.718434,-1184.329507,153.219100
3198.810171,-9548.656652,-1628.453072,459.657299
3198.810508,-10362.883188,-1406.391290,919.314598
3198.810846,-10288.862594,-666.185348,1685.410096
3198.811183,-11177.109724,0.000000,612.876398
3198.811520,-10436.903782,74.020594,-536.266849
3198.811858,-9696.697840,518.144159,-1685.410096
3198.812195,-9622.677246,0.000000,-1378.971896
3198.812532,-9326.594869,-518.144159,-1685.410096
3198.812869,-9474.636058,-1480.411884,-1072.533697
3198.813207,-9104.533087,-666.185348,306.438199
3198.813544,-9104.533087,-1184.329507,1149.143247
3198.813881,-9918.759623,74.020594,1532.190996
3198.814219,-10140.821405,0.000000,1072.533697
3198.814556,-10658.965565,740.205942,1149.143247
3198.814893,-10510.924376,2294.638420,1302.362347
3198.815230,-9400.615463,1628.453072,1608.800546
3198.815568,-9622.677246,1332.370696,2911.162892
3198.815905,-9622.677246,592.164754,2145.067394
3198.816242,-10140.821405,1184.329507,2451.505594
3198.816579,-10807.006753,1480.411884,1608.800546
3198.816917,-10881.027347,666.185348,-459.657299
3198.817254,-9918.759623,962.267725,-1072.533697
3198.817591,-9400.615463,-148.041188,-1762.019645
3198.817929,-8438.347739,0.000000,-1378.971896
3198.818266,-8882.471304,-740.205942,-1608.800546
3198.818603,-10362.883188,148.041188,-766.095498
3198.818940,-10658.965565,-296.082377,-1225.752797
3198.819278,-10658.965565,-592.164754,-995.924147
3198.819615,-10807.006753,-1184.329507,-612.876398
3198.819952,-10288.862594,-1628.453072,-995.924147
3198.820289,-9696.697840,-1850.514855,-842.705048
3198.820627,-9548.656652,-2146.597232,-383.047749
3198.820964,-9770.718434,-2886.803174,842.705048
3198.821301,-10362.883188,-2072.576638,1302.362347
3198.821639,-11399.171507,-1998.556043,2145.067394
3198.821976,-11991.336260,-296.082377,1762.019645
3198.822313,-11399.171507,-74.020594,689.485948
3198.822650,-10658.965565,1036.288319,76.609550
3198.822988,-9030.512492,962.267725,-536.266849
3198.823325,-9622.677246,740.205942,766.095498
3198.823662,-10510.924376,74.020594,919.314598
3198.823999,-10066.800811,296.082377,383.047749
3198.824337,-9844.739029,1036.288319,612.876398
3198.824674,-10362.883188,0.000000,153.219100
3198.825011,-9992.780217,1036.288319,229.828649
3198.825349,-9696.697840,518.144159,229.828649
3198.825686,-9326.594869,1110.308913,0.000000
3198.826023,-9104.533087,1332.370696,-995.924147
3198.826360,-9918.759623,-74.020594,-459.657299
3198.826698,-9770.718434,-592.164754,1225.752797
3198.827035,-9474.636058,-1480.411884,1838.629195
3198.827372,-9770.718434,-222.061783,2681.334243
3198.827709,-10066.800811,-296.082377,1225.752797
3198.828047,-10214.842000,0.000000,0.000000
3198.828384,-9992.780217,-1036.288319,-459.657299
3198.828721,-9548.656652,-1332.370696,229.828649
3198.829059,-9548.656652,-148.041188,1149.143247
3198.829396,-10510.924376,-296.082377,995.924147
3198.829733,-10362.883188,-592.164754,459.657299
3198.830070,-10140.821405,-444.123565,229.828649
3198.830408,-10510.924376,0.000000,536.266849
3198.830745,-10436.903782,0.000000,153.219100
3198.831082,-10510.924376,-592.164754,-383.047749
3198.831420,-10288.862594,-740.205942,0.000000
3198.831757,-9622.677246,-1480.411884,-383.047749
3198.832094,-9844.739029,-1924.535449,383.047749
3198.832431,-10510.924376,-1628.453072,766.095498
3198.832769,-11399.171507,-1258.350101,0.000000
3198.833106,-10807.006753,-370.102971,-1608.800546
3198.833443,-10658.965565,-1184.329507,-2145.067394
3198.833780,-9400.615463,-1036.288319,-2451.505594
3198.834118,-9178.553681,-1850.514855,-1532.190996
3198.834455,-9548.656652,-1702.473667,0.000000
3198.834792,-9474.636058,-1258.350101,-536.266849
3198.835130,-9696.697840,-962.267725,766.095498
3198.835467,-10510.924376,-666.185348,1838.629195
3198.835804,-10584.944971,-222.061783,1762.019645
3198.836141,-11103.089130,1406.391290,1838.629195
3198.836479,-10362.883188,1184.329507,1072.533697
3198.836816,-9474.636058,2146.597232,1378.971896
3198.837153,-9104.533087,1480.411884,1685.410096
3198.837490,-9548.656652,1258.350101,2374.896044
3198.837828,-9918.759623,1258.350101,2451.505594
3198.838165,-10066.800811,1702.473667,2298.286494
3198.838502,-9696.697840,1998.556043,842.705048
3198.838840,-9474.636058,1258.350101,-842.705048
3198.839177,-9030.512492,1554.432478,-1378.971896
3198.839514,-9326.594869,296.082377,-536.266849
3198.839851,-8808.450710,666.185348,-919.314598
3198.840189,-9400.615463,518.144159,-1149.143247
3198.840526,-10510.924376,0.000000,-1838.629195
3198.840863,-10140.821405,-740.205942,-919.314598
3198.841200,-9918.759623,-1480.411884,229.828649
3198.841538,-9770.718434,-1480.411884,153.219100
3198.841875,-9770.718434,-1036.288319,-689.485948
3198.842212,-10066.800811,-2146.597232,-536.266849
3198.842550,-10288.862594,-1998.556043,459.657299
3198.842887,-10288.862594,-2664.741391,1685.410096
3198.843224,-10881.027347,-1258.350101,2834.553343
3198.843562,-11103.089130,-1332.370696,1991.848295
3198.843899,-11843.295072,74.020594,1378.971896
3198.844237,-10955.047942,0.000000,-153.219100
3198.844574,-10140.821405,0.000000,-919.314598
3198.844911,-9548.656652,74.020594,-612.876398
3198.845249,-10066.800811,-1332.370696,-766.095498
3198.845586,-9622.677246,-814.226536,0.000000
3198.845924,-9252.574275,-1258.350101,-459.657299
3198.846261,-9252.574275,-444.123565,612.876398
3198.846598,-10436.903782,-370.102971,-459.657299
3198.846936,-10807.006753,-666.185348,-383.047749
3198.847273,-9992.780217,592.164754,-459.657299
3198.847611,-9474.636058,0.000000,-76.609550
3198.847948,-9400.615463,74.020594,153.219100
3198.848285,-9770.718434,-1110.308913,1838.629195
3198.848623,-10140.821405,-814.226536,2681.334243
3198.848960,-9622.677246,0.000000,2298.286494
3198.849298,-10362.883188,296.082377,1685.410096
3198.849635,-10658.965565,148.041188,1149.143247
3198.849972,-9918.759623,666.185348,383.047749
3198.850310,-9400.615463,592.164754,995.924147
3198.850647,-9474.636058,1776.494261,689.485948
3198.850985,-10140.821405,1776.494261,1225.752797
3198.851322,-10584.944971,1924.535449,766.095498
3198.851659,-9992.780217,1628.453072,0.000000
3198.851997,-10807.006753,1554.432478,919.314598
3198.852334,-10436.903782,888.247130,0.000000
3198.852672,-9696.697840,592.164754,-919.314598
3198.853009,-9474.636058,-222.061783,-1149.143247
3198.853346,-9104.533087,-1332.370696,-1225.752797
3198.853684,-8808.450710,-1850.514855,76.609550
3198.854021,-9918.759623,-2294.638420,995.924147
3198.854359,-10362.883188,-1184.329507,383.047749
3198.854696,-11399.171507,-1776.494261,-919.314598
3198.855033,-11177.109724,-1110.308913,-1762.019645
3198.855371,-9696.697840,-1776.494261,-2145.067394
3198.855708,-9622.677246,-1998.556043,-1149.143247
3198.856046,-9104.533087,-2516.700203,-1149.143247
3198.856383,-9548.656652,-3108.864956,-383.047749
3198.856720,-10362.883188,-2886.803174,766.095498
3198.857058,-10510.924376,-2368.659014,1915.238745
3198.857395,-10436.903782,-1036.288319,1225.752797
3198.857733,-11843.295072,-888.247130,1225.752797
3198.858070,-11399.171507,444.123565,1225.752797
3198.858407,-10214.842000,296.082377,1072.533697
3198.858745,-9474.636058,962.267725,2221.676944
3198.859082,-9474.636058,444.123565,1762.019645
3198.859419,-10510.924376,222.061783,1915.238745
3198.859757,-10881.027347,1110.308913,1838.629195
3198.860094,-10362.883188,1110.308913,766.095498
3198.860432,-10362.883188,888.247130,-766.095498
3198.860769,-9400.615463,888.247130,-1302.362347
3198.861106,-8956.491898,0.000000,-1302.362347
3198.861444,-8068.244768,0.000000,-919.314598
3198.861781,-8586.388927,296.082377,-995.924147
3198.862119,-10140.821405,444.123565,0.000000
3198.862456,-10288.862594,592.164754,-306.438199
3198.862793,-9474.636058,222.061783,229.828649
3198.863131,-9918.759623,444.123565,536.266849
3198.863468,-9474.636058,518.144159,612.876398
3198.863806,-10066.800811,222.061783,612.876398
3198.864143,-9918.759623,-1110.308913,689.485948
3198.864480,-9178.553681,-666.185348,1532.190996
3198.864818,-9992.780217,-592.164754,2451.505594
3198.865155,-11251.130318,-222.061783,2374.896044
3198.865493,-10955.047942,148.041188,1532.190996
3198.865830,-11251.130318,74.020594,383.047749
3198.866167,-10066.800811,1258.350101,-1225.752797
3198.866505,-9918.759623,666.185348,-1225.752797
3198.866842,-10436.903782,-666.185348,-459.657299
3198.867180,-9400.615463,-1184.329507,-1072.533697
3198.867517,-9474.636058,-1702.473667,-306.438199
3198.867854,-9548.656652,-1850.514855,-383.047749
3198.868192,-10140.821405,-1924.535449,-306.438199
3198.868529,-10584.944971,-1924.535449,-689.485948
3198.868867,-10436.903782,-1702.473667,-612.876398
3198.869204,-10066.800811,-1406.391290,-689.485948
3198.869541,-9548.656652,-1406.391290,306.438199
3198.869879,-9696.697840,-1184.329507,1149.143247
3198.870216,-9622.677246,-2220.617826,1455.581446
3198.870554,-10140.821405,-1258.350101,1838.629195
3198.870891,-10732.986159,-1332.370696,2911.162892
3198.871228,-11029.068536,0.000000,2451.505594
3198.871566,-10436.903782,518.144159,612.876398
3198.871903,-10362.883188,370.102971,-229.828649
3198.872241,-9326.594869,1036.288319,153.219100
3198.872578,-9548.656652,1258.350101,612.876398
3198.872915,-9622.677246,1702.473667,842.705048
3198.873253,-9770.718434,2072.576638,-383.047749
3198.873590,-10584.944971,1850.514855,-383.047749
3198.873928,-10436.903782,2368.659014,0.000000
3198.874265,-9474.636058,1480.411884,-766.095498
3198.874602,-9474.636058,1258.350101,-1072.533697
3198.874940,-9178.553681,666.185348,-995.924147
3198.875277,-9030.512492,296.082377,0.000000
3198.875615,-9844.739029,-814.226536,536.266849
3198.875952,-10214.842000,-1332.370696,0.000000
3198.876289,-10584.944971,-740.205942,0.000000
3198.876627,-11103.089130,0.000000,-919.314598
3198.876964,-9992.780217,-518.144159,-1302.362347
3198.877301,-8882.471304,-740.205942,-1762.019645
3198.877639,-9400.615463,-1184.329507,-919.314598
3198.877976,-10066.800811,-2146.597232,0.000000
3198.878314,-10510.924376,-1924.535449,1149.143247
3198.878651,-9918.759623,-1924.535449,1991.848295
3198.878988,-10362.883188,-1184.329507,2145.067394
3198.879326,-11029.068536,-666.185348,1762.019645
3198.879663,-11177.109724,-740.205942,1225.752797
3198.880001,-10584.944971,-370.102971,1225.752797
3198.880338,-10066.800811,222.061783,1149.143247
3198.880675,-10214.842000,0.000000,1455.581446
3198.881013,-10214.842000,-1184.329507,1149.143247
3198.881350,-9770.718434,-2072.576638,1915.238745
3198.881688,-9992.780217,-962.267725,2068.457845
3198.882025,-10362.883188,-74.020594,459.657299
3198.882362,-10510.924376,-74.020594,-842.705048
3198.882700,-9992.780217,-814.226536,-2068.457845
3198.883037,-9252.574275,-1406.391290,-1302.362347
3198.883375,-9104.533087,-444.123565,-153.219100
3198.883712,-10066.800811,-222.061783,383.047749
3198.884049,-9696.697840,0.000000,-612.876398
3198.884387,-10066.800811,296.082377,76.609550
3198.884724,-9992.780217,296.082377,766.095498
3198.885062,-9844.739029,444.123565,612.876398
3198.885399,-10362.883188,740.205942,766.095498
3198.885736,-9696.697840,370.102971,919.314598
3198.886074,-9030.512492,444.123565,1302.362347
3198.886411,-9178.553681,518.144159,2068.457845
3198.886749,-10140.821405,592.164754,2374.896044
3198.887086,-10807.006753,1480.411884,2068.457845
3198.887423,-11843.295072,2220.617826,383.047749
3198.887761,-11399.171507,1480.411884,-1838.629195
3198.888098,-8734.430116,1998.556043,-3600.648841
3198.888436,-8660.409521,74.020594,-2681.334243
3198.888773,-8956.491898,-1628.453072,-1225.752797
3198.889110,-8364.327145,-1480.411884,-1378.971896
3198.889448,-9178.553681,-1258.350101,-689.485948
3198.889785,-10214.842000,-2220.617826,0.000000
3198.890123,-10658.965565,-2294.638420,-153.219100
3198.890460,-11695.253884,-1998.556043,76.609550
3198.890797,-10436.903782,-1184.329507,0.000000
3198.891135,-10140.821405,-1554.432478,306.438199
3198.891472,-10140.821405,-1850.514855,1225.752797
3198.891810,-10066.800811,-2368.659014,1915.238745
3198.892147,-10955.047942,-2368.659014,2604.724693
3198.892484,-11547.212695,-1924.535449,3294.210641
3198.892822,-10658.965565,-1036.288319,2068.457845
3198.893159,-11029.068536,-444.123565,1149.143247
3198.893496,-9992.780217,0.000000,0.000000
3198.893834,-9400.615463,148.041188,153.219100
3198.894171,-9696.697840,444.123565,995.924147
3198.894509,-10584.944971,962.267725,1225.752797
3198.894846,-10140.821405,1184.329507,153.219100
3198.895183,-10214.842000,1628.453072,-306.438199
3198.895521,-10288.862594,1110.308913,459.657299
3198.895858,-9474.636058,740.205942,0.000000
3198.896196,-9104.533087,1184.329507,-612.876398
3198.896533,-9252.574275,740.205942,-1302.362347
3198.896870,-8956.491898,-296.082377,-766.095498
3198.897208,-9400.615463,-740.205942,0.000000
3198.897545,-9252.574275,-1036.288319,1762.019645
3198.897883,-10140.821405,0.000000,1455.581446
3198.898220,-11177.109724,1110.308913,842.705048
3198.898557,-11251.130318,1850.514855,-612.876398
3198.898895,-10066.800811,1332.370696,-1378.971896
3198.899232,-9548.656652,296.082377,-995.924147
3198.899570,-9844.739029,74.020594,536.266849
3198.899907,-9844.739029,-444.123565,229.828649
3198.900244,-9178.553681,-1480.411884,919.314598
3198.900582,-9326.594869,-444.123565,1225.752797
3198.900919,-10288.862594,-1036.288319,1302.362347
3198.901257,-11103.089130,-370.102971,766.095498
3198.901594,-10658.965565,74.020594,-383.047749
3198.901931,-9992.780217,666.185348,-229.828649
3198.902269,-10362.883188,0.000000,0.000000
3198.902606,-10066.800811,-1184.329507,229.828649
3198.902944,-9770.718434,-2664.741391,1455.581446
3198.903281,-9918.759623,-2294.638420,1302.362347
3198.903618,-9918.759623,-2220.617826,383.047749
3198.903956,-10955.047942,-1702.473667,-1149.143247
3198.904293,-10732.986159,-2664.741391,-1685.410096
3198.904631,-9548.656652,-2516.700203,-2221.676944
3198.904968,-9104.533087,-1924.535449,-766.095498
3198.905305,-9548.656652,-1332.370696,153.219100
3198.905643,-10214.842000,-1184.329507,0.000000
3198.905980,-10658.965565,-592.164754,919.314598
3198.906318,-10658.965565,-148.041188,1455.581446
3198.906655,-10658.965565,444.123565,2145.067394
3198.906992,-10807.006753,1036.288319,1762.019645
3198.907330,-10436.903782,592.164754,1149.143247
3198.907667,-9326.594869,888.247130,919.314598
3198.908005,-9622.677246,888.247130,1762.019645
3198.908342,-9622.677246,814.226536,2374.896044
3198.908679,-10140.821405,1850.514855,2145.067394
3198.909017,-10732.986159,2368.659014,689.485948
3198.909354,-10955.047942,2442.679609,-1225.752797
3198.909691,-9474.636058,2664.741391,-2298.286494
3198.910029,-8660.409521,2294.638420,-2604.724693
3198.910366,-9178.553681,444.123565,-1991.848295
3198.910704,-9030.512492,370.102971,-1378.971896
3198.911041,-8956.491898,-888.247130,-919.314598
3198.911378,-9104.533087,-1702.473667,766.095498
3198.911716,-9400.615463,-1924.535449,536.266849
3198.912053,-10214.842000,-1480.411884,612.876398
3198.912391,-10732.986159,-518.144159,536.266849
3198.912728,-9918.759623,-296.082377,-153.219100
3198.913065,-9918.759623,-962.267725,842.705048
3198.913403,-10066.800811,-1184.329507,1455.581446
3198.913740,-10214.842000,-1406.391290,2834.553343
3198.914078,-11029.068536,-1850.514855,2987.772442
3198.914415,-10955.047942,-814.226536,1838.629195
3198.914752,-10807.006753,-962.267725,842.705048
3198.915090,-10584.944971,-888.247130,0.000000
3198.915427,-9918.759623,-1554.432478,-459.657299
3198.915765,-9548.656652,-1406.391290,-612.876398
3198.916102,-10362.883188,-592.164754,153.219100
3198.916439,-10436.903782,222.061783,-1378.971896
3198.916777,-10362.883188,-148.041188,-1532.190996
3198.917114,-10436.903782,-74.020594,-459.657299
3198.917452,-9770.718434,-740.205942,-995.924147
3198.917789,-10288.862594,0.000000,-306.438199
3198.918126,-9918.759623,-296.082377,-1762.019645
3198.918464,-9548.656652,-1406.391290,-1225.752797
3198.918801,-9474.636058,-1850.514855,229.828649
3198.919139,-9474.636058,-1628.453072,1915.238745
3198.919476,-10288.862594,-592.164754,2911.162892
3198.919813,-10881.027347,-148.041188,1302.362347
3198.920151,-10955.047942,296.082377,612.876398
3198.920488,-10436.903782,1628.453072,-306.438199
3198.920826,-9252.574275,2072.576638,-306.438199
3198.921163,-9474.636058,962.267725,383.047749
3198.921500,-9326.594869,740.205942,536.266849
3198.921838,-8512.368333,888.247130,1302.362347
3198.922175,-9548.656652,296.082377,1991.848295
3198.922513,-9622.677246,740.205942,1225.752797
3198.922850,-11103.089130,592.164754,1532.190996
3198.923187,-11473.192101,814.226536,689.485948
3198.923525,-9474.636058,1332.370696,-919.314598
3198.923862,-9326.594869,1184.329507,-766.095498
3198.924200,-9474.636058,-370.102971,0.000000
3198.924537,-9474.636058,-1184.329507,229.828649
3198.924874,-9770.718434,-1702.473667,1225.752797
3198.925212,-10214.842000,-1998.556043,229.828649
3198.925549,-10584.944971,-1702.473667,612.876398
3198.925887,-11103.089130,-2146.597232,0.000000
3198.926224,-9770.718434,-2442.679609,-1685.410096
3198.926561,-9326.594869,-2220.617826,-153.219100
3198.926899,-9844.739029,-2294.638420,0.000000
3198.927236,-10288.862594,-1850.514855,0.000000
3198.927573,-10807.006753,-1998.556043,306.438199
3198.927911,-10510.924376,-1036.288319,612.876398
3198.928248,-10362.883188,-962.267725,919.314598
3198.928586,-9770.718434,0.000000,842.705048
3198.928923,-9844.739029,222.061783,383.047749
3198.929260,-10066.800811,0.000000,612.876398
3198.929598,-9252.574275,-222.061783,383.047749
3198.929935,-10066.800811,0.000000,1302.362347
3198.930273,-10436.903782,0.000000,1762.019645
3198.930610,-10807.006753,1480.411884,1149.143247
3198.930947,-11177.109724,1184.329507,-306.438199
3198.931285,-9770.718434,2368.659014,-2068.457845
3198.931622,-9030.512492,1184.329507,-3064.381992
3198.931960,-9400.615463,518.144159,-2221.676944
3198.932297,-8882.471304,0.000000,-2298.286494
3198.932634,-8660.409521,-370.102971,-306.438199
3198.932972,-9104.533087,-592.164754,612.876398
3198.933309,-9178.553681,-370.102971,995.924147
3198.933647,-10510.924376,296.082377,1608.800546
3198.933984,-11029.068536,592.164754,1378.971896
3198.934321,-10436.903782,1110.308913,919.314598
3198.934659,-10510.924376,444.123565,1532.190996
3198.934996,-9844.739029,592.164754,1838.629195
3198.935334,-9918.759623,222.061783,2681.334243
3198.935671,-10362.883188,-1110.308913,2834.553343
3198.936008,-10140.821405,-444.123565,2834.553343
3198.936346,-10066.800811,-444.123565,1608.800546
3198.936683,-10584.944971,-222.061783,612.876398
3198.937021,-10140.821405,-1036.288319,-919.314598
3198.937358,-9474.636058,-814.226536,-612.876398
3198.937695,-9844.739029,-666.185348,0.000000
3198.938033,-9770.718434,-370.102971,-536.266849
3198.938370,-10584.944971,-740.205942,-459.657299
3198.938708,-11029.068536,-1110.308913,-383.047749
3198.939045,-9844.739029,-1628.453072,-612.876398
3198.939382,-10140.821405,-1628.453072,-229.828649
3198.939720,-10584.944971,-1110.308913,-229.828649
3198.940057,-10214.842000,-2294.638420,-1149.143247
3198.940395,-9548.656652,-2664.741391,-306.438199
3198.940732,-9622.677246,-1998.556043,766.095498
3198.941069,-10288.862594,-2368.659014,2451.505594
3198.941407,-11103.089130,-1406.391290,2681.334243
3198.941744,-11325.150913,0.000000,1685.410096
3198.942082,-11029.068536,888.247130,766.095498
3198.942419,-10140.821405,2072.576638,-536.266849
3198.942756,-9992.780217,1110.308913,-306.438199
3198.943094,-9622.677246,1184.329507,0.000000
3198.943431,-9104.533087,444.123565,0.000000
3198.943768,-8734.430116,888.247130,919.314598
3198.944106,-9030.512492,1036.288319,306.438199
3198.944443,-9918.759623,1332.370696,536.266849
3198.944780,-10732.986159,666.185348,-306.438199
3198.945118,-9770.718434,1480.411884,-153.219100
