#time,accel_x,accel_y,accel_z
3444.553238,-10436.903782,222.061783,1225.752797
3444.553575,-10140.821405,0.000000,689.485948
3444.553913,-11029.068536,222.061783,1149.143247
3444.554250,-10362.883188,592.164754,459.657299
3444.554588,-9622.677246,1258.350101,0.000000
3444.554925,-9622.677246,-74.020594,153.219100
3444.555263,-9696.697840,370.102971,536.266849
3444.555600,-9326.594869,-296.082377,0.000000
3444.555938,-8956.491898,518.144159,-76.609550
3444.556275,-8882.471304,148.041188,-383.047749
3444.556613,-10436.903782,-518.144159,0.000000
3444.556950,-9104.533087,-814.226536,-995.924147
3444.557288,-9474.636058,-1554.432478,0.000000
3444.557626,-8882.471304,-592.164754,689.485948
3444.557963,-9400.615463,-1258.350101,153.219100
3444.558301,-10140.821405,-1998.556043,1149.143247
3444.558638,-9770.718434,-1628.453072,1455.581446
3444.558976,-10288.862594,148.041188,2298.286494
3444.559313,-10214.842000,-370.102971,1072.533697
3444.559651,-10436.903782,-148.041188,1608.800546
3444.559988,-11251.130318,-444.123565,2221.676944
3444.560326,-10955.047942,222.061783,1149.143247
3444.560663,-10140.821405,296.082377,1455.581446
3444.561001,-10732.986159,0.000000,1532.190996
3444.561339,-10732.986159,-1110.308913,612.876398
3444.561676,-11177.109724,-888.247130,153.219100
3444.562014,-9992.780217,-1258.350101,536.266849
3444.562351,-9030.512492,-2146.597232,919.314598
3444.562689,-9252.574275,-1628.453072,842.705048
3444.563026,-10436.903782,-1850.514855,536.266849
3444.563364,-10658.965565,-2812.782580,689.485948
3444.563701,-9178.553681,-2886.803174,1302.362347
3444.564039,-9474.636058,-3034.844362,3064.381992
3444.564376,-9992.780217,-3108.864956,3753.867940
3444.564714,-10436.903782,-3256.906145,3677.258390
3444.565051,-11103.089130,-3701.029710,3370.820191
3444.565389,-9918.759623,-2442.679609,3294.210641
3444.565727,-9622.677246,-2664.741391,3830.477490
3444.566064,-10436.903782,-2516.700203,3830.477490
3444.566402,-9400.615463,-1776.494261,1838.629195
3444.566739,-9992.780217,-2442.679609,2757.943793
3444.567077,-9918.759623,-1776.494261,3600.648841
3444.567414,-8586.388927,-1258.350101,3294.210641
3444.567752,-10362.883188,0.000000,4749.792088
3444.568089,-10658.965565,-148.041188,3140.991542
3444.568427,-11029.068536,148.041188,2604.724693
3444.568764,-10881.027347,-370.102971,2987.772442
3444.569102,-10510.924376,-1184.329507,3600.648841
3444.569439,-9770.718434,-962.267725,2987.772442
3444.569777,-9474.636058,-1406.391290,1608.800546
3444.570115,-10066.800811,-888.247130,842.705048
3444.570452,-10066.800811,-2146.597232,-306.438199
3444.570790,-9178.553681,-3923.091493,153.219100
3444.571127,-7994.224174,-4737.318029,2068.457845
3444.571465,-8438.347739,-4663.297435,3064.381992
3444.571802,-10288.862594,-3627.009116,3447.429741
3444.572140,-10881.027347,-3034.844362,1991.848295
3444.572477,-9992.780217,-2368.659014,1302.362347
3444.572815,-10436.903782,-2368.659014,1225.752797
3444.573152,-10584.944971,-3627.009116,1762.019645
3444.573490,-9918.759623,-3775.050304,2451.505594
3444.573827,-9918.759623,-3997.112087,2374.896044
3444.574165,-9770.718434,-3849.070898,2834.553343
3444.574503,-10510.924376,-3330.926739,1762.019645
3444.574840,-10140.821405,-3330.926739,2528.115143
3444.575178,-9474.636058,-3701.029710,3600.648841
3444.575515,-10066.800811,-2516.700203,4826.401637
3444.575853,-11917.315666,-592.164754,3600.648841
3444.576190,-11399.171507,0.000000,1149.143247
3444.576528,-10881.027347,0.000000,-383.047749
3444.576865,-11103.089130,-1998.556043,383.047749
3444.577203,-10510.924376,-3330.926739,766.095498
3444.577540,-8216.285956,-3330.926739,536.266849
3444.577878,-7772.162391,-3034.844362,1838.629195
3444.578215,-8956.491898,-3552.988522,1915.238745
3444.578553,-10807.006753,-4737.318029,2681.334243
3444.578891,-10732.986159,-2368.659014,3294.210641
3444.579228,-9770.718434,0.000000,2451.505594
3444.579566,-10510.924376,1406.391290,2451.505594
3444.579903,-11399.171507,296.082377,2221.676944
3444.580241,-10140.821405,-1258.350101,1455.581446
3444.580578,-8956.491898,-1850.514855,3447.429741
3444.580916,-8660.409521,-2664.741391,6894.859482
3444.581253,-11177.109724,-1850.514855,7890.783629
3444.581591,-11769.274478,-1850.514855,4903.011187
3444.581928,-9178.553681,-148.041188,1915.238745
3444.582266,-8364.327145,0.000000,2604.724693
3444.582604,-10214.842000,518.144159,2757.943793
3444.582941,-10881.027347,666.185348,1838.629195
3444.583279,-9326.594869,888.247130,919.314598
3444.583616,-11325.150913,222.061783,919.314598
3444.583954,-11325.150913,-2072.576638,1225.752797
3444.584291,-9622.677246,-2442.679609,919.314598
3444.584629,-8438.347739,-3552.988522,1455.581446
3444.584966,-8216.285956,-6069.688724,2298.286494
3444.585304,-8216.285956,-5033.400406,2987.772442
3444.585641,-9844.739029,-5107.421000,4903.011187
3444.585979,-11695.253884,-3627.009116,4213.525239
3444.586316,-11917.315666,-2146.597232,383.047749
3444.586654,-12065.356855,-2146.597232,766.095498
3444.586992,-10140.821405,-3108.864956,536.266849
3444.587329,-9548.656652,-5107.421000,2834.553343
3444.587667,-9548.656652,-3849.070898,3370.820191
3444.588004,-8364.327145,-3849.070898,1225.752797
3444.588342,-10510.924376,-3923.091493,2145.067394
3444.588679,-11473.192101,-3997.112087,2451.505594
3444.589017,-9770.718434,-4293.194464,4366.744339
3444.589354,-9474.636058,-3330.926739,5286.058936
3444.589692,-9770.718434,-888.247130,4826.401637
3444.590029,-12065.356855,1628.453072,2298.286494
3444.590367,-12435.459826,370.102971,-383.047749
3444.590704,-11103.089130,-1702.473667,459.657299
3444.591042,-10510.924376,-2368.659014,1685.410096
3444.591380,-8438.347739,-1036.288319,1838.629195
3444.591717,-8882.471304,-1998.556043,919.314598
3444.592055,-8512.368333,-4145.153275,76.609550
3444.592392,-8586.388927,-5625.565159,2221.676944
3444.592730,-9252.574275,-3256.906145,3600.648841
3444.593067,-8216.285956,-222.061783,2068.457845
3444.593405,-10436.903782,0.000000,459.657299
3444.593742,-12731.542202,-222.061783,-459.657299
3444.594080,-10732.986159,-2664.741391,689.485948
3444.594417,-9474.636058,-1776.494261,4366.744339
3444.594755,-7402.059420,-1628.453072,5669.106685
3444.595092,-9918.759623,-3404.947333,5898.935335
3444.595430,-11769.274478,-3552.988522,5056.230287
3444.595768,-9696.697840,-3478.967927,3677.258390
3444.596105,-8068.244768,-2146.597232,5286.058936
3444.596443,-10436.903782,-814.226536,4903.011187
3444.596780,-13175.665768,-1702.473667,2221.676944
3444.597118,-11695.253884,444.123565,-1915.238745
3444.597455,-8660.409521,-666.185348,-766.095498
3444.597793,-10214.842000,-1850.514855,2681.334243
3444.598130,-11251.130318,-3775.050304,2604.724693
3444.598468,-11251.130318,-3775.050304,306.438199
3444.598805,-8142.265362,-3775.050304,766.095498
3444.599143,-8142.265362,-4885.359217,2298.286494
3444.599480,-10362.883188,-5699.585753,4136.915689
3444.599818,-9918.759623,-5329.482782,1378.971896
3444.600156,-8882.471304,-2960.823768,2451.505594
3444.600493,-11917.315666,-2294.638420,3830.477490
3444.600831,-13101.645173,-2738.761985,2757.943793
3444.601168,-11843.295072,-1924.535449,919.314598
3444.601506,-9104.533087,-1850.514855,2298.286494
3444.601843,-9400.615463,-1776.494261,2451.505594
3444.602181,-11399.171507,-3627.009116,2987.772442
3444.602518,-7846.182985,-2516.700203,3677.258390
3444.602856,-6661.853478,-2442.679609,5439.278036
3444.603193,-10955.047942,-2072.576638,6052.154434
3444.603531,-12213.398043,-148.041188,3217.601092
3444.603869,-10066.800811,1110.308913,1532.190996
3444.604206,-10214.842000,0.000000,3907.087040
3444.604544,-10140.821405,74.020594,1838.629195
3444.604881,-9474.636058,1184.329507,1762.019645
3444.605219,-10658.965565,1406.391290,2374.896044
3444.605556,-10140.821405,-444.123565,1762.019645
3444.605894,-10288.862594,-1998.556043,-306.438199
3444.606231,-8364.327145,-2368.659014,1225.752797
3444.606569,-7254.018232,-3849.070898,3370.820191
3444.606906,-8364.327145,-4663.297435,3064.381992
3444.607244,-9844.739029,-3330.926739,2681.334243
3444.607581,-10214.842000,-2886.803174,2068.457845
3444.607919,-11103.089130,-2146.597232,2757.943793
3444.608257,-11547.212695,-1850.514855,2757.943793
3444.608594,-12731.542202,-2072.576638,1685.410096
3444.608932,-10140.821405,-2664.741391,2298.286494
3444.609269,-8438.347739,-4293.194464,3140.991542
3444.609607,-8512.368333,-3775.050304,4596.572988
3444.609944,-9326.594869,-4515.256246,2681.334243
3444.610282,-10584.944971,-4219.173869,2145.067394
3444.610620,-10362.883188,-4145.153275,1149.143247
3444.610957,-9992.780217,-4219.173869,3140.991542
3444.611295,-10436.903782,-2294.638420,3677.258390
3444.611632,-9992.780217,-1332.370696,919.314598
3444.611970,-10288.862594,-666.185348,306.438199
3444.612308,-11843.295072,-3108.864956,76.609550
3444.612645,-11029.068536,-4071.132681,612.876398
3444.612983,-10066.800811,-4145.153275,1991.848295
3444.613320,-9326.594869,-3627.009116,2298.286494
3444.613658,-8956.491898,-4219.173869,536.266849
3444.613995,-10510.924376,-3182.885551,153.219100
3444.614333,-9030.512492,-2294.638420,-536.266849
3444.614671,-9252.574275,-3775.050304,2221.676944
3444.615008,-10214.842000,-3034.844362,4136.915689
3444.615346,-10584.944971,-370.102971,3600.648841
3444.615683,-11917.315666,222.061783,3140.991542
3444.616021,-10066.800811,370.102971,2298.286494
3444.616359,-10807.006753,-1776.494261,3907.087040
3444.616696,-10881.027347,-1184.329507,5822.325785
3444.617034,-8216.285956,-74.020594,4826.401637
3444.617371,-8734.430116,222.061783,5209.449386
3444.617709,-10140.821405,-1110.308913,3064.381992
3444.618047,-9474.636058,-1184.329507,1378.971896
3444.618384,-10140.821405,370.102971,2298.286494
3444.618722,-7846.182985,1628.453072,995.924147
3444.619059,-10658.965565,1776.494261,995.924147
3444.619397,-11843.295072,1184.329507,-919.314598
3444.619735,-8364.327145,0.000000,-1838.629195
3444.620072,-10658.965565,-2812.782580,1149.143247
3444.620410,-10288.862594,-3108.864956,1378.971896
3444.620747,-8586.388927,-4367.215058,1302.362347
3444.621085,-9548.656652,-3849.070898,2604.724693
3444.621422,-8364.327145,-3478.967927,3140.991542
3444.621760,-10955.047942,-4367.215058,3447.429741
3444.622098,-12213.398043,-2072.576638,2374.896044
3444.622435,-10658.965565,-1850.514855,76.609550
3444.622773,-12583.501014,-1406.391290,1072.533697
3444.623110,-12139.377449,-3034.844362,1149.143247
3444.623448,-10436.903782,-4811.338623,1991.848295
3444.623786,-8290.306550,-1924.535449,3370.820191
3444.624123,-7994.224174,-1184.329507,2374.896044
3444.624461,-11547.212695,-1480.411884,689.485948
3444.624798,-11251.130318,-3034.844362,-689.485948
3444.625136,-9992.780217,-3552.988522,842.705048
3444.625474,-9104.533087,-1036.288319,1915.238745
3444.625811,-8586.388927,740.205942,0.000000
3444.626149,-11251.130318,1554.432478,-919.314598
3444.626486,-11843.295072,-962.267725,-2068.457845
3444.626824,-9918.759623,-888.247130,-919.314598
3444.627161,-9178.553681,888.247130,995.924147
3444.627499,-10955.047942,-296.082377,536.266849
3444.627837,-11843.295072,-1110.308913,-1685.410096
3444.628174,-9104.533087,-2146.597232,-3217.601092
3444.628512,-7105.977043,74.020594,-1302.362347
3444.628849,-7179.997637,518.144159,1378.971896
3444.629187,-10584.944971,592.164754,1072.533697
3444.629525,-12953.603985,74.020594,-383.047749
3444.629862,-11177.109724,0.000000,-383.047749
3444.630200,-8882.471304,1998.556043,2145.067394
3444.630537,-9474.636058,1110.308913,3294.210641
3444.630875,-11103.089130,1554.432478,2604.724693
3444.631213,-10955.047942,1702.473667,-689.485948
3444.631550,-9178.553681,1554.432478,-1608.800546
3444.631888,-9400.615463,592.164754,536.266849
3444.632225,-9696.697840,-518.144159,1608.800546
3444.632563,-10288.862594,0.000000,-689.485948
3444.632901,-9770.718434,-740.205942,-2374.896044
3444.633238,-8956.491898,-370.102971,-1302.362347
3444.633576,-8660.409521,-1554.432478,-1149.143247
3444.633913,-8956.491898,-592.164754,-919.314598
3444.634251,-10955.047942,-2664.741391,-306.438199
3444.634588,-11399.171507,-2368.659014,76.609550
3444.634926,-11251.130318,-1110.308913,766.095498
3444.635264,-10807.006753,-296.082377,1072.533697
3444.635601,-10066.800811,-1406.391290,536.266849
3444.635939,-10510.924376,-3775.050304,-536.266849
3444.636276,-10584.944971,-4219.173869,1532.190996
3444.636614,-9474.636058,-2442.679609,2911.162892
3444.636952,-9770.718434,-962.267725,2987.772442
3444.637289,-10732.986159,-1110.308913,2145.067394
3444.637627,-11917.315666,-2368.659014,2451.505594
3444.637964,-11325.150913,1406.391290,2528.115143
3444.638302,-8364.327145,2368.659014,1225.752797
3444.638640,-9474.636058,1184.329507,2145.067394
3444.638977,-12065.356855,-1184.329507,995.924147
3444.639315,-10881.027347,-296.082377,0.000000
3444.639652,-8882.471304,1776.494261,459.657299
3444.639990,-8216.285956,962.267725,2145.067394
3444.640328,-9992.780217,296.082377,1532.190996
3444.640665,-10881.027347,-222.061783,-306.438199
3444.641003,-9030.512492,1628.453072,-995.924147
3444.641340,-9844.739029,1480.411884,-536.266849
3444.641678,-11991.336260,1184.329507,-1378.971896
3444.642015,-10881.027347,-592.164754,-2451.505594
3444.642353,-9030.512492,-814.226536,-229.828649
3444.642691,-6809.894666,1036.288319,229.828649
3444.643028,-8068.244768,222.061783,0.000000
3444.643366,-11399.171507,-296.082377,-1072.533697
3444.643703,-10288.862594,-2664.741391,-2221.676944
3444.644041,-11103.089130,-1850.514855,-76.609550
3444.644379,-9178.553681,-888.247130,0.000000
3444.644716,-8438.347739,814.226536,612.876398
3444.645054,-9474.636058,0.000000,0.000000
3444.645391,-9844.739029,-1702.473667,-1762.019645
3444.645729,-11325.150913,-1480.411884,-153.219100
3444.646067,-10807.006753,-962.267725,2298.286494
3444.646404,-11029.068536,0.000000,919.314598
3444.646742,-10510.924376,-1776.494261,-306.438199
3444.647079,-10436.903782,-2146.597232,-2681.334243
3444.647417,-9400.615463,-518.144159,-1149.143247
3444.647755,-9474.636058,-1036.288319,383.047749
3444.648092,-10140.821405,-1554.432478,-1838.629195
3444.648430,-11325.150913,-2368.659014,-3217.601092
3444.648767,-10881.027347,-2220.617826,-2068.457845
3444.649105,-9252.574275,-888.247130,0.000000
3444.649442,-9400.615463,-148.041188,1225.752797
3444.649780,-9918.759623,-814.226536,306.438199
3444.650118,-12065.356855,-1998.556043,1072.533697
3444.650455,-11325.150913,-370.102971,1532.190996
3444.650793,-9326.594869,814.226536,2681.334243
3444.651130,-9918.759623,74.020594,3294.210641
3444.651468,-10732.986159,-518.144159,3064.381992
3444.651806,-9992.780217,148.041188,2298.286494
3444.652143,-8734.430116,1406.391290,1838.629195
3444.652481,-8438.347739,1776.494261,2528.115143
3444.652818,-10288.862594,2294.638420,2681.334243
3444.653156,-10732.986159,1036.288319,842.705048
3444.653494,-9696.697840,1776.494261,689.485948
3444.653831,-7920.203579,2812.782580,766.095498
3444.654169,-7994.224174,1554.432478,459.657299
3444.654506,-9400.615463,370.102971,766.095498
3444.654844,-9918.759623,-1554.432478,1225.752797
3444.655182,-9844.739029,-222.061783,1302.362347
3444.655519,-10658.965565,1184.329507,1072.533697
3444.655857,-11325.150913,1924.535449,-1532.190996
3444.656194,-10955.047942,-962.267725,-1762.019645
3444.656532,-10732.986159,-2516.700203,-459.657299
3444.656869,-9178.553681,-1406.391290,306.438199
3444.657207,-9474.636058,-1628.453072,842.705048
3444.657545,-10214.842000,-1184.329507,459.657299
3444.657882,-11917.315666,-2368.659014,-1149.143247
3444.658220,-10288.862594,-1480.411884,-2374.896044
3444.658557,-8586.388927,148.041188,-919.314598
3444.658895,-9918.759623,-888.247130,1378.971896
3444.659233,-12435.459826,-1776.494261,306.438199
3444.659570,-10955.047942,-1776.494261,-1378.971896
3444.659908,-10510.924376,-1554.432478,76.609550
3444.660245,-10214.842000,-444.123565,1915.238745
3444.660583,-9548.656652,-1406.391290,459.657299
3444.660921,-9178.553681,-1332.370696,0.000000
3444.661258,-9104.533087,-814.226536,-842.705048
3444.661596,-10510.924376,-296.082377,-1072.533697
3444.661933,-10362.883188,74.020594,-2834.553343
3444.662271,-9178.553681,-1480.411884,-1455.581446
3444.662609,-9844.739029,-1924.535449,-1225.752797
3444.662946,-8882.471304,-666.185348,-1302.362347
3444.663284,-6957.935855,888.247130,-919.314598
3444.663621,-8956.491898,666.185348,919.314598
3444.663959,-11843.295072,-1480.411884,1455.581446
3444.664296,-12657.521608,74.020594,919.314598
3444.664634,-11029.068536,2220.617826,1532.190996
3444.664972,-9696.697840,888.247130,2834.553343
3444.665309,-9918.759623,666.185348,2374.896044
3444.665647,-9326.594869,740.205942,1838.629195
3444.665984,-9030.512492,1702.473667,2451.505594
3444.666322,-10362.883188,2886.803174,1762.019645
3444.666660,-11325.150913,3404.947333,766.095498
3444.666997,-10732.986159,1776.494261,-995.924147
3444.667335,-10288.862594,-148.041188,-306.438199
3444.667672,-8142.265362,444.123565,689.485948
3444.668010,-6883.915261,1406.391290,1302.362347
3444.668348,-9474.636058,-370.102971,1685.410096
3444.668685,-10658.965565,-1110.308913,1149.143247
3444.669023,-10066.800811,-222.061783,0.000000
3444.669360,-11621.233289,-1036.288319,383.047749
3444.669698,-10066.800811,-1480.411884,-459.657299
3444.670036,-9326.594869,-2664.741391,-383.047749
3444.670373,-9400.615463,-3256.906145,459.657299
3444.670711,-8734.430116,-2960.823768,689.485948
3444.671048,-9474.636058,-1258.350101,536.266849
3444.671386,-12139.377449,-222.061783,-306.438199
3444.671723,-13027.624579,-2368.659014,-1378.971896
3444.672061,-11177.109724,-2146.597232,-612.876398
3444.672399,-10066.800811,-1480.411884,1455.581446
3444.672736,-9178.553681,-814.226536,2221.676944
3444.673074,-11029.068536,-296.082377,2145.067394
3444.673411,-11103.089130,-1850.514855,0.000000
3444.673749,-11547.212695,-592.164754,1608.800546
3444.674087,-11251.130318,962.267725,2145.067394
3444.674424,-11029.068536,2738.761985,306.438199
3444.674762,-10362.883188,666.185348,-1225.752797
3444.675099,-9400.615463,1406.391290,-1915.238745
3444.675437,-8068.244768,2294.638420,-1685.410096
3444.675775,-9252.574275,1924.535449,-842.705048
3444.676112,-10140.821405,444.123565,-1378.971896
3444.676450,-10214.842000,444.123565,-1762.019645
3444.676787,-9030.512492,1406.391290,-2757.943793
3444.677125,-6809.894666,962.267725,-1455.581446
3444.677463,-7846.182985,222.061783,1072.533697
3444.677800,-8956.491898,-1258.350101,229.828649
3444.678138,-8586.388927,-1184.329507,0.000000
3444.678475,-10732.986159,1406.391290,1685.410096
3444.678813,-11843.295072,1258.350101,766.095498
3444.679150,-11843.295072,0.000000,0.000000
3444.679488,-9770.718434,-814.226536,612.876398
3444.679826,-7994.224174,0.000000,2145.067394
3444.680163,-9326.594869,1406.391290,2298.286494
3444.680501,-10510.924376,1332.370696,612.876398
3444.680838,-11991.336260,-740.205942,-612.876398
3444.681176,-11917.315666,-1480.411884,0.000000
3444.681514,-9844.739029,-888.247130,689.485948
3444.681851,-9474.636058,518.144159,1838.629195
3444.682189,-9918.759623,296.082377,689.485948
3444.682526,-9474.636058,-1332.370696,-1762.019645
3444.682864,-11251.130318,-962.267725,0.000000
3444.683202,-10955.047942,-1184.329507,306.438199
3444.683539,-10510.924376,-962.267725,612.876398
3444.683877,-11029.068536,-1628.453072,-995.924147
3444.684214,-9770.718434,-3404.947333,-689.485948
3444.684552,-7772.162391,-2960.823768,76.609550
3444.684890,-6439.791695,-2442.679609,2298.286494
3444.685227,-9992.780217,-1850.514855,2451.505594
3444.685565,-12287.418637,-2220.617826,612.876398
3444.685902,-11103.089130,-1258.350101,-995.924147
3444.686240,-9252.574275,-296.082377,612.876398
3444.686577,-8512.368333,-740.205942,3447.429741
3444.686915,-9696.697840,222.061783,4213.525239
3444.687253,-11325.150913,-444.123565,2757.943793
3444.687590,-10362.883188,814.226536,1838.629195
3444.687928,-9030.512492,1406.391290,2298.286494
3444.688265,-10288.862594,2294.638420,2451.505594
3444.688603,-10510.924376,1554.432478,1072.533697
3444.688941,-11251.130318,1628.453072,842.705048
3444.689278,-9918.759623,4071.132681,-995.924147
3444.689616,-9400.615463,3701.029710,-2911.162892
3444.689953,-9770.718434,2812.782580,-2911.162892
3444.690291,-11547.212695,962.267725,-2604.724693
3444.690629,-9474.636058,740.205942,-3830.477490
3444.690966,-7476.080014,1406.391290,-2451.505594
3444.691304,-8808.450710,2368.659014,76.609550
3444.691641,-10288.862594,-1184.329507,-306.438199
3444.691979,-11251.130318,-2516.700203,-1608.800546
3444.692316,-10288.862594,-2072.576638,-919.314598
3444.692654,-9844.739029,-1850.514855,842.705048
3444.692992,-9474.636058,-2294.638420,1455.581446
3444.693329,-9326.594869,-2294.638420,919.314598
3444.693667,-8956.491898,-2590.720797,229.828649
3444.694004,-10066.800811,0.000000,229.828649
3444.694342,-11695.253884,-444.123565,153.219100
3444.694680,-12213.398043,-1628.453072,-153.219100
3444.695017,-9770.718434,-2146.597232,459.657299
3444.695355,-9400.615463,-296.082377,1072.533697
3444.695692,-10066.800811,888.247130,766.095498
3444.696030,-9400.615463,0.000000,76.609550
3444.696368,-10584.944971,-1628.453072,919.314598
3444.696705,-11103.089130,-1924.535449,2604.724693
3444.697043,-11029.068536,-518.144159,2298.286494
3444.697380,-11251.130318,962.267725,919.314598
3444.697718,-10658.965565,296.082377,-229.828649
3444.698056,-11251.130318,-370.102971,-383.047749
3444.698393,-8734.430116,-296.082377,-995.924147
3444.698731,-8438.347739,962.267725,842.705048
3444.699068,-10584.944971,1480.411884,919.314598
3444.699406,-11547.212695,-74.020594,-2451.505594
3444.699743,-10955.047942,-74.020594,-459.657299
3444.700081,-7402.059420,296.082377,1149.143247
3444.700419,-7550.100608,444.123565,3600.648841
3444.700756,-9474.636058,592.164754,3217.601092
3444.701094,-10214.842000,-444.123565,2298.286494
3444.701431,-10510.924376,592.164754,4443.353888
3444.701769,-9844.739029,2442.679609,3140.991542
3444.702107,-9770.718434,3627.009116,2068.457845
3444.702444,-10955.047942,3182.885551,229.828649
3444.702782,-11325.150913,1406.391290,-2451.505594
3444.703119,-8290.306550,1924.535449,-3064.381992
3444.703457,-6587.832884,592.164754,-536.266849
3444.703795,-8364.327145,-370.102971,612.876398
3444.704132,-12361.439231,-1184.329507,-842.705048
3444.704470,-10732.986159,-1554.432478,-3140.991542
3444.704807,-9474.636058,370.102971,-2298.286494
3444.705145,-9326.594869,222.061783,-2068.457845
3444.705483,-10288.862594,-1036.288319,-1991.848295
3444.705820,-11177.109724,-2960.823768,-995.924147
3444.706158,-11399.171507,-3108.864956,383.047749
3444.706495,-9770.718434,-962.267725,-842.705048
3444.706833,-9770.718434,-1110.308913,-383.047749
3444.707170,-12435.459826,-3775.050304,-766.095498
3444.707508,-11547.212695,-4959.379811,-919.314598
3444.707846,-8290.306550,-1924.535449,0.000000
3444.708183,-9474.636058,296.082377,2221.676944
3444.708521,-11029.068536,0.000000,1149.143247
3444.708858,-12731.542202,-1036.288319,-1532.190996
3444.709196,-10732.986159,-444.123565,-1225.752797
3444.709534,-7994.224174,666.185348,2068.457845
3444.709871,-9770.718434,888.247130,4596.572988
3444.710209,-11399.171507,444.123565,1608.800546
3444.710546,-9474.636058,-666.185348,-612.876398
3444.710884,-8956.491898,1184.329507,842.705048
3444.711221,-9030.512492,1480.411884,1762.019645
3444.711559,-10881.027347,1924.535449,1991.848295
3444.711896,-11103.089130,1110.308913,-995.924147
3444.712234,-8586.388927,0.000000,-1302.362347
3444.712571,-8290.306550,740.205942,689.485948
3444.712909,-8290.306550,444.123565,1225.752797
3444.713247,-9326.594869,1998.556043,689.485948
3444.713584,-9918.759623,74.020594,-1302.362347
3444.713922,-9548.656652,-222.061783,-383.047749
3444.714259,-9622.677246,518.144159,1532.190996
3444.714597,-9178.553681,592.164754,2834.553343
3444.714934,-10436.903782,-2146.597232,3907.087040
3444.715272,-12065.356855,-1628.453072,2834.553343
3444.715609,-10584.944971,518.144159,2681.334243
3444.715947,-9474.636058,1406.391290,2145.067394
3444.716284,-10436.903782,962.267725,2528.115143
3444.716622,-11621.233289,0.000000,-842.705048
3444.716959,-11621.233289,-444.123565,-1302.362347
3444.717297,-9400.615463,1184.329507,-1915.238745
3444.717634,-8068.244768,666.185348,-1915.238745
3444.717972,-10658.965565,-1184.329507,-3064.381992
3444.718309,-10807.006753,-3552.988522,-2757.943793
3444.718647,-9474.636058,-2146.597232,-306.438199
3444.718985,-8586.388927,-1332.370696,1072.533697
3444.719322,-10510.924376,-1702.473667,306.438199
3444.719660,-12139.377449,-2072.576638,-1532.190996
3444.719997,-11473.192101,-3849.070898,-995.924147
3444.720335,-9474.636058,-2516.700203,229.828649
3444.720672,-8364.327145,-1406.391290,383.047749
3444.721010,-10066.800811,-962.267725,1302.362347
3444.721347,-11325.150913,-3404.947333,-1149.143247
3444.721685,-9178.553681,-3775.050304,-1608.800546
3444.722022,-7105.977043,-444.123565,306.438199
3444.722360,-7772.162391,1036.288319,995.924147
3444.722697,-10584.944971,2146.597232,-1149.143247
3444.723035,-12139.377449,814.226536,-2834.553343
3444.723372,-10658.965565,1998.556043,-1608.800546
3444.723710,-9474.636058,1998.556043,1302.362347
3444.724047,-10658.965565,3701.029710,4136.915689
3444.724385,-10955.047942,1702.473667,1838.629195
3444.724722,-11547.212695,1184.329507,229.828649
3444.725060,-9992.780217,1850.514855,689.485948
3444.725398,-9178.553681,2886.803174,919.314598
3444.725735,-11769.274478,1998.556043,842.705048
3444.726073,-11103.089130,0.000000,-2681.334243
3444.726410,-9104.533087,1332.370696,-3064.381992
3444.726748,-8068.244768,1554.432478,-1455.581446
3444.727085,-8882.471304,1332.370696,-1532.190996
3444.727423,-10362.883188,-148.041188,-1915.238745
3444.727760,-10288.862594,-2664.741391,-612.876398
3444.728098,-8956.491898,-1702.473667,1225.752797
3444.728435,-7254.018232,-1406.391290,2221.676944
3444.728773,-9474.636058,-1480.411884,4290.134789
3444.729110,-10362.883188,-2442.679609,2068.457845
3444.729448,-11399.171507,-3997.112087,1532.190996
3444.729785,-10955.047942,-2294.638420,3064.381992
3444.730123,-9104.533087,-1776.494261,3064.381992
3444.730460,-10362.883188,-1998.556043,3447.429741
3444.730798,-10362.883188,-1406.391290,842.705048
3444.731135,-8956.491898,-518.144159,-1072.533697
3444.731473,-10436.903782,0.000000,229.828649
3444.731811,-10807.006753,0.000000,0.000000
3444.732148,-11991.336260,-1332.370696,-76.609550
3444.732486,-12435.459826,-2442.679609,153.219100
3444.732823,-9474.636058,-296.082377,1149.143247
3444.733161,-9252.574275,962.267725,612.876398
3444.733498,-11325.150913,222.061783,-306.438199
3444.733836,-13323.706956,-2220.617826,-1608.800546
3444.734173,-12065.356855,-2886.803174,-766.095498
3444.734511,-8364.327145,-1184.329507,1608.800546
3444.734848,-8290.306550,296.082377,3217.601092
3444.735186,-9252.574275,1184.329507,229.828649
3444.735523,-10362.883188,-222.061783,-1991.848295
3444.735861,-11843.295072,148.041188,-919.314598
3444.736198,-8438.347739,296.082377,153.219100
3444.736536,-8512.368333,1258.350101,1532.190996
3444.736873,-9326.594869,814.226536,383.047749
3444.737211,-8068.244768,592.164754,-1149.143247
3444.737549,-8364.327145,1480.411884,-153.219100
3444.737886,-9474.636058,1924.535449,383.047749
3444.738224,-9844.739029,2146.597232,-536.266849
3444.738561,-12287.418637,1554.432478,-689.485948
3444.738899,-10214.842000,1480.411884,-2298.286494
3444.739236,-8290.306550,2146.597232,-2681.334243
3444.739574,-8290.306550,1628.453072,-1838.629195
3444.739911,-9770.718434,0.000000,-1838.629195
3444.740249,-11029.068536,-1332.370696,-2757.943793
3444.740586,-9252.574275,-518.144159,-2221.676944
3444.740924,-10140.821405,222.061783,-76.609550
3444.741261,-12805.562797,-666.185348,-76.609550
3444.741599,-13323.706956,-1998.556043,-1225.752797
3444.741936,-11695.253884,-2294.638420,-1532.190996
3444.742274,-8660.409521,-1036.288319,383.047749
3444.742611,-8142.265362,-962.267725,1838.629195
3444.742949,-11843.295072,-2368.659014,3217.601092
3444.743286,-13619.789333,-3404.947333,2298.286494
3444.743624,-11991.336260,-2886.803174,1072.533697
3444.743962,-8956.491898,-1036.288319,2068.457845
3444.744299,-7624.121203,-888.247130,3677.258390
3444.744637,-9696.697840,-1406.391290,2604.724693
3444.744974,-7920.203579,-2072.576638,919.314598
3444.745312,-7920.203579,-592.164754,1532.190996
3444.745649,-11325.150913,0.000000,2911.162892
3444.745987,-11547.212695,0.000000,229.828649
3444.746324,-9252.574275,-518.144159,-229.828649
3444.746662,-8068.244768,-814.226536,1608.800546
3444.746999,-7105.977043,518.144159,2374.896044
3444.747337,-9104.533087,962.267725,919.314598
3444.747674,-10658.965565,444.123565,383.047749
3444.748012,-11843.295072,-740.205942,-1685.410096
3444.748349,-11621.233289,814.226536,-1532.190996
3444.748687,-10362.883188,1554.432478,766.095498
3444.749024,-8660.409521,814.226536,1302.362347
3444.749362,-9030.512492,740.205942,1378.971896
3444.749699,-10584.944971,1184.329507,689.485948
3444.750037,-12509.480420,2072.576638,1532.190996
3444.750375,-13841.851115,518.144159,1608.800546
3444.750712,-12805.562797,444.123565,0.000000
3444.751050,-9548.656652,1110.308913,229.828649
3444.751387,-8068.244768,888.247130,0.000000
3444.751725,-6957.935855,666.185348,-1378.971896
3444.752062,-8882.471304,-370.102971,-2528.115143
3444.752400,-11695.253884,-1554.432478,-2145.067394
3444.752737,-11029.068536,-2220.617826,-2451.505594
3444.753075,-9252.574275,-814.226536,-2451.505594
3444.753412,-7698.141797,74.020594,-1838.629195
3444.753750,-7254.018232,-2146.597232,-1838.629195
3444.754087,-9474.636058,-3997.112087,-383.047749
3444.754425,-9104.533087,-4663.297435,-383.047749
3444.754762,-8142.265362,-3775.050304,0.000000
3444.755100,-10436.903782,-4071.132681,306.438199
3444.755437,-12287.418637,-3701.029710,306.438199
3444.755775,-11251.130318,-2368.659014,-2145.067394
3444.756113,-9326.594869,-1258.350101,-1455.581446
3444.756450,-9400.615463,0.000000,-306.438199
3444.756788,-11843.295072,-740.205942,-612.876398
3444.757125,-13323.706956,-1628.453072,-689.485948
3444.757463,-11991.336260,-2294.638420,1225.752797
3444.757800,-10658.965565,-222.061783,3830.477490
3444.758138,-10066.800811,1850.514855,4519.963438
3444.758475,-11621.233289,1554.432478,3294.210641
3444.758813,-11177.109724,1110.308913,2068.457845
3444.759150,-11473.192101,1184.329507,2911.162892
3444.759488,-11843.295072,2072.576638,3064.381992
3444.759825,-10584.944971,1998.556043,612.876398
3444.760163,-9104.533087,1554.432478,-1225.752797
3444.760500,-7179.997637,444.123565,-1762.019645
3444.760838,-5995.668130,740.205942,-1072.533697
3444.761175,-6735.874072,1776.494261,919.314598
3444.761513,-9178.553681,1184.329507,0.000000
3444.761850,-10066.800811,740.205942,-2068.457845
3444.762188,-10066.800811,518.144159,-2145.067394
3444.762526,-8586.388927,-296.082377,153.219100
3444.762863,-7624.121203,-518.144159,1532.190996
3444.763201,-9326.594869,-2368.659014,2451.505594
3444.763538,-9918.759623,-1776.494261,2374.896044
3444.763876,-9844.739029,-1332.370696,1072.533697
3444.764213,-10658.965565,-370.102971,2068.457845
3444.764551,-11917.315666,-74.020594,2298.286494
3444.764888,-12805.562797,-1184.329507,1378.971896
3444.765226,-12213.398043,0.000000,459.657299
3444.765563,-9844.739029,814.226536,-459.657299
3444.765901,-9992.780217,814.226536,-459.657299
3444.766238,-11399.171507,-1850.514855,-459.657299
3444.766576,-12065.356855,-1924.535449,229.828649
3444.766913,-11103.089130,148.041188,-153.219100
3444.767251,-10436.903782,-222.061783,-766.095498
3444.767588,-10140.821405,-1110.308913,-1685.410096
3444.767926,-10732.986159,-3701.029710,-1455.581446
3444.768263,-8808.450710,-3108.864956,0.000000
3444.768601,-7624.121203,-1554.432478,153.219100
3444.768939,-9326.594869,-592.164754,306.438199
3444.769276,-12287.418637,-370.102971,-1915.238745
3444.769614,-11695.253884,-1332.370696,-4060.306139
3444.769951,-8808.450710,-1258.350101,-2528.115143
3444.770289,-7105.977043,-962.267725,0.000000
3444.770626,-7402.059420,-222.061783,-459.657299
3444.770964,-9474.636058,-962.267725,-689.485948
3444.771301,-10140.821405,-962.267725,76.609550
3444.771639,-9844.739029,-518.144159,1225.752797
3444.771976,-11103.089130,2368.659014,2604.724693
3444.772314,-11473.192101,2738.761985,2604.724693
3444.772651,-10658.965565,1702.473667,1072.533697
3444.772989,-10140.821405,888.247130,1685.410096
3444.773326,-9992.780217,1554.432478,2681.334243
3444.773664,-10584.944971,2960.823768,1685.410096
3444.774001,-11843.295072,2368.659014,-459.657299
3444.774339,-11621.233289,888.247130,-2451.505594
3444.774677,-8142.265362,1036.288319,-2298.286494
3444.775014,-7254.018232,962.267725,76.609550
3444.775352,-9252.574275,222.061783,1072.533697
3444.775689,-10955.047942,-814.226536,-612.876398
3444.776027,-10955.047942,-1628.453072,-1685.410096
3444.776364,-9992.780217,-444.123565,536.266849
3444.776702,-9622.677246,-1628.453072,2528.115143
3444.777039,-10288.862594,-2368.659014,2911.162892
3444.777377,-10066.800811,-3849.070898,1608.800546
3444.777714,-8142.265362,-2812.782580,1762.019645
3444.778052,-8808.450710,-3108.864956,1991.848295
3444.778389,-9770.718434,-2960.823768,1455.581446
3444.778727,-11103.089130,-2516.700203,1608.800546
3444.779064,-11473.192101,-2960.823768,2451.505594
3444.779402,-9104.533087,-1702.473667,1149.143247
3444.779739,-8586.388927,-222.061783,1838.629195
3444.780077,-9474.636058,592.164754,3217.601092
3444.780414,-11325.150913,-1258.350101,1149.143247
3444.780752,-11325.150913,518.144159,919.314598
3444.781090,-10510.924376,1110.308913,1149.143247
3444.781427,-11399.171507,1110.308913,1149.143247
3444.781765,-11843.295072,-370.102971,-766.095498
3444.782102,-9992.780217,-1258.350101,-2298.286494
3444.782440,-7624.121203,518.144159,-1149.143247
3444.782777,-8438.347739,370.102971,-766.095498
3444.783115,-11621.233289,222.061783,-306.438199
3444.783452,-12509.480420,-740.205942,-2374.896044
3444.783790,-11325.150913,-1184.329507,-2834.553343
3444.784127,-9474.636058,1036.288319,0.000000
3444.784465,-7550.100608,0.000000,459.657299
3444.784802,-9178.553681,-518.144159,689.485948
3444.785140,-10362.883188,-1554.432478,0.000000
3444.785477,-9326.594869,0.000000,-1378.971896
3444.785815,-9030.512492,-444.123565,-612.876398
3444.786152,-9548.656652,0.000000,-612.876398
3444.786490,-9400.615463,0.000000,-766.095498
3444.786827,-10288.862594,-1406.391290,76.609550
3444.787165,-9252.574275,592.164754,1378.971896
3444.787503,-9104.533087,1184.329507,1378.971896
3444.787840,-10658.965565,1702.473667,842.705048
3444.788178,-11769.274478,-1258.350101,-1072.533697
3444.788515,-10214.842000,-1554.432478,0.000000
3444.788853,-8808.450710,-962.267725,1149.143247
3444.789190,-8734.430116,-222.061783,1915.238745
3444.789528,-10584.944971,1036.288319,76.609550
3444.789865,-12953.603985,-592.164754,-2374.896044
3444.790203,-12361.439231,-1036.288319,-3217.601092
3444.790540,-9030.512492,-962.267725,-2068.457845
3444.790878,-9252.574275,-592.164754,919.314598
3444.791215,-9030.512492,-2146.597232,76.609550
3444.791553,-9918.759623,-2442.679609,919.314598
3444.791890,-9622.677246,-444.123565,1378.971896
3444.792228,-9622.677246,-1332.370696,2451.505594
3444.792565,-12139.377449,-1184.329507,3217.601092
3444.792903,-11843.295072,-1184.329507,3217.601092
3444.793241,-9696.697840,-518.144159,2987.772442
3444.793578,-9030.512492,592.164754,2528.115143
3444.793916,-9030.512492,2072.576638,1532.190996
3444.794253,-11103.089130,592.164754,536.266849
3444.794591,-10658.965565,222.061783,-766.095498
3444.794928,-7105.977043,1924.535449,0.000000
3444.795266,-9178.553681,2886.803174,1685.410096
3444.795603,-10658.965565,2368.659014,995.924147
3444.795941,-10807.006753,592.164754,-919.314598
3444.796278,-10140.821405,-74.020594,-919.314598
3444.796616,-7624.121203,1850.514855,306.438199
3444.796953,-9548.656652,814.226536,1532.190996
3444.797291,-11843.295072,148.041188,-383.047749
3444.797628,-10584.944971,-2960.823768,-766.095498
3444.797966,-9770.718434,-1258.350101,383.047749
3444.798303,-7994.224174,148.041188,0.000000
3444.798641,-9548.656652,666.185348,-766.095498
3444.798978,-11251.130318,-370.102971,-2911.162892
3444.799316,-11103.089130,-2886.803174,-2221.676944
3444.799654,-10066.800811,-1480.411884,766.095498
3444.799991,-8364.327145,-592.164754,1991.848295
3444.800329,-9474.636058,592.164754,1072.533697
3444.800666,-12509.480420,-962.267725,-229.828649
3444.801004,-11621.233289,-1184.329507,-1838.629195
3444.801341,-8290.306550,-518.144159,0.000000
3444.801679,-9844.739029,-592.164754,2987.772442
3444.802016,-10288.862594,-518.144159,459.657299
3444.802354,-10881.027347,-1184.329507,-1149.143247
3444.802691,-10436.903782,74.020594,-306.438199
3444.803029,-9326.594869,-148.041188,306.438199
3444.803366,-10214.842000,814.226536,0.000000
3444.803704,-10881.027347,222.061783,-2528.115143
3444.804041,-10510.924376,-2368.659014,-2298.286494
3444.804379,-8068.244768,-2220.617826,-1072.533697
3444.804716,-6661.853478,0.000000,0.000000
3444.805054,-9918.759623,-592.164754,1532.190996
3444.805391,-12213.398043,-1036.288319,229.828649
3444.805729,-10807.006753,-1998.556043,919.314598
3444.806067,-9178.553681,1184.329507,2145.067394
3444.806404,-9474.636058,888.247130,2298.286494
3444.806742,-11473.192101,0.000000,2145.067394
3444.807079,-10510.924376,-1110.308913,459.657299
3444.807417,-8734.430116,0.000000,995.924147
3444.807754,-8216.285956,1110.308913,3677.258390
3444.808092,-9548.656652,1554.432478,3294.210641
3444.808429,-12213.398043,1554.432478,612.876398
3444.808767,-11029.068536,1184.329507,-689.485948
3444.809104,-8512.368333,2664.741391,842.705048
3444.809442,-9474.636058,2072.576638,2451.505594
3444.809779,-11399.171507,1850.514855,1225.752797
3444.810117,-11547.212695,-592.164754,-766.095498
3444.810454,-9474.636058,-666.185348,0.000000
3444.810792,-7105.977043,74.020594,2145.067394
3444.811129,-9400.615463,-370.102971,1532.190996
3444.811467,-11547.212695,-962.267725,-1302.362347
3444.811805,-9474.636058,-2812.782580,-3217.601092
3444.812142,-8290.306550,-1480.411884,-995.924147
3444.812480,-9030.512492,-1628.453072,1149.143247
3444.812817,-10807.006753,-1258.350101,842.705048
3444.813155,-11251.130318,-1998.556043,-1302.362347
3444.813492,-9770.718434,-2220.617826,-766.095498
3444.813830,-8882.471304,-1702.473667,919.314598
3444.814167,-8956.491898,-1480.411884,1608.800546
3444.814505,-11917.315666,-1628.453072,919.314598
3444.814843,-11695.253884,-2294.638420,-1608.800546
3444.815180,-9992.780217,-518.144159,-306.438199
3444.815518,-10658.965565,444.123565,2374.896044
3444.815855,-9992.780217,444.123565,536.266849
3444.816193,-9918.759623,518.144159,-1838.629195
3444.816530,-10955.047942,0.000000,-1072.533697
3444.816868,-10732.986159,814.226536,536.266849
3444.817206,-10584.944971,1332.370696,1302.362347
3444.817543,-11991.336260,74.020594,1608.800546
3444.817881,-11769.274478,444.123565,-383.047749
3444.818218,-9844.739029,444.123565,-612.876398
3444.818556,-8956.491898,1036.288319,689.485948
3444.818893,-9104.533087,0.000000,153.219100
3444.819231,-10436.903782,0.000000,-1225.752797
3444.819568,-9178.553681,0.000000,-3217.601092
3444.819906,-8290.306550,-592.164754,-2221.676944
3444.820244,-8216.285956,740.205942,229.828649
3444.820581,-7994.224174,-592.164754,842.705048
3444.820919,-9770.718434,0.000000,1915.238745
3444.821256,-10436.903782,0.000000,2987.772442
3444.821594,-10732.986159,592.164754,3370.820191
3444.821931,-10288.862594,1036.288319,2451.505594
3444.822269,-9252.574275,-962.267725,1225.752797
3444.822606,-9622.677246,-1924.535449,1532.190996
3444.822944,-8364.327145,-1184.329507,2374.896044
3444.823282,-9696.697840,2072.576638,1991.848295
3444.823619,-12139.377449,2664.741391,153.219100
3444.823957,-12805.562797,888.247130,-3140.991542
3444.824294,-10436.903782,-740.205942,-3524.039291
3444.824632,-9326.594869,-370.102971,-306.438199
3444.824969,-8586.388927,-666.185348,2528.115143
3444.825307,-10955.047942,74.020594,0.000000
3444.825645,-11029.068536,-1480.411884,-536.266849
3444.825982,-10881.027347,-1258.350101,-919.314598
3444.826320,-10510.924376,-1480.411884,536.266849
3444.826657,-11251.130318,-666.185348,612.876398
3444.826995,-11251.130318,-1850.514855,689.485948
3444.827332,-11251.130318,-3256.906145,0.000000
3444.827670,-8438.347739,-2072.576638,-306.438199
3444.828007,-7031.956449,-1110.308913,1072.533697
3444.828345,-9844.739029,-814.226536,2374.896044
3444.828683,-12213.398043,-814.226536,766.095498
3444.829020,-10140.821405,888.247130,0.000000
3444.829358,-9696.697840,888.247130,1225.752797
3444.829695,-9400.615463,1258.350101,1762.019645
3444.830033,-9770.718434,518.144159,0.000000
3444.830370,-9548.656652,518.144159,-459.657299
3444.830708,-8734.430116,370.102971,-1072.533697
3444.831045,-8438.347739,222.061783,995.924147
3444.831383,-8882.471304,1110.308913,1838.629195
3444.831721,-11103.089130,0.000000,229.828649
3444.832058,-11251.130318,1480.411884,-1455.581446
3444.832396,-9622.677246,2664.741391,-1685.410096
3444.832733,-10066.800811,2072.576638,-536.266849
3444.833071,-10658.965565,444.123565,-995.924147
3444.833408,-10584.944971,-74.020594,-1378.971896
3444.833746,-10658.965565,-148.041188,-612.876398
3444.834084,-10658.965565,-962.267725,0.000000
3444.834421,-9844.739029,-1036.288319,459.657299
3444.834759,-10288.862594,-1924.535449,-153.219100
3444.835096,-9326.594869,-2516.700203,459.657299
3444.835434,-10584.944971,-1628.453072,2528.115143
3444.835771,-9844.739029,444.123565,2298.286494
3444.836109,-10658.965565,666.185348,1915.238745
3444.836446,-11917.315666,-222.061783,766.095498
3444.836784,-10881.027347,0.000000,1225.752797
3444.837122,-10066.800811,-1332.370696,1378.971896
3444.837459,-9474.636058,-222.061783,1302.362347
3444.837797,-8290.306550,-740.205942,0.000000
3444.838134,-8586.388927,-1998.556043,-1302.362347
3444.838472,-8364.327145,-1998.556043,-766.095498
3444.838809,-8882.471304,-888.247130,0.000000
3444.839147,-11843.295072,518.144159,229.828649
3444.839484,-11695.253884,222.061783,-995.924147
3444.839822,-10214.842000,-1184.329507,229.828649
3444.840160,-9030.512492,-444.123565,1838.629195
3444.840497,-9844.739029,0.000000,2451.505594
3444.840835,-13175.665768,0.000000,1685.410096
3444.841172,-12953.603985,-1554.432478,536.266849
3444.841510,-9252.574275,-1406.391290,459.657299
3444.841847,-8364.327145,0.000000,2528.115143
3444.842185,-9252.574275,592.164754,2681.334243
3444.842523,-11103.089130,148.041188,306.438199
3444.842860,-10732.986159,888.247130,76.609550
3444.843198,-10288.862594,1998.556043,995.924147
3444.843535,-10658.965565,1850.514855,2145.067394
3444.843873,-9844.739029,1776.494261,1915.238745
3444.844210,-9770.718434,1184.329507,842.705048
3444.844548,-8142.265362,1332.370696,-766.095498
3444.844885,-6069.688724,888.247130,-995.924147
3444.845223,-9178.553681,296.082377,689.485948
3444.845561,-11251.130318,-1480.411884,-1072.533697
3444.845898,-10955.047942,-1702.473667,-2987.772442
3444.846236,-9548.656652,-370.102971,-1225.752797
3444.846573,-7920.203579,1036.288319,-1378.971896
3444.846911,-8216.285956,370.102971,-2451.505594
3444.847248,-10658.965565,-2442.679609,-2068.457845
3444.847586,-11251.130318,-2220.617826,-1378.971896
3444.847924,-11547.212695,-740.205942,536.266849
3444.848261,-11769.274478,-814.226536,459.657299
3444.848599,-9918.759623,-1480.411884,-1225.752797
3444.848936,-9400.615463,-2738.761985,-306.438199
3444.849274,-9992.780217,-1998.556043,459.657299
3444.849611,-10288.862594,-888.247130,2145.067394
3444.849949,-11843.295072,-888.247130,1991.848295
3444.850286,-12583.501014,-1406.391290,842.705048
3444.850624,-11325.150913,-592.164754,-766.095498
3444.850962,-9326.594869,740.205942,919.314598
3444.851299,-9474.636058,962.267725,3370.820191
3444.851637,-9474.636058,0.000000,2834.553343
3444.851974,-11621.233289,0.000000,1915.238745
3444.852312,-10807.006753,0.000000,2298.286494
3444.852649,-10732.986159,74.020594,1915.238745
3444.852987,-11103.089130,74.020594,919.314598
3444.853324,-9030.512492,-296.082377,-1685.410096
3444.853662,-6291.750507,0.000000,-2221.676944
3444.854000,-5107.421000,0.000000,-689.485948
3444.854337,-8438.347739,296.082377,459.657299
3444.854675,-12435.459826,370.102971,0.000000
3444.855012,-12731.542202,-1258.350101,-306.438199
3444.855350,-9696.697840,0.000000,919.314598
3444.855687,-5995.668130,-296.082377,2834.553343
3444.856025,-7624.121203,-370.102971,4673.182538
3444.856363,-9474.636058,-444.123565,2834.553343
3444.856700,-12361.439231,0.000000,2221.676944
3444.857038,-13693.809927,444.123565,1762.019645
3444.857375,-12139.377449,1702.473667,0.000000
3444.857713,-11547.212695,2146.597232,-1225.752797
3444.858050,-9622.677246,370.102971,-2298.286494
3444.858388,-7105.977043,-1184.329507,-1149.143247
3444.858725,-7846.182985,1036.288319,-612.876398
3444.859063,-9400.615463,1850.514855,-306.438199
3444.859401,-12287.418637,0.000000,-1378.971896
3444.859738,-14730.098246,-1702.473667,-1378.971896
3444.860076,-12435.459826,-2072.576638,-1608.800546
3444.860413,-7476.080014,-592.164754,-1532.190996
3444.860751,-7105.977043,-814.226536,383.047749
3444.861088,-9696.697840,-3256.906145,-1915.238745
3444.861426,-10140.821405,-3923.091493,-3600.648841
3444.861763,-9252.574275,-2368.659014,-1762.019645
3444.862101,-10066.800811,-1702.473667,612.876398
3444.862439,-10955.047942,-1332.370696,153.219100
3444.862776,-11251.130318,-2960.823768,-1149.143247
3444.863114,-9178.553681,-2220.617826,306.438199
3444.863451,-6735.874072,-148.041188,2068.457845
3444.863789,-9622.677246,666.185348,2451.505594
3444.864126,-13619.789333,-518.144159,1072.533697
3444.864464,-11251.130318,-2072.576638,0.000000
3444.864802,-8216.285956,592.164754,2145.067394
3444.865139,-8660.409521,814.226536,4596.572988
3444.865477,-11029.068536,1924.535449,3140.991542
3444.865814,-12805.562797,1406.391290,153.219100
3444.866152,-11177.109724,2072.576638,-1072.533697
3444.866489,-8438.347739,2516.700203,459.657299
3444.866827,-9548.656652,2072.576638,2451.505594
3444.867164,-10732.986159,2368.659014,459.657299
3444.867502,-9770.718434,1184.329507,-1378.971896
3444.867840,-9548.656652,-296.082377,-766.095498
3444.868177,-8364.327145,370.102971,536.266849
3444.868515,-7254.018232,518.144159,842.705048
3444.868852,-10214.842000,-740.205942,-919.314598
3444.869190,-11621.233289,-1776.494261,-995.924147
3444.869527,-9474.636058,-888.247130,-536.266849
3444.869865,-8068.244768,-814.226536,2757.943793
3444.870202,-10288.862594,-1332.370696,4519.963438
3444.870540,-12361.439231,-2146.597232,612.876398
3444.870878,-11991.336260,-444.123565,76.609550
3444.871215,-8660.409521,74.020594,0.000000
3444.871553,-7772.162391,-370.102971,2451.505594
3444.871890,-10214.842000,-592.164754,1455.581446
3444.872228,-12657.521608,-2442.679609,-612.876398
3444.872565,-10807.006753,-1924.535449,-383.047749
3444.872903,-8512.368333,-370.102971,995.924147
3444.873241,-10362.883188,444.123565,536.266849
3444.873578,-12361.439231,-666.185348,-2145.067394
3444.873916,-9622.677246,-1332.370696,-2451.505594
3444.874253,-8216.285956,-888.247130,0.000000
3444.874591,-9252.574275,-370.102971,229.828649
3444.874928,-10584.944971,-1406.391290,-1225.752797
3444.875266,-11769.274478,-2738.761985,-2298.286494
3444.875603,-9770.718434,-2294.638420,-2068.457845
3444.875941,-8438.347739,0.000000,-995.924147
3444.876279,-9548.656652,1554.432478,306.438199
3444.876616,-11029.068536,592.164754,-1225.752797
3444.876954,-12583.501014,-1258.350101,-1762.019645
3444.877291,-10436.903782,-222.061783,-306.438199
3444.877629,-7772.162391,740.205942,2681.334243
3444.877966,-10732.986159,592.164754,2298.286494
3444.878304,-10066.800811,148.041188,76.609550
3444.878641,-9252.574275,0.000000,536.266849
3444.878979,-8290.306550,-74.020594,1915.238745
3444.879317,-7105.977043,2072.576638,2987.772442
3444.879654,-9918.759623,2590.720797,1455.581446
3444.879992,-13027.624579,74.020594,-995.924147
3444.880329,-11251.130318,740.205942,-1838.629195
3444.880667,-8216.285956,1924.535449,-536.266849
3444.881004,-8068.244768,1480.411884,919.314598
3444.881342,-10584.944971,-296.082377,689.485948
3444.881680,-11843.295072,-1776.494261,-766.095498
3444.882017,-9992.780217,148.041188,-1072.533697
3444.882355,-10066.800811,-814.226536,-383.047749
3444.882692,-10214.842000,-74.020594,153.219100
3444.883030,-11843.295072,-2664.741391,-689.485948
3444.883367,-10584.944971,-2590.720797,536.266849
3444.883705,-8512.368333,-1554.432478,1762.019645
3444.884042,-9918.759623,0.000000,3064.381992
3444.884380,-11695.253884,-518.144159,459.657299
3444.884718,-12731.542202,-2664.741391,-689.485948
3444.885055,-10584.944971,-2960.823768,1532.190996
3444.885393,-7179.997637,-962.267725,2451.505594
3444.885730,-8956.491898,-1110.308913,4519.963438
3444.886068,-10881.027347,-888.247130,2298.286494
3444.886405,-10955.047942,-2368.659014,689.485948
3444.886743,-9548.656652,-222.061783,1378.971896
3444.887081,-8068.244768,1554.432478,2068.457845
3444.887418,-11251.130318,1554.432478,1685.410096
3444.887756,-11917.315666,0.000000,-2528.115143
3444.888093,-8290.306550,-962.267725,-4060.306139
3444.888431,-6883.915261,0.000000,229.828649
3444.888768,-9030.512492,370.102971,2911.162892
3444.889106,-11251.130318,0.000000,0.000000
3444.889443,-12509.480420,-1406.391290,-1915.238745
3444.889781,-8882.471304,0.000000,-766.095498
3444.890119,-7846.182985,148.041188,2374.896044
3444.890456,-10955.047942,0.000000,2068.457845
3444.890794,-11917.315666,0.000000,-1915.238745
3444.891131,-10362.883188,-444.123565,-3217.601092
3444.891469,-8882.471304,518.144159,229.828649
3444.891806,-10066.800811,666.185348,2374.896044
3444.892144,-10140.821405,2294.638420,-612.876398
3444.892481,-10362.883188,222.061783,-1915.238745
3444.892819,-10288.862594,-222.061783,-536.266849
3444.893157,-9548.656652,814.226536,1072.533697
3444.893494,-10732.986159,1036.288319,1149.143247
3444.893832,-11695.253884,-370.102971,-1302.362347
3444.894169,-10288.862594,-1924.535449,-3447.429741
3444.894507,-8068.244768,0.000000,-1838.629195
3444.894844,-6439.791695,222.061783,459.657299
3444.895182,-8882.471304,148.041188,459.657299
3444.895520,-11843.295072,-1258.350101,-1838.629195
3444.895857,-12213.398043,-1850.514855,-2604.724693
3444.896195,-10955.047942,-1036.288319,383.047749
3444.896532,-10510.924376,-814.226536,1608.800546
3444.896870,-9474.636058,-2368.659014,229.828649
3444.897207,-9104.533087,-2368.659014,-2834.553343
3444.897545,-8290.306550,-3108.864956,-1072.533697
3444.897882,-8808.450710,-1998.556043,1225.752797
3444.898220,-9918.759623,-1776.494261,2374.896044
3444.898558,-12805.562797,-1924.535449,1991.848295
3444.898895,-12065.356855,-814.226536,1072.533697
3444.899233,-9696.697840,1110.308913,3064.381992
3444.899570,-10140.821405,814.226536,3294.210641
3444.899908,-9918.759623,518.144159,2298.286494
3444.900245,-10732.986159,222.061783,2221.676944
3444.900583,-11251.130318,0.000000,3447.429741
3444.900920,-9844.739029,1036.288319,2604.724693
3444.901258,-9770.718434,2368.659014,1608.800546
3444.901596,-11103.089130,1332.370696,383.047749
3444.901933,-9844.739029,370.102971,-2145.067394
3444.902271,-8290.306550,0.000000,-842.705048
3444.902608,-7846.182985,2220.617826,1685.410096
3444.902946,-8290.306550,1850.514855,612.876398
3444.903283,-11769.274478,1998.556043,-536.266849
3444.903621,-12435.459826,444.123565,-1455.581446
3444.903959,-9918.759623,0.000000,-229.828649
3444.904296,-8438.347739,-888.247130,1149.143247
3444.904634,-8216.285956,-666.185348,1838.629195
3444.904971,-9252.574275,-1628.453072,306.438199
3444.905309,-9992.780217,-1406.391290,-1685.410096
3444.905646,-9474.636058,-1110.308913,-612.876398
3444.905984,-10436.903782,0.000000,-612.876398
3444.906321,-10584.944971,-1184.329507,-1149.143247
3444.906659,-11251.130318,-666.185348,-536.266849
3444.906997,-9178.553681,74.020594,0.000000
3444.907334,-8586.388927,518.144159,1072.533697
3444.907672,-11251.130318,148.041188,919.314598
3444.908009,-13101.645173,-814.226536,-459.657299
3444.908347,-10955.047942,-1258.350101,-2451.505594
3444.908684,-9030.512492,-1258.350101,-995.924147
3444.909022,-9104.533087,-370.102971,1149.143247
3444.909359,-11103.089130,-962.267725,-536.266849
3444.909697,-12361.439231,-148.041188,-2987.772442
3444.910035,-10362.883188,-444.123565,-4366.744339
3444.910372,-9104.533087,592.164754,-1991.848295
3444.910710,-9178.553681,-1110.308913,-612.876398
3444.911047,-11399.171507,-2442.679609,995.924147
3444.911385,-10510.924376,-3330.926739,459.657299
3444.911722,-8882.471304,-2294.638420,536.266849
3444.912060,-8142.265362,-740.205942,1685.410096
3444.912398,-9770.718434,-2072.576638,1532.190996
3444.912735,-9474.636058,-2442.679609,153.219100
3444.913073,-8882.471304,-962.267725,1149.143247
3444.913410,-10807.006753,1110.308913,3907.087040
3444.913747,-11399.171507,1480.411884,3907.087040
3444.914085,-10436.903782,1332.370696,919.314598
3444.914422,-10436.903782,814.226536,1072.533697
3444.914760,-10510.924376,1776.494261,1991.848295
3444.915097,-9548.656652,2294.638420,1991.848295
3444.915435,-9474.636058,1776.494261,2757.943793
3444.915772,-9696.697840,1480.411884,1302.362347
3444.916110,-11621.233289,1258.350101,0.000000
3444.916447,-11103.089130,2738.761985,-459.657299
3444.916784,-10066.800811,1924.535449,-383.047749
3444.917122,-10732.986159,-666.185348,-1455.581446
3444.917459,-8660.409521,-1036.288319,-1072.533697
3444.917797,-7105.977043,148.041188,0.000000
3444.918134,-9104.533087,0.000000,2068.457845
3444.918472,-11325.150913,-518.144159,229.828649
3444.918809,-11547.212695,-1850.514855,-1302.362347
3444.919147,-9548.656652,-2590.720797,306.438199
3444.919484,-8438.347739,-2738.761985,3370.820191
3444.919822,-10066.800811,-1332.370696,4366.744339
3444.920159,-10288.862594,-1924.535449,459.657299
3444.920496,-10658.965565,-2294.638420,-306.438199
3444.920834,-9622.677246,-1110.308913,-689.485948
3444.921171,-9252.574275,-370.102971,383.047749
3444.921509,-9474.636058,0.000000,-919.314598
3444.921846,-11251.130318,-1110.308913,-2451.505594
3444.922184,-10362.883188,-222.061783,-1915.238745
3444.922521,-8660.409521,-1702.473667,-919.314598
3444.922859,-7920.203579,-740.205942,1991.848295
3444.923196,-11251.130318,-74.020594,1915.238745
3444.923533,-14063.912898,0.000000,-842.705048
3444.923871,-12213.398043,-148.041188,-2681.334243
3444.924208,-9918.759623,0.000000,-536.266849
3444.924546,-10584.944971,370.102971,612.876398
3444.924883,-10510.924376,-740.205942,-2068.457845
3444.925221,-10510.924376,-888.247130,-2451.505594
3444.925558,-9400.615463,-592.164754,-1991.848295
3444.925896,-9548.656652,0.000000,-383.047749
3444.926233,-9030.512492,0.000000,0.000000
3444.926571,-9326.594869,-888.247130,-766.095498
3444.926908,-10362.883188,-814.226536,536.266849
3444.927245,-10436.903782,-74.020594,2068.457845
3444.927583,-10436.903782,1998.556043,2757.943793
3444.927920,-10288.862594,962.267725,1532.190996
3444.928258,-9548.656652,74.020594,536.266849
3444.928595,-8882.471304,1258.350101,919.314598
3444.928933,-9474.636058,1998.556043,1302.362347
3444.929270,-9326.594869,1702.473667,76.609550
3444.929608,-9104.533087,740.205942,-1455.581446
3444.929945,-9696.697840,222.061783,0.000000
3444.930282,-9622.677246,222.061783,1685.410096
3444.930620,-10881.027347,2072.576638,1991.848295
3444.930957,-11325.150913,1998.556043,306.438199
3444.931295,-11621.233289,-962.267725,-2298.286494
3444.931632,-9030.512492,-370.102971,-1762.019645
3444.931970,-7994.224174,222.061783,-459.657299
3444.932307,-9770.718434,-1628.453072,1225.752797
3444.932645,-11769.274478,-2516.700203,766.095498
3444.932982,-11325.150913,-1628.453072,1455.581446
3444.933320,-9770.718434,-1110.308913,1915.238745
3444.933657,-10140.821405,-1258.350101,1762.019645
3444.933994,-10140.821405,-1776.494261,1225.752797
3444.934332,-10658.965565,-2146.597232,1149.143247
3444.934669,-9474.636058,-1406.391290,1149.143247
3444.935007,-9252.574275,-1184.329507,2911.162892
3444.935344,-9770.718434,-222.061783,2987.772442
3444.935682,-10807.006753,-814.226536,1455.581446
3444.936019,-11991.336260,-1184.329507,689.485948
3444.936357,-9400.615463,1036.288319,459.657299
3444.936694,-7994.224174,1184.329507,1149.143247
3444.937031,-10658.965565,666.185348,766.095498
3444.937369,-11769.274478,-1332.370696,-2068.457845
3444.937706,-9548.656652,-666.185348,-1991.848295
3444.938044,-8956.491898,-296.082377,-766.095498
3444.938381,-9326.594869,222.061783,0.000000
3444.938719,-10732.986159,814.226536,-2221.676944
3444.939056,-9400.615463,-1628.453072,-3217.601092
3444.939394,-9400.615463,0.000000,-1378.971896
3444.939731,-9918.759623,1184.329507,383.047749
3444.940069,-11325.150913,814.226536,-306.438199
3444.940406,-11769.274478,-666.185348,-2374.896044
3444.940743,-10436.903782,-2220.617826,-2604.724693
3444.941081,-8882.471304,-1036.288319,1072.533697
3444.941418,-8586.388927,0.000000,2528.115143
3444.941756,-9622.677246,-222.061783,689.485948
3444.942093,-11177.109724,-296.082377,-1608.800546
3444.942431,-10732.986159,-592.164754,-766.095498
3444.942768,-11473.192101,370.102971,1532.190996
3444.943106,-10214.842000,1480.411884,306.438199
3444.943443,-9844.739029,1628.453072,-306.438199
3444.943780,-10955.047942,0.000000,-842.705048
3444.944118,-8808.450710,0.000000,-306.438199
3444.944455,-7994.224174,0.000000,536.266849
3444.944793,-10510.924376,0.000000,612.876398
3444.945130,-11843.295072,-2960.823768,-766.095498
3444.945468,-10288.862594,-1332.370696,-1378.971896
3444.945805,-7994.224174,-1258.350101,153.219100
3444.946143,-7846.182985,-1480.411884,1608.800546
3444.946480,-9474.636058,-592.164754,919.314598
3444.946818,-11029.068536,-1702.473667,306.438199
3444.947155,-11029.068536,-1776.494261,1378.971896
3444.947492,-10436.903782,-666.185348,2604.724693
3444.947830,-10732.986159,296.082377,2987.772442
3444.948167,-10807.006753,-592.164754,689.485948
3444.948505,-9400.615463,-2220.617826,612.876398
3444.948842,-8142.265362,-740.205942,2834.553343
3444.949180,-9474.636058,962.267725,4060.306139
3444.949517,-11917.315666,1036.288319,3140.991542
3444.949855,-13175.665768,814.226536,1455.581446
3444.950192,-11769.274478,1110.308913,459.657299
3444.950529,-9030.512492,2812.782580,689.485948
3444.950867,-8734.430116,2664.741391,2145.067394
3444.951204,-10436.903782,1554.432478,153.219100
3444.951542,-10732.986159,-740.205942,-1302.362347
3444.951879,-9844.739029,1036.288319,-995.924147
3444.952217,-8882.471304,1850.514855,0.000000
3444.952554,-10510.924376,-222.061783,-306.438199
3444.952892,-10288.862594,-1036.288319,-2451.505594
3444.953229,-9030.512492,-2368.659014,-2221.676944
3444.953566,-8142.265362,-666.185348,459.657299
3444.953904,-8438.347739,-296.082377,1532.190996
3444.954241,-12139.377449,444.123565,153.219100
3444.954579,-12731.542202,-814.226536,-3447.429741
3444.954916,-9770.718434,-1258.350101,-3753.867940
3444.955254,-7476.080014,444.123565,-1455.581446
3444.955591,-7698.141797,-296.082377,-383.047749
3444.955929,-11325.150913,-2294.638420,-919.314598
3444.956266,-10584.944971,-3182.885551,-919.314598
3444.956604,-8882.471304,-2442.679609,1149.143247
3444.956941,-8882.471304,444.123565,3600.648841
3444.957278,-11991.336260,2072.576638,1225.752797
3444.957616,-13397.727550,0.000000,-2221.676944
3444.957953,-11547.212695,-888.247130,-2374.896044
3444.958291,-8142.265362,74.020594,153.219100
3444.958628,-8586.388927,1924.535449,2145.067394
3444.958966,-10288.862594,296.082377,0.000000
3444.959303,-12879.583391,-1628.453072,-2604.724693
3444.959641,-11621.233289,-1850.514855,-1838.629195
3444.959978,-7920.203579,148.041188,766.095498
3444.960315,-7402.059420,1184.329507,3140.991542
3444.960653,-11473.192101,-888.247130,229.828649
3444.960990,-12583.501014,-740.205942,-1072.533697
3444.961328,-10362.883188,-74.020594,0.000000
3444.961665,-9104.533087,740.205942,3447.429741
3444.962003,-9548.656652,814.226536,2604.724693
3444.962340,-10362.883188,-592.164754,536.266849
3444.962678,-8364.327145,-592.164754,842.705048
3444.963015,-6661.853478,-74.020594,2681.334243
3444.963353,-8956.491898,1628.453072,4060.306139
3444.963690,-13619.789333,222.061783,1608.800546
3444.964027,-12657.521608,-666.185348,-689.485948
3444.964365,-8586.388927,-296.082377,842.705048
3444.964702,-6069.688724,1554.432478,3830.477490
3444.965040,-8364.327145,1628.453072,4290.134789
3444.965377,-11769.274478,888.247130,0.000000
3444.965715,-11843.295072,-2146.597232,-2911.162892
3444.966052,-9104.533087,-222.061783,-383.047749
3444.966390,-9696.697840,1258.350101,2987.772442
3444.966727,-11843.295072,518.144159,0.000000
3444.967064,-9992.780217,-1258.350101,-4596.572988
3444.967402,-8364.327145,-2368.659014,-3447.429741
3444.967739,-8882.471304,-1998.556043,1302.362347
3444.968077,-10288.862594,-740.205942,2528.115143
3444.968414,-12953.603985,-1184.329507,0.000000
3444.968752,-12583.501014,-1776.494261,-1532.190996
3444.969089,-10214.842000,-1924.535449,-1378.971896
3444.969427,-8290.306550,-814.226536,1991.848295
3444.969764,-8586.388927,-518.144159,2528.115143
3444.970102,-9770.718434,-888.247130,-153.219100
3444.970439,-10732.986159,-666.185348,-842.705048
3444.970776,-11621.233289,888.247130,536.266849
3444.971114,-10066.800811,666.185348,229.828649
3444.971451,-10288.862594,296.082377,-459.657299
3444.971789,-10066.800811,-740.205942,-2068.457845
3444.972126,-8438.347739,-370.102971,-1302.362347
3444.972464,-7476.080014,814.226536,1991.848295
3444.972801,-8290.306550,592.164754,1378.971896
3444.973139,-12139.377449,1184.329507,-153.219100
3444.973476,-13101.645173,1554.432478,-2681.334243
3444.973813,-10436.903782,1480.411884,-2528.115143
3444.974151,-7994.224174,1258.350101,-689.485948
3444.974488,-7105.977043,222.061783,-842.705048
3444.974826,-9178.553681,-1110.308913,-1838.629195
3444.975163,-10436.903782,-2072.576638,-1149.143247
3444.975501,-10140.821405,0.000000,536.266849
3444.975838,-10732.986159,444.123565,2374.896044
3444.976176,-11251.130318,814.226536,1762.019645
3444.976513,-12139.377449,296.082377,766.095498
3444.976851,-9178.553681,-666.185348,536.266849
3444.977188,-7402.059420,-296.082377,2528.115143
3444.977525,-10214.842000,1110.308913,3217.601092
3444.977863,-10584.944971,222.061783,536.266849
3444.978200,-10584.944971,0.000000,-766.095498
3444.978538,-10510.924376,0.000000,0.000000
3444.978875,-8808.450710,74.020594,1685.410096
3444.979213,-10510.924376,518.144159,1838.629195
3444.979550,-9770.718434,-1258.350101,-536.266849
3444.979888,-8438.347739,-592.164754,-842.705048
3444.980225,-9992.780217,-296.082377,689.485948
3444.980562,-10140.821405,-666.185348,919.314598
3444.980900,-10881.027347,-1776.494261,612.876398
3444.981237,-10362.883188,-2220.617826,536.266849
3444.981575,-8586.388927,-740.205942,1225.752797
3444.981912,-8734.430116,74.020594,1072.533697
3444.982250,-9844.739029,-592.164754,306.438199
3444.982587,-13249.686362,-2368.659014,536.266849
3444.982925,-11917.315666,-1258.350101,0.000000
3444.983262,-9770.718434,-666.185348,1455.581446
3444.983600,-9400.615463,0.000000,2451.505594
3444.983937,-8734.430116,-518.144159,2068.457845
3444.984274,-10140.821405,0.000000,1532.190996
3444.984612,-10214.842000,1480.411884,1762.019645
3444.984949,-10510.924376,1258.350101,1455.581446
3444.985287,-12509.480420,2516.700203,842.705048
3444.985624,-11177.109724,1406.391290,-1762.019645
3444.985962,-8290.306550,444.123565,-2068.457845
3444.986299,-7550.100608,-444.123565,0.000000
3444.986637,-7698.141797,1406.391290,842.705048
3444.986974,-11029.068536,666.185348,229.828649
3444.987311,-12731.542202,-666.185348,-1915.238745
3444.987649,-10955.047942,444.123565,-2757.943793
3444.987986,-8660.409521,-148.041188,-1532.190996
3444.988324,-8364.327145,-1036.288319,995.924147
3444.988661,-9474.636058,-1998.556043,-689.485948
3444.988999,-9474.636058,-1406.391290,-2221.676944
3444.989336,-8512.368333,-1258.350101,-3600.648841
3444.989674,-9104.533087,-2590.720797,-2221.676944
3444.990011,-8512.368333,-3034.844362,-1532.190996
3444.990349,-9326.594869,-3849.070898,-1532.190996
3444.990686,-9326.594869,-2220.617826,612.876398
3444.991023,-10362.883188,74.020594,2221.676944
3444.991361,-11843.295072,1406.391290,1149.143247
3444.991698,-13323.706956,370.102971,229.828649
3444.992036,-13693.809927,-1110.308913,1991.848295
3444.992373,-10066.800811,-296.082377,2298.286494
3444.992711,-8882.471304,-666.185348,3600.648841
3444.993048,-9326.594869,-666.185348,3677.258390
3444.993386,-10955.047942,-1924.535449,1072.533697
3444.993723,-10881.027347,-296.082377,153.219100
3444.994060,-10881.027347,1480.411884,76.609550
3444.994398,-10955.047942,1998.556043,0.000000
3444.994735,-11621.233289,1406.391290,-1762.019645
3444.995073,-10140.821405,0.000000,-2451.505594
3444.995410,-8438.347739,-1184.329507,-995.924147
3444.995748,-7031.956449,-962.267725,995.924147
3444.996085,-6957.935855,0.000000,2451.505594
3444.996423,-9770.718434,-1332.370696,1685.410096
3444.996760,-10881.027347,-2368.659014,1838.629195
3444.997098,-9104.533087,-962.267725,2298.286494
3444.997435,-8734.430116,0.000000,3447.429741
3444.997772,-10881.027347,1036.288319,3677.258390
3444.998110,-11399.171507,666.185348,766.095498
3444.998447,-8956.491898,2146.597232,-766.095498
3444.998785,-9400.615463,2220.617826,229.828649
3444.999122,-10436.903782,1776.494261,1225.752797
3444.999460,-10584.944971,222.061783,689.485948
3444.999797,-10288.862594,444.123565,383.047749
3445.000135,-9770.718434,1628.453072,76.609550
3445.000472,-9770.718434,2886.803174,-1838.629195
3445.000809,-11399.171507,1998.556043,-2681.334243
3445.001147,-11029.068536,-296.082377,-3600.648841
3445.001484,-10140.821405,-814.226536,-1915.238745
3445.001822,-10066.800811,-518.144159,689.485948
3445.002159,-10807.006753,0.000000,536.266849
3445.002497,-10881.027347,-1258.350101,-689.485948
3445.002834,-9474.636058,-2220.617826,-2834.553343
3445.003172,-9178.553681,-2590.720797,-1915.238745
3445.003509,-8586.388927,-2146.597232,-229.828649
3445.003846,-9918.759623,-2368.659014,153.219100
3445.004184,-10955.047942,-2368.659014,-1302.362347
3445.004521,-9104.533087,-1554.432478,-1532.190996
3445.004859,-9696.697840,-1406.391290,-459.657299
3445.005196,-10807.006753,-1406.391290,1685.410096
3445.005534,-11029.068536,-1776.494261,2298.286494
3445.005871,-11029.068536,-2072.576638,1915.238745
3445.006209,-9030.512492,-1110.308913,2374.896044
3445.006546,-8734.430116,1628.453072,3140.991542
3445.006884,-11547.212695,1406.391290,3600.648841
3445.007221,-11843.295072,740.205942,153.219100
3445.007558,-11103.089130,740.205942,-306.438199
3445.007896,-10214.842000,1480.411884,1608.800546
3445.008233,-9252.574275,296.082377,842.705048
3445.008571,-9770.718434,518.144159,-383.047749
3445.008908,-9474.636058,1036.288319,-1991.848295
3445.009246,-8290.306550,370.102971,-1915.238745
3445.009583,-9178.553681,222.061783,0.000000
3445.009921,-10658.965565,0.000000,2221.676944
3445.010258,-12139.377449,370.102971,1149.143247
3445.010595,-11103.089130,-444.123565,-306.438199
3445.010933,-8512.368333,0.000000,1225.752797
3445.011270,-7328.038826,-666.185348,2374.896044
3445.011608,-8364.327145,-2072.576638,2528.115143
3445.011945,-9770.718434,-1850.514855,1378.971896
3445.012282,-10140.821405,-1628.453072,306.438199
3445.012620,-9844.739029,-148.041188,306.438199
3445.012957,-10807.006753,-148.041188,1838.629195
3445.013294,-10658.965565,1110.308913,306.438199
3445.013632,-9770.718434,222.061783,-766.095498
3445.013969,-10362.883188,148.041188,76.609550
3445.014307,-9252.574275,-518.144159,1149.143247
3445.014644,-10732.986159,-962.267725,919.314598
3445.014981,-10658.965565,-1184.329507,-383.047749
3445.015319,-10955.047942,-148.041188,-1225.752797
3445.015656,-10658.965565,-1332.370696,-689.485948
3445.015993,-9770.718434,-148.041188,-1455.581446
3445.016331,-9030.512492,-444.123565,-1762.019645
3445.016668,-10807.006753,-1924.535449,-995.924147
3445.017006,-10362.883188,-1776.494261,-919.314598
3445.017343,-9918.759623,-1184.329507,-995.924147
3445.017680,-10436.903782,-518.144159,383.047749
3445.018018,-10140.821405,-1850.514855,-306.438199
3445.018355,-9252.574275,-1554.432478,536.266849
3445.018692,-9474.636058,-962.267725,2298.286494
3445.019030,-9548.656652,0.000000,689.485948
3445.019367,-11325.150913,666.185348,0.000000
3445.019705,-11177.109724,-666.185348,536.266849
3445.020042,-10362.883188,-1110.308913,919.314598
3445.020379,-8956.491898,1480.411884,1838.629195
3445.020717,-8364.327145,2960.823768,1149.143247
3445.021054,-9474.636058,3552.988522,76.609550
3445.021391,-11473.192101,1776.494261,-1685.410096
3445.021729,-10362.883188,592.164754,-689.485948
3445.022066,-9252.574275,1406.391290,1225.752797
3445.022404,-10732.986159,888.247130,2604.724693
3445.022741,-11843.295072,592.164754,536.266849
3445.023078,-9622.677246,0.000000,-766.095498
3445.023416,-7550.100608,-814.226536,153.219100
3445.023753,-7920.203579,-1776.494261,2145.067394
3445.024090,-10510.924376,-1184.329507,1991.848295
3445.024428,-11399.171507,-592.164754,-153.219100
3445.024765,-10881.027347,0.000000,-1762.019645
3445.025103,-9326.594869,1258.350101,-2451.505594
3445.025440,-9400.615463,666.185348,-1762.019645
3445.025777,-11103.089130,-1554.432478,0.000000
3445.026115,-9918.759623,-3404.947333,1072.533697
3445.026452,-7402.059420,-1998.556043,3370.820191
3445.026789,-9474.636058,-1554.432478,5592.497135
3445.027127,-11917.315666,-962.267725,3983.696590
3445.027464,-12435.459826,-1184.329507,612.876398
3445.027802,-11621.233289,-1184.329507,153.219100
3445.028139,-9178.553681,-740.205942,1072.533697
3445.028476,-8364.327145,-296.082377,1838.629195
3445.028814,-9548.656652,370.102971,459.657299
3445.029151,-11399.171507,-370.102971,-1685.410096
3445.029488,-10288.862594,-1184.329507,-3447.429741
3445.029826,-8660.409521,296.082377,-612.876398
3445.030163,-9474.636058,222.061783,1455.581446
3445.030501,-11029.068536,-1924.535449,153.219100
3445.030838,-9992.780217,-2072.576638,-2221.676944
3445.031175,-8512.368333,-962.267725,-689.485948
3445.031513,-9548.656652,-296.082377,1072.533697
3445.031850,-11325.150913,-592.164754,76.609550
3445.032187,-11325.150913,0.000000,-995.924147
3445.032525,-9622.677246,-888.247130,-689.485948
3445.032862,-8734.430116,-518.144159,1378.971896
3445.033200,-9252.574275,0.000000,2298.286494
3445.033537,-10362.883188,888.247130,919.314598
3445.033874,-11621.233289,0.000000,-383.047749
3445.034212,-11325.150913,-666.185348,-229.828649
3445.034549,-8734.430116,1036.288319,612.876398
3445.034886,-7328.038826,1998.556043,536.266849
3445.035224,-10140.821405,740.205942,-153.219100
3445.035561,-12139.377449,148.041188,-1302.362347
3445.035899,-11399.171507,666.185348,-1838.629195
3445.036236,-8586.388927,1332.370696,-1149.143247
3445.036573,-9770.718434,666.185348,306.438199
3445.036911,-10658.965565,-1776.494261,0.000000
3445.037248,-9474.636058,-1628.453072,-1072.533697
3445.037585,-7994.224174,-444.123565,-306.438199
3445.037923,-9252.574275,0.000000,1685.410096
3445.038260,-13249.686362,-666.185348,0.000000
3445.038598,-13989.892304,-1850.514855,-2604.724693
3445.038935,-9770.718434,-1554.432478,-2604.724693
3445.039272,-7550.100608,0.000000,1225.752797
3445.039610,-8216.285956,-1776.494261,1762.019645
3445.039947,-9474.636058,-2738.761985,689.485948
3445.040284,-9844.739029,-2664.741391,1991.848295
3445.040622,-10732.986159,0.000000,2911.162892
3445.040959,-11843.295072,1924.535449,2834.553343
3445.041297,-11769.274478,296.082377,1149.143247
3445.041634,-10362.883188,-962.267725,1685.410096
3445.041971,-8216.285956,-1110.308913,1685.410096
3445.042309,-6883.915261,0.000000,3294.210641
3445.042646,-9548.656652,1776.494261,3370.820191
3445.042983,-12287.418637,1184.329507,229.828649
3445.043321,-12509.480420,296.082377,-2757.943793
3445.043658,-9400.615463,1406.391290,-2145.067394
3445.043996,-7179.997637,888.247130,229.828649
3445.044333,-8216.285956,814.226536,842.705048
3445.044670,-9474.636058,-296.082377,-1685.410096
3445.045008,-10807.006753,-814.226536,-1608.800546
3445.045345,-11473.192101,74.020594,459.657299
3445.045682,-10066.800811,962.267725,536.266849
3445.046020,-10510.924376,0.000000,-153.219100
3445.046357,-11547.212695,-962.267725,306.438199
3445.046695,-8808.450710,-740.205942,-306.438199
3445.047032,-7994.224174,74.020594,459.657299
3445.047369,-10658.965565,444.123565,995.924147
3445.047707,-13175.665768,-148.041188,-536.266849
3445.048044,-11769.274478,296.082377,-2068.457845
3445.048381,-7920.203579,-222.061783,-1149.143247
3445.048719,-7031.956449,0.000000,2451.505594
3445.049056,-10214.842000,-296.082377,1991.848295
3445.049394,-11843.295072,-666.185348,-1302.362347
3445.049731,-9918.759623,-666.185348,-1991.848295
3445.050068,-10436.903782,148.041188,-536.266849
3445.050406,-10288.862594,444.123565,76.609550
3445.050743,-9770.718434,0.000000,-1072.533697
3445.051080,-9030.512492,-1850.514855,-919.314598
3445.051418,-9326.594869,-2442.679609,-766.095498
3445.051755,-8660.409521,-1036.288319,0.000000
3445.052093,-10362.883188,222.061783,0.000000
3445.052430,-12065.356855,-1184.329507,-919.314598
3445.052767,-10436.903782,-1998.556043,-2987.772442
3445.053105,-8956.491898,-2220.617826,-536.266849
3445.053442,-9918.759623,-1998.556043,3677.258390
3445.053779,-8142.265362,-1554.432478,2451.505594
3445.054117,-10584.944971,-444.123565,1991.848295
3445.054454,-12287.418637,-888.247130,1762.019645
3445.054792,-11103.089130,592.164754,1455.581446
3445.055129,-11399.171507,1184.329507,3140.991542
3445.055466,-11103.089130,1110.308913,2911.162892
3445.055804,-10510.924376,-370.102971,1532.190996
3445.056141,-7105.977043,0.000000,459.657299
3445.056478,-7254.018232,1036.288319,2604.724693
3445.056816,-10881.027347,2220.617826,3600.648841
3445.057153,-13249.686362,0.000000,1455.581446
3445.057491,-11103.089130,592.164754,-1838.629195
3445.057828,-8364.327145,148.041188,-1608.800546
3445.058165,-7550.100608,518.144159,0.000000
3445.058503,-8956.491898,592.164754,76.609550
3445.058840,-9992.780217,-148.041188,-2374.896044
3445.059177,-9696.697840,-962.267725,-2451.505594
3445.059515,-9844.739029,-1776.494261,-1455.581446
3445.059852,-9326.594869,-1184.329507,1225.752797
3445.060190,-10066.800811,-3182.885551,1685.410096
3445.060527,-9548.656652,-1850.514855,612.876398
3445.060864,-9548.656652,-592.164754,-229.828649
3445.061202,-12213.398043,-666.185348,1149.143247
3445.061539,-11843.295072,-1628.453072,383.047749
3445.061876,-10214.842000,-1480.411884,0.000000
3445.062214,-10066.800811,666.185348,1455.581446
3445.062551,-10658.965565,-666.185348,383.047749
3445.062889,-10436.903782,-666.185348,-383.047749
3445.063226,-9104.533087,-1332.370696,-1455.581446
3445.063563,-8438.347739,0.000000,-383.047749
3445.063901,-11251.130318,222.061783,919.314598
3445.064238,-12509.480420,-666.185348,612.876398
3445.064575,-9474.636058,0.000000,-459.657299
3445.064913,-9918.759623,0.000000,-229.828649
3445.065250,-10584.944971,74.020594,-383.047749
3445.065588,-8956.491898,148.041188,-2068.457845
3445.065925,-9474.636058,-222.061783,-1838.629195
3445.066262,-9622.677246,-222.061783,-1532.190996
3445.066600,-9104.533087,-518.144159,-459.657299
3445.066937,-9252.574275,-592.164754,689.485948
3445.067274,-10436.903782,-740.205942,459.657299
3445.067612,-10362.883188,0.000000,766.095498
3445.067949,-9770.718434,888.247130,1302.362347
3445.068287,-9992.780217,740.205942,2528.115143
3445.068624,-10807.006753,1110.308913,1762.019645
3445.068961,-11251.130318,962.267725,1455.581446
3445.069299,-11103.089130,1850.514855,1532.190996
3445.069636,-11029.068536,740.205942,1302.362347
3445.069973,-8882.471304,1184.329507,919.314598
3445.070311,-8586.388927,1184.329507,536.266849
3445.070648,-10510.924376,518.144159,383.047749
3445.070986,-9918.759623,0.000000,0.000000
3445.071323,-9548.656652,444.123565,229.828649
3445.071660,-10140.821405,592.164754,1225.752797
3445.071998,-10955.047942,296.082377,153.219100
3445.072335,-11029.068536,222.061783,-995.924147
3445.072672,-9474.636058,-888.247130,-1378.971896
3445.073010,-9178.553681,-1332.370696,1149.143247
3445.073347,-9548.656652,-2072.576638,383.047749
3445.073685,-8438.347739,-2960.823768,-1838.629195
3445.074022,-8882.471304,-2886.803174,229.828649
3445.074359,-10807.006753,-2664.741391,1378.971896
3445.074697,-11843.295072,-1110.308913,536.266849
3445.075034,-10362.883188,-962.267725,-842.705048
3445.075371,-8808.450710,0.000000,-1149.143247
3445.075709,-9770.718434,-2368.659014,1455.581446
3445.076046,-11177.109724,-1850.514855,2757.943793
3445.076384,-9474.636058,-888.247130,2145.067394
3445.076721,-10955.047942,0.000000,2451.505594
3445.077058,-12213.398043,222.061783,1915.238745
3445.077396,-11251.130318,518.144159,612.876398
3445.077733,-10214.842000,0.000000,1225.752797
3445.078070,-9104.533087,1776.494261,0.000000
3445.078408,-9548.656652,1628.453072,-1225.752797
3445.078745,-12065.356855,888.247130,-2298.286494
3445.079083,-10214.842000,-592.164754,-2451.505594
3445.079420,-8068.244768,0.000000,-1608.800546
3445.079757,-8660.409521,1554.432478,229.828649
3445.080095,-9326.594869,296.082377,-919.314598
3445.080432,-10584.944971,-518.144159,-1608.800546
3445.080769,-9252.574275,-814.226536,-1455.581446
3445.081107,-8956.491898,-666.185348,612.876398
3445.081444,-10140.821405,-592.164754,1532.190996
3445.081782,-10436.903782,-740.205942,536.266849
3445.082119,-9918.759623,-962.267725,-536.266849
3445.082456,-8956.491898,-1480.411884,76.609550
3445.082794,-8142.265362,-370.102971,536.266849
3445.083131,-9918.759623,-1554.432478,459.657299
3445.083468,-10288.862594,444.123565,76.609550
3445.083806,-10288.862594,296.082377,-1225.752797
3445.084143,-10140.821405,814.226536,-612.876398
3445.084481,-9326.594869,444.123565,842.705048
3445.084818,-10732.986159,74.020594,1532.190996
3445.085155,-12731.542202,-1332.370696,1532.190996
3445.085493,-11843.295072,-592.164754,536.266849
3445.085830,-9474.636058,296.082377,1149.143247
3445.086167,-9178.553681,-592.164754,1302.362347
3445.086505,-11325.150913,-1258.350101,459.657299
3445.086842,-10658.965565,-1406.391290,-2145.067394
3445.087180,-9252.574275,-1924.535449,-1302.362347
3445.087517,-8734.430116,-1110.308913,536.266849
3445.087854,-9696.697840,-1110.308913,-383.047749
3445.088192,-9844.739029,-1332.370696,-383.047749
3445.088529,-10584.944971,-1628.453072,612.876398
3445.088866,-9622.677246,-592.164754,1149.143247
3445.089204,-10140.821405,0.000000,1838.629195
3445.089541,-10658.965565,-1480.411884,2911.162892
3445.089879,-9326.594869,-814.226536,2298.286494
3445.090216,-8956.491898,888.247130,1915.238745
3445.090553,-10214.842000,1998.556043,2451.505594
3445.090891,-9844.739029,962.267725,842.705048
3445.091228,-10140.821405,74.020594,689.485948
3445.091565,-9622.677246,2294.638420,76.609550
3445.091903,-9252.574275,2960.823768,-612.876398
3445.092240,-10288.862594,3775.050304,0.000000
3445.092578,-12435.459826,814.226536,-689.485948
3445.092915,-11473.192101,-1554.432478,-612.876398
3445.093252,-7328.038826,0.000000,76.609550
3445.093590,-8216.285956,962.267725,2221.676944
3445.093927,-10807.006753,814.226536,-459.657299
3445.094264,-11325.150913,-1480.411884,-3140.991542
3445.094602,-9622.677246,-592.164754,-2221.676944
3445.094939,-8216.285956,-740.205942,-1302.362347
3445.095277,-9474.636058,0.000000,-153.219100
3445.095614,-11399.171507,-518.144159,-1302.362347
3445.095951,-11621.233289,-2664.741391,-1532.190996
3445.096289,-10510.924376,-2886.803174,0.000000
3445.096626,-8438.347739,-814.226536,1762.019645
3445.096963,-9326.594869,-666.185348,2604.724693
3445.097301,-11177.109724,-2294.638420,1378.971896
3445.097638,-11177.109724,-2516.700203,612.876398
3445.097976,-9474.636058,-1184.329507,919.314598
3445.098313,-9622.677246,-296.082377,2068.457845
3445.098650,-11325.150913,1110.308913,306.438199
3445.098988,-11621.233289,-148.041188,-2451.505594
3445.099325,-8660.409521,0.000000,-2145.067394
3445.099662,-7179.997637,-148.041188,0.000000
3445.100000,-9474.636058,148.041188,2528.115143
3445.100337,-12435.459826,-962.267725,612.876398
3445.100675,-12435.459826,-1406.391290,-1455.581446
3445.101012,-9918.759623,0.000000,0.000000
3445.101349,-8142.265362,444.123565,1991.848295
3445.101687,-9992.780217,0.000000,1915.238745
3445.102024,-11103.089130,-740.205942,-459.657299
3445.102361,-9770.718434,-1480.411884,-919.314598
3445.102699,-9474.636058,0.000000,76.609550
3445.103036,-9992.780217,962.267725,1685.410096
3445.103374,-9400.615463,1258.350101,229.828649
3445.103711,-9400.615463,-296.082377,0.000000
3445.104048,-9030.512492,518.144159,1378.971896
3445.104386,-8438.347739,444.123565,3294.210641
3445.104723,-10288.862594,2220.617826,3983.696590
3445.105060,-11547.212695,3108.864956,1455.581446
3445.105398,-12583.501014,2368.659014,383.047749
3445.105735,-11547.212695,0.000000,919.314598
3445.106073,-8956.491898,592.164754,1991.848295
3445.106410,-6661.853478,1998.556043,383.047749
3445.106747,-8882.471304,-592.164754,-1302.362347
3445.107085,-9326.594869,-1924.535449,-1762.019645
3445.107422,-9622.677246,-592.164754,-2145.067394
3445.107759,-10436.903782,1480.411884,-919.314598
3445.108097,-10881.027347,2294.638420,-2451.505594
3445.108434,-11843.295072,-962.267725,-4366.744339
3445.108772,-9770.718434,-1628.453072,-2987.772442
3445.109109,-7698.141797,-2220.617826,-612.876398
3445.109446,-8586.388927,-1036.288319,1225.752797
3445.109784,-10732.986159,-1480.411884,-459.657299
3445.110121,-12435.459826,-3627.009116,-2068.457845
3445.110458,-10955.047942,-1924.535449,-1072.533697
3445.110796,-9474.636058,-962.267725,612.876398
3445.111133,-9030.512492,2220.617826,-383.047749
3445.111471,-10362.883188,1850.514855,-2911.162892
3445.111808,-12361.439231,222.061783,-2987.772442
3445.112145,-10807.006753,740.205942,-1991.848295
3445.112482,-8956.491898,2072.576638,229.828649
3445.112819,-9770.718434,3775.050304,459.657299
3445.113157,-11917.315666,814.226536,-536.266849
3445.113494,-12435.459826,592.164754,-2221.676944
3445.113831,-7550.100608,1480.411884,-2757.943793
3445.114169,-8068.244768,3330.926739,1149.143247
3445.114506,-9844.739029,2738.761985,-766.095498
3445.114843,-11843.295072,2368.659014,-4673.182538
3445.115181,-11325.150913,2516.700203,-5362.668486
3445.115518,-7994.224174,3256.906145,-4290.134789
3445.115855,-9030.512492,2590.720797,-1915.238745
3445.116193,-9548.656652,1406.391290,-3753.867940
3445.116530,-8734.430116,740.205942,-2911.162892
3445.116867,-9696.697840,518.144159,-306.438199
3445.117205,-9252.574275,1184.329507,153.219100
3445.117542,-10807.006753,1258.350101,229.828649
3445.117879,-11843.295072,2146.597232,-842.705048
3445.118216,-9696.697840,1332.370696,-1991.848295
3445.118554,-9326.594869,1776.494261,0.000000
3445.118891,-8956.491898,1998.556043,919.314598
3445.119228,-10436.903782,2960.823768,-766.095498
3445.119566,-11695.253884,2516.700203,-3370.820191
3445.119903,-9918.759623,1406.391290,-3830.477490
3445.120240,-9474.636058,666.185348,459.657299
3445.120578,-9548.656652,2368.659014,1532.190996
3445.120915,-10436.903782,2886.803174,-1149.143247
3445.121252,-12805.562797,1924.535449,-4366.744339
3445.121590,-10584.944971,148.041188,-5132.839837
3445.121927,-8216.285956,-666.185348,-1685.410096
3445.122264,-8660.409521,222.061783,842.705048
3445.122602,-9844.739029,0.000000,-1149.143247
3445.122939,-10881.027347,1628.453072,-2757.943793
3445.123276,-10288.862594,1480.411884,-4290.134789
3445.123613,-9400.615463,1036.288319,-2451.505594
3445.123951,-10066.800811,962.267725,-536.266849
3445.124288,-10732.986159,1554.432478,-919.314598
3445.124625,-10955.047942,1406.391290,-2757.943793
3445.124963,-9696.697840,1702.473667,-2374.896044
3445.125300,-9178.553681,2294.638420,-919.314598
3445.125637,-8290.306550,1332.370696,-995.924147
3445.125975,-10214.842000,2072.576638,229.828649
3445.126312,-11251.130318,3034.844362,-459.657299
3445.126649,-9696.697840,4367.215058,-1149.143247
3445.126987,-10732.986159,4589.276840,-1685.410096
3445.127324,-10732.986159,4071.132681,-3140.991542
3445.127661,-9474.636058,3997.112087,-4136.915689
3445.127998,-10807.006753,2812.782580,-2757.943793
3445.128336,-9548.656652,1332.370696,-1915.238745
3445.128673,-8660.409521,1480.411884,-2374.896044
3445.129010,-8882.471304,1480.411884,-3600.648841
3445.129348,-10436.903782,1628.453072,-3217.601092
3445.129685,-10881.027347,1036.288319,-4519.963438
3445.130022,-8956.491898,888.247130,-4060.306139
3445.130360,-8956.491898,0.000000,-1225.752797
3445.130697,-10214.842000,74.020594,-306.438199
3445.131034,-10140.821405,962.267725,-2298.286494
3445.131372,-10214.842000,666.185348,-1838.629195
3445.131709,-10658.965565,0.000000,-612.876398
3445.132046,-10732.986159,-370.102971,-1378.971896
3445.132384,-9548.656652,0.000000,-995.924147
3445.132721,-9548.656652,370.102971,-612.876398
3445.133058,-10658.965565,888.247130,-842.705048
3445.133395,-10584.944971,1702.473667,-2221.676944
3445.133733,-10066.800811,2072.576638,-1762.019645
3445.134070,-11029.068536,1702.473667,-842.705048
3445.134407,-10955.047942,1184.329507,-1685.410096
3445.134745,-9770.718434,1998.556043,-1225.752797
3445.135082,-9030.512492,74.020594,0.000000
3445.135419,-10955.047942,962.267725,229.828649
3445.135757,-11177.109724,518.144159,-1762.019645
3445.136094,-9178.553681,2590.720797,-3140.991542
3445.136431,-9548.656652,2516.700203,-2987.772442
3445.136769,-11621.233289,1036.288319,-3447.429741
3445.137106,-8290.306550,1998.556043,-4903.011187
3445.137443,-7846.182985,1628.453072,-3064.381992
3445.137781,-9918.759623,888.247130,306.438199
3445.138118,-10732.986159,1628.453072,-383.047749
3445.138455,-10140.821405,2516.700203,-1532.190996
3445.138792,-9104.533087,2368.659014,-612.876398
3445.139130,-10140.821405,2590.720797,842.705048
3445.139467,-11399.171507,2590.720797,-306.438199
3445.139804,-9918.759623,3997.112087,-2451.505594
3445.140142,-8438.347739,4145.153275,-3370.820191
3445.140479,-9474.636058,3330.926739,-1532.190996
3445.140816,-11991.336260,1702.473667,-1378.971896
3445.141154,-10362.883188,2738.761985,-2528.115143
3445.141491,-7846.182985,3182.885551,-2604.724693
3445.141828,-8882.471304,3627.009116,-689.485948
3445.142166,-10807.006753,814.226536,-1838.629195
3445.142503,-11695.253884,1406.391290,-2757.943793
3445.142840,-8586.388927,2812.782580,-3370.820191
3445.143178,-9548.656652,2960.823768,-2145.067394
3445.143515,-11251.130318,1850.514855,-3677.258390
3445.143852,-11547.212695,-518.144159,-4136.915689
3445.144189,-8364.327145,0.000000,-3064.381992
3445.144527,-7698.141797,0.000000,-2145.067394
3445.144864,-10658.965565,1110.308913,-1915.238745
3445.145201,-12065.356855,1110.308913,-3830.477490
3445.145539,-10436.903782,-888.247130,-2528.115143
3445.145876,-9400.615463,-148.041188,-766.095498
3445.146213,-9474.636058,666.185348,1072.533697
3445.146551,-11473.192101,2960.823768,306.438199
3445.146888,-11769.274478,1850.514855,-2145.067394
3445.147225,-9474.636058,222.061783,-2145.067394
3445.147563,-9474.636058,148.041188,2451.505594
3445.147900,-10732.986159,2368.659014,3064.381992
3445.148237,-11843.295072,4145.153275,-153.219100
3445.148575,-12139.377449,4071.132681,-5056.230287
3445.148912,-9474.636058,3330.926739,-5286.058936
3445.149249,-7994.224174,2072.576638,-2068.457845
3445.149586,-9252.574275,2368.659014,995.924147
3445.149924,-10807.006753,1850.514855,-2451.505594
3445.150261,-10955.047942,3256.906145,-5669.106685
3445.150598,-9474.636058,2368.659014,-4979.620737
3445.150936,-8364.327145,1184.329507,-1838.629195
3445.151273,-8438.347739,962.267725,-306.438199
3445.151610,-9844.739029,370.102971,0.000000
3445.151948,-10955.047942,2220.617826,-612.876398
3445.152285,-10955.047942,2442.679609,-766.095498
3445.152622,-10214.842000,2072.576638,-1915.238745
3445.152960,-8956.491898,1924.535449,-1762.019645
3445.153297,-10140.821405,740.205942,-2451.505594
3445.153634,-9622.677246,888.247130,-2911.162892
3445.153971,-7550.100608,666.185348,-2145.067394
3445.154309,-8808.450710,1110.308913,76.609550
3445.154646,-11473.192101,1628.453072,-1072.533697
3445.154983,-11769.274478,3182.885551,-2911.162892
3445.155321,-12509.480420,4959.379811,-2911.162892
3445.155658,-11177.109724,2516.700203,-2528.115143
3445.155995,-9548.656652,1554.432478,-2604.724693
3445.156333,-7698.141797,740.205942,-2528.115143
3445.156670,-8068.244768,296.082377,-612.876398
3445.157007,-10955.047942,0.000000,-383.047749
3445.157345,-12213.398043,-592.164754,-1455.581446
3445.157682,-10881.027347,592.164754,-2451.505594
3445.158019,-9696.697840,1406.391290,-2681.334243
3445.158357,-9770.718434,1184.329507,-2757.943793
3445.158694,-10658.965565,740.205942,-3370.820191
3445.159031,-9178.553681,444.123565,-3753.867940
3445.159368,-8290.306550,740.205942,-2221.676944
3445.159706,-9474.636058,1702.473667,-1302.362347
3445.160043,-11029.068536,1184.329507,-1149.143247
3445.160380,-10584.944971,222.061783,-306.438199
3445.160718,-8808.450710,1184.329507,1378.971896
3445.161055,-10214.842000,1924.535449,3524.039291
3445.161392,-12287.418637,4071.132681,2681.334243
3445.161730,-11991.336260,4737.318029,-2145.067394
3445.162067,-10955.047942,5181.441594,-4060.306139
3445.162404,-9326.594869,4367.215058,-3600.648841
3445.162742,-8364.327145,2886.803174,-3064.381992
3445.163079,-8364.327145,2960.823768,-2834.553343
3445.163416,-8364.327145,2368.659014,-3524.039291
3445.163754,-8808.450710,2368.659014,-4060.306139
3445.164091,-11325.150913,2368.659014,-2834.553343
3445.164428,-11621.233289,2220.617826,-995.924147
3445.164765,-10288.862594,2590.720797,-2068.457845
3445.165103,-9696.697840,2220.617826,-2987.772442
3445.165440,-9622.677246,2368.659014,-2451.505594
3445.165777,-9326.594869,444.123565,-919.314598
3445.166115,-8512.368333,0.000000,0.000000
3445.166452,-9326.594869,592.164754,-1225.752797
3445.166789,-10732.986159,222.061783,-1685.410096
3445.167127,-11177.109724,444.123565,-2068.457845
3445.167464,-9992.780217,296.082377,-2451.505594
3445.167801,-9696.697840,1036.288319,-459.657299
3445.168139,-10066.800811,2294.638420,-919.314598
3445.168476,-11103.089130,2738.761985,-1915.238745
3445.168813,-11177.109724,2812.782580,-2298.286494
3445.169151,-10214.842000,1998.556043,-2374.896044
3445.169488,-9252.574275,1702.473667,-1378.971896
3445.169825,-9622.677246,1036.288319,-766.095498
3445.170162,-9770.718434,1036.288319,-919.314598
3445.170500,-10214.842000,962.267725,-1991.848295
3445.170837,-10510.924376,1850.514855,-1762.019645
3445.171174,-11029.068536,2220.617826,-2298.286494
3445.171512,-11103.089130,2294.638420,-2757.943793
3445.171849,-10362.883188,1776.494261,-3983.696590
3445.172186,-9104.533087,888.247130,-3524.039291
3445.172524,-8142.265362,1110.308913,-995.924147
3445.172861,-8660.409521,518.144159,0.000000
3445.173198,-9548.656652,444.123565,76.609550
3445.173536,-9844.739029,1406.391290,153.219100
3445.173873,-10732.986159,1258.350101,612.876398
3445.174210,-10732.986159,1258.350101,1378.971896
3445.174548,-9844.739029,1258.350101,1149.143247
3445.174885,-10140.821405,2368.659014,919.314598
3445.175222,-10584.944971,2072.576638,0.000000
3445.175559,-9992.780217,2812.782580,-1991.848295
3445.175897,-10066.800811,2590.720797,-2528.115143
3445.176234,-9918.759623,2294.638420,-2834.553343
3445.176571,-9030.512492,2590.720797,-3677.258390
3445.176909,-9326.594869,1924.535449,-3753.867940
3445.177246,-9696.697840,1628.453072,-3524.039291
3445.177583,-9622.677246,1480.411884,-3370.820191
3445.177921,-10658.965565,1628.453072,-3217.601092
3445.178258,-10658.965565,2368.659014,-4826.401637
3445.178595,-10362.883188,1332.370696,-4903.011187
3445.178933,-9622.677246,888.247130,-4826.401637
3445.179270,-9030.512492,0.000000,-3600.648841
3445.179607,-9326.594869,0.000000,-2757.943793
3445.179944,-10214.842000,592.164754,-2451.505594
3445.180282,-9992.780217,814.226536,-2451.505594
3445.180619,-10658.965565,1184.329507,-2298.286494
3445.180956,-11029.068536,888.247130,-2068.457845
3445.181294,-10436.903782,1628.453072,-2451.505594
3445.181631,-9844.739029,1628.453072,-1532.190996
3445.181968,-10066.800811,2072.576638,-306.438199
3445.182306,-10362.883188,1924.535449,153.219100
3445.182643,-10658.965565,2812.782580,76.609550
3445.182980,-10584.944971,3627.009116,-306.438199
3445.183318,-10436.903782,4219.173869,-1225.752797
3445.183655,-10214.842000,4737.318029,-2374.896044
3445.183992,-9770.718434,4145.153275,-2221.676944
3445.184330,-9400.615463,3775.050304,-1455.581446
3445.184667,-9030.512492,3701.029710,-766.095498
3445.185004,-10214.842000,3701.029710,-689.485948
3445.185341,-10732.986159,4219.173869,-1915.238745
3445.185679,-9474.636058,2590.720797,-2757.943793
3445.186016,-9030.512492,2590.720797,-2374.896044
3445.186353,-8808.450710,1258.350101,-1378.971896
3445.186691,-9844.739029,2368.659014,-1378.971896
3445.187028,-10066.800811,3552.988522,-3294.210641
3445.187365,-8956.491898,3256.906145,-4366.744339
3445.187703,-9474.636058,1776.494261,-1762.019645
3445.188040,-9696.697840,888.247130,-612.876398
3445.188377,-9548.656652,1332.370696,459.657299
3445.188715,-10214.842000,2146.597232,919.314598
3445.189052,-10955.047942,1628.453072,153.219100
3445.189389,-11177.109724,1776.494261,-995.924147
3445.189727,-10658.965565,2664.741391,-1225.752797
3445.190064,-9622.677246,3182.885551,-2451.505594
3445.190401,-10584.944971,1628.453072,-1915.238745
3445.190738,-10732.986159,888.247130,-2221.676944
3445.191076,-9030.512492,296.082377,-2068.457845
3445.191413,-9548.656652,814.226536,-383.047749
3445.191750,-11399.171507,740.205942,-919.314598
3445.192088,-12361.439231,1554.432478,-3830.477490
3445.192425,-10362.883188,1258.350101,-6128.763984
3445.192762,-7920.203579,518.144159,-4136.915689
3445.193100,-8512.368333,-1184.329507,-1838.629195
3445.193437,-9918.759623,-1110.308913,-1378.971896
3445.193774,-10214.842000,0.000000,-2757.943793
3445.194112,-10436.903782,444.123565,-2604.724693
3445.194449,-9992.780217,0.000000,-3140.991542
3445.194786,-9622.677246,0.000000,-2528.115143
3445.195124,-9474.636058,-370.102971,-995.924147
3445.195461,-9326.594869,1406.391290,-612.876398
3445.195798,-10732.986159,1332.370696,153.219100
3445.196135,-11029.068536,3478.967927,-612.876398
3445.196473,-10807.006753,4293.194464,-2068.457845
3445.196810,-10510.924376,4219.173869,-2374.896044
3445.197147,-9474.636058,2664.741391,-2221.676944
3445.197485,-8956.491898,2072.576638,-612.876398
3445.197822,-9104.533087,2368.659014,229.828649
3445.198159,-9992.780217,3552.988522,-995.924147
3445.198497,-10807.006753,3997.112087,-3064.381992
3445.198834,-11029.068536,2960.823768,-3524.039291
3445.199171,-10140.821405,2738.761985,-2757.943793
3445.199509,-9696.697840,2590.720797,-2145.067394
3445.199846,-9474.636058,3478.967927,-2911.162892
3445.200183,-8364.327145,2590.720797,-4903.011187
3445.200521,-8660.409521,370.102971,-4290.134789
3445.200858,-8586.388927,-518.144159,-2528.115143
3445.201195,-9770.718434,-1110.308913,0.000000
3445.201532,-10436.903782,148.041188,612.876398
3445.201870,-10288.862594,1554.432478,-1378.971896
3445.202207,-11325.150913,592.164754,-842.705048
3445.202544,-11177.109724,518.144159,-995.924147
3445.202882,-9918.759623,1554.432478,-1455.581446
3445.203219,-10732.986159,2812.782580,-459.657299
3445.203556,-10584.944971,3034.844362,-2451.505594
3445.203894,-9992.780217,1554.432478,-3524.039291
3445.204231,-8808.450710,222.061783,-2298.286494
3445.204568,-8956.491898,518.144159,76.609550
3445.204906,-9918.759623,1406.391290,689.485948
3445.205243,-11991.336260,1850.514855,0.000000
3445.205580,-12657.521608,1554.432478,-1838.629195
3445.205917,-11103.089130,1924.535449,-2068.457845
3445.206255,-8512.368333,3256.906145,-1608.800546
3445.206592,-10436.903782,3404.947333,-1072.533697
3445.206929,-11473.192101,1702.473667,-2911.162892
3445.207267,-9474.636058,1628.453072,-6128.763984
3445.207604,-6957.935855,1332.370696,-3983.696590
3445.207941,-8512.368333,1184.329507,-612.876398
3445.208279,-11991.336260,1184.329507,-153.219100
3445.208616,-11843.295072,1850.514855,-3447.429741
3445.208953,-7846.182985,2516.700203,-2834.553343
3445.209291,-7254.018232,2516.700203,612.876398
3445.209628,-11769.274478,2368.659014,1455.581446
3445.209965,-11029.068536,3627.009116,-1608.800546
3445.210303,-9622.677246,4071.132681,-2221.676944
3445.210640,-9030.512492,3849.070898,-1225.752797
3445.210977,-10807.006753,3478.967927,-995.924147
3445.211314,-10362.883188,3478.967927,-3294.210641
3445.211652,-8438.347739,2590.720797,-3447.429741
3445.211989,-8660.409521,2294.638420,-2221.676944
3445.212326,-10510.924376,1998.556043,-1762.019645
3445.212664,-10362.883188,2294.638420,-2374.896044
3445.213001,-9770.718434,2220.617826,-1762.019645
3445.213338,-11473.192101,2368.659014,-2221.676944
3445.213676,-10658.965565,2812.782580,-4519.963438
3445.214013,-9770.718434,2516.700203,-3524.039291
3445.214350,-9474.636058,518.144159,-2145.067394
3445.214688,-8734.430116,-444.123565,-3370.820191
3445.215025,-9178.553681,-888.247130,-2987.772442
3445.215362,-10214.842000,-222.061783,-2068.457845
3445.215700,-9844.739029,-666.185348,-2221.676944
3445.216037,-10140.821405,0.000000,-2757.943793
3445.216374,-10584.944971,-444.123565,-2374.896044
3445.216712,-10436.903782,444.123565,306.438199
3445.217049,-9992.780217,1332.370696,766.095498
3445.217386,-10881.027347,1776.494261,459.657299
3445.217724,-11769.274478,1110.308913,0.000000
3445.218061,-10807.006753,1998.556043,-1225.752797
3445.218398,-9696.697840,2294.638420,-766.095498
3445.218736,-9178.553681,1554.432478,-383.047749
3445.219073,-9918.759623,1702.473667,-1149.143247
3445.219410,-11029.068536,1332.370696,-2068.457845
3445.219748,-9770.718434,3256.906145,-3753.867940
3445.220085,-9252.574275,1998.556043,-3983.696590
3445.220422,-10732.986159,1036.288319,-2068.457845
3445.220760,-9178.553681,2220.617826,-1455.581446
3445.221097,-8364.327145,2886.803174,-919.314598
3445.221434,-9992.780217,2738.761985,-919.314598
3445.221772,-9548.656652,2072.576638,-2757.943793
3445.222109,-9770.718434,1850.514855,-2834.553343
3445.222446,-10066.800811,814.226536,-2145.067394
3445.222784,-7846.182985,296.082377,-995.924147
3445.223121,-8660.409521,1332.370696,-919.314598
3445.223458,-10955.047942,1554.432478,-2374.896044
3445.223796,-9992.780217,2146.597232,-4213.525239
3445.224133,-10436.903782,2590.720797,-3140.991542
3445.224470,-10288.862594,1924.535449,-1838.629195
3445.224808,-9918.759623,1554.432478,-229.828649
3445.225145,-10214.842000,2442.679609,766.095498
3445.225482,-10658.965565,2146.597232,-1608.800546
3445.225820,-9400.615463,1998.556043,-1991.848295
3445.226157,-10510.924376,1332.370696,-306.438199
3445.226494,-11251.130318,1110.308913,0.000000
3445.226832,-10584.944971,1258.350101,-1915.238745
3445.227169,-10584.944971,1406.391290,-3983.696590
3445.227506,-10362.883188,0.000000,-4136.915689
3445.227844,-8586.388927,444.123565,-3907.087040
3445.228181,-9104.533087,-518.144159,-2068.457845
3445.228518,-9844.739029,-296.082377,-1685.410096
3445.228855,-9770.718434,296.082377,-1762.019645
3445.229193,-11325.150913,0.000000,-1072.533697
3445.229530,-10955.047942,-222.061783,459.657299
3445.229867,-9474.636058,-740.205942,919.314598
3445.230205,-9992.780217,-296.082377,1302.362347
3445.230542,-9400.615463,296.082377,229.828649
3445.230879,-10214.842000,1110.308913,-1302.362347
3445.231217,-10955.047942,1036.288319,-766.095498
3445.231554,-9252.574275,1628.453072,153.219100
3445.231891,-11473.192101,1776.494261,1685.410096
3445.232229,-11769.274478,3256.906145,842.705048
3445.232566,-10214.842000,3775.050304,-689.485948
3445.232903,-9844.739029,2738.761985,0.000000
3445.233241,-8438.347739,1554.432478,459.657299
3445.233578,-9400.615463,2294.638420,919.314598
3445.233915,-10658.965565,3256.906145,-229.828649
3445.234253,-11917.315666,1406.391290,-1915.238745
3445.234590,-9622.677246,962.267725,-3370.820191
3445.234927,-7328.038826,444.123565,-1302.362347
3445.235265,-9104.533087,1258.350101,-459.657299
3445.235602,-9696.697840,962.267725,-2987.772442
3445.235939,-10807.006753,-444.123565,-3753.867940
3445.236277,-7994.224174,-1036.288319,-2221.676944
3445.236614,-7772.162391,-814.226536,1149.143247
3445.236951,-10955.047942,-222.061783,2911.162892
3445.237289,-11917.315666,74.020594,-1838.629195
3445.237626,-10436.903782,-2072.576638,-2374.896044
3445.237963,-9030.512492,-2812.782580,995.924147
3445.238301,-7920.203579,-1776.494261,3294.210641
3445.238638,-9918.759623,1184.329507,2451.505594
3445.238975,-12583.501014,666.185348,-612.876398
3445.239313,-13619.789333,-444.123565,-2451.505594
3445.239650,-10807.006753,-370.102971,-1532.190996
3445.239987,-8216.285956,-592.164754,2298.286494
3445.240325,-8586.388927,666.185348,2834.553343
3445.240662,-11843.295072,-222.061783,612.876398
3445.240999,-11843.295072,-370.102971,-1225.752797
3445.241337,-10955.047942,-2146.597232,-842.705048
3445.241674,-9918.759623,-1332.370696,2221.676944
3445.242011,-9178.553681,0.000000,1225.752797
3445.242349,-11473.192101,-1184.329507,153.219100
3445.242686,-9770.718434,-1554.432478,-2221.676944
3445.243023,-7402.059420,-2294.638420,459.657299
3445.243361,-8216.285956,370.102971,2374.896044
3445.243698,-10955.047942,148.041188,459.657299
3445.244035,-12879.583391,-518.144159,-1225.752797
3445.244373,-9696.697840,-2442.679609,-612.876398
3445.244710,-6883.915261,-2294.638420,2681.334243
3445.245047,-8290.306550,-222.061783,6358.592633
3445.245385,-10807.006753,1258.350101,3907.087040
3445.245722,-11547.212695,-592.164754,0.000000
3445.246059,-11547.212695,74.020594,0.000000
3445.246397,-8364.327145,1998.556043,1915.238745
3445.246734,-10436.903782,3775.050304,3294.210641
3445.247071,-12583.501014,2146.597232,-536.266849
3445.247409,-11029.068536,-296.082377,-3600.648841
3445.247746,-8512.368333,-444.123565,-1302.362347
3445.248083,-6735.874072,0.000000,1302.362347
3445.248421,-8882.471304,-370.102971,2145.067394
3445.248758,-12287.418637,-518.144159,-1225.752797
3445.249095,-11621.233289,-962.267725,-4060.306139
3445.249433,-8882.471304,-592.164754,-1991.848295
3445.249770,-8586.388927,296.082377,1838.629195
3445.250107,-11473.192101,-740.205942,1455.581446
3445.250445,-12287.418637,-1480.411884,-1762.019645
3445.250782,-10214.842000,-2590.720797,-1532.190996
3445.251119,-8512.368333,-2146.597232,0.000000
3445.251457,-8586.388927,-1628.453072,153.219100
3445.251794,-9252.574275,-2664.741391,-536.266849
3445.252131,-9918.759623,-2960.823768,153.219100
3445.252469,-11251.130318,-2072.576638,1762.019645
3445.252806,-9992.780217,1480.411884,1838.629195
3445.253143,-11917.315666,518.144159,766.095498
3445.253480,-12879.583391,-592.164754,0.000000
3445.253818,-10732.986159,-962.267725,-1378.971896
3445.254155,-8290.306550,1554.432478,1991.848295
3445.254492,-9474.636058,1850.514855,3830.477490
3445.254830,-10288.862594,518.144159,459.657299
3445.255167,-10658.965565,-518.144159,-3064.381992
3445.255504,-9770.718434,-962.267725,-2298.286494
3445.255842,-9178.553681,888.247130,1608.800546
3445.256179,-8660.409521,2146.597232,919.314598
3445.256516,-9252.574275,888.247130,-2221.676944
3445.256854,-11917.315666,0.000000,-3064.381992
3445.257191,-9104.533087,1406.391290,-2221.676944
3445.257528,-7328.038826,1480.411884,2068.457845
3445.257866,-12213.398043,0.000000,3524.039291
3445.258203,-11843.295072,-1258.350101,459.657299
3445.258540,-8734.430116,0.000000,0.000000
3445.258878,-7031.956449,370.102971,2145.067394
3445.259215,-9030.512492,518.144159,3217.601092
3445.259552,-12435.459826,296.082377,1762.019645
3445.259890,-12213.398043,1036.288319,-1838.629195
3445.260227,-8808.450710,148.041188,76.609550
3445.260564,-10214.842000,296.082377,4519.963438
3445.260902,-10436.903782,1480.411884,1838.629195
3445.261239,-9844.739029,-296.082377,-919.314598
3445.261576,-9548.656652,-296.082377,76.609550
3445.261914,-9918.759623,-222.061783,2068.457845
3445.262251,-9844.739029,-222.061783,1838.629195
3445.262588,-10066.800811,0.000000,-459.657299
3445.262926,-10584.944971,-518.144159,-1302.362347
3445.263263,-10288.862594,-2072.576638,-1608.800546
3445.263600,-8882.471304,-1480.411884,-306.438199
3445.263938,-7994.224174,-1406.391290,306.438199
3445.264275,-10362.883188,-2146.597232,689.485948
3445.264612,-11547.212695,-2368.659014,-1915.238745
3445.264950,-10362.883188,-3182.885551,-995.924147
3445.265287,-8882.471304,-1258.350101,2374.896044
3445.265624,-9548.656652,-1776.494261,3294.210641
3445.265962,-11473.192101,-518.144159,1149.143247
3445.266299,-10881.027347,-1184.329507,459.657299
3445.266636,-9844.739029,-888.247130,1455.581446
3445.266974,-10584.944971,370.102971,2374.896044
3445.267311,-11621.233289,0.000000,383.047749
3445.267648,-11621.233289,-1184.329507,-153.219100
3445.267986,-9030.512492,0.000000,-1762.019645
3445.268323,-7105.977043,1480.411884,306.438199
3445.268660,-10658.965565,1258.350101,2068.457845
3445.268998,-11547.212695,222.061783,-306.438199
3445.269335,-11103.089130,518.144159,-1838.629195
3445.269672,-9918.759623,1258.350101,-1149.143247
3445.270010,-9326.594869,518.144159,-1072.533697
3445.270347,-9030.512492,222.061783,-1378.971896
3445.270684,-8216.285956,-1406.391290,-2681.334243
3445.271022,-9178.553681,-3256.906145,-1302.362347
3445.271359,-8438.347739,-1702.473667,-689.485948
3445.271696,-7698.141797,-962.267725,-229.828649
3445.272034,-10732.986159,-1184.329507,153.219100
3445.272371,-10436.903782,-2294.638420,0.000000
3445.272708,-10140.821405,-888.247130,229.828649
3445.273046,-10140.821405,1036.288319,1149.143247
3445.273383,-10584.944971,-518.144159,2145.067394
3445.273720,-11547.212695,-740.205942,919.314598
3445.274058,-10881.027347,-1036.288319,0.000000
3445.274395,-9178.553681,0.000000,1302.362347
3445.274732,-9992.780217,444.123565,2987.772442
3445.275070,-12287.418637,666.185348,2068.457845
3445.275407,-11843.295072,-74.020594,-842.705048
3445.275744,-10658.965565,0.000000,-306.438199
3445.276082,-9474.636058,814.226536,2068.457845
3445.276419,-10807.006753,370.102971,2987.772442
3445.276756,-10807.006753,74.020594,229.828649
3445.277094,-10658.965565,-592.164754,-1225.752797
3445.277431,-9696.697840,-296.082377,0.000000
3445.277768,-8216.285956,444.123565,-306.438199
3445.278106,-9178.553681,-444.123565,612.876398
3445.278443,-9844.739029,-1554.432478,229.828649
3445.278780,-10066.800811,-2516.700203,0.000000
3445.279117,-8882.471304,-888.247130,842.705048
3445.279455,-8586.388927,0.000000,2374.896044
3445.279792,-10140.821405,666.185348,1455.581446
3445.280129,-10436.903782,0.000000,-536.266849
3445.280467,-10140.821405,444.123565,0.000000
3445.280804,-9104.533087,1554.432478,2298.286494
3445.281141,-9770.718434,1036.288319,3217.601092
3445.281479,-9844.739029,1258.350101,536.266849
3445.281816,-9474.636058,74.020594,-383.047749
3445.282153,-9548.656652,1628.453072,153.219100
3445.282491,-10732.986159,1110.308913,0.000000
3445.282828,-11473.192101,2146.597232,-842.705048
3445.283165,-11473.192101,-444.123565,-1915.238745
3445.283503,-10288.862594,-1850.514855,383.047749
3445.283840,-8882.471304,370.102971,1455.581446
3445.284177,-9548.656652,296.082377,1532.190996
3445.284515,-11399.171507,-370.102971,-536.266849
3445.284852,-10955.047942,-2664.741391,-2987.772442
3445.285189,-9030.512492,-1776.494261,-1991.848295
3445.285527,-8364.327145,-592.164754,-995.924147
3445.285864,-10066.800811,-1184.329507,0.000000
3445.286201,-11547.212695,-1850.514855,-2834.553343
3445.286539,-11177.109724,-1702.473667,-3677.258390
3445.286876,-9622.677246,-1258.350101,-612.876398
3445.287213,-10066.800811,-1924.535449,2374.896044
3445.287551,-9770.718434,-962.267725,2757.943793
3445.287888,-11547.212695,-2294.638420,1455.581446
3445.288225,-9030.512492,-1258.350101,1302.362347
3445.288563,-8882.471304,74.020594,3140.991542
3445.288900,-11029.068536,222.061783,2528.115143
3445.289237,-11029.068536,444.123565,0.000000
3445.289575,-10732.986159,444.123565,-919.314598
3445.289912,-9844.739029,1332.370696,0.000000
3445.290249,-9622.677246,148.041188,536.266849
3445.290587,-10436.903782,-666.185348,229.828649
3445.290924,-8364.327145,0.000000,-612.876398
3445.291261,-7994.224174,370.102971,-306.438199
3445.291599,-10510.924376,592.164754,459.657299
3445.291936,-11547.212695,-518.144159,76.609550
3445.292273,-9844.739029,-666.185348,76.609550
3445.292611,-7994.224174,-888.247130,766.095498
3445.292948,-9178.553681,592.164754,2145.067394
3445.293285,-10658.965565,518.144159,536.266849
3445.293623,-10140.821405,-1110.308913,-612.876398
3445.293960,-9844.739029,-2146.597232,0.000000
3445.294297,-9844.739029,-1628.453072,1991.848295
3445.294635,-9252.574275,222.061783,2834.553343
3445.294972,-9918.759623,-296.082377,2528.115143
3445.295309,-11103.089130,296.082377,536.266849
3445.295647,-11399.171507,-592.164754,766.095498
3445.295984,-10955.047942,222.061783,2528.115143
3445.296321,-8882.471304,740.205942,1378.971896
3445.296659,-10510.924376,-592.164754,766.095498
3445.296996,-10807.006753,-1332.370696,-689.485948
3445.297333,-9104.533087,-814.226536,-2451.505594
3445.297671,-7772.162391,-222.061783,-229.828649
3445.298008,-10140.821405,0.000000,153.219100
3445.298345,-11917.315666,-370.102971,-1991.848295
3445.298683,-11695.253884,-1258.350101,-2604.724693
3445.299020,-9548.656652,-1332.370696,-1225.752797
3445.299357,-8142.265362,-962.267725,689.485948
3445.299695,-10658.965565,-1850.514855,689.485948
3445.300032,-10140.821405,-2516.700203,-995.924147
3445.300369,-7920.203579,-2812.782580,-919.314598
3445.300707,-9400.615463,-962.267725,1378.971896
3445.301044,-10066.800811,740.205942,689.485948
3445.301381,-11917.315666,518.144159,-1225.752797
3445.301719,-11917.315666,-148.041188,-2451.505594
3445.302056,-8956.491898,-1332.370696,-842.705048
3445.302393,-8808.450710,1036.288319,3524.039291
3445.302731,-9326.594869,1850.514855,2757.943793
3445.303068,-10807.006753,962.267725,536.266849
3445.303405,-11547.212695,1110.308913,-383.047749
3445.303742,-9918.759623,1776.494261,0.000000
3445.304080,-9474.636058,2812.782580,919.314598
3445.304417,-9844.739029,888.247130,-229.828649
3445.304754,-10955.047942,0.000000,-995.924147
3445.305092,-9326.594869,-888.247130,-1685.410096
3445.305429,-6439.791695,1776.494261,-306.438199
3445.305766,-9474.636058,1850.514855,1762.019645
3445.306104,-12287.418637,148.041188,-1149.143247
3445.306441,-11029.068536,-1036.288319,-3524.039291
3445.306778,-9326.594869,-1554.432478,-306.438199
3445.307116,-7402.059420,-1480.411884,3524.039291
3445.307453,-8586.388927,-1924.535449,3830.477490
3445.307790,-11029.068536,-2368.659014,1838.629195
3445.308128,-10510.924376,-1924.535449,383.047749
3445.308465,-10214.842000,-592.164754,1608.800546
3445.308802,-10584.944971,0.000000,2374.896044
3445.309140,-12435.459826,-444.123565,1608.800546
3445.309477,-11325.150913,-1110.308913,0.000000
3445.309814,-9030.512492,-740.205942,536.266849
3445.310152,-8142.265362,1184.329507,2221.676944
3445.310489,-10214.842000,1110.308913,2528.115143
3445.310826,-12731.542202,-962.267725,612.876398
3445.311164,-11251.130318,-1406.391290,-842.705048
3445.311501,-8586.388927,-1332.370696,153.219100
3445.311838,-8660.409521,444.123565,2911.162892
3445.312176,-9992.780217,666.185348,76.609550
3445.312513,-10066.800811,-1628.453072,-2528.115143
3445.312850,-9918.759623,-1924.535449,-1302.362347
3445.313188,-9770.718434,-1776.494261,1532.190996
3445.313525,-9992.780217,518.144159,2298.286494
3445.313862,-10362.883188,-1036.288319,-919.314598
3445.314200,-10288.862594,-1998.556043,-1378.971896
3445.314537,-8660.409521,-1332.370696,-1608.800546
3445.314874,-6217.729913,-370.102971,612.876398
3445.315212,-8216.285956,-296.082377,2068.457845
3445.315549,-11547.212695,-592.164754,0.000000
3445.315886,-11843.295072,-740.205942,-1302.362347
3445.316224,-10510.924376,444.123565,229.828649
3445.316561,-9178.553681,2442.679609,2451.505594
3445.316898,-10732.986159,2738.761985,536.266849
3445.317236,-11843.295072,962.267725,-1991.848295
3445.317573,-10288.862594,148.041188,-1149.143247
3445.317910,-9474.636058,-592.164754,1685.410096
3445.318248,-10955.047942,-296.082377,2451.505594
3445.318585,-11325.150913,0.000000,383.047749
3445.318922,-10955.047942,-1924.535449,-1455.581446
3445.319260,-9400.615463,-1332.370696,0.000000
3445.319597,-8068.244768,296.082377,1072.533697
3445.319934,-10214.842000,74.020594,-536.266849
3445.320271,-11547.212695,-1702.473667,-3140.991542
3445.320609,-10510.924376,-2738.761985,-3830.477490
3445.320946,-8142.265362,-1776.494261,-1072.533697
3445.321283,-8438.347739,-1258.350101,2298.286494
3445.321621,-9474.636058,-1480.411884,1532.190996
3445.321958,-10510.924376,-2220.617826,-919.314598
3445.322295,-10658.965565,-3182.885551,995.924147
3445.322633,-8882.471304,-1258.350101,2834.553343
3445.322970,-10584.944971,-370.102971,3677.258390
3445.323307,-12361.439231,-1110.308913,1455.581446
3445.323645,-10362.883188,-1702.473667,536.266849
3445.323982,-8586.388927,444.123565,2451.505594
3445.324319,-8438.347739,1406.391290,4213.525239
3445.324657,-12657.521608,1332.370696,3370.820191
3445.324994,-13619.789333,740.205942,-229.828649
3445.325331,-11177.109724,1110.308913,-1149.143247
3445.325669,-9178.553681,1184.329507,1072.533697
3445.326006,-8290.306550,1480.411884,1762.019645
3445.326343,-10732.986159,592.164754,1302.362347
3445.326681,-10732.986159,-962.267725,-1608.800546
3445.327018,-9030.512492,-370.102971,-1072.533697
3445.327355,-9252.574275,1554.432478,459.657299
3445.327693,-9770.718434,1110.308913,0.000000
3445.328030,-10140.821405,-74.020594,-1685.410096
3445.328367,-9992.780217,-1332.370696,-995.924147
3445.328705,-6809.894666,444.123565,842.705048
3445.329042,-8142.265362,962.267725,3064.381992
3445.329379,-11399.171507,370.102971,1685.410096
3445.329717,-11621.233289,-888.247130,-1685.410096
3445.330054,-10140.821405,-740.205942,-842.705048
3445.330391,-8586.388927,444.123565,1532.190996
3445.330728,-8068.244768,74.020594,2451.505594
3445.331066,-10288.862594,-222.061783,1149.143247
3445.331403,-11177.109724,-1702.473667,-842.705048
3445.331740,-9992.780217,888.247130,-995.924147
3445.332078,-9400.615463,2220.617826,689.485948
3445.332415,-11991.336260,888.247130,-383.047749
3445.332752,-11473.192101,-1258.350101,-2528.115143
3445.333090,-9252.574275,-2220.617826,-2298.286494
3445.333427,-8512.368333,0.000000,1762.019645
3445.333764,-9474.636058,-444.123565,1378.971896
3445.334102,-12139.377449,-518.144159,-1685.410096
3445.334439,-12361.439231,-2664.741391,-2987.772442
3445.334776,-9622.677246,-2664.741391,-919.314598
3445.335114,-7994.224174,-1332.370696,2221.676944
3445.335451,-10510.924376,0.000000,536.266849
3445.335788,-11547.212695,-2664.741391,-1302.362347
3445.336126,-11029.068536,-3775.050304,-1915.238745
3445.336463,-9622.677246,-1480.411884,2681.334243
3445.336800,-7550.100608,888.247130,4749.792088
3445.337138,-11103.089130,1554.432478,2911.162892
3445.337475,-13323.706956,0.000000,-383.047749
3445.337812,-9548.656652,-666.185348,-1608.800546
3445.338150,-6809.894666,0.000000,3294.210641
3445.338487,-9178.553681,518.144159,6435.202183
3445.338824,-11843.295072,592.164754,3140.991542
3445.339162,-11769.274478,296.082377,-1378.971896
3445.339499,-9178.553681,962.267725,-995.924147
3445.339836,-7105.977043,3552.988522,1455.581446
3445.340174,-9696.697840,1924.535449,1991.848295
3445.340511,-11399.171507,370.102971,-2911.162892
3445.340848,-9770.718434,-518.144159,-3983.696590
3445.341186,-7402.059420,1776.494261,-306.438199
3445.341523,-8956.491898,1184.329507,1532.190996
3445.341860,-11843.295072,222.061783,1149.143247
3445.342197,-10807.006753,-2664.741391,-995.924147
3445.342535,-9992.780217,-2146.597232,766.095498
3445.342872,-9104.533087,74.020594,3064.381992
3445.343209,-9474.636058,148.041188,3370.820191
3445.343547,-11843.295072,-1258.350101,306.438199
3445.343884,-11251.130318,-2368.659014,-2911.162892
3445.344221,-10288.862594,-74.020594,-459.657299
3445.344559,-9104.533087,1184.329507,1838.629195
3445.344896,-9918.759623,370.102971,1455.581446
3445.345233,-11325.150913,-740.205942,-1532.190996
3445.345571,-9548.656652,-2072.576638,-2604.724693
3445.345908,-8512.368333,0.000000,612.876398
3445.346245,-10510.924376,-444.123565,2451.505594
3445.346583,-12583.501014,-1258.350101,995.924147
3445.346920,-11917.315666,-1480.411884,-2068.457845
3445.347257,-8216.285956,-148.041188,-2528.115143
3445.347595,-6809.894666,74.020594,1378.971896
3445.347932,-10955.047942,-370.102971,2374.896044
3445.348269,-11621.233289,-1776.494261,-1838.629195
3445.348607,-10510.924376,-1924.535449,-3753.867940
3445.348944,-8068.244768,-1628.453072,-842.705048
3445.349281,-7402.059420,-888.247130,2681.334243
3445.349619,-10807.006753,0.000000,2374.896044
3445.349956,-10732.986159,-962.267725,-612.876398
3445.350293,-10807.006753,-370.102971,0.000000
3445.350631,-11029.068536,1110.308913,1532.190996
3445.350968,-10658.965565,1036.288319,2068.457845
3445.351305,-11103.089130,1110.308913,1608.800546
3445.351643,-10066.800811,444.123565,76.609550
3445.351980,-9030.512492,592.164754,1072.533697
3445.352317,-9030.512492,2368.659014,3064.381992
3445.352654,-10140.821405,2368.659014,2298.286494
3445.352992,-13175.665768,1924.535449,536.266849
3445.353329,-12805.562797,1184.329507,-1685.410096
3445.353666,-9622.677246,1480.411884,76.609550
3445.354004,-8734.430116,518.144159,2834.553343
3445.354341,-9696.697840,-666.185348,1838.629195
3445.354678,-9030.512492,-814.226536,-1072.533697
3445.355016,-8364.327145,-1036.288319,-1072.533697
3445.355353,-7920.203579,962.267725,-306.438199
3445.355690,-10658.965565,-740.205942,-1149.143247
3445.356028,-11843.295072,-1480.411884,-2221.676944
3445.356365,-8290.306550,-3034.844362,-2528.115143
3445.356702,-7031.956449,-1554.432478,76.609550
3445.357040,-7994.224174,-74.020594,2145.067394
3445.357377,-11695.253884,-1702.473667,1838.629195
3445.357714,-12879.583391,-2294.638420,-459.657299
3445.358052,-11399.171507,-2220.617826,-229.828649
3445.358389,-8660.409521,148.041188,2221.676944
3445.358726,-10066.800811,222.061783,4826.401637
3445.359064,-11843.295072,-296.082377,2528.115143
3445.359401,-11325.150913,0.000000,-1149.143247
3445.359738,-10510.924376,888.247130,-153.219100
3445.360076,-11103.089130,1924.535449,689.485948
3445.360413,-11843.295072,1036.288319,153.219100
3445.360750,-11769.274478,518.144159,-1685.410096
3445.361088,-8290.306550,0.000000,-2528.115143
3445.361425,-7328.038826,0.000000,-229.828649
3445.361762,-10140.821405,-296.082377,1455.581446
3445.362100,-10510.924376,-666.185348,-1302.362347
3445.362437,-10288.862594,-1480.411884,-1149.143247
3445.362774,-8956.491898,-592.164754,229.828649
3445.363111,-8216.285956,814.226536,1302.362347
3445.363449,-10658.965565,-370.102971,1608.800546
3445.363786,-10362.883188,-740.205942,-842.705048
3445.364123,-7328.038826,-814.226536,-2068.457845
3445.364461,-8142.265362,-518.144159,1149.143247
3445.364798,-9400.615463,-740.205942,2221.676944
3445.365135,-11769.274478,-962.267725,1072.533697
3445.365473,-10140.821405,-370.102971,-1378.971896
3445.365810,-9326.594869,-1036.288319,0.000000
3445.366147,-9400.615463,666.185348,1762.019645
3445.366485,-9030.512492,814.226536,2068.457845
3445.366822,-11843.295072,-148.041188,2145.067394
3445.367159,-11399.171507,888.247130,-229.828649
3445.367497,-10362.883188,1332.370696,0.000000
3445.367834,-11769.274478,814.226536,1532.190996
3445.368171,-10140.821405,-518.144159,-459.657299
3445.368509,-10214.842000,-1184.329507,-612.876398
3445.368846,-10584.944971,-1702.473667,0.000000
3445.369183,-9030.512492,-814.226536,-766.095498
3445.369521,-9844.739029,-740.205942,-1608.800546
3445.369858,-10658.965565,-1554.432478,-1532.190996
3445.370195,-10658.965565,-2146.597232,-1762.019645
3445.370533,-9548.656652,-1850.514855,76.609550
3445.370870,-8882.471304,0.000000,2221.676944
3445.371207,-9918.759623,-1036.288319,1685.410096
3445.371545,-11917.315666,-1776.494261,1149.143247
3445.371882,-9474.636058,-1184.329507,0.000000
3445.372219,-8660.409521,-1850.514855,2604.724693
3445.372557,-8586.388927,370.102971,3753.867940
3445.372894,-10658.965565,74.020594,1915.238745
3445.373231,-11399.171507,1258.350101,-459.657299
3445.373568,-10140.821405,666.185348,-842.705048
3445.373906,-10436.903782,888.247130,919.314598
3445.374243,-8882.471304,2072.576638,1378.971896
3445.374580,-10881.027347,2368.659014,766.095498
