#time,accel_x,accel_y,accel_z
3087.035622,-10881.027347,-592.164754,689.485948
3087.035960,-10584.944971,-148.041188,459.657299
3087.036298,-9844.739029,-962.267725,-383.047749
3087.036635,-10140.821405,-1184.329507,306.438199
3087.036973,-10288.862594,-962.267725,842.705048
3087.037311,-9770.718434,-592.164754,0.000000
3087.037649,-10288.862594,74.020594,306.438199
3087.037987,-10807.006753,-444.123565,459.657299
3087.038325,-11251.130318,0.000000,0.000000
3087.038663,-11029.068536,-444.123565,-459.657299
3087.039000,-10140.821405,-296.082377,153.219100
3087.039338,-9474.636058,-666.185348,-229.828649
3087.039676,-10140.821405,-1258.350101,-919.314598
3087.040014,-10288.862594,-1702.473667,-306.438199
3087.040352,-9400.615463,-1998.556043,-689.485948
3087.040690,-9326.594869,-1406.391290,-1532.190996
3087.041028,-10140.821405,-1776.494261,-1608.800546
3087.041365,-9844.739029,-1702.473667,-1915.238745
3087.041703,-9548.656652,-2072.576638,-1225.752797
3087.042041,-9400.615463,-1554.432478,0.000000
3087.042379,-9548.656652,-1184.329507,383.047749
3087.042717,-10955.047942,-740.205942,0.000000
3087.043055,-10362.883188,-1036.288319,-995.924147
3087.043393,-9696.697840,-1332.370696,459.657299
3087.043730,-9474.636058,-666.185348,2451.505594
3087.044068,-9918.759623,0.000000,1149.143247
3087.044406,-10955.047942,1036.288319,-536.266849
3087.044744,-10658.965565,74.020594,-1991.848295
3087.045082,-10066.800811,-592.164754,-1072.533697
3087.045420,-9400.615463,-1184.329507,0.000000
3087.045758,-9252.574275,74.020594,-1608.800546
3087.046095,-10214.842000,-592.164754,-2604.724693
3087.046433,-9474.636058,-1702.473667,-3217.601092
3087.046771,-8956.491898,-1628.453072,-1915.238745
3087.047109,-10140.821405,-2220.617826,-1532.190996
3087.047447,-10955.047942,-2220.617826,-3294.210641
3087.047785,-10732.986159,-2886.803174,-5439.278036
3087.048123,-10510.924376,-3923.091493,-5669.106685
3087.048460,-8660.409521,-5255.462188,-4443.353888
3087.048798,-8438.347739,-5995.668130,-3064.381992
3087.049136,-8438.347739,-5847.626942,-1991.848295
3087.049474,-8956.491898,-4071.132681,-2221.676944
3087.049812,-11177.109724,-3182.885551,-1455.581446
3087.050150,-11177.109724,-2294.638420,-2374.896044
3087.050487,-11399.171507,-3404.947333,-1915.238745
3087.050825,-11547.212695,-3108.864956,-2145.067394
3087.051163,-10140.821405,-4737.318029,-2604.724693
3087.051501,-9844.739029,-4515.256246,-1225.752797
3087.051839,-8956.491898,-5107.421000,-766.095498
3087.052177,-8142.265362,-3923.091493,-612.876398
3087.052515,-9696.697840,-2442.679609,-766.095498
3087.052852,-11325.150913,-1480.411884,-1685.410096
3087.053190,-11029.068536,-296.082377,-3524.039291
3087.053528,-10288.862594,-1702.473667,-4060.306139
3087.053866,-10362.883188,-1998.556043,-2145.067394
3087.054204,-10658.965565,-2886.803174,-1838.629195
3087.054542,-9696.697840,-2960.823768,-842.705048
3087.054880,-9400.615463,-2442.679609,-766.095498
3087.055217,-9548.656652,-3330.926739,-612.876398
3087.055555,-9548.656652,-3404.947333,-1225.752797
3087.055893,-9104.533087,-3849.070898,-76.609550
3087.056231,-8956.491898,-1998.556043,1762.019645
3087.056569,-9548.656652,0.000000,1225.752797
3087.056907,-10881.027347,592.164754,-76.609550
3087.057245,-11695.253884,-814.226536,-1915.238745
3087.057582,-10955.047942,-1406.391290,-1378.971896
3087.057920,-9474.636058,-2664.741391,0.000000
3087.058258,-8438.347739,-1776.494261,153.219100
3087.058596,-8512.368333,-1776.494261,229.828649
3087.058934,-9622.677246,-1998.556043,-1532.190996
3087.059272,-9400.615463,-2220.617826,-2451.505594
3087.059610,-9622.677246,-296.082377,-2145.067394
3087.059947,-9696.697840,518.144159,-2528.115143
3087.060285,-11029.068536,0.000000,-3064.381992
3087.060623,-11917.315666,-1184.329507,-3064.381992
3087.060961,-11103.089130,-1702.473667,-3830.477490
3087.061299,-8586.388927,-2220.617826,-3140.991542
3087.061637,-8068.244768,-3627.009116,-1455.581446
3087.061975,-10214.842000,-4219.173869,-842.705048
3087.062312,-10436.903782,-4441.235652,-2451.505594
3087.062650,-9918.759623,-2664.741391,-3677.258390
3087.062988,-10140.821405,-3552.988522,-3370.820191
3087.063326,-12065.356855,-3404.947333,-3370.820191
3087.063664,-11251.130318,-2664.741391,-4749.792088
3087.064002,-9474.636058,-2738.761985,-3370.820191
3087.064340,-8956.491898,-2516.700203,-612.876398
3087.064677,-9548.656652,-2516.700203,-1072.533697
3087.065015,-11177.109724,-1776.494261,-2528.115143
3087.065353,-11029.068536,-2294.638420,-1838.629195
3087.065691,-9104.533087,-1702.473667,-995.924147
3087.066029,-8882.471304,-1998.556043,306.438199
3087.066367,-10510.924376,-370.102971,2145.067394
3087.066705,-10362.883188,222.061783,-766.095498
3087.067042,-10881.027347,222.061783,-2757.943793
3087.067380,-11473.192101,-370.102971,-3140.991542
3087.067718,-10214.842000,-962.267725,-2987.772442
3087.068056,-9252.574275,-2294.638420,-1991.848295
3087.068394,-8216.285956,-1702.473667,-2604.724693
3087.068732,-8734.430116,-2368.659014,-2757.943793
3087.069069,-9474.636058,-3034.844362,-2451.505594
3087.069407,-8586.388927,-2368.659014,-2298.286494
3087.069745,-9178.553681,-2442.679609,153.219100
3087.070083,-10658.965565,-1258.350101,383.047749
3087.070421,-10066.800811,-1480.411884,-229.828649
3087.070759,-11843.295072,-2368.659014,0.000000
3087.071097,-10362.883188,-2812.782580,-1149.143247
3087.071434,-10288.862594,-4145.153275,-1149.143247
3087.071772,-9030.512492,-4737.318029,-995.924147
3087.072110,-8290.306550,-4737.318029,-2298.286494
3087.072448,-9252.574275,-4885.359217,-2068.457845
3087.072786,-8512.368333,-4589.276840,-2604.724693
3087.073124,-9548.656652,-3330.926739,0.000000
3087.073462,-10732.986159,-1776.494261,0.000000
3087.073799,-11399.171507,0.000000,-919.314598
3087.074137,-12953.603985,-296.082377,-1378.971896
3087.074475,-12805.562797,-1776.494261,-2528.115143
3087.074813,-11621.233289,-3404.947333,-2145.067394
3087.075151,-9696.697840,-4811.338623,-2757.943793
3087.075489,-8734.430116,-6291.750507,-2911.162892
3087.075827,-7846.182985,-6883.915261,-3370.820191
3087.076164,-8142.265362,-5921.647536,-3524.039291
3087.076502,-8068.244768,-3923.091493,-3217.601092
3087.076840,-10066.800811,-2516.700203,-3753.867940
3087.077178,-10955.047942,-1184.329507,-3370.820191
3087.077516,-12953.603985,-1332.370696,-3600.648841
3087.077854,-11843.295072,-2442.679609,-3370.820191
3087.078192,-9178.553681,-3034.844362,-1762.019645
3087.078529,-8956.491898,-4885.359217,1225.752797
3087.078867,-9548.656652,-4441.235652,2604.724693
3087.079205,-9770.718434,-2812.782580,1532.190996
3087.079543,-9030.512492,-2072.576638,0.000000
3087.079881,-10066.800811,-148.041188,-1378.971896
3087.080219,-11621.233289,370.102971,-2834.553343
3087.080557,-11251.130318,888.247130,-3447.429741
3087.080894,-9622.677246,740.205942,-3217.601092
3087.081232,-8956.491898,222.061783,-2374.896044
3087.081570,-10436.903782,518.144159,-1302.362347
3087.081908,-10066.800811,0.000000,-1991.848295
3087.082246,-10066.800811,-1628.453072,-1532.190996
3087.082584,-10288.862594,-3627.009116,-1149.143247
3087.082922,-9474.636058,-3478.967927,-1915.238745
3087.083259,-8808.450710,-3701.029710,-1838.629195
3087.083597,-8586.388927,-3182.885551,-1149.143247
3087.083935,-8808.450710,-2368.659014,-2221.676944
3087.084273,-10658.965565,-444.123565,-2757.943793
3087.084611,-11621.233289,-592.164754,-3064.381992
3087.084949,-11991.336260,-1776.494261,-3830.477490
3087.085286,-11251.130318,-3182.885551,-3753.867940
3087.085624,-9178.553681,-4515.256246,-2757.943793
3087.085962,-8364.327145,-5625.565159,1072.533697
3087.086300,-7846.182985,-5403.503377,1915.238745
3087.086638,-9178.553681,-3849.070898,1225.752797
3087.086976,-11917.315666,-1850.514855,0.000000
3087.087314,-12805.562797,-740.205942,-2145.067394
3087.087651,-12213.398043,-1184.329507,-2987.772442
3087.087989,-11325.150913,-1258.350101,-2451.505594
3087.088327,-9548.656652,-962.267725,-1302.362347
3087.088665,-9696.697840,-1776.494261,-1991.848295
3087.089003,-8882.471304,-2664.741391,-1991.848295
3087.089341,-9178.553681,-3108.864956,-2681.334243
3087.089679,-10288.862594,-3701.029710,-1608.800546
3087.090016,-10584.944971,-3404.947333,-1302.362347
3087.090354,-10288.862594,-2590.720797,-919.314598
3087.090692,-9622.677246,-1554.432478,-2834.553343
3087.091029,-8586.388927,-1702.473667,-3830.477490
3087.091367,-9770.718434,-1702.473667,-2604.724693
3087.091704,-9622.677246,-2146.597232,-2681.334243
3087.092042,-9770.718434,-2738.761985,-1532.190996
3087.092379,-9770.718434,-2368.659014,0.000000
3087.092717,-9548.656652,-1702.473667,383.047749
3087.093055,-10288.862594,-1036.288319,842.705048
3087.093392,-10066.800811,-2368.659014,-459.657299
3087.093730,-10214.842000,-2072.576638,-536.266849
3087.094067,-10066.800811,-1702.473667,-1149.143247
3087.094405,-10066.800811,-1628.453072,-766.095498
3087.094742,-10436.903782,0.000000,-1762.019645
3087.095080,-10881.027347,0.000000,-3217.601092
3087.095417,-9548.656652,-222.061783,-3830.477490
3087.095755,-10140.821405,-1406.391290,-3217.601092
3087.096092,-10955.047942,-2516.700203,-2451.505594
3087.096430,-10066.800811,-3478.967927,-1378.971896
3087.096767,-9474.636058,-4811.338623,-2757.943793
3087.097105,-9770.718434,-4885.359217,-1302.362347
3087.097442,-10066.800811,-5477.523971,-1991.848295
3087.097780,-9178.553681,-4367.215058,-3294.210641
3087.098117,-9548.656652,-3849.070898,-2834.553343
3087.098455,-9770.718434,-3552.988522,-3983.696590
3087.098792,-11399.171507,-4885.359217,-3447.429741
3087.099130,-10214.842000,-5107.421000,-2834.553343
3087.099468,-8956.491898,-3330.926739,-1225.752797
3087.099805,-8956.491898,-2294.638420,-153.219100
3087.100143,-9622.677246,-3034.844362,-766.095498
3087.100480,-11547.212695,-4885.359217,-459.657299
3087.100818,-11769.274478,-3997.112087,229.828649
3087.101155,-10658.965565,-2516.700203,766.095498
3087.101493,-10658.965565,-962.267725,229.828649
3087.101830,-9252.574275,-666.185348,-1378.971896
3087.102168,-8882.471304,-296.082377,-1685.410096
3087.102505,-9622.677246,0.000000,-1838.629195
3087.102843,-9770.718434,666.185348,-2374.896044
3087.103180,-11029.068536,1110.308913,-1225.752797
3087.103518,-11621.233289,-444.123565,-3217.601092
3087.103855,-10214.842000,-2072.576638,-1302.362347
3087.104193,-9770.718434,-1480.411884,1302.362347
3087.104530,-7402.059420,-518.144159,2451.505594
3087.104868,-8882.471304,-1110.308913,1762.019645
3087.105205,-10807.006753,-2368.659014,-459.657299
3087.105543,-10510.924376,-1406.391290,-1532.190996
3087.105881,-9326.594869,0.000000,-2911.162892
3087.106218,-9548.656652,0.000000,-1455.581446
3087.106556,-9992.780217,-2442.679609,-1685.410096
3087.106893,-9326.594869,-1554.432478,-2374.896044
3087.107231,-8364.327145,-1184.329507,76.609550
3087.107568,-9770.718434,-1406.391290,1762.019645
3087.107906,-10658.965565,-740.205942,1072.533697
3087.108243,-12731.542202,-296.082377,-1149.143247
3087.108581,-12065.356855,-2368.659014,0.000000
3087.108918,-9548.656652,-1480.411884,536.266849
3087.109256,-9178.553681,-1036.288319,1072.533697
3087.109593,-9252.574275,962.267725,-153.219100
3087.109931,-11103.089130,0.000000,-3064.381992
3087.110268,-11547.212695,-1258.350101,-3983.696590
3087.110606,-9992.780217,-2220.617826,-1762.019645
3087.110943,-10732.986159,-1406.391290,0.000000
3087.111281,-9474.636058,-1184.329507,-612.876398
3087.111619,-8068.244768,-1184.329507,-2757.943793
3087.111956,-9104.533087,-2886.803174,-2451.505594
3087.112294,-10362.883188,-3182.885551,1072.533697
3087.112631,-10066.800811,-1480.411884,2374.896044
3087.112969,-10510.924376,-592.164754,689.485948
3087.113306,-10807.006753,0.000000,-612.876398
3087.113644,-10881.027347,-592.164754,-612.876398
3087.113981,-9326.594869,-1184.329507,766.095498
3087.114319,-8290.306550,-814.226536,2911.162892
3087.114656,-9770.718434,-444.123565,3447.429741
3087.114994,-10066.800811,888.247130,3064.381992
3087.115331,-11547.212695,1924.535449,1608.800546
3087.115669,-11843.295072,2738.761985,689.485948
3087.116006,-11251.130318,1702.473667,842.705048
3087.116344,-10140.821405,370.102971,1225.752797
3087.116681,-9030.512492,888.247130,1608.800546
3087.117019,-8734.430116,1628.453072,1072.533697
3087.117356,-9474.636058,1036.288319,229.828649
3087.117694,-10362.883188,-296.082377,-1072.533697
3087.118032,-10807.006753,-370.102971,0.000000
3087.118369,-10066.800811,0.000000,153.219100
3087.118707,-7846.182985,0.000000,76.609550
3087.119044,-8956.491898,-1036.288319,1072.533697
3087.119382,-10214.842000,-1480.411884,383.047749
3087.119719,-11843.295072,-1184.329507,-919.314598
3087.120057,-9696.697840,-1850.514855,-1225.752797
3087.120394,-8956.491898,-2886.803174,459.657299
3087.120732,-8882.471304,-3404.947333,995.924147
3087.121069,-8734.430116,-2442.679609,1149.143247
3087.121407,-8364.327145,-592.164754,1149.143247
3087.121744,-10881.027347,-888.247130,1072.533697
3087.122082,-13175.665768,-518.144159,-229.828649
3087.122419,-12361.439231,-370.102971,-2145.067394
3087.122757,-10955.047942,-444.123565,-536.266849
3087.123094,-9622.677246,-2220.617826,536.266849
3087.123432,-8808.450710,-1110.308913,842.705048
3087.123769,-8956.491898,-666.185348,383.047749
3087.124107,-11251.130318,-2072.576638,383.047749
3087.124445,-10881.027347,0.000000,-306.438199
3087.124782,-10658.965565,1110.308913,-1302.362347
3087.125120,-11473.192101,1776.494261,-1455.581446
3087.125457,-9770.718434,-814.226536,-3294.210641
3087.125795,-9400.615463,-1554.432478,-3140.991542
3087.126132,-8882.471304,-2664.741391,-766.095498
3087.126470,-7179.997637,-2368.659014,1915.238745
3087.126807,-9326.594869,0.000000,2451.505594
3087.127145,-11843.295072,444.123565,766.095498
3087.127482,-11991.336260,518.144159,-612.876398
3087.127820,-10732.986159,0.000000,1378.971896
3087.128157,-9548.656652,148.041188,2451.505594
3087.128495,-8586.388927,2072.576638,1685.410096
3087.128832,-10436.903782,1036.288319,1762.019645
3087.129170,-10732.986159,592.164754,1302.362347
3087.129507,-8364.327145,1480.411884,1072.533697
3087.129845,-10362.883188,1998.556043,3064.381992
3087.130182,-11325.150913,1110.308913,1608.800546
3087.130520,-10066.800811,1036.288319,0.000000
3087.130858,-9770.718434,2516.700203,-995.924147
3087.131195,-8364.327145,740.205942,-459.657299
3087.131533,-8882.471304,-444.123565,1225.752797
3087.131870,-9104.533087,-962.267725,1378.971896
3087.132208,-10510.924376,-222.061783,0.000000
3087.132545,-10732.986159,-518.144159,-995.924147
3087.132883,-10140.821405,-1480.411884,-1608.800546
3087.133220,-8660.409521,-740.205942,-612.876398
3087.133558,-10658.965565,-1480.411884,-383.047749
3087.133895,-9474.636058,-296.082377,-689.485948
3087.134233,-9622.677246,-1776.494261,-383.047749
3087.134570,-11473.192101,-1702.473667,995.924147
3087.134908,-10807.006753,-1850.514855,459.657299
3087.135245,-10362.883188,-2294.638420,1225.752797
3087.135583,-8734.430116,-1258.350101,536.266849
3087.135920,-9770.718434,-1850.514855,2068.457845
3087.136258,-11399.171507,-592.164754,2068.457845
3087.136595,-12139.377449,-74.020594,1455.581446
3087.136933,-10214.842000,592.164754,-383.047749
3087.137271,-9622.677246,296.082377,1378.971896
3087.137608,-11399.171507,-74.020594,2068.457845
3087.137946,-11399.171507,-370.102971,842.705048
3087.138283,-9992.780217,2072.576638,-1378.971896
3087.138621,-8956.491898,888.247130,-1378.971896
3087.138958,-10288.862594,0.000000,-1072.533697
3087.139296,-9844.739029,0.000000,-1149.143247
3087.139633,-9770.718434,962.267725,-1455.581446
3087.139971,-8956.491898,-370.102971,-536.266849
3087.140308,-9844.739029,-1480.411884,0.000000
3087.140646,-9474.636058,-444.123565,1225.752797
3087.140983,-8808.450710,1036.288319,536.266849
3087.141321,-9104.533087,1184.329507,-383.047749
3087.141658,-9622.677246,1332.370696,-1225.752797
3087.141996,-9326.594869,-148.041188,-995.924147
3087.142333,-10436.903782,-1406.391290,1455.581446
3087.142671,-10214.842000,370.102971,2604.724693
3087.143008,-8734.430116,592.164754,1915.238745
3087.143346,-10214.842000,-222.061783,3140.991542
3087.143684,-10881.027347,74.020594,2451.505594
3087.144021,-9770.718434,814.226536,1991.848295
3087.144359,-10140.821405,814.226536,536.266849
3087.144696,-10140.821405,-296.082377,-536.266849
3087.145034,-10510.924376,962.267725,-842.705048
3087.145371,-10955.047942,222.061783,-1302.362347
3087.145709,-9326.594869,0.000000,-1838.629195
3087.146046,-9104.533087,-444.123565,229.828649
3087.146384,-11621.233289,-666.185348,1915.238745
3087.146721,-12731.542202,-1554.432478,-459.657299
3087.147059,-11325.150913,-1554.432478,-1915.238745
3087.147396,-8734.430116,-2368.659014,-1302.362347
3087.147734,-8586.388927,-3701.029710,383.047749
3087.148071,-9770.718434,-3775.050304,1608.800546
3087.148409,-9474.636058,-1184.329507,0.000000
3087.148746,-10584.944971,-1480.411884,0.000000
3087.149084,-10732.986159,-962.267725,-153.219100
3087.149422,-10584.944971,-592.164754,689.485948
3087.149759,-9548.656652,148.041188,2145.067394
3087.150097,-9252.574275,0.000000,2221.676944
3087.150434,-10732.986159,74.020594,1915.238745
3087.150772,-10807.006753,-1110.308913,2374.896044
3087.151109,-10955.047942,74.020594,1838.629195
3087.151447,-9474.636058,814.226536,1378.971896
3087.151784,-8586.388927,1110.308913,1378.971896
3087.152122,-8512.368333,1554.432478,383.047749
3087.152459,-9918.759623,1554.432478,-459.657299
3087.152797,-10436.903782,2664.741391,-1149.143247
3087.153134,-9844.739029,2220.617826,-2604.724693
3087.153472,-10288.862594,814.226536,-1991.848295
3087.153809,-10732.986159,1036.288319,-995.924147
3087.154147,-9474.636058,888.247130,-919.314598
3087.154484,-8660.409521,-148.041188,0.000000
3087.154822,-8512.368333,-740.205942,306.438199
3087.155159,-9992.780217,-1554.432478,536.266849
3087.155497,-11843.295072,-1850.514855,-842.705048
3087.155835,-9548.656652,-740.205942,-1608.800546
3087.156172,-8142.265362,296.082377,0.000000
3087.156510,-10066.800811,0.000000,229.828649
3087.156847,-11251.130318,-1406.391290,-1072.533697
3087.157185,-10584.944971,-1332.370696,0.000000
3087.157522,-9548.656652,-1184.329507,1302.362347
3087.157860,-9696.697840,-888.247130,2834.553343
3087.158197,-11251.130318,-1184.329507,3600.648841
3087.158535,-12361.439231,-740.205942,2757.943793
3087.158872,-11769.274478,-296.082377,-536.266849
3087.159210,-9030.512492,592.164754,-1455.581446
3087.159547,-10288.862594,-592.164754,766.095498
3087.159885,-10881.027347,-740.205942,536.266849
3087.160222,-10362.883188,222.061783,-1762.019645
3087.160560,-10510.924376,1406.391290,-1149.143247
3087.160897,-9844.739029,-666.185348,-1378.971896
3087.161235,-9548.656652,-2368.659014,229.828649
3087.161572,-10066.800811,-1702.473667,1608.800546
3087.161910,-9178.553681,-666.185348,1991.848295
3087.162248,-8068.244768,888.247130,1532.190996
3087.162585,-10881.027347,74.020594,1915.238745
3087.162923,-11621.233289,-666.185348,153.219100
3087.163260,-9400.615463,-444.123565,306.438199
3087.163598,-8290.306550,74.020594,1685.410096
3087.163935,-8438.347739,0.000000,2451.505594
3087.164273,-10288.862594,222.061783,1532.190996
3087.164610,-9326.594869,1406.391290,153.219100
3087.164948,-9400.615463,1628.453072,612.876398
3087.165285,-11473.192101,1480.411884,1762.019645
3087.165623,-11621.233289,2294.638420,689.485948
3087.165960,-11029.068536,1850.514855,306.438199
3087.166298,-10066.800811,1998.556043,0.000000
3087.166635,-9178.553681,444.123565,-766.095498
3087.166973,-11399.171507,-296.082377,-306.438199
3087.167310,-10881.027347,74.020594,-1455.581446
3087.167648,-9548.656652,222.061783,-2145.067394
3087.167985,-8438.347739,592.164754,-2757.943793
3087.168323,-9844.739029,-962.267725,-2221.676944
3087.168661,-11843.295072,-2442.679609,-459.657299
3087.168998,-9770.718434,-1998.556043,-1149.143247
3087.169336,-9178.553681,-1406.391290,76.609550
3087.169673,-10658.965565,-814.226536,1915.238745
3087.170011,-10362.883188,-1332.370696,612.876398
3087.170348,-9474.636058,-1036.288319,-306.438199
3087.170686,-9770.718434,-2072.576638,-153.219100
3087.171023,-9030.512492,-1184.329507,536.266849
3087.171361,-10955.047942,-1184.329507,1302.362347
3087.171698,-9326.594869,-1406.391290,766.095498
3087.172036,-9548.656652,370.102971,1225.752797
3087.172373,-9178.553681,2294.638420,229.828649
3087.172711,-10066.800811,1480.411884,0.000000
3087.173048,-11769.274478,0.000000,76.609550
3087.173386,-10658.965565,148.041188,0.000000
3087.173723,-8364.327145,740.205942,1455.581446
3087.174061,-8882.471304,1110.308913,3830.477490
3087.174398,-10140.821405,-740.205942,3600.648841
3087.174736,-10066.800811,74.020594,612.876398
3087.175074,-10732.986159,1850.514855,689.485948
3087.175411,-10510.924376,592.164754,919.314598
3087.175749,-11103.089130,-1110.308913,76.609550
3087.176086,-9252.574275,0.000000,-919.314598
3087.176424,-9992.780217,1628.453072,76.609550
3087.176761,-8290.306550,2812.782580,-2145.067394
3087.177099,-8586.388927,592.164754,-2298.286494
3087.177436,-11399.171507,-1036.288319,919.314598
3087.177774,-11473.192101,-592.164754,1608.800546
3087.178111,-11029.068536,444.123565,2757.943793
3087.178449,-10362.883188,592.164754,2068.457845
3087.178786,-9548.656652,-1850.514855,1762.019645
3087.179124,-8216.285956,-1110.308913,306.438199
3087.179461,-7994.224174,0.000000,766.095498
3087.179799,-9844.739029,-592.164754,1072.533697
3087.180136,-11695.253884,-518.144159,-1149.143247
3087.180474,-12065.356855,0.000000,-3294.210641
3087.180811,-9474.636058,0.000000,-2451.505594
3087.181149,-7328.038826,370.102971,76.609550
3087.181487,-8216.285956,-1036.288319,383.047749
3087.181824,-10955.047942,-888.247130,76.609550
3087.182162,-12361.439231,-740.205942,-306.438199
3087.182499,-12879.583391,-1184.329507,-1838.629195
3087.182837,-10584.944971,-592.164754,-1991.848295
3087.183174,-9474.636058,-1258.350101,-459.657299
3087.183512,-9696.697840,-2220.617826,-76.609550
3087.183849,-7254.018232,-1554.432478,-536.266849
3087.184187,-9326.594869,-888.247130,1072.533697
3087.184524,-11991.336260,148.041188,536.266849
3087.184862,-11917.315666,148.041188,229.828649
3087.185199,-11917.315666,888.247130,919.314598
3087.185537,-9770.718434,1332.370696,1302.362347
3087.185874,-8660.409521,1036.288319,2681.334243
3087.186212,-8956.491898,740.205942,3524.039291
3087.186549,-9918.759623,296.082377,2221.676944
3087.186887,-9770.718434,1628.453072,459.657299
3087.187225,-10214.842000,1998.556043,1378.971896
3087.187562,-10066.800811,1702.473667,1532.190996
3087.187900,-9030.512492,888.247130,-459.657299
3087.188237,-9326.594869,1554.432478,-766.095498
3087.188575,-8216.285956,1184.329507,0.000000
3087.188912,-9326.594869,222.061783,383.047749
3087.189250,-9844.739029,0.000000,76.609550
3087.189587,-10807.006753,666.185348,0.000000
3087.189925,-10732.986159,-296.082377,1302.362347
3087.190262,-10732.986159,-1702.473667,0.000000
3087.190600,-8512.368333,-1702.473667,0.000000
3087.190937,-9400.615463,-444.123565,919.314598
3087.191275,-9400.615463,-592.164754,0.000000
3087.191612,-10362.883188,-518.144159,383.047749
3087.191950,-13693.809927,-814.226536,-1225.752797
3087.192287,-11029.068536,-1702.473667,0.000000
3087.192624,-10288.862594,-1332.370696,76.609550
3087.192962,-8956.491898,-1184.329507,2068.457845
3087.193299,-9252.574275,74.020594,1838.629195
3087.193636,-9844.739029,-518.144159,1072.533697
3087.193974,-12065.356855,-518.144159,1149.143247
3087.194311,-10955.047942,-296.082377,612.876398
3087.194648,-9844.739029,296.082377,-153.219100
3087.194986,-10214.842000,74.020594,-689.485948
3087.195323,-9918.759623,-740.205942,-1072.533697
3087.195660,-8216.285956,-296.082377,-3983.696590
3087.195998,-9400.615463,-740.205942,-2068.457845
3087.196335,-11177.109724,-518.144159,-1838.629195
3087.196673,-8068.244768,-1628.453072,-1378.971896
3087.197010,-10955.047942,-1332.370696,-536.266849
3087.197347,-11177.109724,-666.185348,1685.410096
3087.197685,-8438.347739,-74.020594,306.438199
3087.198022,-10362.883188,-1036.288319,2068.457845
3087.198359,-11325.150913,-1036.288319,1838.629195
3087.198697,-10288.862594,-148.041188,2068.457845
3087.199034,-10658.965565,592.164754,1608.800546
3087.199371,-10288.862594,888.247130,536.266849
3087.199709,-9918.759623,1184.329507,-842.705048
3087.200046,-8290.306550,1332.370696,229.828649
3087.200383,-8956.491898,518.144159,1072.533697
3087.200721,-11325.150913,1332.370696,995.924147
3087.201058,-11621.233289,1554.432478,0.000000
3087.201395,-10658.965565,1184.329507,536.266849
3087.201733,-9844.739029,444.123565,1915.238745
3087.202070,-9918.759623,296.082377,2528.115143
3087.202407,-10288.862594,-370.102971,1608.800546
3087.202745,-10510.924376,-1110.308913,1302.362347
3087.203082,-8734.430116,-1776.494261,0.000000
3087.203419,-9326.594869,-740.205942,-612.876398
3087.203757,-8142.265362,-518.144159,-1225.752797
3087.204094,-9030.512492,-592.164754,-459.657299
3087.204431,-11399.171507,-370.102971,-1455.581446
3087.204769,-11325.150913,-1776.494261,-2757.943793
3087.205106,-10807.006753,-888.247130,-1302.362347
3087.205443,-7772.162391,-2294.638420,-612.876398
3087.205781,-8068.244768,-2220.617826,1608.800546
3087.206118,-10288.862594,-2294.638420,2987.772442
3087.206456,-11843.295072,-1628.453072,2681.334243
3087.206793,-11917.315666,-1184.329507,2911.162892
3087.207130,-12213.398043,-1702.473667,2681.334243
3087.207468,-11029.068536,-888.247130,2451.505594
3087.207805,-10066.800811,0.000000,1378.971896
3087.208142,-10584.944971,2220.617826,306.438199
3087.208480,-9696.697840,1554.432478,-3064.381992
3087.208817,-9178.553681,-518.144159,-4136.915689
3087.209154,-7846.182985,-1036.288319,-1915.238745
3087.209492,-9474.636058,-222.061783,-1302.362347
3087.209829,-9696.697840,740.205942,-1685.410096
3087.210166,-8586.388927,0.000000,-2374.896044
3087.210504,-9400.615463,-666.185348,153.219100
3087.210841,-10955.047942,0.000000,2145.067394
3087.211178,-10732.986159,296.082377,1455.581446
3087.211516,-11325.150913,0.000000,1455.581446
3087.211853,-11029.068536,-962.267725,842.705048
3087.212190,-10658.965565,148.041188,689.485948
3087.212528,-8512.368333,222.061783,-306.438199
3087.212865,-7476.080014,0.000000,153.219100
3087.213202,-9030.512492,370.102971,1072.533697
3087.213540,-12065.356855,1554.432478,842.705048
3087.213877,-12509.480420,3256.906145,0.000000
3087.214214,-11325.150913,1998.556043,-306.438199
3087.214552,-10584.944971,-296.082377,1608.800546
3087.214889,-9474.636058,-1184.329507,1991.848295
3087.215226,-8882.471304,-1036.288319,3064.381992
3087.215564,-7328.038826,444.123565,1915.238745
3087.215901,-9178.553681,148.041188,0.000000
3087.216239,-11399.171507,-888.247130,0.000000
3087.216576,-12509.480420,-962.267725,-459.657299
3087.216913,-9622.677246,370.102971,-1915.238745
3087.217251,-8290.306550,222.061783,-1991.848295
3087.217588,-8438.347739,-592.164754,-1149.143247
3087.217925,-10288.862594,-2220.617826,-766.095498
3087.218263,-11103.089130,-2664.741391,-1072.533697
3087.218600,-9030.512492,-2442.679609,383.047749
3087.218937,-10066.800811,-2664.741391,2374.896044
3087.219275,-10732.986159,-2738.761985,2834.553343
3087.219612,-12213.398043,-2294.638420,1302.362347
3087.219949,-11325.150913,-962.267725,459.657299
3087.220287,-9622.677246,-370.102971,-766.095498
3087.220624,-9548.656652,0.000000,1455.581446
3087.220961,-11991.336260,-666.185348,2451.505594
3087.221299,-10510.924376,-592.164754,1378.971896
3087.221636,-10436.903782,1406.391290,1915.238745
3087.221973,-9548.656652,296.082377,2834.553343
3087.222311,-10807.006753,296.082377,2451.505594
3087.222648,-10807.006753,1110.308913,-383.047749
3087.222985,-8364.327145,2146.597232,-2221.676944
3087.223323,-8068.244768,1924.535449,0.000000
3087.223660,-9992.780217,-444.123565,-612.876398
3087.223997,-10732.986159,-740.205942,-1838.629195
3087.224335,-9622.677246,444.123565,-2834.553343
3087.224672,-8438.347739,1554.432478,-1685.410096
3087.225009,-6957.935855,148.041188,-1302.362347
3087.225347,-9770.718434,-518.144159,919.314598
3087.225684,-10732.986159,0.000000,0.000000
3087.226021,-9918.759623,-1258.350101,-1608.800546
3087.226359,-9770.718434,0.000000,536.266849
3087.226696,-10881.027347,-1258.350101,1149.143247
3087.227034,-12583.501014,-962.267725,76.609550
3087.227371,-9252.574275,-1184.329507,-842.705048
3087.227708,-7994.224174,444.123565,-383.047749
3087.228046,-9474.636058,-1480.411884,459.657299
3087.228383,-11621.233289,-1332.370696,229.828649
3087.228720,-11695.253884,-592.164754,-612.876398
3087.229058,-11917.315666,-370.102971,-536.266849
3087.229395,-9622.677246,-740.205942,536.266849
3087.229732,-10732.986159,-1554.432478,3524.039291
3087.230070,-10066.800811,-888.247130,2987.772442
3087.230407,-9326.594869,-370.102971,0.000000
3087.230744,-11843.295072,-666.185348,153.219100
3087.231082,-12213.398043,-592.164754,-1762.019645
3087.231419,-10066.800811,-2590.720797,-2681.334243
3087.231756,-9030.512492,-1850.514855,-1608.800546
3087.232094,-6957.935855,-2146.597232,-766.095498
3087.232431,-8216.285956,-1850.514855,612.876398
3087.232768,-10362.883188,-1332.370696,1455.581446
3087.233106,-10881.027347,-888.247130,1378.971896
3087.233443,-11917.315666,222.061783,1532.190996
3087.233780,-10732.986159,0.000000,1225.752797
3087.234118,-8882.471304,-1036.288319,3064.381992
3087.234455,-9400.615463,-1776.494261,5592.497135
3087.234792,-8882.471304,592.164754,4443.353888
3087.235130,-9400.615463,2220.617826,2298.286494
3087.235467,-11695.253884,1406.391290,1532.190996
3087.235804,-12139.377449,518.144159,-536.266849
3087.236142,-9992.780217,1258.350101,-1225.752797
3087.236479,-6809.894666,3034.844362,-766.095498
3087.236817,-7031.956449,1776.494261,306.438199
3087.237154,-10436.903782,1480.411884,-306.438199
3087.237491,-11251.130318,1776.494261,-2374.896044
3087.237829,-11621.233289,1998.556043,-2374.896044
3087.238166,-9548.656652,-592.164754,-612.876398
3087.238503,-9474.636058,-1554.432478,1149.143247
3087.238841,-11473.192101,-1332.370696,536.266849
3087.239178,-8660.409521,-1850.514855,-2451.505594
3087.239515,-7772.162391,-2442.679609,-1225.752797
3087.239853,-9548.656652,-3330.926739,0.000000
3087.240190,-11251.130318,-3330.926739,-536.266849
3087.240527,-11103.089130,-1406.391290,-1608.800546
3087.240865,-9400.615463,-1110.308913,-2298.286494
3087.241202,-10362.883188,-2294.638420,-689.485948
3087.241539,-12509.480420,-2368.659014,229.828649
3087.241877,-10510.924376,-1776.494261,-76.609550
3087.242214,-8808.450710,-592.164754,-153.219100
3087.242551,-9844.739029,-1258.350101,1149.143247
3087.242889,-11547.212695,-1184.329507,1991.848295
3087.243226,-12065.356855,-592.164754,2374.896044
3087.243563,-11325.150913,1110.308913,689.485948
3087.243901,-10140.821405,592.164754,-612.876398
3087.244238,-10584.944971,296.082377,0.000000
3087.244575,-9104.533087,-666.185348,383.047749
3087.244913,-8882.471304,962.267725,383.047749
3087.245250,-9178.553681,2368.659014,-76.609550
3087.245587,-10436.903782,1258.350101,-995.924147
3087.245925,-11103.089130,-444.123565,-1072.533697
3087.246262,-9992.780217,-1184.329507,-689.485948
3087.246600,-7402.059420,518.144159,0.000000
3087.246937,-6291.750507,-74.020594,2068.457845
3087.247274,-8956.491898,-592.164754,3677.258390
3087.247612,-11917.315666,-666.185348,919.314598
3087.247949,-11103.089130,-296.082377,-842.705048
3087.248286,-8586.388927,814.226536,1072.533697
3087.248624,-9030.512492,-1036.288319,3294.210641
3087.248961,-9400.615463,888.247130,3524.039291
3087.249298,-11325.150913,1480.411884,1685.410096
3087.249636,-10140.821405,1332.370696,-459.657299
3087.249973,-9622.677246,-296.082377,459.657299
3087.250310,-11621.233289,-1036.288319,2911.162892
3087.250648,-11473.192101,0.000000,2298.286494
3087.250985,-9474.636058,-740.205942,-1149.143247
3087.251322,-8956.491898,-1184.329507,-766.095498
3087.251660,-9548.656652,-1702.473667,-766.095498
3087.251997,-9548.656652,-1776.494261,-995.924147
3087.252334,-9326.594869,-888.247130,-1378.971896
3087.252672,-9474.636058,-592.164754,-1685.410096
3087.253009,-11621.233289,-2072.576638,-689.485948
3087.253346,-11399.171507,-2072.576638,-1302.362347
3087.253684,-10436.903782,-2294.638420,-1762.019645
3087.254021,-9178.553681,-2960.823768,-766.095498
3087.254358,-9474.636058,-2664.741391,1532.190996
3087.254696,-10436.903782,-1628.453072,766.095498
3087.255033,-11621.233289,-1406.391290,-306.438199
3087.255370,-10732.986159,-1776.494261,-1608.800546
3087.255708,-10140.821405,-1406.391290,-1225.752797
3087.256045,-10807.006753,-666.185348,1072.533697
3087.256382,-9474.636058,0.000000,1225.752797
3087.256720,-9030.512492,1406.391290,536.266849
3087.257057,-9844.739029,2516.700203,842.705048
3087.257395,-11547.212695,2146.597232,689.485948
3087.257732,-11695.253884,1258.350101,-76.609550
3087.258069,-10658.965565,1110.308913,229.828649
3087.258407,-9252.574275,1776.494261,612.876398
3087.258744,-9696.697840,1258.350101,1532.190996
3087.259081,-9326.594869,222.061783,459.657299
3087.259419,-8660.409521,0.000000,-1149.143247
3087.259756,-9770.718434,0.000000,-612.876398
3087.260093,-7772.162391,1184.329507,-383.047749
3087.260431,-9178.553681,74.020594,229.828649
3087.260768,-11251.130318,-888.247130,-459.657299
3087.261105,-9548.656652,-740.205942,-1455.581446
3087.261443,-9104.533087,-148.041188,919.314598
3087.261780,-9178.553681,962.267725,2145.067394
3087.262117,-10140.821405,0.000000,1915.238745
3087.262455,-12509.480420,-1480.411884,1608.800546
3087.262792,-11769.274478,-2368.659014,995.924147
3087.263129,-9992.780217,-1850.514855,2604.724693
3087.263467,-9770.718434,-666.185348,3294.210641
3087.263804,-8734.430116,-518.144159,1149.143247
3087.264141,-10066.800811,-444.123565,459.657299
3087.264479,-11029.068536,592.164754,0.000000
3087.264816,-10362.883188,666.185348,-995.924147
3087.265153,-11695.253884,518.144159,-1685.410096
3087.265491,-10510.924376,-962.267725,-1915.238745
3087.265828,-8734.430116,-1258.350101,-612.876398
3087.266165,-9696.697840,-1776.494261,1838.629195
3087.266503,-9400.615463,-1628.453072,2757.943793
3087.266840,-10066.800811,-1036.288319,2298.286494
3087.267178,-11399.171507,-1332.370696,612.876398
3087.267515,-12213.398043,-1406.391290,-1532.190996
3087.267852,-10140.821405,-1332.370696,-2298.286494
3087.268190,-8364.327145,-962.267725,-1685.410096
3087.268527,-7698.141797,-1702.473667,-1225.752797
3087.268864,-9252.574275,-1110.308913,-1149.143247
3087.269202,-9178.553681,-370.102971,-1072.533697
3087.269539,-9326.594869,1110.308913,-76.609550
3087.269876,-11177.109724,74.020594,1685.410096
3087.270214,-12435.459826,0.000000,2298.286494
3087.270551,-11621.233289,1184.329507,1378.971896
3087.270888,-9030.512492,666.185348,1225.752797
3087.271226,-9400.615463,-518.144159,2221.676944
3087.271563,-7698.141797,148.041188,306.438199
3087.271900,-8512.368333,1702.473667,-229.828649
3087.272238,-10955.047942,1110.308913,766.095498
3087.272575,-11843.295072,740.205942,-1302.362347
3087.272912,-11177.109724,962.267725,-1455.581446
3087.273250,-10807.006753,592.164754,-306.438199
3087.273587,-9104.533087,0.000000,-229.828649
3087.273924,-8216.285956,-222.061783,0.000000
3087.274262,-9252.574275,-962.267725,766.095498
3087.274599,-11029.068536,-1406.391290,536.266849
3087.274936,-11621.233289,-592.164754,-612.876398
3087.275274,-10881.027347,-1702.473667,-1685.410096
3087.275611,-9844.739029,-1628.453072,0.000000
3087.275948,-8290.306550,-1184.329507,689.485948
3087.276286,-9844.739029,-1628.453072,1608.800546
3087.276623,-11251.130318,-740.205942,1608.800546
3087.276961,-11325.150913,-370.102971,1149.143247
3087.277298,-11473.192101,-740.205942,1915.238745
3087.277635,-10436.903782,-1480.411884,1838.629195
3087.277973,-9326.594869,-1332.370696,2298.286494
3087.278310,-8956.491898,-962.267725,2911.162892
3087.278647,-9696.697840,-740.205942,2681.334243
3087.278985,-11177.109724,296.082377,536.266849
3087.279322,-11473.192101,888.247130,-1072.533697
3087.279659,-9474.636058,296.082377,-1225.752797
3087.279997,-9474.636058,-740.205942,612.876398
3087.280334,-9622.677246,-370.102971,1072.533697
3087.280671,-8660.409521,1258.350101,-536.266849
3087.281009,-10066.800811,1332.370696,-383.047749
3087.281346,-10288.862594,814.226536,-1838.629195
3087.281683,-9104.533087,-888.247130,-2221.676944
3087.282021,-9104.533087,-1332.370696,1225.752797
3087.282358,-9918.759623,-370.102971,2298.286494
3087.282695,-9474.636058,1184.329507,306.438199
3087.283033,-10658.965565,296.082377,-842.705048
3087.283370,-9178.553681,-370.102971,-689.485948
3087.283707,-10214.842000,148.041188,689.485948
3087.284045,-9696.697840,1184.329507,612.876398
3087.284382,-8290.306550,1924.535449,536.266849
3087.284719,-9992.780217,962.267725,995.924147
3087.285057,-13027.624579,592.164754,306.438199
3087.285394,-12139.377449,0.000000,-383.047749
3087.285731,-9474.636058,1554.432478,-1915.238745
3087.286069,-7846.182985,0.000000,919.314598
3087.286406,-9622.677246,-666.185348,842.705048
3087.286743,-10066.800811,0.000000,-536.266849
3087.287081,-10362.883188,-370.102971,-1225.752797
3087.287418,-10658.965565,-888.247130,-689.485948
3087.287756,-11843.295072,-1184.329507,-766.095498
3087.288093,-12213.398043,-518.144159,-995.924147
3087.288430,-7772.162391,-296.082377,-2145.067394
3087.288768,-7550.100608,-1480.411884,-1225.752797
3087.289105,-9178.553681,-1924.535449,229.828649
3087.289442,-11843.295072,-2664.741391,0.000000
3087.289780,-12583.501014,-1924.535449,229.828649
3087.290117,-9770.718434,-740.205942,-383.047749
3087.290455,-8068.244768,-592.164754,842.705048
3087.290792,-11547.212695,-2516.700203,3524.039291
3087.291130,-10436.903782,-2220.617826,2528.115143
3087.291467,-8438.347739,-222.061783,1685.410096
3087.291805,-9548.656652,-444.123565,3064.381992
3087.292142,-12509.480420,-518.144159,4673.182538
3087.292480,-12065.356855,-370.102971,2911.162892
3087.292817,-9474.636058,1924.535449,1608.800546
3087.293155,-8290.306550,3182.885551,1149.143247
3087.293492,-9474.636058,2294.638420,842.705048
3087.293830,-11547.212695,1702.473667,0.000000
3087.294167,-10881.027347,962.267725,-1225.752797
3087.294505,-9622.677246,2294.638420,-1532.190996
3087.294842,-7920.203579,1776.494261,-612.876398
3087.295180,-9178.553681,0.000000,1302.362347
3087.295517,-10214.842000,-370.102971,536.266849
3087.295855,-9178.553681,1258.350101,-842.705048
3087.296192,-9252.574275,0.000000,-612.876398
3087.296530,-10214.842000,-1110.308913,306.438199
3087.296867,-10881.027347,-814.226536,-229.828649
3087.297205,-9548.656652,0.000000,-995.924147
3087.297542,-7846.182985,222.061783,-919.314598
3087.297880,-8438.347739,-2220.617826,459.657299
3087.298217,-11251.130318,-2146.597232,1532.190996
3087.298555,-10288.862594,-592.164754,306.438199
3087.298892,-10955.047942,370.102971,0.000000
3087.299230,-10362.883188,-518.144159,-612.876398
3087.299567,-10362.883188,-1776.494261,1532.190996
3087.299905,-11251.130318,-1406.391290,1762.019645
3087.300242,-8882.471304,-222.061783,-612.876398
3087.300580,-8438.347739,296.082377,-766.095498
3087.300917,-10732.986159,-962.267725,-536.266849
3087.301255,-12731.542202,-1776.494261,-1149.143247
3087.301592,-11103.089130,296.082377,-2221.676944
3087.301930,-9622.677246,74.020594,-2068.457845
3087.302267,-8882.471304,-74.020594,-766.095498
3087.302605,-10362.883188,-1406.391290,459.657299
3087.302942,-11177.109724,-962.267725,-612.876398
3087.303280,-9622.677246,-296.082377,-2298.286494
3087.303618,-9770.718434,-592.164754,-1225.752797
3087.303955,-9992.780217,-1184.329507,2145.067394
3087.304293,-10658.965565,-1628.453072,2757.943793
3087.304630,-10436.903782,740.205942,2145.067394
3087.304968,-9548.656652,592.164754,2145.067394
3087.305305,-10214.842000,444.123565,4136.915689
3087.305643,-11769.274478,0.000000,2987.772442
3087.305980,-11029.068536,962.267725,995.924147
3087.306318,-7328.038826,3108.864956,-229.828649
3087.306655,-6513.812290,1702.473667,995.924147
3087.306993,-10140.821405,0.000000,2987.772442
3087.307330,-10658.965565,1776.494261,689.485948
3087.307668,-9474.636058,4071.132681,-1072.533697
3087.308005,-9622.677246,2368.659014,383.047749
3087.308343,-11103.089130,1628.453072,1762.019645
3087.308680,-12435.459826,0.000000,1685.410096
3087.309018,-10658.965565,-592.164754,-689.485948
3087.309355,-7254.018232,-1924.535449,-919.314598
3087.309693,-7846.182985,-1998.556043,919.314598
3087.310030,-9474.636058,-2516.700203,1378.971896
3087.310368,-9770.718434,0.000000,-1455.581446
3087.310705,-10066.800811,666.185348,-2528.115143
3087.311043,-11251.130318,-222.061783,-2298.286494
3087.311380,-12657.521608,-2146.597232,766.095498
3087.311718,-11621.233289,-2072.576638,383.047749
3087.312055,-8660.409521,-1332.370696,0.000000
3087.312393,-7031.956449,-666.185348,1608.800546
3087.312730,-10732.986159,-1998.556043,3753.867940
3087.313068,-13027.624579,-2220.617826,1532.190996
3087.313405,-11473.192101,-888.247130,-919.314598
3087.313743,-9992.780217,0.000000,-229.828649
3087.314080,-9992.780217,-592.164754,536.266849
3087.314418,-10658.965565,0.000000,689.485948
3087.314755,-9622.677246,888.247130,-1762.019645
3087.315093,-8068.244768,222.061783,-2604.724693
3087.315430,-8956.491898,296.082377,0.000000
3087.315768,-10732.986159,740.205942,383.047749
3087.316105,-12435.459826,-370.102971,153.219100
3087.316443,-11029.068536,518.144159,-2451.505594
3087.316780,-7772.162391,370.102971,-2221.676944
3087.317118,-9400.615463,0.000000,1149.143247
3087.317455,-9252.574275,-1332.370696,1838.629195
3087.317793,-9474.636058,0.000000,-842.705048
3087.318130,-9992.780217,148.041188,-383.047749
3087.318468,-10362.883188,1258.350101,0.000000
3087.318805,-11251.130318,0.000000,919.314598
3087.319143,-10140.821405,222.061783,612.876398
3087.319480,-8660.409521,1184.329507,1072.533697
3087.319818,-8734.430116,888.247130,2528.115143
3087.320155,-11029.068536,666.185348,3753.867940
3087.320493,-11843.295072,518.144159,995.924147
3087.320830,-11547.212695,962.267725,536.266849
3087.321168,-9252.574275,1332.370696,766.095498
3087.321505,-9918.759623,666.185348,1532.190996
3087.321843,-10140.821405,148.041188,689.485948
3087.322180,-10362.883188,222.061783,-1302.362347
3087.322518,-9474.636058,-518.144159,-1762.019645
3087.322855,-7994.224174,-592.164754,-766.095498
3087.323193,-9548.656652,-1850.514855,919.314598
3087.323530,-11695.253884,-2368.659014,536.266849
3087.323868,-10510.924376,-2442.679609,-842.705048
3087.324205,-9030.512492,-2072.576638,0.000000
3087.324543,-9178.553681,-2738.761985,1838.629195
3087.324880,-9992.780217,-1702.473667,1072.533697
3087.325218,-10807.006753,-1332.370696,-383.047749
3087.325555,-10881.027347,-1406.391290,-1225.752797
3087.325893,-10510.924376,-1850.514855,-689.485948
3087.326230,-10140.821405,-2220.617826,995.924147
3087.326568,-10066.800811,-1110.308913,1532.190996
3087.326905,-8586.388927,-666.185348,766.095498
3087.327243,-9474.636058,296.082377,2681.334243
3087.327580,-11843.295072,962.267725,2834.553343
3087.327918,-12287.418637,370.102971,842.705048
3087.328255,-11769.274478,1184.329507,-1225.752797
3087.328593,-9474.636058,592.164754,-1455.581446
3087.328930,-8364.327145,1924.535449,-612.876398
3087.329268,-8586.388927,444.123565,76.609550
3087.329605,-8808.450710,1110.308913,612.876398
3087.329943,-9030.512492,1332.370696,-1302.362347
3087.330280,-11325.150913,1258.350101,-459.657299
3087.330618,-11843.295072,370.102971,-536.266849
3087.330956,-10658.965565,222.061783,-1915.238745
3087.331293,-7846.182985,814.226536,-1455.581446
3087.331631,-7772.162391,0.000000,76.609550
3087.331968,-9178.553681,-740.205942,1455.581446
3087.332306,-10658.965565,-962.267725,306.438199
3087.332643,-10881.027347,370.102971,0.000000
3087.332981,-10584.944971,74.020594,0.000000
3087.333318,-10436.903782,-370.102971,1149.143247
3087.333656,-10584.944971,0.000000,1838.629195
3087.333993,-8956.491898,296.082377,689.485948
3087.334331,-9252.574275,74.020594,919.314598
3087.334668,-9474.636058,518.144159,0.000000
3087.335006,-11177.109724,148.041188,0.000000
3087.335343,-12583.501014,-1110.308913,-459.657299
3087.335681,-9178.553681,-1332.370696,-1225.752797
3087.336018,-7994.224174,-148.041188,1225.752797
3087.336356,-10436.903782,-222.061783,2681.334243
3087.336693,-11251.130318,-1850.514855,1149.143247
3087.337031,-10658.965565,-1406.391290,0.000000
3087.337368,-10362.883188,-1850.514855,612.876398
3087.337706,-10436.903782,-2368.659014,1302.362347
3087.338043,-9992.780217,-2442.679609,612.876398
3087.338381,-10214.842000,-1628.453072,-1149.143247
3087.338718,-8586.388927,-1850.514855,-1915.238745
3087.339056,-9622.677246,-370.102971,-383.047749
3087.339393,-9474.636058,-370.102971,76.609550
3087.339731,-11103.089130,-740.205942,76.609550
3087.340068,-11843.295072,666.185348,-306.438199
3087.340406,-11769.274478,0.000000,689.485948
3087.340743,-9992.780217,-222.061783,2451.505594
3087.341081,-9178.553681,-962.267725,2374.896044
3087.341418,-8586.388927,222.061783,4060.306139
3087.341756,-9992.780217,1924.535449,3907.087040
3087.342093,-12139.377449,2590.720797,1608.800546
3087.342431,-12139.377449,2072.576638,-689.485948
3087.342768,-10362.883188,1628.453072,-1915.238745
3087.343106,-9178.553681,666.185348,-995.924147
3087.343443,-7994.224174,1628.453072,-459.657299
3087.343781,-5551.544565,3108.864956,-2068.457845
3087.344118,-7920.203579,888.247130,-1532.190996
3087.344456,-11843.295072,0.000000,-1378.971896
3087.344793,-11177.109724,-518.144159,-1608.800546
3087.345131,-10140.821405,-666.185348,-306.438199
3087.345468,-8734.430116,-1776.494261,1532.190996
3087.345806,-7402.059420,-814.226536,919.314598
3087.346143,-9400.615463,-666.185348,0.000000
3087.346481,-10288.862594,-1480.411884,-995.924147
3087.346818,-10955.047942,-1036.288319,-2145.067394
3087.347156,-11769.274478,-962.267725,-1225.752797
3087.347493,-11399.171507,-2294.638420,0.000000
3087.347831,-10140.821405,-1998.556043,1302.362347
3087.348168,-8882.471304,-962.267725,2374.896044
3087.348506,-9622.677246,-518.144159,2374.896044
3087.348843,-11769.274478,-1258.350101,1532.190996
3087.349181,-12953.603985,-1924.535449,1762.019645
3087.349518,-11029.068536,-296.082377,842.705048
3087.349856,-9992.780217,-740.205942,1302.362347
3087.350193,-10362.883188,0.000000,2145.067394
3087.350531,-9770.718434,-1184.329507,612.876398
3087.350868,-10955.047942,-740.205942,0.000000
3087.351206,-8882.471304,-814.226536,-383.047749
3087.351543,-8882.471304,-1776.494261,459.657299
3087.351881,-10807.006753,-1480.411884,612.876398
3087.352218,-11399.171507,-888.247130,0.000000
3087.352556,-9178.553681,0.000000,-1685.410096
3087.352893,-8438.347739,-592.164754,-1455.581446
3087.353231,-8512.368333,-962.267725,0.000000
3087.353568,-9918.759623,-740.205942,1225.752797
3087.353906,-10732.986159,0.000000,919.314598
3087.354243,-9104.533087,296.082377,-842.705048
3087.354581,-9474.636058,888.247130,766.095498
3087.354918,-10584.944971,-444.123565,2681.334243
3087.355256,-10658.965565,-666.185348,2451.505594
3087.355593,-8586.388927,1554.432478,1378.971896
3087.355931,-9178.553681,2072.576638,1838.629195
3087.356268,-11547.212695,1702.473667,1762.019645
3087.356606,-11547.212695,1776.494261,-766.095498
3087.356943,-10214.842000,1998.556043,-1991.848295
3087.357281,-9252.574275,1628.453072,-2681.334243
3087.357618,-8290.306550,-518.144159,-3140.991542
3087.357956,-9178.553681,-1998.556043,-612.876398
3087.358293,-8438.347739,-2220.617826,-612.876398
3087.358631,-7476.080014,-814.226536,-459.657299
3087.358969,-9696.697840,-592.164754,0.000000
3087.359306,-13471.748144,-1998.556043,383.047749
3087.359644,-13767.830521,-2886.803174,-1072.533697
3087.359981,-10807.006753,-2220.617826,-995.924147
3087.360319,-8586.388927,-1110.308913,0.000000
3087.360656,-8734.430116,-2072.576638,-229.828649
3087.360994,-11029.068536,-2294.638420,766.095498
3087.361331,-10881.027347,-1332.370696,-612.876398
3087.361669,-10881.027347,-1258.350101,-612.876398
3087.362006,-11251.130318,-1036.288319,1991.848295
3087.362344,-11695.253884,-296.082377,2145.067394
3087.362681,-10362.883188,740.205942,1532.190996
3087.363019,-9770.718434,1110.308913,1991.848295
3087.363356,-10066.800811,518.144159,2298.286494
3087.363694,-11251.130318,-518.144159,2987.772442
3087.364031,-10955.047942,-888.247130,2911.162892
3087.364369,-8956.491898,296.082377,536.266849
3087.364706,-8512.368333,148.041188,383.047749
3087.365044,-8956.491898,0.000000,229.828649
3087.365381,-8364.327145,74.020594,459.657299
3087.365719,-8290.306550,3182.885551,-612.876398
3087.366056,-7920.203579,2516.700203,-2681.334243
3087.366394,-9252.574275,296.082377,-2528.115143
3087.366731,-11251.130318,-370.102971,-153.219100
3087.367069,-10140.821405,-296.082377,0.000000
3087.367406,-9104.533087,444.123565,383.047749
3087.367744,-8586.388927,-518.144159,842.705048
3087.368081,-11843.295072,-1184.329507,2451.505594
3087.368419,-11251.130318,-1184.329507,2451.505594
3087.368756,-9548.656652,148.041188,1762.019645
3087.369094,-9696.697840,888.247130,1608.800546
3087.369431,-12287.418637,-740.205942,459.657299
3087.369769,-13027.624579,-1110.308913,383.047749
3087.370106,-9178.553681,444.123565,-995.924147
3087.370444,-6365.771101,1628.453072,-612.876398
3087.370781,-8882.471304,1184.329507,229.828649
3087.371119,-13989.892304,296.082377,153.219100
3087.371456,-13989.892304,-222.061783,-2528.115143
3087.371794,-11547.212695,-1554.432478,-2528.115143
3087.372131,-8364.327145,-2812.782580,-153.219100
3087.372469,-7402.059420,-4293.194464,1455.581446
3087.372806,-7624.121203,-2738.761985,1838.629195
3087.373144,-8364.327145,-814.226536,0.000000
3087.373481,-10807.006753,-296.082377,-2834.553343
3087.373819,-13545.768739,-1036.288319,-2681.334243
3087.374156,-11843.295072,-1628.453072,-2451.505594
3087.374494,-9400.615463,-1850.514855,-306.438199
3087.374831,-8734.430116,-962.267725,766.095498
3087.375169,-6291.750507,-296.082377,153.219100
3087.375506,-10288.862594,-1776.494261,2374.896044
3087.375844,-12213.398043,-1184.329507,1608.800546
3087.376181,-11177.109724,-1480.411884,919.314598
3087.376519,-10066.800811,444.123565,2298.286494
3087.376856,-8512.368333,1184.329507,3524.039291
3087.377194,-10288.862594,1998.556043,2987.772442
3087.377531,-11843.295072,3478.967927,536.266849
3087.377869,-10214.842000,1776.494261,-1072.533697
3087.378206,-9770.718434,1110.308913,306.438199
3087.378544,-9252.574275,1924.535449,1915.238745
3087.378881,-10362.883188,1554.432478,1991.848295
3087.379219,-10584.944971,1258.350101,0.000000
3087.379556,-9326.594869,0.000000,-766.095498
3087.379894,-10881.027347,-740.205942,306.438199
3087.380231,-9474.636058,-888.247130,689.485948
3087.380569,-8660.409521,-370.102971,842.705048
3087.380906,-8956.491898,0.000000,-536.266849
3087.381244,-9992.780217,-1554.432478,-1991.848295
3087.381581,-11177.109724,-1258.350101,-1608.800546
3087.381919,-10362.883188,-2146.597232,-842.705048
3087.382256,-8216.285956,-1628.453072,-995.924147
3087.382594,-8808.450710,-2368.659014,153.219100
3087.382931,-10288.862594,-2146.597232,2528.115143
3087.383269,-10288.862594,-740.205942,1838.629195
3087.383606,-11325.150913,-518.144159,919.314598
3087.383944,-11843.295072,-1110.308913,459.657299
3087.384281,-11695.253884,-1554.432478,536.266849
3087.384619,-10140.821405,-592.164754,919.314598
3087.384956,-9178.553681,0.000000,1072.533697
3087.385294,-9474.636058,1036.288319,306.438199
3087.385631,-10066.800811,444.123565,-2298.286494
3087.385969,-11103.089130,-814.226536,-1762.019645
3087.386307,-10066.800811,-740.205942,-383.047749
3087.386644,-8808.450710,-1110.308913,-383.047749
3087.386982,-9844.739029,-1258.350101,0.000000
3087.387319,-9918.759623,-1850.514855,0.000000
3087.387657,-10362.883188,-222.061783,0.000000
3087.387994,-9622.677246,0.000000,0.000000
3087.388332,-8290.306550,592.164754,-689.485948
3087.388669,-9844.739029,-592.164754,383.047749
3087.389007,-12361.439231,0.000000,-842.705048
3087.389344,-10214.842000,-370.102971,-2221.676944
3087.389682,-8734.430116,370.102971,0.000000
3087.390019,-8586.388927,74.020594,2298.286494
3087.390357,-9844.739029,666.185348,2145.067394
3087.390694,-11695.253884,592.164754,2298.286494
3087.391031,-10362.883188,1702.473667,612.876398
3087.391369,-10214.842000,0.000000,306.438199
3087.391706,-11695.253884,296.082377,2451.505594
3087.392043,-9326.594869,0.000000,1455.581446
3087.392381,-8290.306550,1702.473667,1455.581446
3087.392718,-9844.739029,2220.617826,1149.143247
3087.393056,-10881.027347,444.123565,-383.047749
3087.393393,-10288.862594,-1258.350101,-842.705048
3087.393730,-8882.471304,-2368.659014,536.266849
3087.394068,-6957.935855,296.082377,-689.485948
3087.394405,-9030.512492,0.000000,-383.047749
3087.394742,-12139.377449,-1702.473667,-459.657299
3087.395080,-11547.212695,-2516.700203,-1225.752797
3087.395417,-11029.068536,-2664.741391,-383.047749
3087.395754,-9474.636058,-1628.453072,1532.190996
3087.396092,-9474.636058,-2516.700203,2834.553343
3087.396429,-10955.047942,-2146.597232,2298.286494
3087.396766,-10436.903782,-1332.370696,0.000000
3087.397104,-10362.883188,-370.102971,-383.047749
3087.397441,-12731.542202,-1184.329507,1149.143247
3087.397778,-10510.924376,-740.205942,0.000000
3087.398116,-8586.388927,-592.164754,459.657299
3087.398453,-8734.430116,1110.308913,919.314598
3087.398790,-10140.821405,592.164754,1378.971896
3087.399128,-11547.212695,148.041188,0.000000
3087.399465,-11843.295072,222.061783,-1225.752797
3087.399802,-10140.821405,-518.144159,76.609550
3087.400140,-8142.265362,-888.247130,1149.143247
3087.400477,-9770.718434,-1258.350101,1455.581446
3087.400814,-9400.615463,-592.164754,459.657299
3087.401152,-8586.388927,222.061783,-1608.800546
3087.401489,-9992.780217,0.000000,-1762.019645
3087.401826,-9252.574275,444.123565,-2068.457845
3087.402164,-9104.533087,1110.308913,-1532.190996
3087.402501,-11547.212695,370.102971,-689.485948
3087.402839,-11769.274478,518.144159,-2068.457845
3087.403176,-9918.759623,1110.308913,-2221.676944
3087.403513,-8882.471304,74.020594,383.047749
3087.403851,-9622.677246,-1258.350101,2068.457845
3087.404188,-9474.636058,-1184.329507,1532.190996
3087.404525,-10807.006753,-888.247130,2604.724693
3087.404863,-12509.480420,-592.164754,2374.896044
3087.405200,-10955.047942,592.164754,612.876398
3087.405537,-8882.471304,1554.432478,-842.705048
3087.405875,-9178.553681,814.226536,1532.190996
3087.406212,-11325.150913,962.267725,1225.752797
3087.406549,-9548.656652,1184.329507,-766.095498
3087.406887,-9326.594869,1332.370696,-459.657299
3087.407224,-10214.842000,-296.082377,-995.924147
3087.407561,-10584.944971,-1184.329507,0.000000
3087.407899,-9252.574275,-2368.659014,0.000000
3087.408236,-9400.615463,-1406.391290,1455.581446
3087.408573,-9326.594869,-1258.350101,766.095498
3087.408911,-9770.718434,-962.267725,-919.314598
3087.409248,-11251.130318,-2146.597232,-689.485948
3087.409585,-9844.739029,-2368.659014,-153.219100
3087.409923,-9326.594869,-1110.308913,229.828649
3087.410260,-9326.594869,-740.205942,1532.190996
3087.410597,-9844.739029,-1480.411884,1838.629195
3087.410935,-10584.944971,-962.267725,1072.533697
3087.411272,-10140.821405,592.164754,1302.362347
3087.411609,-11251.130318,1110.308913,2987.772442
3087.411947,-12435.459826,222.061783,2528.115143
3087.412284,-10732.986159,444.123565,1225.752797
3087.412622,-9992.780217,1776.494261,1378.971896
3087.412959,-9252.574275,962.267725,1149.143247
3087.413296,-10288.862594,1110.308913,995.924147
3087.413634,-9992.780217,1480.411884,-842.705048
3087.413971,-9918.759623,1924.535449,-995.924147
3087.414308,-10288.862594,1850.514855,0.000000
3087.414646,-9770.718434,1406.391290,-689.485948
3087.414983,-10066.800811,666.185348,-1149.143247
3087.415320,-10214.842000,-888.247130,306.438199
3087.415658,-9252.574275,-592.164754,229.828649
3087.415995,-8882.471304,-296.082377,0.000000
3087.416332,-9622.677246,-1184.329507,-1225.752797
3087.416670,-7994.224174,-1110.308913,-2221.676944
3087.417007,-9918.759623,-1258.350101,-1915.238745
3087.417344,-10807.006753,-1184.329507,-2374.896044
3087.417682,-8808.450710,-1406.391290,-2221.676944
3087.418019,-8586.388927,-2294.638420,229.828649
3087.418356,-8956.491898,-2368.659014,1915.238745
3087.418694,-9770.718434,-1628.453072,2374.896044
3087.419031,-11029.068536,-444.123565,1302.362347
3087.419368,-11695.253884,-740.205942,1455.581446
3087.419706,-12287.418637,-740.205942,1149.143247
3087.420043,-11251.130318,-296.082377,1608.800546
3087.420380,-10732.986159,-1258.350101,1225.752797
3087.420718,-9918.759623,222.061783,995.924147
3087.421055,-9622.677246,666.185348,-76.609550
3087.421393,-10066.800811,666.185348,-1378.971896
3087.421730,-11251.130318,0.000000,-1685.410096
3087.422067,-10955.047942,-740.205942,0.000000
3087.422405,-10362.883188,74.020594,229.828649
3087.422742,-9696.697840,0.000000,-536.266849
3087.423079,-9400.615463,-1184.329507,536.266849
3087.423417,-9474.636058,-2516.700203,2221.676944
3087.423754,-8808.450710,-1776.494261,1915.238745
3087.424091,-8882.471304,-740.205942,2298.286494
3087.424429,-10584.944971,-518.144159,2528.115143
3087.424766,-11695.253884,-1480.411884,1072.533697
3087.425103,-10584.944971,-1036.288319,459.657299
3087.425441,-8956.491898,888.247130,1762.019645
3087.425778,-7550.100608,1554.432478,919.314598
3087.426115,-9178.553681,0.000000,536.266849
3087.426453,-11103.089130,666.185348,1149.143247
3087.426790,-9252.574275,1628.453072,0.000000
3087.427127,-10955.047942,1628.453072,1378.971896
3087.427465,-10807.006753,1554.432478,1685.410096
3087.427802,-11029.068536,518.144159,536.266849
3087.428139,-12435.459826,962.267725,842.705048
3087.428477,-8956.491898,1554.432478,-1302.362347
3087.428814,-8808.450710,-740.205942,-1378.971896
3087.429151,-9474.636058,-1776.494261,-1225.752797
3087.429489,-7402.059420,-518.144159,-3447.429741
3087.429826,-9400.615463,592.164754,-2221.676944
3087.430163,-10510.924376,74.020594,-3983.696590
3087.430501,-10214.842000,-1184.329507,-3907.087040
3087.430838,-11177.109724,-962.267725,-1149.143247
3087.431176,-9696.697840,-1480.411884,-536.266849
3087.431513,-9400.615463,-1628.453072,919.314598
3087.431850,-10955.047942,-1480.411884,1532.190996
3087.432188,-11917.315666,-3404.947333,2451.505594
3087.432525,-11843.295072,-2738.761985,1532.190996
3087.432862,-9548.656652,-1406.391290,1378.971896
3087.433200,-8512.368333,-444.123565,1455.581446
3087.433537,-9992.780217,-592.164754,919.314598
3087.433874,-10214.842000,1110.308913,842.705048
3087.434212,-11843.295072,2812.782580,-842.705048
3087.434549,-11695.253884,2516.700203,-2451.505594
3087.434886,-10362.883188,1554.432478,-2298.286494
3087.435224,-10510.924376,-222.061783,842.705048
3087.435561,-7698.141797,0.000000,1302.362347
3087.435898,-7402.059420,962.267725,2911.162892
3087.436236,-8882.471304,1184.329507,4213.525239
3087.436573,-12657.521608,370.102971,2374.896044
3087.436910,-14656.077652,1258.350101,-689.485948
3087.437248,-11251.130318,1406.391290,-1302.362347
3087.437585,-8364.327145,-888.247130,459.657299
3087.437922,-8216.285956,-1332.370696,1532.190996
3087.438260,-7920.203579,370.102971,1149.143247
3087.438597,-9400.615463,1110.308913,229.828649
3087.438934,-9622.677246,222.061783,-766.095498
3087.439272,-10732.986159,-370.102971,-383.047749
3087.439609,-11473.192101,-1258.350101,1685.410096
3087.439947,-9474.636058,-740.205942,2987.772442
3087.440284,-8512.368333,740.205942,2834.553343
3087.440621,-8808.450710,222.061783,2068.457845
3087.440959,-10955.047942,-666.185348,2145.067394
3087.441296,-11473.192101,-740.205942,689.485948
3087.441633,-9474.636058,148.041188,-153.219100
3087.441971,-9548.656652,-592.164754,76.609550
3087.442308,-10362.883188,-740.205942,0.000000
3087.442645,-10807.006753,222.061783,-1532.190996
3087.442983,-10214.842000,0.000000,-2528.115143
3087.443320,-8956.491898,-444.123565,-1532.190996
3087.443657,-9918.759623,-296.082377,-995.924147
3087.443995,-11103.089130,-740.205942,-1149.143247
3087.444332,-10732.986159,-1480.411884,-2145.067394
3087.444669,-10881.027347,-1036.288319,-842.705048
3087.445007,-10955.047942,-1924.535449,-306.438199
3087.445344,-10658.965565,-2368.659014,76.609550
3087.445681,-10436.903782,-2072.576638,612.876398
3087.446019,-10288.862594,-1702.473667,612.876398
3087.446356,-8586.388927,-740.205942,842.705048
3087.446693,-9252.574275,-592.164754,1378.971896
3087.447031,-12139.377449,0.000000,2451.505594
3087.447368,-11547.212695,0.000000,0.000000
3087.447705,-9918.759623,1702.473667,-766.095498
3087.448043,-7920.203579,1332.370696,995.924147
3087.448380,-8512.368333,518.144159,1608.800546
3087.448717,-9918.759623,0.000000,306.438199
3087.449055,-9252.574275,1554.432478,-766.095498
3087.449392,-8882.471304,222.061783,-383.047749
3087.449730,-9918.759623,-518.144159,1302.362347
3087.450067,-10436.903782,0.000000,1991.848295
3087.450404,-8216.285956,1776.494261,229.828649
3087.450742,-8882.471304,1258.350101,536.266849
3087.451079,-10510.924376,666.185348,-919.314598
3087.451416,-11843.295072,-888.247130,-1991.848295
3087.451754,-10584.944971,-740.205942,-1072.533697
3087.452091,-9104.533087,-444.123565,0.000000
3087.452428,-8956.491898,-666.185348,459.657299
3087.452766,-9622.677246,-518.144159,612.876398
3087.453103,-11843.295072,-1406.391290,306.438199
3087.453440,-9992.780217,-592.164754,0.000000
3087.453778,-10288.862594,0.000000,0.000000
3087.454115,-11769.274478,-740.205942,1225.752797
3087.454452,-12509.480420,-666.185348,1378.971896
3087.454790,-11103.089130,-148.041188,689.485948
3087.455127,-9474.636058,0.000000,306.438199
3087.455464,-7994.224174,-888.247130,1532.190996
3087.455802,-10362.883188,-370.102971,2451.505594
3087.456139,-12139.377449,-592.164754,1149.143247
3087.456476,-11029.068536,-370.102971,229.828649
3087.456814,-9696.697840,-592.164754,536.266849
3087.457151,-11325.150913,-814.226536,1532.190996
3087.457488,-9252.574275,-1184.329507,-612.876398
3087.457826,-7772.162391,-1036.288319,-2451.505594
3087.458163,-6439.791695,-370.102971,-2451.505594
3087.458501,-7846.182985,-1258.350101,-1838.629195
3087.458838,-11325.150913,-2072.576638,306.438199
3087.459175,-10288.862594,-1406.391290,-459.657299
3087.459513,-10288.862594,-1036.288319,995.924147
3087.459850,-10140.821405,888.247130,2374.896044
3087.460187,-8956.491898,888.247130,995.924147
3087.460525,-9918.759623,0.000000,1762.019645
3087.460862,-9622.677246,962.267725,919.314598
3087.461199,-9770.718434,1554.432478,0.000000
3087.461537,-11325.150913,1702.473667,919.314598
3087.461874,-10362.883188,888.247130,919.314598
3087.462211,-10881.027347,2294.638420,0.000000
3087.462549,-10066.800811,2220.617826,-1532.190996
3087.462886,-7994.224174,2294.638420,-995.924147
3087.463223,-9178.553681,962.267725,536.266849
3087.463561,-10881.027347,592.164754,229.828649
3087.463898,-9992.780217,296.082377,-1685.410096
3087.464235,-10288.862594,-1258.350101,-536.266849
3087.464573,-9474.636058,-666.185348,2221.676944
3087.464910,-9252.574275,-814.226536,1149.143247
3087.465247,-9622.677246,-444.123565,995.924147
3087.465585,-10732.986159,-1554.432478,-459.657299
3087.465922,-11547.212695,-1480.411884,-1149.143247
3087.466259,-10510.924376,-1850.514855,-1991.848295
3087.466597,-8882.471304,-2146.597232,-1302.362347
3087.466934,-7920.203579,-2146.597232,229.828649
3087.467271,-9548.656652,-3552.988522,0.000000
3087.467609,-11103.089130,-2368.659014,1685.410096
3087.467946,-10881.027347,-1332.370696,2298.286494
3087.468284,-10510.924376,814.226536,2221.676944
3087.468621,-11695.253884,-296.082377,1685.410096
3087.468958,-12953.603985,-1332.370696,3524.039291
3087.469296,-11399.171507,-1036.288319,3294.210641
3087.469633,-7846.182985,518.144159,2374.896044
3087.469970,-8956.491898,1184.329507,1991.848295
3087.470308,-11325.150913,-370.102971,-229.828649
3087.470645,-11103.089130,-740.205942,-2757.943793
3087.470982,-9548.656652,518.144159,-2834.553343
3087.471320,-7179.997637,888.247130,-612.876398
3087.471657,-7994.224174,1110.308913,1225.752797
3087.471994,-10214.842000,-370.102971,-459.657299
3087.472332,-9844.739029,0.000000,-1149.143247
3087.472669,-9252.574275,740.205942,-76.609550
3087.473006,-8956.491898,370.102971,2068.457845
3087.473344,-10732.986159,-148.041188,1762.019645
3087.473681,-11029.068536,-962.267725,-919.314598
3087.474018,-10066.800811,74.020594,-2528.115143
3087.474356,-9696.697840,0.000000,689.485948
3087.474693,-9178.553681,-222.061783,1302.362347
3087.475030,-10214.842000,-962.267725,-1149.143247
3087.475368,-11325.150913,-296.082377,-766.095498
3087.475705,-8586.388927,1554.432478,-76.609550
3087.476042,-9770.718434,814.226536,1991.848295
3087.476380,-11843.295072,74.020594,1685.410096
3087.476717,-11325.150913,0.000000,229.828649
3087.477054,-11695.253884,1554.432478,0.000000
3087.477392,-10510.924376,888.247130,-153.219100
3087.477729,-9474.636058,-74.020594,153.219100
3087.478067,-10510.924376,-1480.411884,-229.828649
3087.478404,-9474.636058,-1702.473667,-2221.676944
3087.478741,-8216.285956,-2886.803174,-612.876398
3087.479079,-9252.574275,-1850.514855,842.705048
3087.479416,-9474.636058,-148.041188,-306.438199
3087.479753,-10955.047942,0.000000,-1608.800546
3087.480091,-10436.903782,-1184.329507,-2145.067394
3087.480428,-10214.842000,-2368.659014,-612.876398
3087.480765,-8956.491898,-1702.473667,1149.143247
3087.481103,-8216.285956,-1776.494261,1685.410096
3087.481440,-10658.965565,-3849.070898,2757.943793
3087.481777,-10732.986159,-2368.659014,1991.848295
3087.482115,-9696.697840,-1332.370696,2068.457845
3087.482452,-10140.821405,296.082377,3677.258390
3087.482789,-10066.800811,1332.370696,2298.286494
3087.483127,-10732.986159,1850.514855,1225.752797
3087.483464,-11843.295072,2146.597232,766.095498
3087.483801,-11177.109724,1702.473667,766.095498
3087.484139,-10658.965565,1924.535449,1302.362347
3087.484476,-10584.944971,1258.350101,1991.848295
3087.484813,-10288.862594,1036.288319,919.314598
3087.485151,-9474.636058,1480.411884,-383.047749
3087.485488,-9474.636058,814.226536,-1225.752797
3087.485825,-10066.800811,-148.041188,-2451.505594
3087.486163,-9400.615463,-444.123565,-2374.896044
3087.486500,-9252.574275,74.020594,-612.876398
3087.486838,-8586.388927,148.041188,-689.485948
3087.487175,-9474.636058,222.061783,-612.876398
3087.487512,-10881.027347,0.000000,-995.924147
3087.487850,-10140.821405,-1554.432478,-612.876398
3087.488187,-9918.759623,-1258.350101,0.000000
3087.488524,-9030.512492,-1850.514855,383.047749
3087.488862,-9474.636058,-518.144159,536.266849
3087.489199,-10140.821405,-1702.473667,-229.828649
3087.489536,-9844.739029,-1628.453072,-383.047749
3087.489874,-8438.347739,-1406.391290,-536.266849
3087.490211,-8882.471304,-888.247130,536.266849
3087.490548,-10214.842000,-518.144159,1991.848295
3087.490886,-11251.130318,222.061783,229.828649
3087.491223,-10436.903782,2072.576638,-995.924147
3087.491560,-10732.986159,518.144159,-76.609550
3087.491898,-11473.192101,-296.082377,1915.238745
3087.492235,-10288.862594,0.000000,1378.971896
3087.492573,-10881.027347,0.000000,-383.047749
3087.492910,-10288.862594,-1184.329507,0.000000
3087.493247,-9622.677246,-1850.514855,-306.438199
3087.493585,-11103.089130,-1850.514855,-383.047749
3087.493922,-9178.553681,-592.164754,-1991.848295
3087.494260,-9548.656652,740.205942,-1149.143247
3087.494597,-9992.780217,-888.247130,-1455.581446
3087.494935,-11621.233289,-1110.308913,689.485948
3087.495272,-10288.862594,-740.205942,536.266849
3087.495610,-8956.491898,-1480.411884,1225.752797
3087.495947,-9622.677246,-1702.473667,4290.134789
3087.496285,-9770.718434,-1850.514855,7814.174080
3087.496622,-11843.295072,-1036.288319,5822.325785
3087.496959,-9844.739029,148.041188,2681.334243
3087.497297,-9548.656652,1702.473667,0.000000
3087.497634,-10214.842000,370.102971,153.219100
3087.497972,-10066.800811,0.000000,0.000000
3087.498309,-9474.636058,1406.391290,-459.657299
3087.498647,-7402.059420,1110.308913,1378.971896
3087.498984,-9548.656652,888.247130,-383.047749
3087.499322,-10288.862594,0.000000,-2068.457845
3087.499659,-11399.171507,666.185348,-2757.943793
3087.499996,-9992.780217,1184.329507,-689.485948
3087.500334,-9104.533087,-444.123565,229.828649
3087.500671,-10214.842000,0.000000,383.047749
3087.501009,-10955.047942,-814.226536,-459.657299
3087.501346,-10510.924376,-1480.411884,-1532.190996
3087.501684,-11325.150913,-1628.453072,-689.485948
3087.502021,-10658.965565,-2442.679609,-306.438199
3087.502359,-9474.636058,-1776.494261,-383.047749
3087.502696,-8068.244768,-148.041188,-1838.629195
3087.503034,-9104.533087,0.000000,-2221.676944
3087.503371,-10584.944971,-1924.535449,-1302.362347
3087.503708,-11399.171507,-2590.720797,-919.314598
3087.504046,-10140.821405,-666.185348,1149.143247
3087.504383,-9474.636058,1110.308913,2911.162892
3087.504721,-10955.047942,222.061783,2604.724693
3087.505058,-11991.336260,0.000000,1762.019645
3087.505396,-11103.089130,-1776.494261,1991.848295
3087.505733,-10214.842000,-1332.370696,536.266849
3087.506071,-8882.471304,-814.226536,0.000000
3087.506408,-9252.574275,-962.267725,1378.971896
3087.506745,-9918.759623,-370.102971,-459.657299
3087.507083,-9474.636058,1406.391290,-3524.039291
3087.507420,-8438.347739,1776.494261,-3140.991542
3087.507758,-9326.594869,370.102971,-1685.410096
3087.508095,-12065.356855,-1406.391290,612.876398
3087.508433,-10955.047942,0.000000,383.047749
3087.508770,-9400.615463,444.123565,842.705048
3087.509108,-8364.327145,-1110.308913,2987.772442
3087.509445,-10584.944971,-1850.514855,2681.334243
3087.509782,-10955.047942,-1628.453072,3217.601092
3087.510120,-10214.842000,-370.102971,2604.724693
3087.510457,-9030.512492,-592.164754,1225.752797
3087.510795,-10140.821405,1036.288319,2451.505594
3087.511132,-12287.418637,1184.329507,2068.457845
3087.511470,-10955.047942,1628.453072,-1149.143247
3087.511807,-7846.182985,1110.308913,-1532.190996
3087.512145,-7772.162391,1258.350101,1072.533697
3087.512482,-10436.903782,-518.144159,1838.629195
3087.512820,-11399.171507,-814.226536,612.876398
3087.513157,-8882.471304,222.061783,-842.705048
3087.513494,-8216.285956,-666.185348,0.000000
3087.513832,-11917.315666,-592.164754,2757.943793
3087.514169,-12213.398043,-148.041188,689.485948
3087.514507,-9696.697840,-74.020594,-2145.067394
3087.514844,-8882.471304,-444.123565,-2451.505594
3087.515182,-9844.739029,-1110.308913,-1302.362347
3087.515519,-10807.006753,-1258.350101,-689.485948
3087.515857,-10732.986159,-2442.679609,-1762.019645
3087.516194,-9474.636058,-2368.659014,-919.314598
3087.516531,-8142.265362,-592.164754,0.000000
3087.516869,-10436.903782,-296.082377,995.924147
3087.517206,-11177.109724,-888.247130,689.485948
3087.517544,-10510.924376,-370.102971,-1072.533697
3087.517881,-9918.759623,-518.144159,-1225.752797
3087.518219,-11843.295072,-962.267725,2145.067394
3087.518556,-11399.171507,-740.205942,2757.943793
3087.518894,-8882.471304,888.247130,842.705048
3087.519231,-8808.450710,2368.659014,76.609550
3087.519569,-9622.677246,1702.473667,-689.485948
3087.519906,-11251.130318,592.164754,766.095498
3087.520243,-10214.842000,222.061783,-1608.800546
3087.520581,-8586.388927,2072.576638,-689.485948
3087.520918,-8660.409521,2368.659014,-459.657299
3087.521256,-10510.924376,0.000000,-459.657299
3087.521593,-9252.574275,-222.061783,-1991.848295
3087.521931,-9326.594869,0.000000,-842.705048
3087.522268,-8512.368333,-740.205942,459.657299
3087.522606,-11473.192101,-1998.556043,1225.752797
3087.522943,-12287.418637,-1628.453072,995.924147
3087.523280,-9474.636058,-740.205942,0.000000
3087.523618,-7994.224174,-962.267725,842.705048
3087.523955,-8882.471304,-1036.288319,2374.896044
3087.524293,-10288.862594,-1406.391290,2374.896044
3087.524630,-10658.965565,-1258.350101,306.438199
3087.524968,-10436.903782,-148.041188,612.876398
3087.525305,-10362.883188,-444.123565,1378.971896
3087.525643,-11621.233289,-74.020594,2068.457845
3087.525980,-11103.089130,-592.164754,1608.800546
3087.526318,-11177.109724,-370.102971,689.485948
3087.526655,-9474.636058,-1110.308913,-306.438199
3087.526992,-10362.883188,0.000000,1378.971896
3087.527330,-10214.842000,-148.041188,842.705048
3087.527667,-10362.883188,-518.144159,-919.314598
3087.528005,-10658.965565,-666.185348,-842.705048
3087.528342,-9844.739029,-444.123565,0.000000
3087.528680,-10436.903782,-1184.329507,1532.190996
3087.529017,-10140.821405,-518.144159,689.485948
3087.529355,-9252.574275,0.000000,-842.705048
3087.529692,-10584.944971,0.000000,-306.438199
3087.530029,-11843.295072,-2220.617826,459.657299
3087.530367,-9770.718434,-1258.350101,383.047749
3087.530704,-7698.141797,-148.041188,383.047749
3087.531042,-7846.182985,0.000000,536.266849
3087.531379,-10362.883188,0.000000,-306.438199
3087.531717,-11325.150913,222.061783,-842.705048
3087.532054,-10066.800811,814.226536,-306.438199
3087.532392,-9030.512492,962.267725,229.828649
3087.532729,-9178.553681,2072.576638,2068.457845
3087.533066,-10584.944971,1480.411884,2451.505594
3087.533404,-11473.192101,962.267725,1302.362347
3087.533741,-10510.924376,1184.329507,-1302.362347
3087.534079,-9844.739029,592.164754,-1225.752797
3087.534416,-10732.986159,-518.144159,-612.876398
3087.534754,-9178.553681,-888.247130,-1685.410096
3087.535091,-7624.121203,370.102971,-2681.334243
3087.535429,-7328.038826,-370.102971,-2757.943793
3087.535766,-10362.883188,0.000000,-1991.848295
3087.536104,-13619.789333,-1554.432478,-1762.019645
3087.536441,-11547.212695,-1480.411884,-1838.629195
3087.536778,-9400.615463,-2368.659014,459.657299
3087.537116,-10140.821405,-2368.659014,3524.039291
3087.537453,-9252.574275,-2072.576638,2221.676944
3087.537791,-10362.883188,-2368.659014,766.095498
3087.538128,-11769.274478,-3627.009116,689.485948
3087.538466,-10362.883188,-2146.597232,-536.266849
3087.538803,-12287.418637,-2368.659014,1762.019645
3087.539141,-9918.759623,-148.041188,1302.362347
3087.539478,-8586.388927,518.144159,383.047749
3087.539815,-9770.718434,1998.556043,1072.533697
3087.540153,-9918.759623,518.144159,995.924147
3087.540490,-10807.006753,-370.102971,2068.457845
3087.540828,-11177.109724,-222.061783,3217.601092
3087.541165,-10436.903782,962.267725,2528.115143
3087.541503,-9992.780217,1406.391290,1685.410096
3087.541840,-9696.697840,296.082377,2451.505594
3087.542178,-8290.306550,962.267725,306.438199
3087.542515,-9770.718434,0.000000,-459.657299
3087.542853,-10510.924376,-148.041188,-919.314598
3087.543190,-9326.594869,148.041188,-2068.457845
3087.543527,-8068.244768,0.000000,-995.924147
3087.543865,-8068.244768,518.144159,-1378.971896
3087.544202,-7994.224174,814.226536,-1149.143247
3087.544540,-9770.718434,444.123565,459.657299
3087.544877,-10955.047942,-74.020594,1378.971896
3087.545215,-10807.006753,962.267725,229.828649
3087.545552,-11769.274478,0.000000,1838.629195
3087.545890,-10436.903782,0.000000,2298.286494
3087.546227,-10881.027347,-1998.556043,2145.067394
3087.546564,-9992.780217,0.000000,2298.286494
3087.546902,-8586.388927,666.185348,766.095498
3087.547239,-11029.068536,888.247130,-383.047749
3087.547577,-11621.233289,518.144159,-1915.238745
3087.547914,-11251.130318,0.000000,-1608.800546
3087.548252,-10066.800811,814.226536,-1455.581446
3087.548589,-7179.997637,1036.288319,-1608.800546
3087.548927,-10436.903782,666.185348,306.438199
3087.549264,-11547.212695,-1110.308913,-2145.067394
3087.549602,-11325.150913,-1480.411884,-2528.115143
3087.549939,-10807.006753,-1850.514855,-2068.457845
3087.550276,-9326.594869,-2294.638420,-306.438199
3087.550614,-9252.574275,-2368.659014,842.705048
3087.550951,-10362.883188,-814.226536,-1225.752797
3087.551289,-9178.553681,-1036.288319,-842.705048
3087.551626,-10510.924376,-1628.453072,306.438199
3087.551964,-10807.006753,-1406.391290,1838.629195
3087.552301,-9252.574275,296.082377,1685.410096
3087.552639,-9622.677246,1036.288319,1685.410096
3087.552976,-9696.697840,888.247130,1149.143247
3087.553313,-11843.295072,0.000000,1378.971896
3087.553651,-11769.274478,0.000000,2604.724693
3087.553988,-8882.471304,962.267725,1991.848295
3087.554326,-8808.450710,1110.308913,2604.724693
3087.554663,-9548.656652,1036.288319,3447.429741
3087.555001,-9918.759623,1184.329507,2987.772442
3087.555338,-10436.903782,2590.720797,2604.724693
3087.555676,-10584.944971,3182.885551,1685.410096
3087.556013,-10584.944971,3108.864956,919.314598
3087.556350,-11917.315666,2072.576638,1378.971896
3087.556688,-9400.615463,592.164754,76.609550
3087.557025,-8438.347739,740.205942,-229.828649
3087.557363,-8956.491898,444.123565,153.219100
3087.557700,-9474.636058,-814.226536,76.609550
3087.558038,-10214.842000,-2738.761985,0.000000
3087.558375,-8586.388927,-666.185348,1685.410096
3087.558713,-8068.244768,592.164754,3294.210641
3087.559050,-10066.800811,1332.370696,2604.724693
3087.559388,-11917.315666,222.061783,995.924147
3087.559725,-12509.480420,-296.082377,1455.581446
3087.560062,-10510.924376,-740.205942,2911.162892
3087.560400,-9474.636058,-148.041188,4366.744339
3087.560737,-9770.718434,1702.473667,3830.477490
3087.561075,-9326.594869,1332.370696,383.047749
3087.561412,-9622.677246,296.082377,-383.047749
3087.561750,-10140.821405,888.247130,1302.362347
3087.562087,-9474.636058,1998.556043,1225.752797
3087.562425,-11103.089130,2220.617826,2374.896044
3087.562762,-11621.233289,2442.679609,0.000000
3087.563099,-9400.615463,2442.679609,-766.095498
3087.563437,-9474.636058,1998.556043,2145.067394
3087.563774,-9030.512492,1332.370696,3064.381992
3087.564112,-10436.903782,1036.288319,3370.820191
3087.564449,-12287.418637,1776.494261,1838.629195
3087.564787,-11103.089130,1924.535449,229.828649
3087.565124,-9992.780217,592.164754,766.095498
3087.565462,-9844.739029,74.020594,3140.991542
3087.565799,-8216.285956,1332.370696,1838.629195
3087.566137,-8808.450710,2812.782580,1685.410096
3087.566474,-10066.800811,2664.741391,2145.067394
3087.566811,-10510.924376,2294.638420,2068.457845
3087.567149,-10214.842000,3627.009116,2681.334243
3087.567486,-10362.883188,2812.782580,4366.744339
3087.567824,-11251.130318,2368.659014,5898.935335
3087.568161,-10658.965565,3701.029710,4979.620737
3087.568499,-9178.553681,4071.132681,4060.306139
3087.568836,-9844.739029,2886.803174,4519.963438
3087.569174,-9770.718434,740.205942,4366.744339
3087.569511,-10807.006753,2516.700203,4213.525239
3087.569848,-9918.759623,3404.947333,1455.581446
3087.570186,-9400.615463,3330.926739,995.924147
3087.570523,-9326.594869,1406.391290,1149.143247
3087.570861,-9622.677246,1406.391290,1302.362347
3087.571198,-9770.718434,2886.803174,919.314598
3087.571536,-9548.656652,2664.741391,1225.752797
3087.571873,-10214.842000,1628.453072,995.924147
3087.572211,-11029.068536,-222.061783,1455.581446
3087.572548,-11547.212695,222.061783,2757.943793
3087.572885,-9474.636058,962.267725,2911.162892
3087.573223,-7846.182985,1998.556043,2757.943793
3087.573560,-10436.903782,1702.473667,2221.676944
3087.573898,-11695.253884,962.267725,1302.362347
3087.574235,-11843.295072,222.061783,1378.971896
3087.574573,-10214.842000,0.000000,2911.162892
3087.574910,-8438.347739,1554.432478,4673.182538
3087.575248,-9770.718434,2220.617826,4903.011187
3087.575585,-10807.006753,2886.803174,3370.820191
3087.575923,-10140.821405,1924.535449,1149.143247
3087.576260,-10436.903782,1554.432478,2451.505594
3087.576597,-9474.636058,1998.556043,3753.867940
3087.576935,-9770.718434,2886.803174,2528.115143
3087.577272,-10807.006753,3775.050304,766.095498
3087.577610,-10510.924376,1554.432478,-842.705048
3087.577947,-10066.800811,1480.411884,459.657299
3087.578285,-8808.450710,1776.494261,1532.190996
3087.578622,-8660.409521,1036.288319,1685.410096
3087.578960,-9104.533087,1554.432478,1838.629195
3087.579297,-10140.821405,1036.288319,689.485948
3087.579634,-11029.068536,2220.617826,1838.629195
3087.579972,-9770.718434,1554.432478,1455.581446
3087.580309,-9770.718434,592.164754,2681.334243
3087.580647,-10214.842000,1776.494261,3524.039291
3087.580984,-10584.944971,2294.638420,5132.839837
3087.581322,-11251.130318,3404.947333,4673.182538
3087.581659,-11769.274478,2442.679609,2451.505594
3087.581997,-11177.109724,1850.514855,1915.238745
3087.582334,-10510.924376,1776.494261,1838.629195
3087.582672,-9400.615463,1406.391290,2911.162892
3087.583009,-9030.512492,814.226536,2681.334243
3087.583346,-9474.636058,1110.308913,2911.162892
3087.583684,-9770.718434,3182.885551,1991.848295
3087.584021,-10584.944971,3256.906145,612.876398
3087.584359,-10732.986159,2368.659014,995.924147
3087.584696,-10436.903782,592.164754,1302.362347
3087.585034,-10288.862594,1036.288319,2374.896044
3087.585371,-9770.718434,518.144159,2221.676944
3087.585709,-9918.759623,0.000000,1838.629195
3087.586046,-10066.800811,592.164754,2145.067394
3087.586383,-10214.842000,444.123565,2451.505594
3087.586721,-9918.759623,1332.370696,1915.238745
3087.587058,-9918.759623,814.226536,2221.676944
3087.587396,-10658.965565,888.247130,2911.162892
3087.587733,-10214.842000,1110.308913,2374.896044
3087.588071,-10066.800811,1850.514855,3830.477490
3087.588408,-9178.553681,2886.803174,4596.572988
3087.588746,-10955.047942,2368.659014,5362.668486
3087.589083,-11029.068536,3108.864956,4903.011187
3087.589421,-11029.068536,3182.885551,3600.648841
3087.589758,-10436.903782,2590.720797,3907.087040
3087.590095,-10732.986159,2812.782580,2757.943793
3087.590433,-9622.677246,2590.720797,2068.457845
3087.590770,-7846.182985,3182.885551,2604.724693
3087.591108,-7994.224174,2590.720797,2298.286494
3087.591445,-8808.450710,3256.906145,3064.381992
3087.591783,-9548.656652,3775.050304,1915.238745
3087.592120,-11029.068536,3997.112087,1608.800546
3087.592458,-11843.295072,2886.803174,536.266849
3087.592795,-10881.027347,1998.556043,306.438199
3087.593132,-10732.986159,518.144159,1455.581446
3087.593470,-8438.347739,-814.226536,1225.752797
3087.593807,-7920.203579,-370.102971,2451.505594
3087.594144,-8364.327145,-666.185348,1915.238745
3087.594482,-9400.615463,444.123565,2068.457845
3087.594819,-10066.800811,1998.556043,2145.067394
3087.595156,-10881.027347,3256.906145,1455.581446
3087.595494,-12139.377449,3775.050304,1991.848295
3087.595831,-13323.706956,2960.823768,1072.533697
3087.596168,-11547.212695,1998.556043,2681.334243
3087.596506,-10436.903782,370.102971,2145.067394
3087.596843,-9992.780217,888.247130,3600.648841
3087.597181,-9326.594869,74.020594,2911.162892
3087.597518,-10066.800811,0.000000,2221.676944
3087.597855,-9030.512492,1554.432478,1302.362347
3087.598193,-9770.718434,2220.617826,1302.362347
3087.598530,-9474.636058,4071.132681,1378.971896
3087.598867,-9844.739029,3182.885551,0.000000
3087.599205,-12139.377449,3108.864956,612.876398
3087.599542,-10288.862594,1924.535449,383.047749
3087.599879,-10066.800811,740.205942,1915.238745
3087.600217,-9696.697840,296.082377,3677.258390
3087.600554,-9030.512492,-962.267725,3524.039291
3087.600891,-9178.553681,148.041188,3294.210641
3087.601229,-8956.491898,74.020594,3294.210641
3087.601566,-8586.388927,814.226536,4213.525239
3087.601903,-9030.512492,2368.659014,4979.620737
3087.602241,-9326.594869,3552.988522,4749.792088
3087.602578,-11473.192101,4885.359217,4060.306139
3087.602915,-13693.809927,5255.462188,3447.429741
3087.603253,-12731.542202,4959.379811,2145.067394
3087.603590,-10732.986159,2590.720797,2145.067394
3087.603927,-9400.615463,1258.350101,3907.087040
3087.604265,-8142.265362,74.020594,3524.039291
3087.604602,-7402.059420,592.164754,2757.943793
3087.604939,-7994.224174,1406.391290,2834.553343
3087.605277,-9770.718434,2960.823768,2145.067394
3087.605614,-11103.089130,4367.215058,536.266849
3087.605951,-11103.089130,3997.112087,76.609550
3087.606289,-10955.047942,3256.906145,1762.019645
3087.606626,-11621.233289,1776.494261,1991.848295
3087.606963,-10732.986159,1850.514855,1149.143247
3087.607301,-9992.780217,-1110.308913,842.705048
3087.607638,-8882.471304,-2442.679609,1838.629195
3087.607975,-8438.347739,-2886.803174,2834.553343
3087.608313,-8512.368333,-1110.308913,2987.772442
3087.608650,-7994.224174,444.123565,1532.190996
3087.608987,-9474.636058,1406.391290,766.095498
3087.609325,-11769.274478,1702.473667,1302.362347
3087.609662,-11917.315666,3182.885551,1762.019645
3087.609999,-11843.295072,3256.906145,3524.039291
3087.610337,-10732.986159,4145.153275,2451.505594
3087.610674,-10807.006753,2146.597232,3064.381992
3087.611011,-12213.398043,888.247130,3064.381992
3087.611349,-9918.759623,222.061783,2528.115143
3087.611686,-8290.306550,740.205942,3907.087040
3087.612023,-8290.306550,2220.617826,3830.477490
3087.612361,-9326.594869,3034.844362,1762.019645
3087.612698,-10584.944971,4367.215058,76.609550
3087.613035,-10732.986159,2812.782580,-536.266849
3087.613373,-9696.697840,3552.988522,0.000000
3087.613710,-9918.759623,3552.988522,1685.410096
3087.614047,-9622.677246,3478.967927,2451.505594
3087.614385,-10214.842000,2368.659014,2374.896044
3087.614722,-10658.965565,592.164754,2911.162892
3087.615059,-9918.759623,666.185348,4136.915689
3087.615397,-8586.388927,0.000000,4826.401637
3087.615734,-7920.203579,148.041188,4213.525239
3087.616071,-8808.450710,0.000000,3983.696590
3087.616409,-10214.842000,1850.514855,4366.744339
3087.616746,-9992.780217,3849.070898,3217.601092
3087.617083,-11399.171507,5625.565159,3294.210641
3087.617421,-11029.068536,4885.359217,2451.505594
3087.617758,-11547.212695,3923.091493,1991.848295
3087.618096,-11621.233289,2072.576638,3217.601092
3087.618433,-10066.800811,1554.432478,2911.162892
3087.618770,-9474.636058,0.000000,3600.648841
3087.619108,-9474.636058,444.123565,3370.820191
3087.619445,-8808.450710,1036.288319,2374.896044
3087.619782,-10214.842000,1554.432478,1455.581446
3087.620120,-10436.903782,1850.514855,0.000000
3087.620457,-10584.944971,2516.700203,-612.876398
3087.620794,-11103.089130,2516.700203,76.609550
3087.621132,-10807.006753,2220.617826,-766.095498
3087.621469,-10288.862594,1332.370696,153.219100
3087.621806,-10436.903782,74.020594,2451.505594
3087.622144,-9548.656652,-518.144159,2221.676944
3087.622481,-8956.491898,-1036.288319,2451.505594
3087.622818,-9400.615463,-370.102971,2374.896044
3087.623156,-9622.677246,0.000000,2221.676944
3087.623493,-10288.862594,1110.308913,1838.629195
3087.623830,-10066.800811,2368.659014,1685.410096
3087.624168,-9770.718434,2812.782580,2068.457845
3087.624505,-10584.944971,3404.947333,1838.629195
3087.624842,-10066.800811,3108.864956,1455.581446
3087.625180,-10066.800811,3330.926739,1762.019645
3087.625517,-10362.883188,2294.638420,2451.505594
3087.625854,-9992.780217,3182.885551,1685.410096
3087.626192,-9104.533087,2368.659014,842.705048
3087.626529,-9030.512492,1924.535449,2145.067394
3087.626866,-9252.574275,1110.308913,2145.067394
3087.627204,-9696.697840,1258.350101,1608.800546
3087.627541,-10140.821405,2368.659014,1149.143247
3087.627878,-9918.759623,2072.576638,995.924147
3087.628216,-11177.109724,2220.617826,766.095498
3087.628553,-10288.862594,1406.391290,842.705048
3087.628890,-10807.006753,518.144159,1991.848295
3087.629228,-9400.615463,-592.164754,2911.162892
3087.629565,-8882.471304,-666.185348,3524.039291
3087.629902,-9474.636058,-518.144159,5209.449386
3087.630240,-9770.718434,0.000000,5439.278036
3087.630577,-10362.883188,1036.288319,5056.230287
3087.630914,-11843.295072,2368.659014,4673.182538
3087.631252,-11547.212695,2738.761985,4060.306139
3087.631589,-12213.398043,2812.782580,3983.696590
3087.631926,-10807.006753,1332.370696,3830.477490
3087.632264,-9770.718434,1406.391290,3983.696590
3087.632601,-9474.636058,1776.494261,5056.230287
3087.632938,-9178.553681,2516.700203,4826.401637
3087.633276,-9400.615463,3404.947333,3370.820191
3087.633613,-10807.006753,3997.112087,2374.896044
3087.633950,-11103.089130,3627.009116,1302.362347
3087.634288,-10955.047942,3034.844362,766.095498
3087.634625,-10288.862594,2442.679609,1225.752797
3087.634962,-9178.553681,2294.638420,1838.629195
3087.635300,-9030.512492,2516.700203,2757.943793
3087.635637,-9326.594869,3108.864956,2374.896044
3087.635974,-9252.574275,2368.659014,2604.724693
3087.636312,-9770.718434,2294.638420,2451.505594
3087.636649,-9844.739029,3478.967927,3600.648841
3087.636986,-10584.944971,4589.276840,3447.429741
3087.637324,-10436.903782,4737.318029,2068.457845
3087.637661,-10658.965565,3849.070898,919.314598
3087.637998,-10955.047942,2072.576638,1455.581446
3087.638336,-9548.656652,2960.823768,2145.067394
3087.638673,-7846.182985,3404.947333,1991.848295
3087.639011,-8142.265362,4293.194464,2451.505594
3087.639348,-9104.533087,3775.050304,1302.362347
3087.639685,-10881.027347,3404.947333,1455.581446
3087.640023,-10732.986159,4737.318029,1532.190996
3087.640360,-9770.718434,4737.318029,1072.533697
3087.640697,-10066.800811,3775.050304,1991.848295
3087.641035,-11473.192101,2368.659014,1225.752797
3087.641372,-11917.315666,814.226536,383.047749
3087.641709,-10362.883188,0.000000,0.000000
3087.642047,-7772.162391,-1036.288319,536.266849
3087.642384,-8290.306550,-888.247130,1225.752797
3087.642721,-10362.883188,-666.185348,383.047749
3087.643059,-9548.656652,-296.082377,-1532.190996
3087.643396,-9696.697840,-1184.329507,306.438199
3087.643733,-10658.965565,-370.102971,1838.629195
3087.644071,-9918.759623,740.205942,1762.019645
3087.644408,-9844.739029,592.164754,3524.039291
3087.644745,-11325.150913,74.020594,5209.449386
3087.645083,-12509.480420,888.247130,5286.058936
3087.645420,-12361.439231,740.205942,4903.011187
3087.645757,-10658.965565,74.020594,4136.915689
3087.646095,-9548.656652,74.020594,4673.182538
3087.646432,-9844.739029,148.041188,4519.963438
3087.646769,-10288.862594,1998.556043,3983.696590
3087.647107,-9770.718434,2294.638420,1762.019645
3087.647444,-9474.636058,1850.514855,1225.752797
3087.647781,-9400.615463,1924.535449,1838.629195
3087.648119,-9844.739029,2368.659014,2451.505594
3087.648456,-9474.636058,3034.844362,3064.381992
3087.648793,-9918.759623,2960.823768,2834.553343
3087.649131,-10214.842000,2590.720797,2681.334243
3087.649468,-10732.986159,1850.514855,3294.210641
3087.649805,-9474.636058,1406.391290,3600.648841
3087.650143,-8882.471304,1480.411884,4903.011187
3087.650480,-10510.924376,1184.329507,3677.258390
3087.650817,-10066.800811,1258.350101,1532.190996
3087.651155,-9548.656652,1036.288319,1225.752797
3087.651492,-9178.553681,1110.308913,1838.629195
3087.651829,-9252.574275,1776.494261,2604.724693
3087.652167,-9548.656652,3108.864956,2681.334243
3087.652504,-9400.615463,4367.215058,2451.505594
3087.652841,-10732.986159,3256.906145,2145.067394
3087.653179,-11325.150913,3552.988522,2451.505594
3087.653516,-10732.986159,2960.823768,2911.162892
3087.653853,-10658.965565,2590.720797,1302.362347
3087.654191,-10214.842000,1850.514855,919.314598
3087.654528,-10732.986159,-592.164754,689.485948
3087.654865,-8734.430116,0.000000,1149.143247
3087.655203,-7772.162391,-296.082377,1378.971896
3087.655540,-9474.636058,1702.473667,842.705048
3087.655877,-9030.512492,1850.514855,-612.876398
3087.656215,-11399.171507,1850.514855,-536.266849
3087.656552,-11843.295072,2442.679609,0.000000
3087.656889,-9178.553681,1776.494261,-1532.190996
3087.657227,-11621.233289,962.267725,1149.143247
3087.657564,-11103.089130,-814.226536,2451.505594
3087.657901,-10214.842000,-444.123565,2528.115143
3087.658239,-8956.491898,-444.123565,3447.429741
3087.658576,-8512.368333,592.164754,4596.572988
3087.658913,-10214.842000,1628.453072,4213.525239
3087.659251,-11177.109724,2664.741391,3294.210641
3087.659588,-11177.109724,4737.318029,3907.087040
3087.659926,-11399.171507,4885.359217,3753.867940
3087.660263,-12065.356855,3997.112087,4136.915689
3087.660600,-11547.212695,4145.153275,3064.381992
3087.660938,-9548.656652,3849.070898,3370.820191
3087.661275,-8438.347739,3775.050304,4366.744339
3087.661612,-9400.615463,3330.926739,4213.525239
3087.661950,-9252.574275,3034.844362,2451.505594
3087.662287,-8956.491898,3256.906145,2298.286494
3087.662624,-8808.450710,3256.906145,2451.505594
3087.662962,-9844.739029,3775.050304,1685.410096
3087.663299,-10214.842000,2960.823768,2221.676944
3087.663636,-9474.636058,2516.700203,2374.896044
3087.663974,-9770.718434,2146.597232,3294.210641
3087.664311,-10658.965565,2442.679609,2451.505594
3087.664648,-9992.780217,296.082377,1838.629195
3087.664986,-9178.553681,0.000000,2681.334243
3087.665323,-9326.594869,-370.102971,2757.943793
3087.665660,-9474.636058,148.041188,2528.115143
3087.665998,-9400.615463,1184.329507,3600.648841
3087.666335,-10436.903782,1628.453072,3524.039291
3087.666672,-11843.295072,2368.659014,1685.410096
3087.667010,-11029.068536,1406.391290,919.314598
3087.667347,-10955.047942,1702.473667,2528.115143
3087.667684,-11029.068536,518.144159,2757.943793
3087.668022,-10955.047942,222.061783,2451.505594
3087.668359,-10732.986159,1332.370696,2068.457845
3087.668696,-10214.842000,-740.205942,1608.800546
3087.669034,-9918.759623,0.000000,1455.581446
3087.669371,-9622.677246,0.000000,1072.533697
3087.669708,-9474.636058,296.082377,1225.752797
3087.670046,-9918.759623,814.226536,766.095498
3087.670383,-10881.027347,1850.514855,0.000000
3087.670720,-9844.739029,1258.350101,-1149.143247
3087.671058,-10436.903782,0.000000,-459.657299
3087.671395,-9918.759623,592.164754,1532.190996
3087.671732,-9474.636058,-296.082377,2374.896044
3087.672070,-9844.739029,-148.041188,3524.039291
3087.672407,-9918.759623,222.061783,2834.553343
3087.672744,-10066.800811,1702.473667,2911.162892
3087.673082,-9992.780217,1332.370696,3294.210641
3087.673419,-10066.800811,1702.473667,4060.306139
3087.673756,-9548.656652,3034.844362,4749.792088
3087.674094,-8882.471304,3775.050304,4213.525239
3087.674431,-9918.759623,4737.318029,3294.210641
3087.674768,-11917.315666,5477.523971,2757.943793
3087.675106,-12139.377449,5255.462188,2451.505594
3087.675443,-10807.006753,3775.050304,76.609550
3087.675780,-10140.821405,2738.761985,1608.800546
3087.676118,-8808.450710,2812.782580,1915.238745
3087.676455,-9104.533087,1480.411884,1072.533697
3087.676792,-8882.471304,1332.370696,842.705048
3087.677130,-8068.244768,1406.391290,76.609550
3087.677467,-8216.285956,1850.514855,1608.800546
3087.677804,-9622.677246,2220.617826,2604.724693
3087.678142,-11843.295072,1850.514855,2757.943793
3087.678479,-13175.665768,1480.411884,1455.581446
3087.678816,-10732.986159,1332.370696,1455.581446
3087.679154,-9770.718434,74.020594,3677.258390
3087.679491,-8660.409521,-1184.329507,4366.744339
3087.679828,-8290.306550,-1406.391290,3830.477490
3087.680166,-9548.656652,-1110.308913,3753.867940
3087.680503,-9326.594869,74.020594,4136.915689
3087.680841,-10214.842000,1776.494261,3370.820191
3087.681178,-12435.459826,3182.885551,2911.162892
3087.681515,-11325.150913,2812.782580,1225.752797
3087.681853,-11695.253884,1850.514855,2604.724693
3087.682190,-10510.924376,2294.638420,4596.572988
3087.682527,-9548.656652,1998.556043,3370.820191
3087.682865,-10955.047942,1036.288319,3294.210641
3087.683202,-10732.986159,0.000000,1991.848295
3087.683539,-10584.944971,592.164754,689.485948
3087.683877,-8956.491898,1554.432478,459.657299
3087.684214,-8882.471304,1036.288319,1072.533697
3087.684551,-9622.677246,1406.391290,383.047749
3087.684889,-10288.862594,1776.494261,383.047749
3087.685226,-9326.594869,3108.864956,612.876398
3087.685563,-9844.739029,3182.885551,1762.019645
3087.685901,-12139.377449,2072.576638,1685.410096
3087.686238,-12361.439231,2072.576638,459.657299
3087.686575,-9326.594869,-1110.308913,0.000000
3087.686913,-6883.915261,740.205942,2298.286494
3087.687250,-6883.915261,888.247130,2681.334243
3087.687587,-9770.718434,1924.535449,1072.533697
3087.687925,-10140.821405,1628.453072,-306.438199
3087.688262,-10658.965565,1850.514855,-536.266849
3087.688599,-10807.006753,3552.988522,1532.190996
3087.688937,-11843.295072,2220.617826,919.314598
3087.689274,-10955.047942,1480.411884,0.000000
3087.689611,-8660.409521,1110.308913,-153.219100
3087.689949,-9252.574275,-592.164754,1072.533697
3087.690286,-10066.800811,-370.102971,0.000000
3087.690623,-10214.842000,-2294.638420,-1072.533697
3087.690961,-11325.150913,-1184.329507,-1608.800546
3087.691298,-8586.388927,-1110.308913,-3064.381992
3087.691635,-9474.636058,-1184.329507,-1532.190996
3087.691973,-9326.594869,-2516.700203,-689.485948
3087.692310,-9770.718434,-2072.576638,-1532.190996
3087.692647,-11621.233289,0.000000,-1915.238745
3087.692985,-12435.459826,-1628.453072,229.828649
3087.693322,-11251.130318,-3478.967927,1225.752797
3087.693659,-9770.718434,-3775.050304,1838.629195
3087.693997,-9252.574275,-2368.659014,3294.210641
3087.694334,-9548.656652,-1628.453072,3140.991542
3087.694671,-10955.047942,-1776.494261,3064.381992
3087.695009,-10510.924376,-1036.288319,306.438199
3087.695346,-9844.739029,-592.164754,459.657299
3087.695683,-9548.656652,74.020594,1838.629195
3087.696020,-10955.047942,444.123565,2451.505594
3087.696358,-9622.677246,1110.308913,842.705048
3087.696695,-9474.636058,2072.576638,229.828649
3087.697032,-10732.986159,2368.659014,1225.752797
3087.697370,-11621.233289,814.226536,-383.047749
3087.697707,-10807.006753,592.164754,-1302.362347
3087.698044,-8364.327145,-666.185348,612.876398
3087.698381,-8882.471304,-592.164754,2451.505594
3087.698719,-8734.430116,0.000000,1225.752797
3087.699056,-9474.636058,444.123565,-383.047749
3087.699393,-10066.800811,1184.329507,-1608.800546
3087.699731,-10807.006753,1184.329507,-842.705048
3087.700068,-10807.006753,1258.350101,-1378.971896
3087.700405,-10362.883188,666.185348,-1225.752797
3087.700742,-9844.739029,-962.267725,-536.266849
3087.701080,-9178.553681,-1554.432478,-153.219100
3087.701417,-9030.512492,-1850.514855,1915.238745
3087.701754,-9030.512492,-1258.350101,2834.553343
3087.702091,-8660.409521,74.020594,2068.457845
3087.702429,-9696.697840,370.102971,612.876398
3087.702766,-12583.501014,1110.308913,-689.485948
3087.703103,-11843.295072,518.144159,-1915.238745
3087.703441,-11251.130318,-148.041188,-536.266849
3087.703778,-9474.636058,-888.247130,229.828649
3087.704115,-8734.430116,-1554.432478,-153.219100
3087.704452,-8734.430116,-1258.350101,-229.828649
3087.704790,-9992.780217,-2072.576638,-1302.362347
3087.705127,-9918.759623,-2738.761985,-1225.752797
3087.705464,-11843.295072,-2664.741391,-612.876398
3087.705802,-10881.027347,-1332.370696,-612.876398
3087.706139,-8956.491898,-962.267725,-536.266849
3087.706476,-9474.636058,-518.144159,-995.924147
3087.706813,-9770.718434,-740.205942,-1302.362347
3087.707151,-11029.068536,-1480.411884,689.485948
3087.707488,-11917.315666,-740.205942,2145.067394
3087.707825,-12805.562797,0.000000,2757.943793
3087.708163,-11473.192101,-888.247130,1915.238745
3087.708500,-10732.986159,592.164754,2451.505594
3087.708837,-8808.450710,1554.432478,2987.772442
3087.709174,-7846.182985,2146.597232,2298.286494
3087.709512,-8364.327145,2442.679609,1378.971896
3087.709849,-10288.862594,2886.803174,76.609550
3087.710186,-11399.171507,3182.885551,-919.314598
3087.710523,-10881.027347,2886.803174,-1378.971896
3087.710861,-10140.821405,2886.803174,0.000000
3087.711198,-7402.059420,2442.679609,-612.876398
3087.711535,-8808.450710,74.020594,1685.410096
3087.711873,-8364.327145,-814.226536,2451.505594
3087.712210,-8586.388927,444.123565,1302.362347
3087.712547,-9696.697840,888.247130,76.609550
3087.712884,-10658.965565,-222.061783,-153.219100
3087.713222,-10658.965565,-962.267725,-766.095498
3087.713559,-9474.636058,0.000000,-1302.362347
3087.713896,-8734.430116,222.061783,-995.924147
3087.714234,-9844.739029,-1406.391290,-306.438199
3087.714571,-11917.315666,-2368.659014,306.438199
3087.714908,-10362.883188,-1628.453072,-459.657299
3087.715245,-9474.636058,-1480.411884,1149.143247
3087.715583,-10140.821405,-1258.350101,1991.848295
3087.715920,-11177.109724,-2368.659014,1838.629195
3087.716257,-11547.212695,-1850.514855,1991.848295
3087.716595,-10658.965565,74.020594,2145.067394
3087.716932,-10955.047942,-888.247130,1072.533697
3087.717269,-10881.027347,-740.205942,459.657299
3087.717606,-11695.253884,-518.144159,-842.705048
3087.717944,-10658.965565,-888.247130,-1915.238745
3087.718281,-7846.182985,-1332.370696,-2068.457845
3087.718618,-7179.997637,-2886.803174,-612.876398
3087.718956,-9918.759623,-2664.741391,1072.533697
3087.719293,-9548.656652,-1258.350101,-1225.752797
3087.719630,-9252.574275,0.000000,-2298.286494
3087.719967,-11251.130318,0.000000,-1838.629195
3087.720305,-11991.336260,-2146.597232,-689.485948
3087.720642,-11251.130318,-2146.597232,0.000000
3087.720979,-8216.285956,74.020594,153.219100
3087.721316,-7402.059420,-962.267725,1608.800546
3087.721654,-10140.821405,-1184.329507,1991.848295
3087.721991,-10510.924376,-444.123565,1685.410096
3087.722328,-10658.965565,74.020594,1149.143247
3087.722666,-9844.739029,370.102971,689.485948
3087.723003,-9622.677246,1110.308913,306.438199
3087.723340,-9992.780217,1480.411884,1149.143247
3087.723677,-10807.006753,444.123565,459.657299
3087.724015,-9326.594869,1628.453072,-536.266849
3087.724352,-10510.924376,2072.576638,-919.314598
3087.724689,-11177.109724,-444.123565,536.266849
3087.725027,-9770.718434,-666.185348,459.657299
3087.725364,-7994.224174,370.102971,459.657299
3087.725701,-7846.182985,222.061783,612.876398
3087.726038,-11251.130318,-962.267725,1762.019645
3087.726376,-11621.233289,-1036.288319,0.000000
3087.726713,-11029.068536,0.000000,-689.485948
3087.727050,-9252.574275,74.020594,-689.485948
3087.727388,-9474.636058,-740.205942,-995.924147
3087.727725,-10510.924376,-2664.741391,-536.266849
3087.728062,-10140.821405,-2738.761985,-459.657299
3087.728399,-8660.409521,-1702.473667,306.438199
3087.728737,-8956.491898,-962.267725,1072.533697
3087.729074,-10140.821405,-2072.576638,1608.800546
3087.729411,-11843.295072,-1554.432478,1838.629195
3087.729748,-10881.027347,592.164754,1838.629195
3087.730086,-9178.553681,666.185348,1302.362347
3087.730423,-11769.274478,-888.247130,2374.896044
3087.730760,-11473.192101,-666.185348,2221.676944
3087.731098,-9474.636058,1554.432478,689.485948
3087.731435,-9252.574275,2220.617826,919.314598
3087.731772,-10066.800811,1332.370696,-536.266849
3087.732109,-10881.027347,444.123565,-1149.143247
3087.732447,-10658.965565,296.082377,-2068.457845
3087.732784,-7624.121203,1332.370696,-1608.800546
3087.733121,-8290.306550,1776.494261,0.000000
3087.733459,-11769.274478,740.205942,383.047749
3087.733796,-11769.274478,2220.617826,-1762.019645
3087.734133,-10362.883188,1702.473667,-2451.505594
3087.734470,-9252.574275,370.102971,-1378.971896
3087.734808,-9622.677246,-1258.350101,-306.438199
3087.735145,-10362.883188,-888.247130,1072.533697
3087.735482,-9918.759623,222.061783,766.095498
3087.735820,-7254.018232,518.144159,-1762.019645
3087.736157,-9696.697840,-148.041188,0.000000
3087.736494,-11251.130318,-1480.411884,842.705048
3087.736831,-11177.109724,-962.267725,229.828649
3087.737169,-9474.636058,74.020594,842.705048
3087.737506,-8734.430116,740.205942,1762.019645
3087.737843,-10436.903782,-740.205942,1762.019645
3087.738180,-9992.780217,-1554.432478,536.266849
3087.738518,-8734.430116,0.000000,1072.533697
3087.738855,-9770.718434,222.061783,1838.629195
3087.739192,-12139.377449,222.061783,1149.143247
3087.739530,-12287.418637,0.000000,612.876398
3087.739867,-12139.377449,-1406.391290,306.438199
3087.740204,-8734.430116,-444.123565,-919.314598
3087.740541,-8734.430116,-444.123565,0.000000
3087.740879,-10955.047942,-2294.638420,1532.190996
3087.741216,-10955.047942,-2812.782580,-995.924147
3087.741553,-8956.491898,-1702.473667,-1532.190996
3087.741891,-8364.327145,-592.164754,229.828649
3087.742228,-10436.903782,-1184.329507,1532.190996
3087.742565,-12139.377449,-1406.391290,229.828649
3087.742902,-11325.150913,-1480.411884,0.000000
3087.743240,-9252.574275,-814.226536,2145.067394
3087.743577,-8956.491898,-1702.473667,3370.820191
3087.743914,-10362.883188,-962.267725,3677.258390
3087.744252,-11621.233289,-296.082377,2068.457845
3087.744589,-10362.883188,-962.267725,153.219100
3087.744926,-9474.636058,666.185348,689.485948
3087.745263,-8216.285956,-814.226536,1149.143247
3087.745601,-8956.491898,74.020594,612.876398
3087.745938,-9030.512492,1332.370696,-842.705048
3087.746275,-9622.677246,2368.659014,-1838.629195
3087.746612,-10955.047942,666.185348,-2298.286494
3087.746950,-11029.068536,74.020594,-2145.067394
3087.747287,-9918.759623,444.123565,-1378.971896
3087.747624,-7698.141797,-814.226536,-2145.067394
3087.747962,-7550.100608,-1628.453072,-383.047749
3087.748299,-10288.862594,-1036.288319,383.047749
3087.748636,-10881.027347,-1184.329507,0.000000
3087.748973,-10140.821405,370.102971,-1532.190996
3087.749311,-12435.459826,0.000000,-1991.848295
3087.749648,-10955.047942,74.020594,-2681.334243
3087.749985,-9992.780217,-1776.494261,-1762.019645
3087.750323,-8068.244768,-1036.288319,-842.705048
3087.750660,-7328.038826,-814.226536,-459.657299
3087.750997,-11029.068536,-1184.329507,689.485948
3087.751334,-13175.665768,-740.205942,842.705048
3087.751672,-12435.459826,-740.205942,1225.752797
3087.752009,-10214.842000,0.000000,1302.362347
3087.752346,-9770.718434,-1110.308913,2145.067394
3087.752684,-9548.656652,-814.226536,2145.067394
3087.753021,-9770.718434,-1406.391290,1532.190996
3087.753358,-9844.739029,296.082377,995.924147
3087.753695,-9326.594869,222.061783,536.266849
3087.754033,-12065.356855,-888.247130,1915.238745
3087.754370,-12139.377449,-592.164754,229.828649
3087.754707,-9992.780217,-296.082377,-1225.752797
3087.755044,-7846.182985,740.205942,76.609550
3087.755382,-7624.121203,-1258.350101,689.485948
3087.755719,-10436.903782,-1110.308913,995.924147
3087.756056,-10658.965565,-814.226536,766.095498
3087.756394,-10140.821405,-740.205942,1302.362347
3087.756731,-10584.944971,-222.061783,1838.629195
3087.757068,-9770.718434,-296.082377,1378.971896
3087.757405,-9178.553681,-148.041188,2068.457845
3087.757743,-9252.574275,0.000000,2221.676944
3087.758080,-9104.533087,740.205942,2757.943793
3087.758417,-10436.903782,2294.638420,2451.505594
3087.758755,-11473.192101,2738.761985,459.657299
3087.759092,-11177.109724,2368.659014,-612.876398
3087.759429,-11325.150913,1628.453072,-612.876398
3087.759766,-9252.574275,962.267725,0.000000
3087.760104,-8882.471304,1258.350101,0.000000
3087.760441,-8734.430116,888.247130,0.000000
3087.760778,-8734.430116,888.247130,-766.095498
3087.761116,-12213.398043,0.000000,306.438199
3087.761453,-11325.150913,518.144159,-1378.971896
3087.761790,-9844.739029,-370.102971,-1072.533697
3087.762127,-9918.759623,-1110.308913,-842.705048
3087.762465,-9178.553681,-1258.350101,-1685.410096
3087.762802,-8216.285956,-370.102971,-1455.581446
3087.763139,-10732.986159,-1850.514855,-1532.190996
3087.763476,-10214.842000,-2368.659014,-2681.334243
3087.763814,-9474.636058,-1776.494261,-2604.724693
3087.764151,-10436.903782,-2590.720797,-612.876398
3087.764488,-9326.594869,-2146.597232,-766.095498
3087.764826,-8364.327145,-1998.556043,229.828649
3087.765163,-11251.130318,-888.247130,2451.505594
3087.765500,-10658.965565,-296.082377,995.924147
3087.765837,-11473.192101,222.061783,766.095498
3087.766175,-11325.150913,-1110.308913,1838.629195
3087.766512,-10288.862594,-814.226536,2451.505594
3087.766849,-10288.862594,962.267725,1838.629195
3087.767187,-9474.636058,370.102971,76.609550
3087.767524,-10140.821405,444.123565,-306.438199
3087.767861,-9474.636058,-518.144159,-1302.362347
3087.768198,-9992.780217,-1110.308913,459.657299
3087.768536,-10214.842000,-296.082377,1455.581446
3087.768873,-10436.903782,-296.082377,612.876398
3087.769210,-9696.697840,296.082377,0.000000
3087.769548,-9548.656652,0.000000,-306.438199
3087.769885,-9474.636058,-740.205942,1838.629195
3087.770222,-10658.965565,-74.020594,1149.143247
3087.770559,-10584.944971,-962.267725,995.924147
3087.770897,-10955.047942,-1036.288319,1532.190996
3087.771234,-10066.800811,-1776.494261,919.314598
3087.771571,-8956.491898,-444.123565,1532.190996
3087.771908,-10066.800811,-296.082377,1532.190996
3087.772246,-9252.574275,-370.102971,0.000000
3087.772583,-9104.533087,222.061783,153.219100
3087.772920,-10066.800811,-592.164754,1149.143247
3087.773258,-10288.862594,74.020594,766.095498
3087.773595,-10066.800811,0.000000,306.438199
3087.773932,-10214.842000,222.061783,459.657299
3087.774269,-10140.821405,-814.226536,459.657299
3087.774607,-10214.842000,-148.041188,306.438199
3087.774944,-9104.533087,-370.102971,-153.219100
3087.775281,-10140.821405,-1998.556043,-229.828649
3087.775619,-10584.944971,-1110.308913,-1225.752797
3087.775956,-10140.821405,-592.164754,-1225.752797
3087.776293,-10807.006753,-962.267725,-1378.971896
3087.776630,-9400.615463,-2294.638420,-2528.115143
3087.776968,-9474.636058,-1850.514855,-919.314598
3087.777305,-9326.594869,-1184.329507,919.314598
3087.777642,-9770.718434,518.144159,0.000000
3087.777980,-11251.130318,592.164754,-995.924147
3087.778317,-12361.439231,-370.102971,-1991.848295
3087.778654,-11769.274478,-1628.453072,612.876398
3087.778991,-9326.594869,-518.144159,306.438199
3087.779329,-6735.874072,-222.061783,2681.334243
3087.779666,-9326.594869,222.061783,3524.039291
3087.780003,-11695.253884,1184.329507,2298.286494
3087.780340,-11251.130318,2368.659014,-459.657299
3087.780678,-10658.965565,2516.700203,0.000000
3087.781015,-9474.636058,2220.617826,-842.705048
3087.781352,-9696.697840,1258.350101,-1149.143247
3087.781690,-8734.430116,1776.494261,-1225.752797
3087.782027,-7624.121203,888.247130,-1149.143247
3087.782364,-7772.162391,1036.288319,-1149.143247
3087.782701,-9696.697840,1110.308913,-459.657299
3087.783039,-11769.274478,-370.102971,76.609550
3087.783376,-10732.986159,0.000000,306.438199
3087.783713,-9844.739029,-148.041188,0.000000
3087.784051,-9992.780217,-962.267725,1378.971896
3087.784388,-10436.903782,-2590.720797,1838.629195
3087.784725,-9474.636058,-2738.761985,1302.362347
3087.785062,-9474.636058,-1184.329507,1685.410096
3087.785400,-9178.553681,-1036.288319,2451.505594
3087.785737,-11695.253884,-814.226536,2145.067394
3087.786074,-12583.501014,-1110.308913,919.314598
3087.786412,-11843.295072,0.000000,153.219100
3087.786749,-9548.656652,148.041188,-766.095498
3087.787086,-7920.203579,-740.205942,153.219100
3087.787423,-8956.491898,-1628.453072,1915.238745
3087.787761,-10955.047942,-1258.350101,1838.629195
3087.788098,-10436.903782,-888.247130,1608.800546
3087.788435,-10510.924376,0.000000,842.705048
3087.788772,-12435.459826,-2072.576638,1455.581446
3087.789110,-10066.800811,-1850.514855,919.314598
3087.789447,-8808.450710,-296.082377,612.876398
3087.789784,-8290.306550,370.102971,-612.876398
3087.790122,-9548.656652,222.061783,-2451.505594
3087.790459,-11177.109724,592.164754,-3677.258390
3087.790796,-11917.315666,-962.267725,-2757.943793
3087.791133,-9474.636058,666.185348,-2451.505594
3087.791471,-8808.450710,222.061783,-919.314598
3087.791808,-11029.068536,-1036.288319,1302.362347
3087.792145,-10436.903782,0.000000,459.657299
3087.792483,-9030.512492,-296.082377,1225.752797
3087.792820,-9104.533087,74.020594,2068.457845
3087.793157,-10584.944971,-1406.391290,3064.381992
3087.793494,-12213.398043,0.000000,3140.991542
3087.793832,-11251.130318,1702.473667,1455.581446
3087.794169,-8808.450710,2516.700203,-766.095498
3087.794506,-10807.006753,1332.370696,-229.828649
3087.794844,-11177.109724,888.247130,-1149.143247
3087.795181,-9104.533087,592.164754,-2298.286494
3087.795518,-6217.729913,0.000000,-3064.381992
3087.795855,-7179.997637,-592.164754,-766.095498
3087.796193,-10955.047942,-2294.638420,383.047749
3087.796530,-10362.883188,-518.144159,-842.705048
3087.796867,-9696.697840,222.061783,-1225.752797
3087.797204,-10658.965565,1110.308913,-459.657299
3087.797542,-11103.089130,-962.267725,-1225.752797
3087.797879,-10214.842000,-1924.535449,306.438199
3087.798216,-9252.574275,-3182.885551,2221.676944
3087.798554,-9104.533087,-2294.638420,1991.848295
3087.798891,-11177.109724,-962.267725,459.657299
3087.799228,-10955.047942,-2146.597232,-612.876398
3087.799565,-10732.986159,-1702.473667,842.705048
3087.799903,-9844.739029,0.000000,0.000000
3087.800240,-9326.594869,-222.061783,842.705048
3087.800577,-11843.295072,-1924.535449,3140.991542
3087.800915,-12213.398043,-666.185348,2987.772442
3087.801252,-10436.903782,592.164754,1838.629195
3087.801589,-9622.677246,1258.350101,2681.334243
3087.801926,-9918.759623,-444.123565,4136.915689
3087.802264,-10955.047942,-148.041188,2374.896044
3087.802601,-11029.068536,296.082377,1762.019645
3087.802938,-8882.471304,1184.329507,-689.485948
3087.803275,-9474.636058,962.267725,229.828649
3087.803613,-11103.089130,0.000000,-612.876398
3087.803950,-10066.800811,962.267725,-2145.067394
3087.804287,-7920.203579,1554.432478,-2604.724693
3087.804625,-7179.997637,962.267725,-1225.752797
3087.804962,-8808.450710,-1554.432478,0.000000
3087.805299,-10362.883188,-888.247130,766.095498
3087.805636,-9474.636058,666.185348,689.485948
3087.805974,-9696.697840,1110.308913,536.266849
3087.806311,-11251.130318,148.041188,689.485948
3087.806648,-10214.842000,-888.247130,689.485948
3087.806985,-9992.780217,-222.061783,1302.362347
3087.807323,-8364.327145,666.185348,0.000000
3087.807660,-9400.615463,740.205942,0.000000
3087.807997,-11843.295072,0.000000,0.000000
3087.808335,-10066.800811,370.102971,-1762.019645
3087.808672,-9548.656652,518.144159,-306.438199
3087.809009,-9622.677246,1628.453072,383.047749
3087.809346,-10955.047942,1110.308913,229.828649
3087.809684,-12657.521608,1110.308913,459.657299
3087.810021,-11695.253884,444.123565,-995.924147
3087.810358,-9992.780217,296.082377,-2298.286494
3087.810696,-9770.718434,-1480.411884,-1149.143247
3087.811033,-8808.450710,-3034.844362,612.876398
3087.811370,-10807.006753,-2146.597232,1225.752797
3087.811707,-9326.594869,-962.267725,-1302.362347
3087.812045,-9030.512492,-888.247130,-229.828649
3087.812382,-10658.965565,-2738.761985,1149.143247
3087.812719,-12139.377449,-1628.453072,1225.752797
3087.813056,-10584.944971,-518.144159,383.047749
3087.813394,-9326.594869,-1258.350101,1915.238745
3087.813731,-9400.615463,-2442.679609,2604.724693
3087.814068,-9548.656652,-1332.370696,2145.067394
3087.814406,-8660.409521,666.185348,1455.581446
3087.814743,-8808.450710,740.205942,842.705048
3087.815080,-10807.006753,-148.041188,1149.143247
3087.815417,-11251.130318,740.205942,766.095498
3087.815755,-10807.006753,1850.514855,1225.752797
3087.816092,-8068.244768,592.164754,1302.362347
3087.816429,-9992.780217,74.020594,3064.381992
3087.816767,-10732.986159,0.000000,2451.505594
3087.817104,-9918.759623,814.226536,2374.896044
3087.817441,-8734.430116,1406.391290,1149.143247
3087.817778,-8808.450710,1258.350101,-689.485948
3087.818116,-11621.233289,-1258.350101,-1762.019645
3087.818453,-13545.768739,-518.144159,-2145.067394
3087.818790,-9252.574275,-814.226536,-3140.991542
3087.819127,-6217.729913,0.000000,-2834.553343
3087.819465,-8660.409521,0.000000,-1302.362347
3087.819802,-10436.903782,-1480.411884,-1225.752797
3087.820139,-11843.295072,-666.185348,-1838.629195
3087.820477,-10732.986159,-1702.473667,-1072.533697
3087.820814,-9992.780217,-1998.556043,1762.019645
3087.821151,-11029.068536,-2220.617826,3140.991542
3087.821488,-11695.253884,-444.123565,2145.067394
3087.821826,-10510.924376,222.061783,0.000000
3087.822163,-10955.047942,962.267725,76.609550
3087.822500,-9844.739029,74.020594,-766.095498
3087.822838,-10510.924376,-666.185348,-995.924147
3087.823175,-10584.944971,74.020594,-919.314598
3087.823512,-9178.553681,-740.205942,-3064.381992
3087.823849,-8660.409521,-814.226536,-1072.533697
3087.824187,-9030.512492,-1332.370696,0.000000
3087.824524,-8882.471304,-1036.288319,919.314598
3087.824861,-9326.594869,-222.061783,919.314598
3087.825198,-10436.903782,-740.205942,2068.457845
3087.825536,-11695.253884,-1036.288319,2068.457845
3087.825873,-11843.295072,-962.267725,229.828649
3087.826210,-9548.656652,222.061783,766.095498
3087.826548,-9252.574275,-1480.411884,612.876398
3087.826885,-8808.450710,-444.123565,536.266849
3087.827222,-8290.306550,-518.144159,-383.047749
3087.827559,-8956.491898,0.000000,1302.362347
3087.827897,-10362.883188,-444.123565,1532.190996
3087.828234,-11843.295072,888.247130,995.924147
3087.828571,-11695.253884,1702.473667,1915.238745
3087.828909,-11103.089130,1554.432478,2987.772442
3087.829246,-9918.759623,296.082377,3907.087040
3087.829583,-9548.656652,1628.453072,3677.258390
3087.829920,-10214.842000,814.226536,2221.676944
3087.830258,-11325.150913,1480.411884,1838.629195
3087.830595,-10288.862594,666.185348,0.000000
3087.830932,-10955.047942,1480.411884,-459.657299
3087.831269,-9252.574275,296.082377,-1455.581446
3087.831607,-8660.409521,0.000000,-1762.019645
3087.831944,-8586.388927,-666.185348,-1762.019645
3087.832281,-8956.491898,-740.205942,-1532.190996
3087.832619,-9400.615463,666.185348,-919.314598
3087.832956,-11103.089130,-814.226536,-1225.752797
3087.833293,-12657.521608,-888.247130,-459.657299
3087.833630,-10214.842000,-2442.679609,-1225.752797
3087.833968,-9326.594869,-1850.514855,1072.533697
3087.834305,-8882.471304,-2294.638420,842.705048
3087.834642,-9844.739029,-2442.679609,306.438199
3087.834979,-10510.924376,-592.164754,76.609550
3087.835317,-11547.212695,-1036.288319,-459.657299
3087.835654,-11177.109724,518.144159,-842.705048
3087.835991,-11029.068536,-444.123565,-995.924147
3087.836329,-9474.636058,-1332.370696,0.000000
3087.836666,-7920.203579,-296.082377,1532.190996
3087.837003,-8660.409521,1184.329507,1455.581446
3087.837340,-10732.986159,1332.370696,766.095498
3087.837678,-11843.295072,-222.061783,-229.828649
3087.838015,-11843.295072,592.164754,-76.609550
3087.838352,-10955.047942,814.226536,383.047749
3087.838690,-8364.327145,0.000000,153.219100
3087.839027,-7476.080014,-592.164754,76.609550
3087.839364,-7254.018232,0.000000,-306.438199
3087.839701,-9104.533087,0.000000,-1532.190996
3087.840039,-11325.150913,-1184.329507,-1149.143247
3087.840376,-9770.718434,-740.205942,0.000000
3087.840713,-9474.636058,518.144159,1225.752797
3087.841050,-11399.171507,814.226536,2298.286494
3087.841388,-9474.636058,1406.391290,536.266849
3087.841725,-9918.759623,74.020594,0.000000
3087.842062,-11325.150913,-740.205942,536.266849
3087.842400,-9844.739029,-1406.391290,919.314598
3087.842737,-10362.883188,-518.144159,3907.087040
3087.843074,-9918.759623,-592.164754,2451.505594
3087.843411,-9844.739029,148.041188,1532.190996
3087.843749,-10362.883188,1332.370696,1838.629195
3087.844086,-11843.295072,222.061783,2528.115143
3087.844423,-11251.130318,1110.308913,1072.533697
3087.844761,-12065.356855,296.082377,1149.143247
3087.845098,-10881.027347,444.123565,766.095498
3087.845435,-9252.574275,-1998.556043,-689.485948
3087.845772,-7846.182985,-1036.288319,-1149.143247
3087.846110,-8660.409521,-962.267725,-1532.190996
3087.846447,-9252.574275,-1110.308913,-2604.724693
3087.846784,-9252.574275,-1776.494261,-3217.601092
3087.847121,-11325.150913,-1998.556043,-1302.362347
3087.847459,-10066.800811,-2294.638420,-766.095498
3087.847796,-9918.759623,-3108.864956,689.485948
3087.848133,-9104.533087,-2294.638420,2221.676944
3087.848471,-9030.512492,-1850.514855,2451.505594
3087.848808,-10362.883188,-1406.391290,1532.190996
3087.849145,-10436.903782,-592.164754,1225.752797
3087.849482,-10140.821405,0.000000,306.438199
3087.849820,-12361.439231,296.082377,919.314598
3087.850157,-13027.624579,888.247130,229.828649
3087.850494,-10584.944971,2146.597232,-1532.190996
3087.850832,-8808.450710,1554.432478,-1608.800546
3087.851169,-8586.388927,1776.494261,-536.266849
3087.851506,-10066.800811,1110.308913,-612.876398
3087.851843,-9696.697840,444.123565,-919.314598
3087.852181,-9992.780217,1850.514855,0.000000
3087.852518,-9252.574275,814.226536,76.609550
3087.852855,-11473.192101,666.185348,1838.629195
3087.853192,-10955.047942,1184.329507,459.657299
3087.853530,-9622.677246,1628.453072,-153.219100
3087.853867,-9178.553681,1184.329507,-1225.752797
3087.854204,-9104.533087,-1850.514855,-2221.676944
3087.854542,-9030.512492,-1406.391290,-1072.533697
3087.854879,-8660.409521,-592.164754,-1532.190996
3087.855216,-7994.224174,-888.247130,-1608.800546
3087.855553,-8512.368333,-296.082377,-1455.581446
3087.855891,-9992.780217,-1036.288319,0.000000
3087.856228,-10140.821405,-740.205942,766.095498
3087.856565,-10658.965565,-1406.391290,2298.286494
3087.856902,-11251.130318,-222.061783,4519.963438
3087.857240,-12435.459826,-1554.432478,5209.449386
3087.857577,-11547.212695,-1036.288319,3677.258390
3087.857914,-9474.636058,-1110.308913,2911.162892
3087.858252,-8586.388927,0.000000,995.924147
3087.858589,-8956.491898,0.000000,306.438199
