#time,accel_x,accel_y,accel_z
3050.033475,-10362.883188,-1480.411884,306.438199
3050.033813,-10288.862594,-1480.411884,306.438199
3050.034151,-9622.677246,-1110.308913,-459.657299
3050.034488,-9548.656652,-2294.638420,-229.828649
3050.034826,-10066.800811,-2294.638420,1149.143247
3050.035164,-9844.739029,-1998.556043,766.095498
3050.035501,-9178.553681,-740.205942,689.485948
3050.035839,-9844.739029,-592.164754,766.095498
3050.036177,-10362.883188,-370.102971,766.095498
3050.036514,-11103.089130,-666.185348,995.924147
3050.036852,-10066.800811,0.000000,919.314598
3050.037189,-9400.615463,592.164754,2145.067394
3050.037527,-9844.739029,1480.411884,1072.533697
3050.037865,-10362.883188,148.041188,383.047749
3050.038202,-10140.821405,0.000000,-766.095498
3050.038540,-8956.491898,296.082377,-1072.533697
3050.038878,-9178.553681,1628.453072,-689.485948
3050.039215,-9992.780217,814.226536,-1838.629195
3050.039553,-10214.842000,74.020594,-1838.629195
3050.039891,-9918.759623,0.000000,-1915.238745
3050.040228,-9400.615463,74.020594,-1762.019645
3050.040566,-9474.636058,0.000000,-2145.067394
3050.040903,-10510.924376,-1258.350101,-2374.896044
3050.041241,-9548.656652,-1702.473667,-2757.943793
3050.041579,-9474.636058,-2590.720797,-1149.143247
3050.041916,-9770.718434,-1480.411884,612.876398
3050.042254,-10436.903782,-2368.659014,-766.095498
3050.042592,-11399.171507,-1332.370696,-1532.190996
3050.042929,-10436.903782,-2590.720797,-3140.991542
3050.043267,-9918.759623,-2960.823768,-1302.362347
3050.043605,-9770.718434,-2072.576638,383.047749
3050.043942,-10066.800811,-2368.659014,-995.924147
3050.044280,-10732.986159,-740.205942,-1608.800546
3050.044617,-10436.903782,-2294.638420,-1762.019645
3050.044955,-10584.944971,-2368.659014,-459.657299
3050.045293,-10436.903782,-2368.659014,76.609550
3050.045630,-10807.006753,-1332.370696,-1838.629195
3050.045968,-11103.089130,-1850.514855,-3983.696590
3050.046306,-9622.677246,-3256.906145,-4903.011187
3050.046643,-8512.368333,-4219.173869,-3064.381992
3050.046981,-8734.430116,-3849.070898,-1762.019645
3050.047319,-8882.471304,-3330.926739,-1608.800546
3050.047656,-9696.697840,-2590.720797,-2528.115143
3050.047994,-9992.780217,-2368.659014,-2451.505594
3050.048332,-9918.759623,-2590.720797,-2221.676944
3050.048669,-10436.903782,-2886.803174,-2757.943793
3050.049007,-10955.047942,-3701.029710,-1685.410096
3050.049344,-10955.047942,-4737.318029,-1225.752797
3050.049682,-8364.327145,-5033.400406,-766.095498
3050.050020,-8290.306550,-4811.338623,-612.876398
3050.050357,-8290.306550,-3627.009116,842.705048
3050.050695,-9770.718434,-3034.844362,0.000000
3050.051033,-11103.089130,-1628.453072,-383.047749
3050.051370,-11103.089130,-592.164754,-2221.676944
3050.051708,-10955.047942,-1258.350101,-2451.505594
3050.052046,-11103.089130,-2294.638420,-1302.362347
3050.052383,-10140.821405,-3182.885551,-1225.752797
3050.052721,-9474.636058,-3330.926739,0.000000
3050.053058,-8882.471304,-2368.659014,-1608.800546
3050.053396,-9326.594869,-3552.988522,-2374.896044
3050.053734,-9992.780217,-4071.132681,-2145.067394
3050.054071,-9548.656652,-4589.276840,-2374.896044
3050.054409,-8956.491898,-2664.741391,-1532.190996
3050.054747,-10066.800811,-2368.659014,-1225.752797
3050.055084,-10807.006753,-1628.453072,-3140.991542
3050.055422,-11695.253884,-3404.947333,-4519.963438
3050.055760,-11103.089130,-4515.256246,-3217.601092
3050.056097,-9622.677246,-4885.359217,-2068.457845
3050.056435,-9178.553681,-4515.256246,-1532.190996
3050.056772,-9326.594869,-4293.194464,-2451.505594
3050.057110,-9400.615463,-4885.359217,-2987.772442
3050.057448,-10807.006753,-3627.009116,-2298.286494
3050.057785,-9770.718434,-740.205942,-2221.676944
3050.058123,-10362.883188,0.000000,-2451.505594
3050.058461,-11325.150913,0.000000,-1302.362347
3050.058798,-12583.501014,0.000000,-1072.533697
3050.059136,-11103.089130,518.144159,-1302.362347
3050.059474,-8734.430116,-1184.329507,-919.314598
3050.059811,-8438.347739,-1776.494261,1378.971896
3050.060149,-9992.780217,-1554.432478,306.438199
3050.060486,-9918.759623,0.000000,-1991.848295
3050.060824,-9178.553681,0.000000,-3370.820191
3050.061162,-9104.533087,-888.247130,-2911.162892
3050.061499,-11325.150913,148.041188,-3524.039291
3050.061837,-10510.924376,-444.123565,-4903.011187
3050.062175,-8216.285956,-740.205942,-3217.601092
3050.062512,-8142.265362,-1036.288319,-766.095498
3050.062850,-9622.677246,-1110.308913,-1225.752797
3050.063188,-11177.109724,-1258.350101,-766.095498
3050.063525,-10807.006753,-2072.576638,-153.219100
3050.063863,-9252.574275,-2220.617826,229.828649
3050.064201,-9474.636058,-2294.638420,689.485948
3050.064538,-11029.068536,-888.247130,2374.896044
3050.064876,-11103.089130,-592.164754,-306.438199
3050.065213,-11029.068536,-962.267725,-2451.505594
3050.065551,-11029.068536,-1184.329507,-3217.601092
3050.065889,-10436.903782,-1702.473667,-2834.553343
3050.066226,-9770.718434,-2146.597232,-1838.629195
3050.066564,-8512.368333,-2738.761985,-2834.553343
3050.066902,-8808.450710,-2738.761985,-2298.286494
3050.067239,-9918.759623,-2590.720797,-1532.190996
3050.067577,-9696.697840,-2738.761985,-919.314598
3050.067915,-10584.944971,-2220.617826,0.000000
3050.068252,-11029.068536,-2368.659014,-1225.752797
3050.068590,-11473.192101,-1628.453072,-1455.581446
3050.068927,-11325.150913,-2886.803174,-2987.772442
3050.069265,-9844.739029,-3849.070898,-4596.572988
3050.069603,-9474.636058,-5033.400406,-4443.353888
3050.069940,-8216.285956,-5033.400406,-5132.839837
3050.070278,-7698.141797,-5255.462188,-4596.572988
3050.070616,-9326.594869,-5699.585753,-3140.991542
3050.070953,-8808.450710,-4441.235652,-2911.162892
3050.071291,-10807.006753,-3182.885551,-306.438199
3050.071629,-10362.883188,-666.185348,153.219100
3050.071966,-11103.089130,-444.123565,689.485948
3050.072304,-12583.501014,-592.164754,842.705048
3050.072641,-12065.356855,-1924.535449,0.000000
3050.072979,-11917.315666,-2442.679609,-842.705048
3050.073317,-10066.800811,-2812.782580,-1838.629195
3050.073654,-7772.162391,-4663.297435,-1762.019645
3050.073992,-7328.038826,-4219.173869,-1838.629195
3050.074330,-8068.244768,-3182.885551,-1762.019645
3050.074667,-8364.327145,-1554.432478,-1685.410096
3050.075005,-9918.759623,74.020594,-2681.334243
3050.075343,-11547.212695,-444.123565,-3217.601092
3050.075680,-13841.851115,-518.144159,-2757.943793
3050.076018,-10955.047942,-1998.556043,-3677.258390
3050.076356,-9030.512492,-3627.009116,-1302.362347
3050.076693,-8290.306550,-6587.832884,689.485948
3050.077031,-8142.265362,-6809.894666,919.314598
3050.077368,-9104.533087,-6587.832884,-76.609550
3050.077706,-9030.512492,-5033.400406,-1685.410096
3050.078044,-10362.883188,-4071.132681,-2834.553343
3050.078381,-11325.150913,-2442.679609,-4749.792088
3050.078719,-12065.356855,-2368.659014,-4673.182538
3050.079057,-10510.924376,-2442.679609,-3907.087040
3050.079394,-9104.533087,-4219.173869,-1532.190996
3050.079732,-9252.574275,-2442.679609,689.485948
3050.080070,-10510.924376,-2664.741391,1072.533697
3050.080407,-11769.274478,-2442.679609,76.609550
3050.080745,-11991.336260,-3701.029710,-1915.238745
3050.081082,-10881.027347,-3849.070898,-2604.724693
3050.081420,-9696.697840,-3108.864956,-689.485948
3050.081758,-8882.471304,-2368.659014,-1455.581446
3050.082095,-8586.388927,-1036.288319,-3064.381992
3050.082433,-11325.150913,0.000000,-4290.134789
3050.082771,-10955.047942,888.247130,-5515.887586
3050.083108,-11325.150913,-1628.453072,-4596.572988
3050.083446,-10732.986159,-3034.844362,-2757.943793
3050.083784,-9104.533087,-4367.215058,-1455.581446
3050.084121,-8068.244768,-3478.967927,0.000000
3050.084459,-6587.832884,-2516.700203,-306.438199
3050.084796,-8734.430116,-2294.638420,-459.657299
3050.085134,-10584.944971,-222.061783,-2374.896044
3050.085472,-11547.212695,-444.123565,-1915.238745
3050.085809,-12731.542202,0.000000,-1225.752797
3050.086147,-10436.903782,0.000000,-1455.581446
3050.086485,-9252.574275,592.164754,-76.609550
3050.086822,-8512.368333,148.041188,0.000000
3050.087160,-8956.491898,-518.144159,-1302.362347
3050.087498,-10140.821405,-592.164754,-1072.533697
3050.087835,-10436.903782,-814.226536,-536.266849
3050.088173,-11251.130318,-1110.308913,0.000000
3050.088510,-11029.068536,0.000000,-1225.752797
3050.088848,-9918.759623,1110.308913,-2757.943793
3050.089186,-11251.130318,-74.020594,-2757.943793
3050.089523,-10066.800811,-2072.576638,-4060.306139
3050.089861,-7698.141797,-2220.617826,-3447.429741
3050.090199,-10066.800811,-2738.761985,-2221.676944
3050.090536,-9548.656652,-3478.967927,-2987.772442
3050.090874,-9474.636058,-3478.967927,-3217.601092
3050.091212,-10214.842000,-4811.338623,-2145.067394
3050.091549,-9474.636058,-4959.379811,-1838.629195
3050.091887,-8290.306550,-5033.400406,-1072.533697
3050.092224,-8364.327145,-5033.400406,-612.876398
3050.092562,-10288.862594,-4219.173869,459.657299
3050.092899,-11843.295072,-3108.864956,-1225.752797
3050.093236,-11843.295072,-1998.556043,-2451.505594
3050.093574,-11103.089130,-1998.556043,-2757.943793
3050.093911,-9844.739029,-2220.617826,-612.876398
3050.094249,-9326.594869,-2738.761985,383.047749
3050.094586,-10362.883188,-1850.514855,995.924147
3050.094923,-11547.212695,-1554.432478,0.000000
3050.095261,-12435.459826,-1850.514855,-995.924147
3050.095598,-11917.315666,-2812.782580,-2145.067394
3050.095936,-8882.471304,-2072.576638,0.000000
3050.096273,-8364.327145,-1184.329507,1532.190996
3050.096610,-8586.388927,-962.267725,536.266849
3050.096948,-10362.883188,74.020594,-2528.115143
3050.097285,-10584.944971,-962.267725,-2987.772442
3050.097622,-10955.047942,-2442.679609,-1608.800546
3050.097960,-9030.512492,-2368.659014,689.485948
3050.098297,-8290.306550,-518.144159,153.219100
3050.098635,-9474.636058,-1480.411884,-153.219100
3050.098972,-10436.903782,-2368.659014,-1838.629195
3050.099309,-8512.368333,-2220.617826,-536.266849
3050.099647,-8660.409521,-1110.308913,1302.362347
3050.099984,-9252.574275,-148.041188,1532.190996
3050.100322,-11843.295072,370.102971,-995.924147
3050.100659,-11621.233289,-444.123565,-2374.896044
3050.100996,-9844.739029,-370.102971,76.609550
3050.101334,-8808.450710,444.123565,2528.115143
3050.101671,-9770.718434,666.185348,2068.457845
3050.102009,-11325.150913,-666.185348,306.438199
3050.102346,-11769.274478,-1702.473667,-1149.143247
3050.102683,-9770.718434,-1554.432478,-306.438199
3050.103021,-10066.800811,-1702.473667,0.000000
3050.103358,-9474.636058,-1776.494261,-1455.581446
3050.103695,-8512.368333,-1924.535449,-3217.601092
3050.104033,-9252.574275,-1702.473667,-2451.505594
3050.104370,-8068.244768,-222.061783,-2221.676944
3050.104708,-9400.615463,-1480.411884,153.219100
3050.105045,-12213.398043,-1924.535449,-536.266849
3050.105382,-11917.315666,-3256.906145,-1072.533697
3050.105720,-12657.521608,-3108.864956,383.047749
3050.106057,-9178.553681,-2960.823768,1225.752797
3050.106395,-7698.141797,-2738.761985,2145.067394
3050.106732,-8290.306550,-1258.350101,459.657299
3050.107069,-10658.965565,-1850.514855,-842.705048
3050.107407,-13323.706956,-2368.659014,0.000000
3050.107744,-10436.903782,814.226536,-383.047749
3050.108082,-10140.821405,1628.453072,2757.943793
3050.108419,-10584.944971,3182.885551,1762.019645
3050.108756,-9252.574275,2960.823768,612.876398
3050.109094,-10584.944971,1332.370696,2528.115143
3050.109431,-10807.006753,1184.329507,2911.162892
3050.109769,-10732.986159,1628.453072,3217.601092
3050.110106,-11843.295072,1924.535449,1072.533697
3050.110443,-9178.553681,296.082377,-689.485948
3050.110781,-8882.471304,148.041188,-766.095498
3050.111118,-6957.935855,962.267725,536.266849
3050.111455,-6957.935855,1554.432478,153.219100
3050.111793,-10214.842000,1924.535449,-1149.143247
3050.112130,-11399.171507,1776.494261,-1608.800546
3050.112468,-11029.068536,1480.411884,-1991.848295
3050.112805,-9918.759623,444.123565,383.047749
3050.113142,-9474.636058,296.082377,2451.505594
3050.113480,-9622.677246,-814.226536,1225.752797
3050.113817,-9178.553681,-2294.638420,842.705048
3050.114155,-8586.388927,-2442.679609,1455.581446
3050.114492,-10436.903782,-1776.494261,2528.115143
3050.114829,-12139.377449,-1184.329507,1455.581446
3050.115167,-10584.944971,222.061783,-1072.533697
3050.115504,-10140.821405,962.267725,-1608.800546
3050.115842,-9400.615463,-148.041188,-536.266849
3050.116179,-10362.883188,-666.185348,1072.533697
3050.116516,-10881.027347,-814.226536,1762.019645
3050.116854,-10214.842000,-444.123565,-306.438199
3050.117191,-11251.130318,-1924.535449,153.219100
3050.117528,-11843.295072,-2368.659014,0.000000
3050.117866,-10288.862594,-3330.926739,0.000000
3050.118203,-9326.594869,-2442.679609,-1225.752797
3050.118541,-7772.162391,-1850.514855,-306.438199
3050.118878,-10362.883188,-1332.370696,-383.047749
3050.119215,-11177.109724,-1554.432478,-689.485948
3050.119553,-11177.109724,-1776.494261,-1608.800546
3050.119890,-10362.883188,-2368.659014,306.438199
3050.120228,-9178.553681,-2368.659014,689.485948
3050.120565,-8956.491898,-1628.453072,1225.752797
3050.120902,-9474.636058,-888.247130,1915.238745
3050.121240,-8882.471304,-1258.350101,0.000000
3050.121577,-9474.636058,-296.082377,612.876398
3050.121915,-10881.027347,-518.144159,1378.971896
3050.122252,-10214.842000,0.000000,1149.143247
3050.122589,-8956.491898,888.247130,1991.848295
3050.122927,-9918.759623,1036.288319,2528.115143
3050.123264,-10066.800811,3108.864956,2068.457845
3050.123601,-9474.636058,3182.885551,536.266849
3050.123939,-10140.821405,1998.556043,689.485948
3050.124276,-11399.171507,2294.638420,0.000000
3050.124614,-11769.274478,888.247130,0.000000
3050.124951,-10510.924376,2072.576638,-1072.533697
3050.125288,-7105.977043,1036.288319,-2604.724693
3050.125626,-9474.636058,148.041188,-2451.505594
3050.125963,-10140.821405,-1332.370696,-2604.724693
3050.126301,-8364.327145,-1998.556043,-1915.238745
3050.126638,-8808.450710,-444.123565,842.705048
3050.126975,-10436.903782,-370.102971,1455.581446
3050.127313,-10881.027347,-518.144159,-383.047749
3050.127650,-11769.274478,-1776.494261,-1455.581446
3050.127988,-10436.903782,-3330.926739,536.266849
3050.128325,-9252.574275,-3478.967927,2374.896044
3050.128662,-8290.306550,-1850.514855,2221.676944
3050.129000,-10288.862594,-2072.576638,1455.581446
3050.129337,-10955.047942,-1554.432478,-842.705048
3050.129674,-9622.677246,-1332.370696,-1378.971896
3050.130012,-9992.780217,-1998.556043,1838.629195
3050.130349,-10288.862594,-296.082377,2681.334243
3050.130687,-11251.130318,0.000000,1225.752797
3050.131024,-11843.295072,592.164754,459.657299
3050.131361,-10584.944971,-962.267725,-842.705048
3050.131699,-10288.862594,-1036.288319,536.266849
3050.132036,-9918.759623,-814.226536,1838.629195
3050.132374,-9326.594869,-444.123565,766.095498
3050.132711,-10732.986159,444.123565,612.876398
3050.133048,-9770.718434,222.061783,-1072.533697
3050.133386,-10584.944971,814.226536,0.000000
3050.133723,-9770.718434,888.247130,-383.047749
3050.134061,-10214.842000,1110.308913,995.924147
3050.134398,-10881.027347,1332.370696,1072.533697
3050.134735,-9252.574275,444.123565,0.000000
3050.135073,-8586.388927,814.226536,1225.752797
3050.135410,-9844.739029,1702.473667,1838.629195
3050.135747,-9548.656652,2886.803174,1915.238745
3050.136085,-10584.944971,1850.514855,919.314598
3050.136422,-10066.800811,962.267725,1991.848295
3050.136760,-10140.821405,1110.308913,2757.943793
3050.137097,-9696.697840,2220.617826,612.876398
3050.137434,-8808.450710,2368.659014,-919.314598
3050.137772,-9474.636058,1184.329507,-842.705048
3050.138109,-9548.656652,-962.267725,-1072.533697
3050.138447,-9104.533087,-666.185348,0.000000
3050.138784,-8882.471304,444.123565,229.828649
3050.139121,-8068.244768,-296.082377,-383.047749
3050.139459,-10288.862594,-814.226536,-1762.019645
3050.139796,-11325.150913,-1776.494261,-2221.676944
3050.140134,-11399.171507,-2664.741391,-1302.362347
3050.140471,-10732.986159,-2220.617826,-153.219100
3050.140808,-9178.553681,-2664.741391,-1225.752797
3050.141146,-9548.656652,-3330.926739,-766.095498
3050.141483,-10584.944971,-3108.864956,0.000000
3050.141820,-9696.697840,-4145.153275,306.438199
3050.142158,-9770.718434,-2664.741391,1149.143247
3050.142495,-11473.192101,-1998.556043,2068.457845
3050.142833,-12879.583391,-74.020594,459.657299
3050.143170,-12213.398043,-296.082377,-1532.190996
3050.143507,-10807.006753,-666.185348,306.438199
3050.143845,-8808.450710,0.000000,2528.115143
3050.144182,-9548.656652,74.020594,2604.724693
3050.144520,-11399.171507,-296.082377,1302.362347
3050.144857,-11399.171507,-1258.350101,-383.047749
3050.145194,-10214.842000,0.000000,766.095498
3050.145532,-8512.368333,1406.391290,1149.143247
3050.145869,-8586.388927,1702.473667,919.314598
3050.146207,-8808.450710,1332.370696,-1225.752797
3050.146544,-9474.636058,0.000000,-1225.752797
3050.146881,-9918.759623,148.041188,-383.047749
3050.147219,-9104.533087,962.267725,0.000000
3050.147556,-9326.594869,740.205942,995.924147
3050.147893,-10362.883188,296.082377,0.000000
3050.148231,-8808.450710,148.041188,-536.266849
3050.148568,-7698.141797,1258.350101,919.314598
3050.148906,-8364.327145,1036.288319,1225.752797
3050.149243,-11621.233289,148.041188,689.485948
3050.149580,-12731.542202,-222.061783,-1149.143247
3050.149918,-10510.924376,296.082377,536.266849
3050.150255,-9326.594869,888.247130,2374.896044
3050.150593,-8956.491898,1110.308913,3064.381992
3050.150930,-9844.739029,1406.391290,612.876398
3050.151267,-11769.274478,-222.061783,-1072.533697
3050.151605,-12435.459826,-1184.329507,0.000000
3050.151942,-11325.150913,-888.247130,459.657299
3050.152280,-9030.512492,-222.061783,459.657299
3050.152617,-8734.430116,-888.247130,0.000000
3050.152954,-9622.677246,-1776.494261,-1149.143247
3050.153292,-9918.759623,-1924.535449,-995.924147
3050.153629,-10584.944971,-1850.514855,0.000000
3050.153966,-10955.047942,-888.247130,153.219100
3050.154304,-11917.315666,-1554.432478,-1838.629195
3050.154641,-10881.027347,-3552.988522,-1302.362347
3050.154979,-8438.347739,-4145.153275,459.657299
3050.155316,-6217.729913,-1776.494261,1915.238745
3050.155653,-7476.080014,-222.061783,3447.429741
3050.155991,-11473.192101,-888.247130,0.000000
3050.156328,-13693.809927,-740.205942,-2604.724693
3050.156666,-11547.212695,-666.185348,0.000000
3050.157003,-9400.615463,1776.494261,2221.676944
3050.157340,-8216.285956,1554.432478,2834.553343
3050.157678,-9178.553681,2590.720797,919.314598
3050.158015,-9844.739029,1628.453072,0.000000
3050.158353,-10436.903782,592.164754,1532.190996
3050.158690,-9770.718434,2368.659014,2911.162892
3050.159027,-10362.883188,4071.132681,1838.629195
3050.159365,-11325.150913,3034.844362,-1225.752797
3050.159702,-10436.903782,2590.720797,-2528.115143
3050.160039,-8290.306550,2220.617826,-1302.362347
3050.160377,-9104.533087,2368.659014,842.705048
3050.160714,-9918.759623,1776.494261,-1072.533697
3050.161052,-10362.883188,1480.411884,-3524.039291
3050.161389,-11547.212695,-962.267725,-2834.553343
3050.161726,-9030.512492,-2294.638420,-1072.533697
3050.162064,-6735.874072,-962.267725,2068.457845
3050.162401,-8216.285956,-666.185348,2451.505594
3050.162739,-10658.965565,-666.185348,536.266849
3050.163076,-11917.315666,-1258.350101,-919.314598
3050.163413,-11473.192101,-1702.473667,383.047749
3050.163751,-9548.656652,-1850.514855,1915.238745
3050.164088,-10658.965565,-1924.535449,1685.410096
3050.164426,-9844.739029,-1702.473667,-459.657299
3050.164763,-9030.512492,-3256.906145,689.485948
3050.165100,-8660.409521,-1036.288319,1915.238745
3050.165438,-10066.800811,-888.247130,2528.115143
3050.165775,-12139.377449,-592.164754,1378.971896
3050.166112,-12139.377449,-1332.370696,-766.095498
3050.166450,-11843.295072,-1258.350101,-612.876398
3050.166787,-8068.244768,-740.205942,383.047749
3050.167125,-7402.059420,-444.123565,306.438199
3050.167462,-9918.759623,-1554.432478,0.000000
3050.167799,-11325.150913,-1554.432478,-2374.896044
3050.168137,-10807.006753,-2664.741391,-1302.362347
3050.168474,-9622.677246,-1480.411884,1915.238745
3050.168812,-8586.388927,592.164754,2681.334243
3050.169149,-10584.944971,-444.123565,919.314598
3050.169486,-11399.171507,-1184.329507,-1072.533697
3050.169824,-9326.594869,-740.205942,-612.876398
3050.170161,-8660.409521,2072.576638,1302.362347
3050.170499,-9030.512492,1776.494261,1762.019645
3050.170836,-10436.903782,1258.350101,-612.876398
3050.171173,-11177.109724,1258.350101,-1225.752797
3050.171511,-10362.883188,2072.576638,-766.095498
3050.171848,-8734.430116,2664.741391,1685.410096
3050.172185,-8586.388927,2664.741391,2528.115143
3050.172523,-10214.842000,1998.556043,1072.533697
3050.172860,-12435.459826,1554.432478,-383.047749
3050.173198,-10732.986159,592.164754,-76.609550
3050.173535,-8660.409521,1184.329507,919.314598
3050.173872,-8142.265362,1258.350101,229.828649
3050.174210,-9548.656652,814.226536,-1991.848295
3050.174547,-9992.780217,0.000000,-2834.553343
3050.174885,-8660.409521,-1036.288319,-2221.676944
3050.175222,-7994.224174,0.000000,-766.095498
3050.175559,-11029.068536,-740.205942,-1225.752797
3050.175897,-11177.109724,-1702.473667,-1991.848295
3050.176234,-10510.924376,-2664.741391,-1302.362347
3050.176572,-9178.553681,-3330.926739,1225.752797
3050.176909,-7698.141797,-2738.761985,2834.553343
3050.177246,-9770.718434,-1850.514855,3217.601092
3050.177584,-12139.377449,-1480.411884,919.314598
3050.177921,-12287.418637,-2220.617826,612.876398
3050.178258,-11843.295072,0.000000,1532.190996
3050.178596,-9622.677246,296.082377,2528.115143
3050.178933,-10214.842000,814.226536,2374.896044
3050.179271,-10288.862594,444.123565,229.828649
3050.179608,-10288.862594,-296.082377,-459.657299
3050.179945,-9548.656652,1110.308913,1685.410096
3050.180283,-9548.656652,1406.391290,2451.505594
3050.180620,-11325.150913,1776.494261,2145.067394
3050.180958,-11399.171507,1406.391290,-995.924147
3050.181295,-9696.697840,0.000000,0.000000
3050.181632,-8364.327145,74.020594,2068.457845
3050.181970,-7328.038826,518.144159,2451.505594
3050.182307,-9252.574275,1480.411884,76.609550
3050.182645,-10214.842000,1406.391290,-2145.067394
3050.182982,-10510.924376,814.226536,-2221.676944
3050.183319,-9326.594869,962.267725,-612.876398
3050.183657,-7994.224174,962.267725,153.219100
3050.183994,-9474.636058,222.061783,0.000000
3050.184331,-10140.821405,0.000000,-1225.752797
3050.184669,-10510.924376,-296.082377,383.047749
3050.185006,-10362.883188,-148.041188,1532.190996
3050.185344,-9474.636058,-296.082377,2681.334243
3050.185681,-10881.027347,0.000000,2374.896044
3050.186018,-12287.418637,-444.123565,842.705048
3050.186356,-10584.944971,-962.267725,0.000000
3050.186693,-8586.388927,222.061783,0.000000
3050.187031,-9104.533087,296.082377,0.000000
3050.187368,-11695.253884,0.000000,-1225.752797
3050.187705,-11103.089130,-1184.329507,-3830.477490
3050.188043,-9178.553681,-1924.535449,-2068.457845
3050.188380,-8660.409521,-1184.329507,766.095498
3050.188718,-9326.594869,-888.247130,689.485948
3050.189055,-11843.295072,-1850.514855,-1072.533697
3050.189392,-11843.295072,-1702.473667,-2528.115143
3050.189730,-10288.862594,-1258.350101,-1685.410096
3050.190067,-8808.450710,-1702.473667,612.876398
3050.190405,-9030.512492,-2294.638420,1378.971896
3050.190742,-10362.883188,-2960.823768,229.828649
3050.191079,-10510.924376,-1924.535449,-306.438199
3050.191417,-9548.656652,-740.205942,-306.438199
3050.191754,-10362.883188,-444.123565,1838.629195
3050.192092,-10881.027347,-222.061783,1455.581446
3050.192429,-9992.780217,518.144159,0.000000
3050.192766,-9770.718434,370.102971,1915.238745
3050.193104,-8734.430116,1480.411884,3217.601092
3050.193441,-9400.615463,1184.329507,3600.648841
3050.193779,-10658.965565,1406.391290,1838.629195
3050.194116,-11621.233289,1332.370696,536.266849
3050.194453,-10436.903782,1554.432478,689.485948
3050.194791,-8142.265362,1702.473667,306.438199
3050.195128,-7846.182985,1702.473667,1378.971896
3050.195466,-9326.594869,2294.638420,306.438199
3050.195803,-10584.944971,1628.453072,-995.924147
3050.196140,-12657.521608,592.164754,-1378.971896
3050.196478,-10658.965565,370.102971,-1455.581446
3050.196815,-8956.491898,74.020594,-842.705048
3050.197153,-8438.347739,-1628.453072,-229.828649
3050.197490,-8438.347739,-1776.494261,536.266849
3050.197827,-8956.491898,-1036.288319,1455.581446
3050.198165,-11843.295072,-962.267725,1225.752797
3050.198502,-11251.130318,-592.164754,-383.047749
3050.198840,-12879.583391,-592.164754,153.219100
3050.199177,-11843.295072,-1406.391290,306.438199
3050.199514,-9104.533087,-1776.494261,0.000000
3050.199852,-7698.141797,-1998.556043,1915.238745
3050.200189,-9474.636058,-2220.617826,2681.334243
3050.200527,-10288.862594,-1850.514855,995.924147
3050.200864,-11177.109724,-1480.411884,1532.190996
3050.201201,-12213.398043,-592.164754,76.609550
3050.201539,-9400.615463,74.020594,766.095498
3050.201876,-10362.883188,0.000000,-612.876398
3050.202214,-9918.759623,-888.247130,-612.876398
3050.202551,-9400.615463,0.000000,-1149.143247
3050.202888,-8660.409521,296.082377,-2374.896044
3050.203226,-10584.944971,-444.123565,-1532.190996
3050.203563,-9178.553681,-1406.391290,-1991.848295
3050.203901,-9400.615463,-1776.494261,-1378.971896
3050.204238,-10584.944971,0.000000,-459.657299
3050.204575,-7476.080014,-296.082377,459.657299
3050.204913,-10658.965565,74.020594,536.266849
3050.205250,-12213.398043,0.000000,1149.143247
3050.205588,-10807.006753,962.267725,1455.581446
3050.205925,-11399.171507,-666.185348,1762.019645
3050.206263,-8882.471304,-666.185348,2298.286494
3050.206600,-7476.080014,-444.123565,1762.019645
3050.206937,-8956.491898,444.123565,919.314598
3050.207275,-9548.656652,592.164754,0.000000
3050.207612,-10362.883188,2220.617826,76.609550
3050.207950,-11917.315666,1628.453072,919.314598
3050.208287,-11991.336260,1110.308913,76.609550
3050.208624,-11473.192101,888.247130,-1455.581446
3050.208962,-9622.677246,0.000000,153.219100
3050.209299,-8882.471304,666.185348,842.705048
3050.209637,-8290.306550,296.082377,766.095498
3050.209974,-10066.800811,0.000000,306.438199
3050.210311,-11325.150913,-518.144159,-1072.533697
3050.210649,-12139.377449,-518.144159,-536.266849
3050.210986,-11325.150913,-222.061783,-612.876398
3050.211324,-10066.800811,-1406.391290,-995.924147
3050.211661,-9548.656652,-2442.679609,76.609550
3050.211998,-7772.162391,-3256.906145,0.000000
3050.212336,-7846.182985,-2960.823768,1149.143247
3050.212673,-9622.677246,-2368.659014,2451.505594
3050.213011,-10436.903782,-1776.494261,1072.533697
3050.213348,-11843.295072,-1924.535449,1149.143247
3050.213685,-11325.150913,-1480.411884,995.924147
3050.214023,-9252.574275,-666.185348,1685.410096
3050.214360,-8734.430116,814.226536,2834.553343
3050.214698,-10066.800811,0.000000,2834.553343
3050.215035,-11029.068536,0.000000,842.705048
3050.215372,-11399.171507,0.000000,229.828649
3050.215710,-10436.903782,740.205942,1378.971896
3050.216047,-9844.739029,666.185348,76.609550
3050.216385,-9474.636058,666.185348,-1149.143247
3050.216722,-9252.574275,0.000000,-1378.971896
3050.217059,-9918.759623,296.082377,-995.924147
3050.217397,-9992.780217,0.000000,-306.438199
3050.217734,-10362.883188,1406.391290,-612.876398
3050.218072,-10510.924376,-666.185348,-76.609550
3050.218409,-10881.027347,-296.082377,153.219100
3050.218746,-10066.800811,-1480.411884,383.047749
3050.219084,-9030.512492,-1628.453072,1685.410096
3050.219421,-8216.285956,0.000000,612.876398
3050.219759,-9474.636058,148.041188,-1072.533697
3050.220096,-11695.253884,-1110.308913,-2221.676944
3050.220433,-11621.233289,-1258.350101,-1378.971896
3050.220771,-9696.697840,-1702.473667,153.219100
3050.221108,-7772.162391,222.061783,1072.533697
3050.221446,-8438.347739,666.185348,2528.115143
3050.221783,-11103.089130,-518.144159,1455.581446
3050.222121,-11325.150913,-592.164754,-229.828649
3050.222458,-11029.068536,-592.164754,76.609550
3050.222795,-9992.780217,1110.308913,229.828649
3050.223133,-9622.677246,222.061783,-919.314598
3050.223470,-10658.965565,-1406.391290,-1762.019645
3050.223808,-9622.677246,-1702.473667,-919.314598
3050.224145,-9696.697840,-888.247130,-995.924147
3050.224482,-9992.780217,814.226536,-1072.533697
3050.224820,-11177.109724,0.000000,-766.095498
3050.225157,-12361.439231,-1184.329507,-1915.238745
3050.225495,-10362.883188,-1924.535449,-1685.410096
3050.225832,-7846.182985,-1480.411884,842.705048
3050.226169,-7772.162391,-1406.391290,2681.334243
3050.226507,-9992.780217,-2072.576638,2528.115143
3050.226844,-12139.377449,-1776.494261,1838.629195
3050.227182,-11991.336260,-740.205942,2068.457845
3050.227519,-9992.780217,444.123565,2681.334243
3050.227856,-8068.244768,962.267725,1838.629195
3050.228194,-8808.450710,962.267725,1532.190996
3050.228531,-9844.739029,-222.061783,383.047749
3050.228869,-9918.759623,-296.082377,1378.971896
3050.229206,-9252.574275,1184.329507,2068.457845
3050.229543,-9474.636058,3552.988522,2068.457845
3050.229881,-11473.192101,2220.617826,0.000000
3050.230218,-10584.944971,814.226536,-1608.800546
3050.230556,-10288.862594,-814.226536,1455.581446
3050.230893,-9104.533087,888.247130,1838.629195
3050.231230,-9474.636058,1184.329507,1149.143247
3050.231568,-12139.377449,1480.411884,-459.657299
3050.231905,-12065.356855,-962.267725,-3524.039291
3050.232243,-10436.903782,-1776.494261,-1455.581446
3050.232580,-7994.224174,-1480.411884,229.828649
3050.232917,-7254.018232,-1554.432478,689.485948
3050.233255,-10658.965565,-1702.473667,-306.438199
3050.233592,-11473.192101,-2368.659014,-1991.848295
3050.233930,-11325.150913,-2072.576638,-459.657299
3050.234267,-9622.677246,-370.102971,459.657299
3050.234604,-9548.656652,0.000000,1149.143247
3050.234942,-10881.027347,-2368.659014,153.219100
3050.235279,-10807.006753,-2146.597232,76.609550
3050.235617,-8660.409521,-1406.391290,459.657299
3050.235954,-9104.533087,-1406.391290,1302.362347
3050.236291,-10140.821405,-148.041188,1455.581446
3050.236629,-11399.171507,-444.123565,-995.924147
3050.236966,-11991.336260,-518.144159,-2068.457845
3050.237304,-9178.553681,-1258.350101,-1225.752797
3050.237641,-7772.162391,370.102971,383.047749
3050.237979,-9548.656652,-666.185348,-306.438199
3050.238316,-11029.068536,148.041188,-2911.162892
3050.238653,-11621.233289,-740.205942,-3370.820191
3050.238991,-9770.718434,-1702.473667,-1915.238745
3050.239328,-7920.203579,-962.267725,383.047749
3050.239666,-8438.347739,-888.247130,1225.752797
3050.240003,-11473.192101,0.000000,1149.143247
3050.240340,-11843.295072,-1258.350101,-536.266849
3050.240678,-10807.006753,-1554.432478,76.609550
3050.241015,-8660.409521,0.000000,2221.676944
3050.241353,-8216.285956,74.020594,1838.629195
3050.241690,-9474.636058,-962.267725,459.657299
3050.242027,-9992.780217,0.000000,1225.752797
3050.242365,-9992.780217,888.247130,1302.362347
3050.242702,-10436.903782,2294.638420,1608.800546
3050.243040,-11029.068536,2368.659014,919.314598
3050.243377,-11621.233289,1036.288319,1378.971896
3050.243714,-12213.398043,-666.185348,1838.629195
3050.244052,-10362.883188,296.082377,2451.505594
3050.244389,-8438.347739,370.102971,1915.238745
3050.244727,-9252.574275,0.000000,536.266849
3050.245064,-10362.883188,-148.041188,-1302.362347
3050.245401,-11399.171507,-592.164754,-1455.581446
3050.245739,-9474.636058,592.164754,-995.924147
3050.246076,-8142.265362,0.000000,-229.828649
3050.246414,-10510.924376,-148.041188,-306.438199
3050.246751,-10140.821405,-2590.720797,-1302.362347
3050.247088,-10288.862594,-3034.844362,-995.924147
3050.247426,-9400.615463,-2664.741391,1225.752797
3050.247763,-8734.430116,-1924.535449,2221.676944
3050.248101,-9770.718434,-2220.617826,1455.581446
3050.248438,-10288.862594,-2812.782580,766.095498
3050.248775,-9474.636058,-814.226536,1149.143247
3050.249113,-11177.109724,-370.102971,2681.334243
3050.249450,-11547.212695,814.226536,1991.848295
3050.249788,-10658.965565,1406.391290,-919.314598
3050.250125,-10732.986159,-222.061783,-306.438199
3050.250462,-9622.677246,-592.164754,0.000000
3050.250800,-8216.285956,1184.329507,766.095498
3050.251137,-9474.636058,2146.597232,1072.533697
3050.251475,-11251.130318,1480.411884,-689.485948
3050.251812,-12435.459826,-296.082377,-1532.190996
3050.252149,-11399.171507,-296.082377,-689.485948
3050.252487,-8734.430116,666.185348,842.705048
3050.252824,-8586.388927,1110.308913,0.000000
3050.253162,-9622.677246,444.123565,-1225.752797
3050.253499,-9844.739029,-1110.308913,-1532.190996
3050.253837,-9992.780217,-1110.308913,-612.876398
3050.254174,-9400.615463,-74.020594,995.924147
3050.254511,-9622.677246,518.144159,76.609550
3050.254849,-11029.068536,-444.123565,-842.705048
3050.255186,-9770.718434,-888.247130,-919.314598
3050.255524,-8216.285956,-1554.432478,-306.438199
3050.255861,-8290.306550,-1110.308913,2528.115143
3050.256198,-10214.842000,-296.082377,2681.334243
3050.256536,-11177.109724,148.041188,459.657299
3050.256873,-11399.171507,-666.185348,-306.438199
3050.257211,-10510.924376,-888.247130,842.705048
3050.257548,-9474.636058,-296.082377,2451.505594
3050.257885,-9622.677246,444.123565,612.876398
3050.258223,-10140.821405,148.041188,-919.314598
3050.258560,-10732.986159,-592.164754,-1608.800546
3050.258898,-10658.965565,74.020594,-1532.190996
3050.259235,-10955.047942,-740.205942,76.609550
3050.259572,-11547.212695,-1184.329507,-842.705048
3050.259910,-9622.677246,-666.185348,-1378.971896
3050.260247,-10510.924376,-1628.453072,-229.828649
3050.260585,-10214.842000,-814.226536,0.000000
3050.260922,-9696.697840,-1258.350101,689.485948
3050.261259,-10362.883188,-1110.308913,-306.438199
3050.261597,-11029.068536,-2368.659014,0.000000
3050.261934,-10955.047942,-2812.782580,1225.752797
3050.262272,-8364.327145,-1850.514855,3064.381992
3050.262609,-8290.306550,-148.041188,3294.210641
3050.262946,-9918.759623,1036.288319,2451.505594
3050.263284,-11621.233289,-370.102971,612.876398
3050.263621,-10436.903782,0.000000,229.828649
3050.263959,-9844.739029,-666.185348,1762.019645
3050.264296,-9252.574275,-296.082377,2987.772442
3050.264633,-7698.141797,222.061783,1991.848295
3050.264971,-8142.265362,1258.350101,1378.971896
3050.265308,-10288.862594,1332.370696,459.657299
3050.265646,-11547.212695,1554.432478,0.000000
3050.265983,-11029.068536,1628.453072,-1532.190996
3050.266320,-11547.212695,888.247130,-919.314598
3050.266658,-10436.903782,592.164754,-1072.533697
3050.266995,-9548.656652,1702.473667,-1685.410096
3050.267333,-9178.553681,-148.041188,-1072.533697
3050.267670,-10362.883188,-1258.350101,-1532.190996
3050.268008,-10140.821405,-2442.679609,-995.924147
3050.268345,-9770.718434,-2516.700203,229.828649
3050.268682,-10214.842000,-1184.329507,612.876398
3050.269020,-9770.718434,-962.267725,1149.143247
3050.269357,-10066.800811,-222.061783,153.219100
3050.269695,-10584.944971,-740.205942,-842.705048
3050.270032,-10955.047942,-1184.329507,536.266849
3050.270369,-9474.636058,-888.247130,-459.657299
3050.270707,-8586.388927,-1036.288319,842.705048
3050.271044,-9622.677246,666.185348,766.095498
3050.271382,-9844.739029,74.020594,-766.095498
3050.271719,-10288.862594,-1184.329507,-1378.971896
3050.272056,-9992.780217,-814.226536,153.219100
3050.272394,-10066.800811,-370.102971,1608.800546
3050.272731,-10140.821405,0.000000,1838.629195
3050.273069,-9918.759623,0.000000,919.314598
3050.273406,-10066.800811,-814.226536,0.000000
3050.273743,-9474.636058,370.102971,-1149.143247
3050.274081,-9400.615463,0.000000,-1455.581446
3050.274418,-10066.800811,0.000000,-2068.457845
3050.274756,-10881.027347,-962.267725,-842.705048
3050.275093,-11029.068536,-666.185348,-306.438199
3050.275430,-10288.862594,296.082377,536.266849
3050.275768,-8956.491898,1480.411884,919.314598
3050.276105,-10066.800811,1776.494261,919.314598
3050.276443,-11917.315666,-148.041188,2298.286494
3050.276780,-11177.109724,-444.123565,1149.143247
3050.277117,-9548.656652,962.267725,2298.286494
3050.277455,-9548.656652,1924.535449,2681.334243
3050.277792,-8882.471304,2738.761985,1225.752797
3050.278130,-10732.986159,1628.453072,612.876398
3050.278467,-9474.636058,1406.391290,0.000000
3050.278804,-9844.739029,592.164754,2221.676944
3050.279142,-10658.965565,-370.102971,2528.115143
3050.279479,-8660.409521,296.082377,612.876398
3050.279817,-9548.656652,-814.226536,612.876398
3050.280154,-9474.636058,0.000000,612.876398
3050.280491,-7772.162391,-518.144159,-536.266849
3050.280829,-10066.800811,-592.164754,-76.609550
3050.281166,-9844.739029,-888.247130,-1608.800546
3050.281504,-9548.656652,-296.082377,-1685.410096
3050.281841,-10214.842000,-1184.329507,-1302.362347
3050.282178,-11103.089130,-3108.864956,459.657299
3050.282516,-10732.986159,-1628.453072,612.876398
3050.282853,-9030.512492,-1702.473667,-536.266849
3050.283191,-9992.780217,-2294.638420,76.609550
3050.283528,-11029.068536,-2368.659014,536.266849
3050.283866,-10214.842000,-2220.617826,1838.629195
3050.284203,-9844.739029,-740.205942,1455.581446
3050.284540,-11029.068536,-2072.576638,2221.676944
3050.284878,-11917.315666,592.164754,1302.362347
3050.285215,-10807.006753,888.247130,-766.095498
3050.285553,-9622.677246,370.102971,1455.581446
3050.285890,-9622.677246,888.247130,842.705048
3050.286227,-9474.636058,1480.411884,-383.047749
3050.286565,-10881.027347,1110.308913,-459.657299
3050.286902,-10288.862594,814.226536,-689.485948
3050.287240,-9474.636058,-370.102971,-306.438199
3050.287577,-10362.883188,518.144159,0.000000
3050.287914,-9030.512492,1036.288319,-536.266849
3050.288252,-8216.285956,592.164754,-842.705048
3050.288589,-9474.636058,74.020594,-1225.752797
3050.288927,-9844.739029,370.102971,-1149.143247
3050.289264,-10066.800811,296.082377,-689.485948
3050.289601,-9400.615463,0.000000,229.828649
3050.289939,-10658.965565,-592.164754,229.828649
3050.290276,-10288.862594,592.164754,76.609550
3050.290614,-8660.409521,0.000000,306.438199
3050.290951,-9252.574275,0.000000,689.485948
3050.291289,-10362.883188,0.000000,919.314598
3050.291626,-12065.356855,814.226536,383.047749
3050.291964,-10732.986159,592.164754,0.000000
3050.292301,-9770.718434,-370.102971,383.047749
3050.292639,-9770.718434,-518.144159,1685.410096
3050.292976,-9622.677246,-592.164754,1915.238745
3050.293314,-9178.553681,222.061783,1608.800546
3050.293651,-9844.739029,444.123565,919.314598
3050.293989,-11473.192101,0.000000,76.609550
3050.294326,-11399.171507,-666.185348,-1072.533697
3050.294664,-10658.965565,-2368.659014,0.000000
3050.295001,-8956.491898,-1258.350101,76.609550
3050.295339,-8734.430116,-1036.288319,689.485948
3050.295676,-9918.759623,-814.226536,229.828649
3050.296014,-10436.903782,-1776.494261,-383.047749
3050.296351,-11843.295072,-2220.617826,919.314598
3050.296689,-11325.150913,-1184.329507,536.266849
3050.297026,-9770.718434,-962.267725,1455.581446
3050.297364,-8290.306550,-2072.576638,2145.067394
3050.297701,-9474.636058,-1554.432478,2987.772442
3050.298039,-10140.821405,-666.185348,2681.334243
3050.298376,-10510.924376,2294.638420,1378.971896
3050.298714,-11473.192101,1702.473667,919.314598
3050.299051,-11843.295072,1110.308913,76.609550
3050.299389,-10732.986159,888.247130,76.609550
3050.299726,-9252.574275,1628.453072,1455.581446
3050.300064,-8216.285956,2220.617826,1532.190996
3050.300401,-9104.533087,2072.576638,1378.971896
3050.300739,-10362.883188,1184.329507,-306.438199
3050.301076,-10881.027347,962.267725,-459.657299
3050.301414,-9770.718434,1998.556043,-383.047749
3050.301751,-9918.759623,1406.391290,-383.047749
3050.302089,-10881.027347,1110.308913,-995.924147
3050.302426,-9178.553681,370.102971,-2681.334243
3050.302764,-8216.285956,-370.102971,-2757.943793
3050.303101,-8216.285956,222.061783,-1455.581446
3050.303439,-8882.471304,-222.061783,-995.924147
3050.303776,-11177.109724,-1258.350101,-459.657299
3050.304114,-11103.089130,-2812.782580,-766.095498
3050.304451,-10584.944971,-2368.659014,306.438199
3050.304789,-10288.862594,-370.102971,1532.190996
3050.305126,-8438.347739,0.000000,842.705048
3050.305464,-9992.780217,-740.205942,0.000000
3050.305801,-11917.315666,-1332.370696,-459.657299
3050.306139,-11399.171507,-1628.453072,766.095498
3050.306476,-10362.883188,-296.082377,306.438199
3050.306814,-8438.347739,740.205942,-229.828649
3050.307151,-9622.677246,74.020594,-1762.019645
3050.307489,-11103.089130,-962.267725,-919.314598
3050.307826,-10214.842000,-1850.514855,459.657299
3050.308164,-9178.553681,74.020594,1685.410096
3050.308502,-9844.739029,740.205942,2221.676944
3050.308839,-11917.315666,-74.020594,76.609550
3050.309177,-11695.253884,-1776.494261,-919.314598
3050.309514,-9770.718434,-1258.350101,-306.438199
3050.309852,-7698.141797,-888.247130,0.000000
3050.310189,-7846.182985,-1850.514855,1072.533697
3050.310527,-9252.574275,-1480.411884,1149.143247
3050.310864,-9622.677246,-888.247130,76.609550
3050.311202,-11399.171507,0.000000,1685.410096
3050.311539,-10362.883188,2516.700203,2068.457845
3050.311877,-10214.842000,2072.576638,919.314598
3050.312214,-11843.295072,148.041188,995.924147
3050.312552,-10066.800811,0.000000,1838.629195
3050.312889,-9474.636058,1036.288319,3677.258390
3050.313227,-9030.512492,2442.679609,2987.772442
3050.313564,-8290.306550,1406.391290,1302.362347
3050.313902,-10955.047942,1332.370696,-459.657299
3050.314239,-10732.986159,666.185348,-1149.143247
3050.314577,-10066.800811,1184.329507,76.609550
3050.314914,-8956.491898,1998.556043,76.609550
3050.315252,-9104.533087,888.247130,-766.095498
3050.315589,-10658.965565,-518.144159,-1455.581446
3050.315927,-9770.718434,-2368.659014,-612.876398
3050.316264,-8438.347739,-2146.597232,1608.800546
3050.316602,-8956.491898,-1184.329507,1532.190996
3050.316939,-10584.944971,-1702.473667,0.000000
3050.317277,-11621.233289,-2886.803174,-2068.457845
3050.317614,-10362.883188,-2960.823768,-1838.629195
3050.317952,-8068.244768,-2368.659014,-766.095498
3050.318289,-8660.409521,-370.102971,-459.657299
3050.318627,-10066.800811,-888.247130,-1608.800546
3050.318964,-11621.233289,-1924.535449,-2834.553343
3050.319302,-11843.295072,-3404.947333,153.219100
3050.319639,-11029.068536,-1776.494261,1685.410096
3050.319977,-8734.430116,74.020594,2757.943793
3050.320314,-9696.697840,666.185348,2757.943793
3050.320652,-11843.295072,-296.082377,1532.190996
3050.320989,-11473.192101,-518.144159,1378.971896
3050.321327,-10288.862594,1332.370696,1455.581446
3050.321664,-10955.047942,2812.782580,306.438199
3050.322002,-10658.965565,2442.679609,-1838.629195
3050.322339,-11325.150913,1258.350101,-3064.381992
3050.322677,-9252.574275,888.247130,-2987.772442
3050.323014,-7624.121203,518.144159,-1225.752797
3050.323352,-7846.182985,1258.350101,612.876398
3050.323689,-9252.574275,888.247130,-229.828649
3050.324027,-11695.253884,-888.247130,-306.438199
3050.324364,-11103.089130,-518.144159,1149.143247
3050.324702,-9622.677246,740.205942,2298.286494
3050.325039,-8438.347739,2072.576638,1455.581446
3050.325377,-9030.512492,518.144159,1455.581446
3050.325715,-11399.171507,-1184.329507,536.266849
3050.326052,-9844.739029,-962.267725,-459.657299
3050.326390,-8438.347739,74.020594,766.095498
3050.326727,-9178.553681,370.102971,1532.190996
3050.327065,-10214.842000,740.205942,-459.657299
3050.327402,-10436.903782,-296.082377,-306.438199
3050.327740,-10214.842000,0.000000,1072.533697
3050.328077,-9252.574275,370.102971,2451.505594
3050.328415,-9992.780217,518.144159,2451.505594
3050.328752,-11991.336260,-518.144159,689.485948
3050.329090,-12139.377449,-2146.597232,842.705048
3050.329427,-9844.739029,-2294.638420,1072.533697
3050.329765,-9030.512492,-1850.514855,2298.286494
3050.330102,-9104.533087,-1332.370696,1378.971896
3050.330440,-9474.636058,-1480.411884,-1225.752797
3050.330777,-11177.109724,-2368.659014,-1608.800546
3050.331115,-11621.233289,-2368.659014,-1072.533697
3050.331452,-10140.821405,-740.205942,-1072.533697
3050.331790,-10732.986159,-1406.391290,0.000000
3050.332127,-10955.047942,-1628.453072,-919.314598
3050.332465,-9474.636058,-3108.864956,-153.219100
3050.332802,-8216.285956,-2368.659014,1915.238745
3050.333140,-7476.080014,-1184.329507,3140.991542
3050.333477,-10214.842000,-296.082377,3217.601092
3050.333815,-12657.521608,1332.370696,612.876398
3050.334152,-13471.748144,222.061783,76.609550
3050.334490,-10955.047942,1702.473667,153.219100
3050.334827,-7179.997637,2220.617826,919.314598
3050.335165,-8216.285956,2664.741391,842.705048
3050.335502,-9770.718434,1776.494261,-1532.190996
3050.335840,-10436.903782,1184.329507,-2145.067394
3050.336177,-9622.677246,888.247130,-1915.238745
3050.336515,-7846.182985,962.267725,383.047749
3050.336852,-8734.430116,1702.473667,383.047749
3050.337190,-11843.295072,814.226536,306.438199
3050.337527,-11917.315666,-222.061783,-1915.238745
3050.337865,-9696.697840,592.164754,-1838.629195
3050.338202,-8586.388927,740.205942,459.657299
3050.338540,-8808.450710,74.020594,76.609550
3050.338877,-10214.842000,-740.205942,-1532.190996
3050.339215,-11621.233289,-2072.576638,-1838.629195
3050.339552,-9474.636058,-2368.659014,-1225.752797
3050.339890,-8142.265362,-1776.494261,1072.533697
3050.340227,-10140.821405,-1258.350101,2374.896044
3050.340565,-10955.047942,-444.123565,1302.362347
3050.340902,-11843.295072,-666.185348,995.924147
3050.341240,-11473.192101,0.000000,2145.067394
3050.341577,-9622.677246,222.061783,1991.848295
3050.341915,-10658.965565,-814.226536,995.924147
3050.342252,-11103.089130,-1702.473667,842.705048
3050.342590,-11177.109724,-1332.370696,-612.876398
3050.342927,-9252.574275,74.020594,0.000000
3050.343265,-7624.121203,74.020594,153.219100
3050.343603,-8734.430116,-592.164754,842.705048
3050.343940,-10955.047942,-1110.308913,766.095498
3050.344278,-11843.295072,0.000000,-153.219100
3050.344615,-10955.047942,222.061783,766.095498
3050.344953,-9844.739029,-296.082377,-229.828649
3050.345290,-8512.368333,-666.185348,-1072.533697
3050.345628,-8956.491898,-2072.576638,-153.219100
3050.345965,-9252.574275,-1702.473667,1378.971896
3050.346303,-8586.388927,-740.205942,1532.190996
3050.346640,-9844.739029,592.164754,1608.800546
3050.346978,-11547.212695,962.267725,612.876398
3050.347315,-11695.253884,0.000000,536.266849
3050.347653,-11325.150913,740.205942,536.266849
3050.347990,-8364.327145,814.226536,2451.505594
3050.348328,-9030.512492,1628.453072,2757.943793
3050.348665,-9548.656652,2072.576638,919.314598
3050.349003,-11251.130318,740.205942,842.705048
3050.349340,-12065.356855,1480.411884,-536.266849
3050.349678,-9770.718434,1628.453072,-1072.533697
3050.350015,-9474.636058,1332.370696,-459.657299
3050.350353,-9400.615463,296.082377,-1915.238745
3050.350690,-9030.512492,-1184.329507,-1378.971896
3050.351028,-8290.306550,-962.267725,-995.924147
3050.351365,-8882.471304,-1184.329507,76.609550
3050.351703,-10807.006753,-962.267725,306.438199
3050.352040,-11843.295072,-2072.576638,-689.485948
3050.352378,-10732.986159,-2590.720797,-995.924147
3050.352715,-9474.636058,-2368.659014,0.000000
3050.353053,-8808.450710,-1998.556043,1072.533697
3050.353390,-8956.491898,-2072.576638,0.000000
3050.353728,-11103.089130,-2146.597232,-1608.800546
3050.354065,-11843.295072,-2072.576638,-2068.457845
3050.354403,-10807.006753,-1258.350101,-2604.724693
3050.354740,-9474.636058,-1406.391290,-229.828649
3050.355078,-9622.677246,-814.226536,612.876398
3050.355415,-10288.862594,0.000000,1149.143247
3050.355753,-11177.109724,148.041188,995.924147
3050.356090,-11843.295072,222.061783,1838.629195
3050.356428,-11399.171507,-370.102971,2681.334243
3050.356765,-11177.109724,296.082377,2528.115143
3050.357103,-11473.192101,592.164754,1302.362347
3050.357440,-10658.965565,814.226536,-153.219100
3050.357778,-7402.059420,1554.432478,-1225.752797
3050.358115,-7624.121203,740.205942,-1225.752797
3050.358453,-8956.491898,592.164754,-1149.143247
3050.358790,-11103.089130,518.144159,-1838.629195
3050.359128,-11399.171507,-666.185348,-2451.505594
3050.359465,-8586.388927,-666.185348,-919.314598
3050.359803,-8068.244768,-148.041188,1762.019645
3050.360140,-8512.368333,0.000000,2451.505594
3050.360478,-9178.553681,-740.205942,2298.286494
3050.360816,-10140.821405,-1036.288319,2374.896044
3050.361153,-10510.924376,-1036.288319,2298.286494
3050.361491,-11251.130318,74.020594,2145.067394
3050.361828,-10658.965565,592.164754,995.924147
3050.362166,-9548.656652,-296.082377,0.000000
3050.362503,-9918.759623,0.000000,0.000000
3050.362841,-8290.306550,74.020594,-229.828649
3050.363178,-9326.594869,0.000000,842.705048
3050.363516,-10881.027347,0.000000,842.705048
3050.363853,-11843.295072,370.102971,1072.533697
3050.364191,-11991.336260,1110.308913,612.876398
3050.364528,-11695.253884,-888.247130,995.924147
3050.364866,-10362.883188,-1110.308913,1455.581446
3050.365203,-8882.471304,-592.164754,1378.971896
3050.365541,-10288.862594,-1924.535449,0.000000
3050.365878,-9696.697840,-1776.494261,-919.314598
3050.366216,-9918.759623,-1406.391290,-1915.238745
3050.366553,-10955.047942,-1554.432478,-2221.676944
3050.366891,-10214.842000,-1702.473667,-1762.019645
3050.367228,-8956.491898,-592.164754,-2221.676944
3050.367566,-8808.450710,-1110.308913,-1685.410096
3050.367903,-8956.491898,-2590.720797,1149.143247
3050.368241,-10732.986159,-2442.679609,1685.410096
3050.368578,-10732.986159,-2442.679609,1991.848295
3050.368916,-8882.471304,-740.205942,2987.772442
3050.369253,-10066.800811,962.267725,3524.039291
3050.369591,-11103.089130,1110.308913,2298.286494
3050.369928,-10807.006753,1110.308913,-919.314598
3050.370266,-9992.780217,1258.350101,-1302.362347
3050.370603,-9918.759623,1480.411884,-306.438199
3050.370941,-9474.636058,1924.535449,536.266849
3050.371278,-9178.553681,1554.432478,-2068.457845
3050.371616,-10732.986159,2368.659014,-2374.896044
3050.371953,-9992.780217,148.041188,-1149.143247
3050.372291,-8142.265362,0.000000,0.000000
3050.372628,-8438.347739,222.061783,1302.362347
3050.372966,-10066.800811,814.226536,-612.876398
3050.373303,-11769.274478,-666.185348,-1608.800546
3050.373641,-12213.398043,-666.185348,-842.705048
3050.373978,-9252.574275,-1480.411884,-1149.143247
3050.374316,-8512.368333,-1406.391290,459.657299
3050.374653,-8956.491898,-1332.370696,1149.143247
3050.374991,-9548.656652,-1332.370696,76.609550
3050.375328,-10362.883188,-962.267725,0.000000
3050.375666,-11103.089130,-296.082377,0.000000
3050.376003,-11621.233289,-592.164754,-306.438199
3050.376341,-10807.006753,-1480.411884,-383.047749
3050.376678,-9548.656652,-1184.329507,2757.943793
3050.377016,-10140.821405,-370.102971,3907.087040
3050.377353,-9178.553681,444.123565,2145.067394
3050.377691,-10584.944971,148.041188,1532.190996
3050.378029,-12139.377449,-1184.329507,1149.143247
3050.378366,-10658.965565,0.000000,689.485948
3050.378704,-10140.821405,-444.123565,536.266849
3050.379041,-8808.450710,148.041188,919.314598
3050.379379,-8438.347739,-370.102971,-306.438199
3050.379716,-9326.594869,-814.226536,-1608.800546
3050.380054,-9622.677246,-888.247130,-536.266849
3050.380391,-10510.924376,-1480.411884,536.266849
3050.380729,-9326.594869,-1184.329507,0.000000
3050.381066,-8216.285956,-1036.288319,0.000000
3050.381404,-9548.656652,-888.247130,1532.190996
3050.381741,-9548.656652,-2072.576638,842.705048
3050.382079,-9178.553681,-592.164754,1378.971896
3050.382416,-9770.718434,592.164754,2374.896044
3050.382754,-12065.356855,0.000000,2451.505594
3050.383091,-12361.439231,740.205942,919.314598
3050.383429,-10807.006753,-222.061783,0.000000
3050.383766,-9474.636058,888.247130,842.705048
3050.384104,-8290.306550,2516.700203,229.828649
3050.384441,-8586.388927,1702.473667,76.609550
3050.384779,-11325.150913,1110.308913,0.000000
3050.385116,-10658.965565,370.102971,-1149.143247
3050.385454,-10066.800811,2072.576638,-842.705048
3050.385791,-9992.780217,1702.473667,-1455.581446
3050.386129,-10807.006753,0.000000,-1838.629195
3050.386466,-10066.800811,-1924.535449,-2451.505594
3050.386804,-8364.327145,-2886.803174,-612.876398
3050.387141,-8068.244768,-1184.329507,536.266849
3050.387479,-9178.553681,-1036.288319,842.705048
3050.387816,-11251.130318,-888.247130,-1072.533697
3050.388154,-11547.212695,-1850.514855,-2221.676944
3050.388491,-11695.253884,-1258.350101,76.609550
3050.388829,-9548.656652,-666.185348,153.219100
3050.389166,-8956.491898,-740.205942,-536.266849
3050.389504,-10362.883188,-1628.453072,-1378.971896
3050.389841,-10288.862594,-1850.514855,-1378.971896
3050.390179,-9104.533087,-1480.411884,76.609550
3050.390516,-10066.800811,-1406.391290,1915.238745
3050.390854,-8438.347739,296.082377,1685.410096
3050.391191,-11029.068536,1036.288319,1302.362347
3050.391529,-12657.521608,814.226536,1838.629195
3050.391866,-11103.089130,222.061783,2221.676944
3050.392204,-10510.924376,888.247130,2911.162892
3050.392541,-8882.471304,1406.391290,1685.410096
3050.392879,-9918.759623,444.123565,383.047749
3050.393216,-10362.883188,-888.247130,1225.752797
3050.393554,-9400.615463,-666.185348,76.609550
3050.393891,-7624.121203,1850.514855,-766.095498
3050.394229,-9474.636058,888.247130,306.438199
3050.394566,-11029.068536,-444.123565,-1302.362347
3050.394904,-9622.677246,-2072.576638,-689.485948
3050.395241,-8808.450710,-592.164754,1762.019645
3050.395579,-8216.285956,1110.308913,3140.991542
3050.395916,-10436.903782,-222.061783,1685.410096
3050.396253,-11029.068536,-518.144159,0.000000
3050.396591,-10955.047942,-2368.659014,1378.971896
3050.396928,-9474.636058,-740.205942,2757.943793
3050.397266,-7994.224174,592.164754,2451.505594
3050.397603,-10140.821405,888.247130,689.485948
3050.397941,-11769.274478,222.061783,-1378.971896
3050.398278,-11621.233289,-296.082377,-1455.581446
3050.398616,-10288.862594,74.020594,-842.705048
3050.398953,-8068.244768,1702.473667,153.219100
3050.399291,-9474.636058,-148.041188,0.000000
3050.399628,-11029.068536,0.000000,-842.705048
3050.399965,-10955.047942,-2072.576638,-689.485948
3050.400303,-10436.903782,-592.164754,1608.800546
3050.400640,-8216.285956,-740.205942,1072.533697
3050.400978,-11103.089130,-1258.350101,0.000000
3050.401315,-11621.233289,-1998.556043,-1762.019645
3050.401653,-9992.780217,-2442.679609,-1762.019645
3050.401990,-9474.636058,-1406.391290,-995.924147
3050.402328,-8512.368333,-1406.391290,-1455.581446
3050.402665,-10066.800811,222.061783,-2298.286494
3050.403003,-10510.924376,-592.164754,-3217.601092
3050.403340,-9474.636058,-1998.556043,-1532.190996
3050.403678,-9474.636058,-1554.432478,1762.019645
3050.404015,-9400.615463,-666.185348,2604.724693
3050.404352,-10955.047942,-518.144159,2681.334243
3050.404690,-11547.212695,-962.267725,2987.772442
3050.405027,-10066.800811,1406.391290,3140.991542
3050.405365,-10362.883188,1480.411884,3064.381992
3050.405702,-10584.944971,2664.741391,1608.800546
3050.406040,-10362.883188,1110.308913,-1608.800546
3050.406377,-11547.212695,0.000000,-1532.190996
3050.406715,-9326.594869,444.123565,-536.266849
3050.407052,-6809.894666,2146.597232,-536.266849
3050.407390,-8216.285956,1036.288319,0.000000
3050.407727,-8364.327145,518.144159,-1302.362347
3050.408064,-10658.965565,-962.267725,536.266849
3050.408402,-11547.212695,0.000000,1225.752797
3050.408739,-10362.883188,0.000000,842.705048
3050.409077,-11103.089130,444.123565,1072.533697
3050.409414,-10436.903782,-1406.391290,-612.876398
3050.409752,-9992.780217,-1554.432478,76.609550
3050.410089,-8216.285956,-1110.308913,1378.971896
3050.410427,-7328.038826,-444.123565,1149.143247
3050.410764,-9918.759623,0.000000,0.000000
3050.411102,-13027.624579,0.000000,-1072.533697
3050.411439,-11991.336260,-444.123565,-536.266849
3050.411777,-10807.006753,-1480.411884,76.609550
3050.412114,-8956.491898,666.185348,2681.334243
3050.412451,-8512.368333,222.061783,2451.505594
3050.412789,-10732.986159,296.082377,1991.848295
3050.413126,-11103.089130,-1406.391290,1991.848295
3050.413464,-11473.192101,-1332.370696,2298.286494
3050.413801,-10807.006753,370.102971,1991.848295
3050.414139,-10436.903782,-370.102971,-612.876398
3050.414476,-9252.574275,74.020594,-1991.848295
3050.414814,-9400.615463,-2146.597232,-536.266849
3050.415151,-7920.203579,-296.082377,-919.314598
3050.415489,-7254.018232,814.226536,-1455.581446
3050.415826,-10510.924376,148.041188,-1685.410096
3050.416163,-11473.192101,-1036.288319,-2298.286494
3050.416501,-10955.047942,-1480.411884,-1608.800546
3050.416838,-9548.656652,-370.102971,1302.362347
3050.417176,-8290.306550,-962.267725,1685.410096
3050.417513,-9548.656652,-444.123565,919.314598
3050.417851,-10288.862594,-1702.473667,1225.752797
3050.418188,-11695.253884,-1924.535449,3217.601092
3050.418526,-9252.574275,0.000000,2681.334243
3050.418863,-9178.553681,666.185348,1532.190996
3050.419201,-10362.883188,1110.308913,76.609550
3050.419538,-9622.677246,444.123565,-1532.190996
3050.419876,-9918.759623,814.226536,-766.095498
3050.420213,-10140.821405,1998.556043,306.438199
3050.420550,-10881.027347,1184.329507,383.047749
3050.420888,-11029.068536,2442.679609,-2145.067394
3050.421225,-10584.944971,1036.288319,-3064.381992
3050.421563,-10288.862594,74.020594,-1302.362347
3050.421900,-9252.574275,-1628.453072,-229.828649
3050.422238,-8882.471304,-1406.391290,0.000000
3050.422575,-9770.718434,-444.123565,-689.485948
3050.422913,-11695.253884,-2516.700203,-612.876398
3050.423250,-11399.171507,-2294.638420,919.314598
3050.423588,-10288.862594,-1480.411884,1532.190996
3050.423925,-10658.965565,-148.041188,2221.676944
3050.424262,-10436.903782,-296.082377,-1302.362347
3050.424600,-9548.656652,-2738.761985,-1225.752797
3050.424937,-9622.677246,-3552.988522,-153.219100
3050.425275,-7624.121203,-1850.514855,306.438199
3050.425612,-8512.368333,-962.267725,919.314598
3050.425950,-10140.821405,-814.226536,-612.876398
3050.426287,-9770.718434,-444.123565,-536.266849
3050.426625,-9844.739029,444.123565,1302.362347
3050.426962,-9770.718434,1406.391290,3294.210641
3050.427300,-10584.944971,518.144159,3064.381992
3050.427637,-12139.377449,1184.329507,1915.238745
3050.427975,-10658.965565,148.041188,2528.115143
3050.428312,-10362.883188,888.247130,2221.676944
3050.428649,-9474.636058,962.267725,1685.410096
3050.428987,-9918.759623,814.226536,229.828649
3050.429324,-9992.780217,1554.432478,-2145.067394
3050.429662,-9844.739029,592.164754,-2528.115143
3050.429999,-10732.986159,222.061783,-1225.752797
3050.430337,-8882.471304,296.082377,-1225.752797
3050.430674,-9696.697840,444.123565,536.266849
3050.431012,-10362.883188,740.205942,689.485948
3050.431349,-9918.759623,0.000000,919.314598
3050.431687,-10436.903782,74.020594,2145.067394
3050.432024,-10066.800811,-222.061783,2451.505594
3050.432361,-9622.677246,-518.144159,1915.238745
3050.432699,-10584.944971,-370.102971,1532.190996
3050.433036,-9548.656652,-1110.308913,842.705048
3050.433374,-8734.430116,814.226536,766.095498
3050.433711,-8216.285956,518.144159,-383.047749
3050.434049,-8956.491898,0.000000,-1302.362347
3050.434386,-10288.862594,0.000000,-1838.629195
3050.434724,-10066.800811,-148.041188,-919.314598
3050.435061,-9030.512492,0.000000,76.609550
3050.435399,-9326.594869,-370.102971,842.705048
3050.435736,-10807.006753,-592.164754,1072.533697
3050.436074,-11621.233289,-1406.391290,229.828649
3050.436411,-11473.192101,-1258.350101,0.000000
3050.436748,-9696.697840,-1406.391290,383.047749
3050.437086,-10732.986159,-1332.370696,76.609550
3050.437423,-9844.739029,370.102971,-1302.362347
3050.437761,-10510.924376,-370.102971,-1225.752797
3050.438098,-11399.171507,222.061783,-1378.971896
3050.438436,-11325.150913,0.000000,-2221.676944
3050.438773,-11399.171507,-740.205942,-1915.238745
3050.439111,-9104.533087,-1184.329507,536.266849
3050.439448,-8364.327145,-2146.597232,2145.067394
3050.439786,-10436.903782,-888.247130,4290.134789
3050.440123,-9696.697840,222.061783,3983.696590
3050.440460,-10732.986159,222.061783,3064.381992
3050.440798,-12657.521608,740.205942,2681.334243
3050.441135,-10362.883188,888.247130,459.657299
3050.441473,-9400.615463,1406.391290,306.438199
3050.441810,-8142.265362,222.061783,229.828649
3050.442148,-7920.203579,1110.308913,-1225.752797
3050.442485,-7772.162391,1332.370696,-1991.848295
3050.442823,-8512.368333,-370.102971,-1838.629195
3050.443160,-8734.430116,74.020594,-919.314598
3050.443498,-9918.759623,222.061783,76.609550
3050.443835,-10288.862594,0.000000,-76.609550
3050.444173,-10288.862594,-1184.329507,229.828649
3050.444510,-10732.986159,-370.102971,919.314598
3050.444847,-11177.109724,-1554.432478,153.219100
3050.445185,-10140.821405,-296.082377,1072.533697
3050.445522,-9844.739029,-740.205942,536.266849
3050.445860,-10881.027347,-1554.432478,1149.143247
3050.446197,-10510.924376,-1776.494261,383.047749
3050.446535,-10140.821405,-296.082377,0.000000
3050.446872,-10584.944971,-444.123565,-306.438199
3050.447210,-11695.253884,-296.082377,-1149.143247
3050.447547,-11029.068536,-296.082377,-229.828649
3050.447885,-9474.636058,-444.123565,1455.581446
3050.448222,-9400.615463,-962.267725,2834.553343
3050.448560,-10510.924376,-222.061783,2145.067394
3050.448897,-11843.295072,-222.061783,612.876398
3050.449234,-10584.944971,-740.205942,229.828649
3050.449572,-9252.574275,-1850.514855,536.266849
3050.449909,-9104.533087,-740.205942,459.657299
3050.450247,-8956.491898,-1850.514855,-383.047749
3050.450584,-8290.306550,-740.205942,-842.705048
3050.450922,-8956.491898,-814.226536,-919.314598
3050.451259,-9992.780217,-666.185348,-1225.752797
3050.451597,-9474.636058,0.000000,-1149.143247
3050.451934,-10214.842000,0.000000,-842.705048
3050.452272,-11177.109724,-592.164754,-536.266849
3050.452609,-9992.780217,-962.267725,-689.485948
3050.452946,-8808.450710,-962.267725,612.876398
3050.453284,-8660.409521,-1480.411884,3217.601092
3050.453621,-9178.553681,-1258.350101,2757.943793
3050.453959,-11029.068536,1184.329507,3064.381992
3050.454296,-13175.665768,1998.556043,2374.896044
3050.454634,-12583.501014,2368.659014,842.705048
3050.454971,-11177.109724,1850.514855,0.000000
3050.455309,-9992.780217,2516.700203,536.266849
3050.455646,-9696.697840,1850.514855,1149.143247
3050.455984,-9918.759623,1406.391290,0.000000
3050.456321,-9548.656652,2072.576638,-1532.190996
3050.456659,-10732.986159,296.082377,-2068.457845
3050.456996,-10955.047942,444.123565,-1915.238745
3050.457333,-9400.615463,-296.082377,-2221.676944
3050.457671,-8216.285956,-296.082377,-1378.971896
3050.458008,-6661.853478,-888.247130,-842.705048
3050.458346,-8808.450710,-1184.329507,689.485948
3050.458683,-10732.986159,-2368.659014,1225.752797
3050.459021,-11621.233289,-3404.947333,2145.067394
3050.459358,-11399.171507,-1850.514855,2604.724693
3050.459696,-9252.574275,222.061783,1302.362347
3050.460033,-8364.327145,-1332.370696,766.095498
3050.460371,-9622.677246,-2072.576638,1378.971896
3050.460708,-8068.244768,-2072.576638,153.219100
3050.461045,-9400.615463,74.020594,536.266849
3050.461383,-11325.150913,444.123565,306.438199
3050.461720,-12139.377449,1184.329507,-536.266849
3050.462058,-12139.377449,888.247130,-306.438199
3050.462395,-10658.965565,444.123565,1532.190996
3050.462733,-8956.491898,2072.576638,2451.505594
3050.463070,-9696.697840,1184.329507,2681.334243
3050.463408,-12213.398043,0.000000,2298.286494
3050.463745,-12953.603985,0.000000,1072.533697
3050.464083,-11547.212695,444.123565,1225.752797
3050.464420,-11251.130318,296.082377,1149.143247
3050.464758,-9252.574275,1332.370696,-689.485948
3050.465095,-7772.162391,666.185348,-3447.429741
3050.465432,-8364.327145,-962.267725,-2451.505594
3050.465770,-8586.388927,-2220.617826,-459.657299
3050.466107,-9770.718434,-148.041188,229.828649
3050.466445,-9992.780217,518.144159,-995.924147
3050.466782,-9548.656652,-1036.288319,-1532.190996
3050.467120,-9844.739029,-592.164754,612.876398
3050.467457,-8364.327145,-2442.679609,2757.943793
3050.467795,-7550.100608,-888.247130,2987.772442
3050.468132,-9030.512492,0.000000,2911.162892
3050.468470,-12657.521608,-592.164754,612.876398
3050.468807,-12139.377449,-1036.288319,-1455.581446
3050.469144,-10658.965565,-888.247130,306.438199
3050.469482,-8438.347739,370.102971,459.657299
3050.469819,-7624.121203,740.205942,-1225.752797
3050.470157,-9770.718434,0.000000,-1991.848295
3050.470494,-10362.883188,-592.164754,-1532.190996
3050.470832,-10436.903782,-814.226536,-766.095498
3050.471169,-10807.006753,1036.288319,-612.876398
3050.471507,-11251.130318,296.082377,-689.485948
3050.471844,-12139.377449,-888.247130,-919.314598
3050.472182,-9992.780217,-1702.473667,-1225.752797
3050.472519,-9400.615463,-1776.494261,1072.533697
3050.472857,-9326.594869,-962.267725,1762.019645
3050.473194,-10584.944971,-1258.350101,153.219100
3050.473531,-12287.418637,-1184.329507,-2298.286494
3050.473869,-11103.089130,-1776.494261,-1378.971896
3050.474206,-9474.636058,-814.226536,76.609550
3050.474544,-7550.100608,222.061783,459.657299
3050.474881,-8290.306550,-1702.473667,1762.019645
3050.475219,-10066.800811,-1258.350101,1991.848295
3050.475556,-10584.944971,-1406.391290,2911.162892
3050.475894,-10066.800811,296.082377,4519.963438
3050.476231,-10362.883188,1628.453072,4060.306139
3050.476569,-10732.986159,666.185348,2681.334243
3050.476906,-11325.150913,296.082377,919.314598
3050.477243,-9622.677246,74.020594,1532.190996
3050.477581,-7772.162391,1258.350101,1685.410096
3050.477918,-7846.182985,2294.638420,612.876398
3050.478256,-10955.047942,444.123565,-1608.800546
3050.478593,-10881.027347,444.123565,-2911.162892
3050.478931,-9252.574275,-370.102971,-1225.752797
3050.479268,-9252.574275,222.061783,1072.533697
3050.479606,-8512.368333,888.247130,0.000000
3050.479943,-10436.903782,-296.082377,-459.657299
3050.480281,-13323.706956,-1776.494261,-306.438199
3050.480618,-11029.068536,-2294.638420,536.266849
3050.480956,-10288.862594,-1184.329507,1455.581446
3050.481293,-8438.347739,-888.247130,1532.190996
3050.481630,-9474.636058,-2220.617826,153.219100
3050.481968,-10807.006753,-2072.576638,612.876398
3050.482305,-9918.759623,-740.205942,459.657299
3050.482643,-10140.821405,1110.308913,0.000000
3050.482980,-10955.047942,1406.391290,-1149.143247
3050.483318,-11547.212695,-296.082377,-2681.334243
3050.483655,-9992.780217,-1480.411884,-919.314598
3050.483993,-8142.265362,-1036.288319,1838.629195
3050.484330,-8068.244768,814.226536,1532.190996
3050.484668,-9622.677246,1110.308913,0.000000
3050.485005,-11695.253884,-518.144159,-2068.457845
3050.485342,-11695.253884,-1924.535449,-1915.238745
3050.485680,-9104.533087,-814.226536,0.000000
3050.486017,-7846.182985,962.267725,689.485948
3050.486355,-10214.842000,222.061783,459.657299
3050.486692,-11103.089130,-444.123565,-1915.238745
3050.487030,-10881.027347,-1036.288319,-1991.848295
3050.487367,-9548.656652,-1258.350101,612.876398
3050.487705,-9030.512492,0.000000,1762.019645
3050.488042,-10066.800811,-370.102971,306.438199
3050.488380,-10881.027347,-444.123565,-1838.629195
3050.488717,-9178.553681,-2886.803174,-766.095498
3050.489055,-8956.491898,-666.185348,3830.477490
3050.489392,-8808.450710,1258.350101,3140.991542
3050.489729,-11917.315666,962.267725,2374.896044
3050.490067,-13841.851115,962.267725,842.705048
3050.490404,-10881.027347,0.000000,766.095498
3050.490742,-9844.739029,814.226536,2757.943793
3050.491079,-8438.347739,1776.494261,2911.162892
3050.491417,-9622.677246,1406.391290,383.047749
3050.491754,-11547.212695,-148.041188,-2068.457845
3050.492092,-10140.821405,-666.185348,-1072.533697
3050.492429,-8290.306550,-222.061783,919.314598
3050.492767,-8808.450710,592.164754,536.266849
3050.493104,-9622.677246,296.082377,-2298.286494
3050.493441,-10140.821405,-1480.411884,-3524.039291
3050.493779,-9622.677246,-2664.741391,-306.438199
3050.494116,-8808.450710,-2368.659014,1685.410096
3050.494454,-9030.512492,-592.164754,3447.429741
3050.494791,-11991.336260,-962.267725,2757.943793
3050.495129,-11769.274478,-1850.514855,-229.828649
3050.495466,-10807.006753,-2072.576638,766.095498
3050.495803,-10066.800811,-962.267725,2068.457845
3050.496141,-8586.388927,-1406.391290,1762.019645
3050.496478,-9252.574275,-1110.308913,0.000000
3050.496816,-10288.862594,0.000000,-919.314598
3050.497153,-10362.883188,-222.061783,-229.828649
3050.497490,-10807.006753,518.144159,689.485948
3050.497828,-10584.944971,2368.659014,0.000000
3050.498165,-10955.047942,1184.329507,-1225.752797
3050.498503,-10214.842000,222.061783,-1225.752797
3050.498840,-9326.594869,-296.082377,1072.533697
3050.499177,-10214.842000,0.000000,2451.505594
3050.499515,-9548.656652,444.123565,383.047749
3050.499852,-10510.924376,0.000000,-842.705048
3050.500190,-11251.130318,-370.102971,-1225.752797
3050.500527,-9696.697840,-1036.288319,-1532.190996
3050.500864,-8512.368333,-370.102971,-1302.362347
3050.501202,-9178.553681,0.000000,-1915.238745
3050.501539,-9844.739029,0.000000,-1455.581446
3050.501877,-10436.903782,-1554.432478,-1378.971896
3050.502214,-9326.594869,-666.185348,306.438199
3050.502551,-9252.574275,370.102971,2451.505594
3050.502889,-11325.150913,0.000000,1225.752797
3050.503226,-11103.089130,-222.061783,-612.876398
3050.503564,-9622.677246,-2294.638420,689.485948
3050.503901,-9844.739029,-1332.370696,3370.820191
3050.504238,-9326.594869,1258.350101,2145.067394
3050.504576,-10066.800811,1554.432478,383.047749
3050.504913,-10807.006753,0.000000,-153.219100
3050.505251,-10658.965565,-814.226536,-229.828649
3050.505588,-10658.965565,888.247130,-229.828649
3050.505926,-8956.491898,1184.329507,76.609550
3050.506263,-9030.512492,0.000000,0.000000
3050.506600,-10658.965565,-962.267725,-766.095498
3050.506938,-10658.965565,-1258.350101,-612.876398
3050.507275,-9400.615463,-1332.370696,536.266849
3050.507613,-9104.533087,-444.123565,1608.800546
3050.507950,-10436.903782,-1258.350101,612.876398
3050.508287,-11843.295072,-1480.411884,-612.876398
3050.508625,-9992.780217,-2072.576638,689.485948
3050.508962,-8660.409521,-962.267725,1225.752797
3050.509300,-8808.450710,1110.308913,1685.410096
3050.509637,-11621.233289,814.226536,-306.438199
3050.509974,-11843.295072,-740.205942,-1378.971896
3050.510312,-10288.862594,-1776.494261,153.219100
3050.510649,-8734.430116,-1554.432478,2987.772442
3050.510987,-9326.594869,888.247130,5209.449386
3050.511324,-10288.862594,1702.473667,3983.696590
3050.511661,-11621.233289,1554.432478,766.095498
3050.511999,-12139.377449,888.247130,-306.438199
3050.512336,-10214.842000,814.226536,229.828649
3050.512674,-9252.574275,1776.494261,1455.581446
3050.513011,-9770.718434,888.247130,-1072.533697
3050.513348,-10066.800811,-222.061783,-2145.067394
3050.513686,-9030.512492,74.020594,-1532.190996
3050.514023,-8068.244768,518.144159,76.609550
3050.514361,-9400.615463,296.082377,-1072.533697
3050.514698,-10584.944971,-1184.329507,-2298.286494
3050.515035,-10140.821405,-1628.453072,-1302.362347
3050.515373,-10066.800811,-1998.556043,229.828649
3050.515710,-9104.533087,-1110.308913,1302.362347
3050.516048,-8882.471304,-1480.411884,459.657299
3050.516385,-10658.965565,-1702.473667,-842.705048
3050.516723,-10288.862594,-1850.514855,-1532.190996
3050.517060,-10658.965565,-2368.659014,0.000000
3050.517397,-9696.697840,-1332.370696,1838.629195
3050.517735,-9252.574275,-1184.329507,1149.143247
3050.518072,-10214.842000,962.267725,-536.266849
3050.518410,-10658.965565,666.185348,-1455.581446
3050.518747,-11695.253884,296.082377,153.219100
3050.519084,-10955.047942,0.000000,76.609550
3050.519422,-11177.109724,0.000000,536.266849
3050.519759,-10288.862594,370.102971,1455.581446
3050.520097,-9474.636058,0.000000,383.047749
3050.520434,-9104.533087,-370.102971,0.000000
3050.520771,-9326.594869,-666.185348,-612.876398
3050.521109,-10807.006753,-740.205942,-1302.362347
3050.521446,-10066.800811,0.000000,-2298.286494
3050.521784,-9400.615463,0.000000,-612.876398
3050.522121,-8808.450710,-518.144159,995.924147
3050.522458,-10140.821405,-1184.329507,1378.971896
3050.522796,-9992.780217,-518.144159,76.609550
3050.523133,-10732.986159,-666.185348,842.705048
3050.523471,-10658.965565,-1850.514855,2374.896044
3050.523808,-8956.491898,-1480.411884,1378.971896
3050.524145,-8808.450710,-1258.350101,1991.848295
3050.524483,-9548.656652,-518.144159,2451.505594
3050.524820,-10288.862594,-1554.432478,2374.896044
3050.525158,-10140.821405,740.205942,1532.190996
3050.525495,-9844.739029,1480.411884,995.924147
3050.525832,-10584.944971,370.102971,1532.190996
3050.526170,-10510.924376,1480.411884,766.095498
3050.526507,-10066.800811,666.185348,1149.143247
3050.526845,-9918.759623,1258.350101,919.314598
3050.527182,-9992.780217,814.226536,919.314598
3050.527520,-11399.171507,-666.185348,766.095498
3050.527857,-10955.047942,0.000000,-1072.533697
3050.528194,-10140.821405,-1036.288319,-459.657299
3050.528532,-9474.636058,0.000000,-383.047749
3050.528869,-8734.430116,-518.144159,-1762.019645
3050.529207,-9622.677246,-592.164754,-2298.286494
3050.529544,-10066.800811,-1184.329507,-2987.772442
3050.529881,-8512.368333,-1258.350101,-1915.238745
3050.530219,-10066.800811,-1184.329507,306.438199
3050.530556,-10658.965565,-1924.535449,1455.581446
3050.530894,-10584.944971,-1406.391290,1302.362347
3050.531231,-10807.006753,-962.267725,1149.143247
3050.531568,-10140.821405,-296.082377,1302.362347
3050.531906,-9770.718434,-1332.370696,1225.752797
3050.532243,-8586.388927,0.000000,1072.533697
3050.532581,-9252.574275,1036.288319,0.000000
3050.532918,-11399.171507,518.144159,0.000000
3050.533255,-10955.047942,1036.288319,-842.705048
3050.533593,-9252.574275,1110.308913,-1838.629195
3050.533930,-9770.718434,2516.700203,-919.314598
3050.534268,-9770.718434,1850.514855,-1302.362347
3050.534605,-9622.677246,814.226536,306.438199
3050.534942,-10881.027347,-370.102971,0.000000
3050.535280,-10140.821405,1258.350101,306.438199
3050.535617,-10436.903782,0.000000,306.438199
3050.535955,-10807.006753,-1184.329507,459.657299
3050.536292,-9548.656652,-1332.370696,0.000000
3050.536629,-9252.574275,-740.205942,0.000000
3050.536967,-8660.409521,296.082377,306.438199
3050.537304,-9992.780217,-1332.370696,-229.828649
3050.537642,-11251.130318,-888.247130,0.000000
3050.537979,-9992.780217,-740.205942,0.000000
3050.538317,-10436.903782,-222.061783,1762.019645
3050.538654,-8882.471304,222.061783,612.876398
3050.538991,-9326.594869,-1110.308913,689.485948
3050.539329,-9844.739029,-888.247130,2298.286494
3050.539666,-9400.615463,-1036.288319,1838.629195
3050.540004,-10362.883188,-222.061783,3294.210641
3050.540341,-10658.965565,888.247130,1762.019645
3050.540678,-9622.677246,-148.041188,229.828649
3050.541016,-11251.130318,296.082377,306.438199
3050.541353,-9770.718434,74.020594,-306.438199
3050.541691,-8216.285956,740.205942,0.000000
3050.542028,-9918.759623,-370.102971,766.095498
3050.542365,-10584.944971,-888.247130,-1149.143247
3050.542703,-9548.656652,-148.041188,-1225.752797
3050.543040,-10510.924376,-1406.391290,-612.876398
3050.543378,-9844.739029,-1258.350101,689.485948
3050.543715,-10140.821405,-962.267725,1149.143247
3050.544052,-11103.089130,-1258.350101,1149.143247
3050.544390,-10066.800811,-2220.617826,0.000000
3050.544727,-10436.903782,-1110.308913,2068.457845
3050.545065,-11029.068536,148.041188,1532.190996
3050.545402,-9770.718434,-592.164754,0.000000
3050.545739,-10658.965565,-740.205942,612.876398
3050.546077,-8808.450710,-814.226536,995.924147
3050.546414,-9030.512492,296.082377,2068.457845
3050.546752,-9474.636058,666.185348,1225.752797
3050.547089,-10955.047942,2072.576638,153.219100
3050.547426,-11769.274478,1036.288319,-766.095498
3050.547764,-10214.842000,740.205942,-1149.143247
3050.548101,-10066.800811,814.226536,0.000000
3050.548439,-9400.615463,1406.391290,459.657299
3050.548776,-8438.347739,444.123565,-612.876398
3050.549114,-9178.553681,-296.082377,-612.876398
3050.549451,-11621.233289,-592.164754,0.000000
3050.549788,-11177.109724,888.247130,-1302.362347
3050.550126,-10288.862594,444.123565,-2528.115143
3050.550463,-8956.491898,444.123565,-1762.019645
3050.550801,-8956.491898,-1628.453072,-1302.362347
3050.551138,-9770.718434,-1332.370696,-766.095498
3050.551475,-9918.759623,-296.082377,-995.924147
3050.551813,-10362.883188,-740.205942,-842.705048
3050.552150,-10658.965565,-1184.329507,-689.485948
3050.552488,-10658.965565,-2220.617826,-229.828649
3050.552825,-9696.697840,-1184.329507,2374.896044
3050.553162,-9252.574275,-296.082377,2298.286494
3050.553500,-8808.450710,1554.432478,1149.143247
3050.553837,-10510.924376,1332.370696,-153.219100
3050.554175,-11917.315666,0.000000,-689.485948
3050.554512,-10436.903782,-962.267725,229.828649
3050.554849,-10584.944971,-962.267725,1762.019645
3050.555187,-9104.533087,0.000000,1225.752797
3050.555524,-8734.430116,-222.061783,-995.924147
3050.555862,-9326.594869,222.061783,-612.876398
3050.556199,-10288.862594,-2072.576638,-76.609550
3050.556536,-11103.089130,-518.144159,459.657299
3050.556874,-9474.636058,222.061783,0.000000
3050.557211,-10732.986159,-370.102971,-1225.752797
3050.557549,-10807.006753,-1924.535449,459.657299
3050.557886,-9992.780217,-1776.494261,1532.190996
3050.558223,-9326.594869,-222.061783,2911.162892
3050.558561,-8142.265362,222.061783,2757.943793
3050.558898,-10955.047942,-592.164754,2451.505594
3050.559236,-12435.459826,-962.267725,2834.553343
3050.559573,-10510.924376,-2072.576638,2374.896044
3050.559911,-9622.677246,-370.102971,3524.039291
3050.560248,-9252.574275,0.000000,3294.210641
3050.560585,-9252.574275,148.041188,2145.067394
3050.560923,-8586.388927,444.123565,919.314598
3050.561260,-8882.471304,518.144159,1838.629195
3050.561598,-10732.986159,3034.844362,1225.752797
3050.561935,-11029.068536,1850.514855,0.000000
3050.562272,-11917.315666,1628.453072,-1532.190996
3050.562610,-9844.739029,370.102971,-689.485948
3050.562947,-9178.553681,148.041188,536.266849
3050.563285,-8290.306550,148.041188,306.438199
3050.563622,-9178.553681,-666.185348,-919.314598
3050.563959,-10658.965565,-370.102971,-2528.115143
3050.564297,-10362.883188,-1628.453072,-3064.381992
3050.564634,-10658.965565,-1480.411884,-1072.533697
3050.564972,-9474.636058,-740.205942,-1302.362347
3050.565309,-8586.388927,-222.061783,-2221.676944
3050.565646,-9548.656652,-222.061783,-2298.286494
3050.565984,-9844.739029,-2146.597232,-1762.019645
3050.566321,-10362.883188,-2146.597232,459.657299
3050.566659,-10214.842000,-888.247130,842.705048
3050.566996,-10807.006753,-148.041188,0.000000
3050.567333,-11769.274478,-1554.432478,-76.609550
3050.567671,-10510.924376,-1998.556043,459.657299
3050.568008,-9918.759623,-2220.617826,2911.162892
3050.568346,-9030.512492,222.061783,3600.648841
3050.568683,-10066.800811,1332.370696,536.266849
3050.569020,-11547.212695,1406.391290,-1685.410096
3050.569358,-11325.150913,222.061783,-2145.067394
3050.569695,-11547.212695,444.123565,-995.924147
3050.570033,-10066.800811,1110.308913,-153.219100
3050.570370,-8438.347739,740.205942,-2068.457845
3050.570708,-9474.636058,-296.082377,-689.485948
3050.571045,-9770.718434,-518.144159,-766.095498
3050.571382,-9474.636058,-444.123565,229.828649
3050.571720,-9474.636058,-666.185348,1532.190996
3050.572057,-10807.006753,-666.185348,1225.752797
3050.572395,-11917.315666,0.000000,1302.362347
3050.572732,-11103.089130,-2072.576638,1762.019645
3050.573069,-9104.533087,-740.205942,2757.943793
3050.573407,-7550.100608,296.082377,2604.724693
3050.573744,-9178.553681,1184.329507,2298.286494
3050.574082,-11103.089130,740.205942,1149.143247
3050.574419,-12213.398043,74.020594,-459.657299
3050.574756,-10807.006753,444.123565,1455.581446
3050.575094,-8216.285956,666.185348,1532.190996
3050.575431,-9252.574275,814.226536,1991.848295
3050.575769,-9178.553681,740.205942,1149.143247
3050.576106,-9696.697840,-814.226536,842.705048
3050.576443,-9622.677246,74.020594,2145.067394
3050.576781,-10732.986159,888.247130,1838.629195
3050.577118,-11029.068536,1628.453072,-229.828649
3050.577456,-10955.047942,-444.123565,-1302.362347
3050.577793,-11399.171507,-592.164754,-1532.190996
3050.578130,-8364.327145,-888.247130,-153.219100
3050.578468,-8512.368333,-592.164754,-612.876398
3050.578805,-9326.594869,-1184.329507,-612.876398
3050.579143,-10807.006753,-2368.659014,-1762.019645
3050.579480,-10807.006753,-1776.494261,-1762.019645
3050.579817,-11103.089130,-1702.473667,229.828649
3050.580155,-10214.842000,-814.226536,2221.676944
3050.580492,-11473.192101,-518.144159,995.924147
3050.580830,-10436.903782,-1554.432478,-153.219100
3050.581167,-8512.368333,-1850.514855,842.705048
3050.581505,-10214.842000,-1480.411884,3140.991542
3050.581842,-10658.965565,-592.164754,612.876398
3050.582179,-9400.615463,370.102971,-306.438199
3050.582517,-11473.192101,296.082377,536.266849
3050.582854,-10732.986159,444.123565,-766.095498
3050.583192,-8882.471304,1332.370696,-383.047749
3050.583529,-9178.553681,1628.453072,0.000000
3050.583866,-8956.491898,962.267725,-1378.971896
3050.584204,-11251.130318,-222.061783,-1608.800546
3050.584541,-10658.965565,-148.041188,-995.924147
3050.584879,-8808.450710,-444.123565,153.219100
3050.585216,-8586.388927,1406.391290,-766.095498
3050.585553,-9474.636058,888.247130,-1991.848295
3050.585891,-10658.965565,-1184.329507,-1455.581446
3050.586228,-9400.615463,-814.226536,-1072.533697
3050.586566,-10066.800811,222.061783,0.000000
3050.586903,-11251.130318,740.205942,0.000000
3050.587240,-10436.903782,0.000000,-1915.238745
3050.587578,-10658.965565,-1850.514855,0.000000
3050.587915,-9400.615463,-814.226536,1532.190996
3050.588253,-7772.162391,-296.082377,2374.896044
3050.588590,-9548.656652,0.000000,2451.505594
3050.588927,-11473.192101,1110.308913,459.657299
3050.589265,-13989.892304,-592.164754,383.047749
3050.589602,-12139.377449,0.000000,459.657299
3050.589940,-7846.182985,666.185348,1302.362347
3050.590277,-7550.100608,1406.391290,1991.848295
3050.590614,-8808.450710,0.000000,0.000000
3050.590952,-10288.862594,-1480.411884,-1225.752797
3050.591289,-9992.780217,-1184.329507,0.000000
3050.591627,-9918.759623,-1184.329507,306.438199
3050.591964,-11177.109724,-740.205942,689.485948
3050.592301,-10140.821405,-1480.411884,-306.438199
3050.592639,-9326.594869,-2146.597232,1302.362347
3050.592976,-8142.265362,-2368.659014,2145.067394
3050.593314,-8586.388927,-1702.473667,2987.772442
3050.593651,-9844.739029,-1480.411884,1532.190996
3050.593989,-11251.130318,-1258.350101,229.828649
3050.594326,-12435.459826,-1258.350101,0.000000
3050.594663,-10362.883188,-1258.350101,1149.143247
3050.595001,-9326.594869,-1036.288319,2221.676944
3050.595338,-8216.285956,1702.473667,1762.019645
3050.595675,-8956.491898,0.000000,1225.752797
3050.596013,-11843.295072,0.000000,612.876398
3050.596350,-11177.109724,592.164754,919.314598
3050.596687,-10436.903782,1332.370696,1149.143247
3050.597025,-10510.924376,1702.473667,536.266849
3050.597362,-10436.903782,888.247130,383.047749
3050.597699,-9992.780217,666.185348,-153.219100
3050.598037,-8290.306550,222.061783,229.828649
3050.598374,-10584.944971,1850.514855,0.000000
3050.598711,-10658.965565,1554.432478,-2681.334243
3050.599049,-10807.006753,-74.020594,-4213.525239
3050.599386,-10955.047942,-592.164754,-3064.381992
3050.599723,-8808.450710,-518.144159,-1762.019645
3050.600060,-7994.224174,-296.082377,-1225.752797
3050.600398,-8364.327145,-888.247130,-383.047749
3050.600735,-8956.491898,-1184.329507,-689.485948
3050.601072,-11399.171507,-296.082377,0.000000
3050.601410,-11103.089130,-666.185348,229.828649
3050.601747,-12065.356855,-222.061783,306.438199
3050.602084,-11399.171507,-962.267725,383.047749
3050.602422,-9844.739029,-1554.432478,0.000000
3050.602759,-8734.430116,-666.185348,1762.019645
3050.603096,-8660.409521,-1036.288319,2145.067394
3050.603434,-10436.903782,-1406.391290,1225.752797
3050.603771,-10658.965565,-1036.288319,383.047749
3050.604108,-11177.109724,-518.144159,612.876398
3050.604446,-11399.171507,1480.411884,1149.143247
3050.604783,-10214.842000,222.061783,-153.219100
3050.605120,-8734.430116,592.164754,-153.219100
3050.605458,-8512.368333,-1184.329507,153.219100
3050.605795,-10584.944971,-1480.411884,459.657299
3050.606132,-9252.574275,74.020594,-153.219100
3050.606470,-10066.800811,-148.041188,229.828649
3050.606807,-11399.171507,0.000000,842.705048
3050.607144,-10214.842000,0.000000,-306.438199
3050.607482,-9918.759623,-888.247130,76.609550
3050.607819,-7698.141797,74.020594,1608.800546
3050.608156,-9474.636058,-1184.329507,2221.676944
3050.608494,-10955.047942,-296.082377,2757.943793
3050.608831,-10510.924376,592.164754,1532.190996
3050.609168,-9992.780217,1036.288319,2374.896044
3050.609506,-9844.739029,1776.494261,1302.362347
3050.609843,-10066.800811,1184.329507,306.438199
3050.610180,-9844.739029,1258.350101,0.000000
3050.610517,-9030.512492,-148.041188,689.485948
3050.610855,-9622.677246,296.082377,1302.362347
3050.611192,-10732.986159,1258.350101,1991.848295
3050.611529,-11769.274478,1258.350101,536.266849
3050.611867,-10436.903782,0.000000,0.000000
3050.612204,-8808.450710,-518.144159,383.047749
3050.612541,-9326.594869,0.000000,919.314598
3050.612879,-9770.718434,-888.247130,536.266849
3050.613216,-10955.047942,-666.185348,-2528.115143
3050.613553,-9548.656652,-1258.350101,-4443.353888
3050.613891,-9104.533087,-1850.514855,-2145.067394
3050.614228,-9252.574275,-1776.494261,153.219100
3050.614565,-9326.594869,-2146.597232,-383.047749
3050.614903,-11029.068536,-1480.411884,-1225.752797
3050.615240,-9844.739029,-1480.411884,-1838.629195
3050.615577,-11251.130318,-2590.720797,76.609550
3050.615915,-11325.150913,-2368.659014,2451.505594
3050.616252,-10362.883188,-1776.494261,2068.457845
3050.616589,-9992.780217,-1110.308913,1915.238745
3050.616927,-9400.615463,-296.082377,1225.752797
3050.617264,-10881.027347,-888.247130,2145.067394
3050.617601,-11547.212695,740.205942,1302.362347
3050.617939,-9548.656652,1998.556043,0.000000
3050.618276,-10362.883188,2812.782580,-919.314598
3050.618613,-10955.047942,1998.556043,-306.438199
3050.618951,-10140.821405,1406.391290,229.828649
3050.619288,-8882.471304,1554.432478,766.095498
3050.619625,-8956.491898,962.267725,1685.410096
3050.619962,-10510.924376,1702.473667,995.924147
3050.620300,-10436.903782,1258.350101,-383.047749
3050.620637,-9992.780217,296.082377,153.219100
3050.620974,-8660.409521,0.000000,612.876398
3050.621312,-7994.224174,888.247130,612.876398
3050.621649,-8438.347739,1332.370696,1455.581446
3050.621986,-10140.821405,888.247130,1302.362347
3050.622324,-10362.883188,518.144159,76.609550
3050.622661,-9992.780217,2738.761985,842.705048
3050.622998,-10140.821405,1850.514855,1072.533697
3050.623336,-11695.253884,814.226536,2757.943793
3050.623673,-10436.903782,444.123565,2298.286494
3050.624010,-8660.409521,148.041188,4366.744339
3050.624348,-8290.306550,1776.494261,4903.011187
3050.624685,-9918.759623,2294.638420,5209.449386
3050.625022,-12435.459826,2590.720797,2374.896044
3050.625360,-11325.150913,1998.556043,1072.533697
3050.625697,-11029.068536,1406.391290,3447.429741
3050.626034,-10807.006753,1480.411884,4903.011187
3050.626372,-8956.491898,888.247130,2145.067394
3050.626709,-9400.615463,740.205942,919.314598
3050.627046,-9178.553681,-518.144159,689.485948
3050.627384,-9474.636058,-2220.617826,1149.143247
3050.627721,-9400.615463,-74.020594,2374.896044
3050.628058,-8808.450710,370.102971,2911.162892
3050.628396,-10807.006753,1776.494261,1838.629195
3050.628733,-11325.150913,1480.411884,536.266849
3050.629070,-10955.047942,148.041188,1991.848295
3050.629408,-9622.677246,-666.185348,4136.915689
3050.629745,-9474.636058,444.123565,4826.401637
3050.630082,-10658.965565,1554.432478,3907.087040
3050.630419,-11473.192101,2294.638420,2298.286494
3050.630757,-10658.965565,1702.473667,1608.800546
3050.631094,-9844.739029,2072.576638,2528.115143
3050.631431,-8586.388927,3108.864956,3830.477490
3050.631769,-9844.739029,3997.112087,4136.915689
3050.632106,-10584.944971,4515.256246,1991.848295
3050.632443,-10807.006753,4663.297435,536.266849
3050.632781,-11177.109724,3849.070898,1455.581446
3050.633118,-10066.800811,2812.782580,1915.238745
3050.633455,-8734.430116,2886.803174,2681.334243
3050.633793,-9030.512492,3701.029710,2145.067394
3050.634130,-10362.883188,2072.576638,0.000000
3050.634467,-11177.109724,1332.370696,-766.095498
3050.634805,-9622.677246,0.000000,0.000000
3050.635142,-7698.141797,444.123565,1302.362347
3050.635479,-9030.512492,740.205942,2604.724693
3050.635817,-10658.965565,2738.761985,2987.772442
3050.636154,-11103.089130,1924.535449,766.095498
3050.636491,-10732.986159,1480.411884,766.095498
3050.636829,-10584.944971,1110.308913,1838.629195
3050.637166,-10066.800811,1480.411884,2911.162892
3050.637503,-9696.697840,740.205942,3217.601092
3050.637841,-9400.615463,1776.494261,3753.867940
3050.638178,-11325.150913,1480.411884,3677.258390
3050.638515,-11103.089130,1628.453072,2221.676944
3050.638853,-10436.903782,1036.288319,2834.553343
3050.639190,-10658.965565,1554.432478,3753.867940
3050.639527,-9696.697840,962.267725,3294.210641
3050.639864,-9400.615463,1702.473667,3600.648841
3050.640202,-9326.594869,1998.556043,3294.210641
3050.640539,-10140.821405,2590.720797,2757.943793
3050.640876,-10584.944971,2368.659014,1149.143247
3050.641214,-10658.965565,2664.741391,689.485948
3050.641551,-10658.965565,2294.638420,383.047749
3050.641888,-9918.759623,0.000000,536.266849
3050.642226,-8438.347739,370.102971,1149.143247
3050.642563,-7772.162391,-296.082377,3140.991542
3050.642900,-9178.553681,962.267725,3524.039291
3050.643238,-9400.615463,1480.411884,2604.724693
3050.643575,-10584.944971,1850.514855,3064.381992
3050.643912,-11769.274478,2442.679609,3370.820191
3050.644250,-10732.986159,1850.514855,2451.505594
3050.644587,-10288.862594,2886.803174,4443.353888
3050.644924,-9548.656652,1850.514855,4136.915689
3050.645262,-10066.800811,2516.700203,4826.401637
3050.645599,-10436.903782,3108.864956,2681.334243
3050.645936,-9622.677246,3108.864956,1915.238745
3050.646274,-10362.883188,1628.453072,1685.410096
3050.646611,-10436.903782,2590.720797,919.314598
3050.646948,-10214.842000,2368.659014,766.095498
3050.647286,-9178.553681,1776.494261,842.705048
3050.647623,-8956.491898,1480.411884,2834.553343
3050.647960,-8956.491898,1628.453072,2834.553343
3050.648298,-10436.903782,2220.617826,3064.381992
3050.648635,-10881.027347,2368.659014,1915.238745
3050.648972,-11843.295072,740.205942,1378.971896
3050.649310,-11177.109724,-370.102971,612.876398
3050.649647,-11473.192101,-888.247130,1532.190996
3050.649984,-9844.739029,-1184.329507,1302.362347
3050.650321,-7994.224174,-962.267725,536.266849
3050.650659,-8364.327145,-1332.370696,2068.457845
3050.650996,-8734.430116,-74.020594,1532.190996
3050.651333,-9622.677246,1110.308913,3524.039291
3050.651671,-10584.944971,3330.926739,3294.210641
3050.652008,-11621.233289,3775.050304,3140.991542
3050.652345,-13397.727550,2960.823768,3983.696590
3050.652683,-12731.542202,2664.741391,3370.820191
3050.653020,-9696.697840,1184.329507,4290.134789
3050.653357,-9992.780217,1258.350101,4826.401637
3050.653695,-8734.430116,1406.391290,3907.087040
3050.654032,-9326.594869,1924.535449,1915.238745
3050.654369,-9474.636058,3182.885551,459.657299
3050.654707,-8882.471304,3330.926739,1149.143247
3050.655044,-9474.636058,4737.318029,995.924147
3050.655381,-9474.636058,5551.544565,-842.705048
3050.655719,-10658.965565,4367.215058,0.000000
3050.656056,-10658.965565,2590.720797,-612.876398
3050.656393,-10214.842000,1702.473667,1149.143247
3050.656731,-10658.965565,222.061783,2604.724693
3050.657068,-8882.471304,444.123565,3140.991542
3050.657405,-8734.430116,0.000000,3294.210641
3050.657743,-9326.594869,222.061783,2681.334243
3050.658080,-8734.430116,0.000000,3064.381992
3050.658417,-9474.636058,2442.679609,2834.553343
3050.658755,-9252.574275,3552.988522,3140.991542
3050.659092,-10955.047942,4441.235652,3370.820191
3050.659429,-12953.603985,4811.338623,3217.601092
3050.659766,-12805.562797,4589.276840,766.095498
3050.660104,-11621.233289,2886.803174,1149.143247
3050.660441,-10362.883188,518.144159,3140.991542
3050.660778,-8882.471304,-1110.308913,3370.820191
3050.661116,-8142.265362,-296.082377,3064.381992
3050.661453,-7994.224174,296.082377,2834.553343
3050.661790,-9252.574275,1258.350101,2374.896044
3050.662128,-11177.109724,2738.761985,1072.533697
3050.662465,-10807.006753,3775.050304,383.047749
3050.662802,-10807.006753,3775.050304,1455.581446
3050.663140,-11547.212695,1628.453072,2145.067394
3050.663477,-11843.295072,1480.411884,2374.896044
3050.663814,-10288.862594,518.144159,383.047749
3050.664152,-9326.594869,-962.267725,2528.115143
3050.664489,-8586.388927,-2146.597232,4060.306139
3050.664826,-8364.327145,-1924.535449,5592.497135
3050.665164,-7994.224174,740.205942,5056.230287
3050.665501,-8142.265362,1850.514855,3830.477490
3050.665838,-11029.068536,3034.844362,2911.162892
3050.666176,-12509.480420,3923.091493,2221.676944
3050.666513,-12361.439231,5033.400406,3370.820191
3050.666850,-10732.986159,4737.318029,3600.648841
3050.667188,-9918.759623,4071.132681,2374.896044
3050.667525,-11769.274478,2220.617826,2987.772442
3050.667862,-9918.759623,814.226536,1225.752797
3050.668200,-7402.059420,370.102971,2987.772442
3050.668537,-7328.038826,1702.473667,3983.696590
3050.668874,-8882.471304,3256.906145,2451.505594
3050.669212,-11251.130318,3330.926739,0.000000
3050.669549,-11325.150913,3256.906145,-1991.848295
3050.669886,-10214.842000,2738.761985,-1762.019645
3050.670223,-10584.944971,2294.638420,689.485948
3050.670561,-9548.656652,1850.514855,1455.581446
3050.670898,-9770.718434,1110.308913,1685.410096
3050.671235,-10584.944971,222.061783,2068.457845
3050.671573,-10362.883188,-888.247130,1225.752797
3050.671910,-9474.636058,-1702.473667,2298.286494
3050.672247,-8734.430116,-1258.350101,2681.334243
3050.672585,-8808.450710,-888.247130,3370.820191
3050.672922,-10362.883188,740.205942,3600.648841
3050.673259,-10436.903782,2294.638420,2757.943793
3050.673597,-10732.986159,3404.947333,2221.676944
3050.673934,-11251.130318,4145.153275,2757.943793
3050.674271,-12361.439231,3849.070898,2987.772442
3050.674609,-11843.295072,2812.782580,2604.724693
3050.674946,-10955.047942,1258.350101,2911.162892
3050.675283,-9474.636058,1110.308913,3753.867940
3050.675621,-9030.512492,370.102971,2834.553343
3050.675958,-8956.491898,1480.411884,3524.039291
3050.676295,-9030.512492,1406.391290,2068.457845
3050.676633,-9770.718434,2590.720797,1302.362347
3050.676970,-10658.965565,4071.132681,0.000000
3050.677307,-10955.047942,3552.988522,383.047749
3050.677645,-10807.006753,3330.926739,383.047749
3050.677982,-9770.718434,2812.782580,1149.143247
3050.678319,-9918.759623,2442.679609,2834.553343
3050.678657,-9696.697840,370.102971,3524.039291
3050.678994,-8660.409521,370.102971,3217.601092
3050.679331,-9474.636058,222.061783,4213.525239
3050.679668,-9770.718434,888.247130,3753.867940
3050.680006,-9474.636058,2368.659014,2604.724693
3050.680343,-10881.027347,2368.659014,1838.629195
3050.680680,-9992.780217,3404.947333,1149.143247
3050.681018,-10436.903782,3627.009116,1455.581446
3050.681355,-10140.821405,3478.967927,919.314598
3050.681692,-9548.656652,3182.885551,842.705048
3050.682030,-10066.800811,1850.514855,1608.800546
3050.682367,-9548.656652,1406.391290,1149.143247
3050.682704,-9326.594869,1110.308913,1149.143247
3050.683042,-9696.697840,814.226536,2068.457845
3050.683379,-10362.883188,0.000000,1685.410096
3050.683716,-10140.821405,296.082377,919.314598
3050.684054,-10584.944971,592.164754,1225.752797
3050.684391,-9844.739029,296.082377,995.924147
3050.684728,-10362.883188,0.000000,1838.629195
3050.685066,-10658.965565,444.123565,1149.143247
3050.685403,-10288.862594,0.000000,1608.800546
3050.685740,-9918.759623,-296.082377,2298.286494
3050.686078,-9474.636058,-518.144159,2834.553343
3050.686415,-9548.656652,-518.144159,4136.915689
3050.686752,-9474.636058,444.123565,5745.716235
3050.687090,-9992.780217,2368.659014,5745.716235
3050.687427,-11325.150913,2368.659014,5286.058936
3050.687764,-11547.212695,3923.091493,4903.011187
3050.688102,-11695.253884,3108.864956,4903.011187
3050.688439,-11103.089130,3108.864956,4826.401637
3050.688776,-9844.739029,2960.823768,3677.258390
3050.689114,-9696.697840,2294.638420,4903.011187
3050.689451,-8734.430116,3256.906145,4519.963438
3050.689788,-8216.285956,4071.132681,3830.477490
3050.690125,-9770.718434,4737.318029,3370.820191
3050.690463,-10214.842000,4737.318029,1072.533697
3050.690800,-10881.027347,4071.132681,306.438199
3050.691137,-10214.842000,3478.967927,306.438199
3050.691475,-9104.533087,2738.761985,1072.533697
3050.691812,-9030.512492,2368.659014,2451.505594
3050.692149,-9178.553681,2072.576638,2451.505594
3050.692487,-9178.553681,2812.782580,1915.238745
3050.692824,-10066.800811,1998.556043,2298.286494
3050.693161,-10140.821405,2294.638420,2681.334243
3050.693499,-10288.862594,2886.803174,2604.724693
3050.693836,-11029.068536,4219.173869,2451.505594
3050.694173,-11325.150913,4071.132681,0.000000
3050.694511,-11103.089130,1850.514855,-842.705048
3050.694848,-10658.965565,666.185348,612.876398
3050.695185,-8956.491898,1184.329507,1455.581446
3050.695523,-8216.285956,2442.679609,1838.629195
3050.695860,-9030.512492,2368.659014,1225.752797
3050.696197,-10362.883188,1406.391290,612.876398
3050.696535,-10658.965565,2146.597232,1302.362347
3050.696872,-9770.718434,3404.947333,1072.533697
3050.697209,-9252.574275,3478.967927,1455.581446
3050.697547,-11399.171507,2590.720797,1915.238745
3050.697884,-12287.418637,962.267725,919.314598
3050.698222,-11917.315666,888.247130,-153.219100
3050.698559,-8734.430116,-370.102971,153.219100
3050.698896,-8586.388927,-592.164754,2987.772442
3050.699234,-10732.986159,-666.185348,2374.896044
3050.699571,-9474.636058,296.082377,306.438199
3050.699908,-8142.265362,74.020594,612.876398
3050.700246,-9400.615463,296.082377,3064.381992
3050.700583,-10288.862594,1776.494261,3753.867940
3050.700920,-10288.862594,2664.741391,4443.353888
3050.701258,-10140.821405,3404.947333,5898.935335
3050.701595,-12065.356855,3256.906145,6511.811733
3050.701932,-12805.562797,3034.844362,5745.716235
3050.702270,-10955.047942,2294.638420,4903.011187
3050.702607,-8808.450710,1776.494261,5975.544884
3050.702944,-9400.615463,1184.329507,5056.230287
3050.703282,-9918.759623,2072.576638,4366.744339
3050.703619,-9400.615463,3256.906145,1915.238745
3050.703956,-8660.409521,2664.741391,689.485948
3050.704294,-9400.615463,2812.782580,229.828649
3050.704631,-10214.842000,2220.617826,1149.143247
3050.704968,-9770.718434,2368.659014,1225.752797
3050.705306,-9104.533087,2590.720797,1302.362347
3050.705643,-10214.842000,2072.576638,1991.848295
3050.705980,-10955.047942,666.185348,2834.553343
3050.706318,-9844.739029,-592.164754,3064.381992
3050.706655,-9548.656652,0.000000,4596.572988
3050.706992,-11103.089130,148.041188,3907.087040
3050.707330,-10732.986159,0.000000,1149.143247
3050.707667,-10881.027347,-370.102971,306.438199
3050.708004,-9844.739029,-1110.308913,459.657299
3050.708342,-8734.430116,518.144159,1225.752797
3050.708679,-9326.594869,1702.473667,1455.581446
3050.709016,-8586.388927,2960.823768,1455.581446
3050.709354,-10807.006753,2368.659014,2221.676944
3050.709691,-11473.192101,2590.720797,1149.143247
3050.710028,-11399.171507,3478.967927,2987.772442
3050.710366,-11695.253884,2812.782580,2374.896044
3050.710703,-10362.883188,2664.741391,1455.581446
3050.711040,-10214.842000,148.041188,995.924147
3050.711378,-9474.636058,0.000000,1685.410096
3050.711715,-8660.409521,222.061783,2834.553343
3050.712052,-8734.430116,1850.514855,995.924147
3050.712390,-8882.471304,3404.947333,0.000000
3050.712727,-9548.656652,2368.659014,76.609550
3050.713065,-11547.212695,3997.112087,919.314598
3050.713402,-9770.718434,3627.009116,536.266849
3050.713739,-10732.986159,3330.926739,1685.410096
3050.714077,-10510.924376,1628.453072,2604.724693
3050.714414,-10658.965565,888.247130,3447.429741
3050.714751,-9252.574275,444.123565,4903.011187
3050.715089,-7179.997637,814.226536,5669.106685
3050.715426,-8734.430116,2368.659014,6741.640382
3050.715763,-10510.924376,4219.173869,5898.935335
3050.716101,-11991.336260,4441.235652,2451.505594
3050.716438,-11547.212695,5403.503377,1608.800546
3050.716775,-11399.171507,4737.318029,2451.505594
3050.717113,-11399.171507,3997.112087,2451.505594
3050.717450,-9474.636058,2368.659014,2298.286494
3050.717787,-7105.977043,2220.617826,2528.115143
3050.718125,-8216.285956,1036.288319,3753.867940
3050.718462,-9548.656652,1628.453072,2987.772442
3050.718799,-10881.027347,1554.432478,1378.971896
3050.719137,-9992.780217,1110.308913,2068.457845
3050.719474,-10066.800811,1258.350101,2221.676944
3050.719811,-10214.842000,1332.370696,2604.724693
3050.720149,-9622.677246,1628.453072,3217.601092
3050.720486,-9844.739029,740.205942,2757.943793
3050.720823,-11399.171507,1036.288319,1685.410096
3050.721161,-11399.171507,962.267725,229.828649
3050.721498,-10510.924376,-888.247130,1455.581446
3050.721835,-9178.553681,-1924.535449,3140.991542
3050.722173,-9252.574275,-592.164754,4060.306139
3050.722510,-9474.636058,1036.288319,4673.182538
3050.722847,-9992.780217,2664.741391,4519.963438
3050.723185,-10955.047942,3034.844362,2681.334243
3050.723522,-11917.315666,2886.803174,1838.629195
3050.723859,-11177.109724,3256.906145,2068.457845
3050.724197,-11103.089130,1998.556043,2298.286494
3050.724534,-9844.739029,2294.638420,2681.334243
3050.724871,-10510.924376,3034.844362,1455.581446
3050.725209,-9622.677246,2516.700203,1072.533697
3050.725546,-9178.553681,2294.638420,0.000000
3050.725883,-8438.347739,1924.535449,0.000000
3050.726221,-8956.491898,592.164754,459.657299
3050.726558,-8438.347739,1480.411884,2068.457845
3050.726895,-9178.553681,1998.556043,2068.457845
3050.727233,-10658.965565,2664.741391,1225.752797
3050.727570,-10584.944971,1554.432478,1225.752797
3050.727908,-11103.089130,1554.432478,1225.752797
3050.728245,-9622.677246,592.164754,1991.848295
3050.728582,-9844.739029,296.082377,3524.039291
3050.728920,-10066.800811,-296.082377,3600.648841
3050.729257,-9696.697840,0.000000,3217.601092
3050.729594,-9770.718434,444.123565,2528.115143
3050.729932,-9622.677246,1258.350101,1991.848295
3050.730269,-9252.574275,2368.659014,2145.067394
3050.730606,-10658.965565,2886.803174,2451.505594
3050.730944,-11769.274478,3552.988522,1685.410096
3050.731281,-12287.418637,3478.967927,919.314598
3050.731618,-12139.377449,1554.432478,842.705048
3050.731956,-10140.821405,592.164754,2145.067394
3050.732293,-9400.615463,-518.144159,4060.306139
3050.732630,-9030.512492,0.000000,3907.087040
3050.732968,-9474.636058,222.061783,1915.238745
3050.733305,-10881.027347,0.000000,153.219100
3050.733642,-9474.636058,518.144159,-1072.533697
3050.733980,-9252.574275,-740.205942,612.876398
3050.734317,-9696.697840,222.061783,1991.848295
3050.734654,-9326.594869,1258.350101,1532.190996
3050.734992,-10288.862594,1258.350101,842.705048
3050.735329,-10214.842000,-666.185348,1302.362347
3050.735666,-10436.903782,-1776.494261,3447.429741
3050.736004,-9844.739029,-296.082377,4290.134789
3050.736341,-8068.244768,1702.473667,4443.353888
3050.736678,-10955.047942,1702.473667,3907.087040
3050.737016,-11547.212695,2072.576638,1991.848295
3050.737353,-9326.594869,740.205942,919.314598
3050.737690,-9622.677246,1776.494261,3447.429741
3050.738028,-9030.512492,3034.844362,4290.134789
3050.738365,-11473.192101,5033.400406,3294.210641
3050.738702,-12361.439231,3775.050304,-306.438199
3050.739040,-10807.006753,2294.638420,-766.095498
3050.739377,-11103.089130,666.185348,1072.533697
3050.739714,-8216.285956,1406.391290,-383.047749
3050.740052,-8068.244768,0.000000,-76.609550
3050.740389,-8660.409521,-740.205942,-2221.676944
3050.740726,-7994.224174,-1332.370696,-2145.067394
3050.741064,-10584.944971,-222.061783,0.000000
3050.741401,-9770.718434,1036.288319,76.609550
3050.741738,-10214.842000,962.267725,-1378.971896
3050.742076,-12731.542202,666.185348,-2604.724693
3050.742413,-11029.068536,-1554.432478,-2221.676944
3050.742750,-8882.471304,-2368.659014,306.438199
3050.743088,-9474.636058,-2664.741391,1762.019645
3050.743425,-9104.533087,-2146.597232,919.314598
3050.743763,-10510.924376,-1332.370696,-383.047749
3050.744100,-11325.150913,-1480.411884,-1149.143247
3050.744437,-10362.883188,-1406.391290,-536.266849
3050.744775,-9252.574275,-1332.370696,0.000000
3050.745112,-9918.759623,148.041188,689.485948
3050.745449,-10955.047942,962.267725,766.095498
3050.745787,-10732.986159,1554.432478,306.438199
3050.746124,-12287.418637,-222.061783,536.266849
3050.746461,-11843.295072,-1036.288319,459.657299
3050.746799,-10510.924376,-2146.597232,383.047749
3050.747136,-10436.903782,-1480.411884,-153.219100
3050.747473,-8142.265362,-2072.576638,-1149.143247
3050.747811,-7476.080014,-962.267725,-2451.505594
3050.748148,-7476.080014,-888.247130,-1838.629195
3050.748485,-9400.615463,-74.020594,-2068.457845
3050.748823,-11473.192101,148.041188,-1455.581446
3050.749160,-11473.192101,592.164754,842.705048
3050.749497,-11251.130318,1628.453072,1532.190996
3050.749835,-10066.800811,1036.288319,1915.238745
3050.750172,-10436.903782,0.000000,3294.210641
3050.750509,-9770.718434,-1628.453072,2911.162892
3050.750847,-7846.182985,-2738.761985,1915.238745
3050.751184,-8364.327145,-2220.617826,4290.134789
3050.751521,-7846.182985,0.000000,4596.572988
3050.751859,-9474.636058,740.205942,3600.648841
3050.752196,-11991.336260,3997.112087,-153.219100
3050.752533,-10362.883188,4589.276840,-3753.867940
3050.752871,-10955.047942,2368.659014,-2757.943793
3050.753208,-9696.697840,592.164754,-766.095498
3050.753545,-8068.244768,-1554.432478,0.000000
3050.753883,-8956.491898,-740.205942,1608.800546
3050.754220,-9696.697840,-2664.741391,1455.581446
3050.754557,-10288.862594,-1184.329507,1225.752797
3050.754895,-10140.821405,-1332.370696,0.000000
3050.755232,-10066.800811,-1702.473667,-689.485948
3050.755569,-10658.965565,-1924.535449,-1762.019645
3050.755907,-10436.903782,-1406.391290,-995.924147
3050.756244,-11473.192101,-1702.473667,-612.876398
3050.756581,-9992.780217,-1924.535449,-689.485948
3050.756919,-10214.842000,-2220.617826,-766.095498
3050.757256,-9696.697840,-2072.576638,-536.266849
3050.757593,-9844.739029,-2886.803174,1378.971896
3050.757931,-11325.150913,-2960.823768,2068.457845
3050.758268,-9400.615463,-1184.329507,2068.457845
3050.758606,-8956.491898,-814.226536,1225.752797
3050.758943,-10732.986159,592.164754,689.485948
3050.759280,-10732.986159,222.061783,76.609550
3050.759618,-10214.842000,2072.576638,229.828649
3050.759955,-10881.027347,1702.473667,2374.896044
3050.760292,-11103.089130,1110.308913,1762.019645
3050.760630,-10584.944971,1406.391290,459.657299
3050.760967,-10955.047942,1258.350101,-766.095498
3050.761304,-9992.780217,1480.411884,-2681.334243
3050.761642,-7920.203579,740.205942,-1685.410096
3050.761979,-7550.100608,370.102971,-1762.019645
3050.762316,-7772.162391,296.082377,-689.485948
3050.762654,-9178.553681,814.226536,-1302.362347
3050.762991,-10140.821405,1998.556043,-1225.752797
3050.763328,-11695.253884,444.123565,-459.657299
3050.763666,-11621.233289,148.041188,0.000000
3050.764003,-8290.306550,1110.308913,229.828649
3050.764340,-9178.553681,-296.082377,1455.581446
3050.764678,-11325.150913,-370.102971,2528.115143
3050.765015,-10658.965565,-1628.453072,1762.019645
3050.765352,-9918.759623,-1406.391290,1072.533697
3050.765690,-7994.224174,0.000000,1072.533697
3050.766027,-9474.636058,-518.144159,612.876398
3050.766364,-10436.903782,370.102971,0.000000
3050.766702,-9400.615463,-740.205942,-995.924147
3050.767039,-10955.047942,1628.453072,-919.314598
3050.767376,-10066.800811,-370.102971,-1225.752797
3050.767714,-11769.274478,-370.102971,-1915.238745
3050.768051,-10362.883188,-2072.576638,229.828649
3050.768388,-10288.862594,-3256.906145,1072.533697
3050.768726,-9622.677246,-1702.473667,995.924147
3050.769063,-9030.512492,-2442.679609,612.876398
3050.769400,-10584.944971,-2664.741391,995.924147
3050.769738,-10807.006753,-2738.761985,0.000000
3050.770075,-11917.315666,-2146.597232,1915.238745
3050.770412,-11325.150913,-666.185348,1378.971896
3050.770750,-9474.636058,-1702.473667,1838.629195
3050.771087,-10436.903782,-888.247130,459.657299
3050.771424,-9252.574275,-1332.370696,-536.266849
3050.771762,-9474.636058,-1702.473667,2145.067394
3050.772099,-10288.862594,-1036.288319,3140.991542
3050.772436,-9548.656652,-370.102971,2374.896044
3050.772774,-11103.089130,666.185348,995.924147
3050.773111,-9844.739029,888.247130,1302.362347
3050.773449,-9030.512492,814.226536,1455.581446
3050.773786,-8586.388927,2072.576638,1608.800546
3050.774123,-9474.636058,1628.453072,1685.410096
3050.774461,-10732.986159,2442.679609,-76.609550
3050.774798,-11843.295072,518.144159,-995.924147
3050.775135,-11251.130318,148.041188,-689.485948
3050.775473,-8364.327145,1480.411884,-1225.752797
3050.775810,-6883.915261,444.123565,-2221.676944
3050.776147,-7846.182985,0.000000,-2604.724693
3050.776485,-9770.718434,-444.123565,-2298.286494
3050.776822,-11621.233289,-148.041188,-2374.896044
3050.777159,-10584.944971,-444.123565,-1532.190996
3050.777497,-10732.986159,-222.061783,-1991.848295
3050.777834,-9696.697840,-962.267725,-1455.581446
3050.778171,-9918.759623,-2516.700203,612.876398
3050.778509,-9400.615463,-1406.391290,1915.238745
3050.778846,-9474.636058,-296.082377,1838.629195
3050.779183,-11399.171507,-1332.370696,0.000000
3050.779521,-11917.315666,-1110.308913,-383.047749
3050.779858,-12287.418637,-2368.659014,459.657299
3050.780195,-10732.986159,-1184.329507,0.000000
3050.780533,-7105.977043,-666.185348,-536.266849
3050.780870,-8734.430116,-296.082377,0.000000
3050.781207,-9770.718434,296.082377,-919.314598
3050.781545,-11473.192101,-2072.576638,-1225.752797
3050.781882,-12435.459826,-1332.370696,995.924147
3050.782219,-9918.759623,-1184.329507,1838.629195
3050.782557,-9918.759623,-444.123565,1685.410096
3050.782894,-9622.677246,-666.185348,306.438199
3050.783231,-9178.553681,-1850.514855,-459.657299
3050.783569,-9770.718434,-666.185348,383.047749
3050.783906,-9474.636058,-1258.350101,76.609550
3050.784243,-9992.780217,1332.370696,76.609550
3050.784581,-9400.615463,74.020594,383.047749
3050.784918,-11473.192101,-1628.453072,689.485948
3050.785255,-9474.636058,518.144159,1838.629195
3050.785593,-8438.347739,1480.411884,3064.381992
3050.785930,-9474.636058,2368.659014,2145.067394
3050.786267,-10510.924376,962.267725,1532.190996
3050.786605,-12361.439231,1628.453072,3600.648841
3050.786942,-11325.150913,1480.411884,4060.306139
3050.787279,-9696.697840,1998.556043,2911.162892
3050.787617,-9474.636058,4293.194464,842.705048
3050.787954,-10362.883188,1998.556043,0.000000
3050.788291,-11103.089130,740.205942,-1991.848295
3050.788629,-8734.430116,1184.329507,-1302.362347
3050.788966,-8586.388927,740.205942,-536.266849
3050.789304,-10214.842000,-296.082377,-536.266849
3050.789641,-10658.965565,-2442.679609,-153.219100
3050.789978,-10362.883188,-962.267725,-153.219100
3050.790316,-8956.491898,-888.247130,1608.800546
3050.790653,-9474.636058,-666.185348,1455.581446
3050.790990,-11473.192101,0.000000,-612.876398
3050.791328,-11917.315666,-2516.700203,-1608.800546
3050.791665,-11251.130318,-2738.761985,-1915.238745
3050.792002,-9326.594869,-3182.885551,0.000000
3050.792340,-9474.636058,-2442.679609,153.219100
3050.792677,-9030.512492,-1850.514855,-842.705048
3050.793014,-8956.491898,-2368.659014,-1378.971896
3050.793352,-9696.697840,-2516.700203,76.609550
3050.793689,-9696.697840,-1554.432478,1838.629195
3050.794026,-11695.253884,-370.102971,1532.190996
3050.794364,-12213.398043,296.082377,919.314598
3050.794701,-11103.089130,-2220.617826,383.047749
3050.795038,-9548.656652,-1554.432478,919.314598
3050.795376,-8808.450710,444.123565,3294.210641
3050.795713,-10362.883188,518.144159,1149.143247
3050.796051,-10436.903782,370.102971,-1991.848295
3050.796388,-10955.047942,-74.020594,-3140.991542
3050.796725,-10140.821405,1110.308913,-1455.581446
3050.797063,-8956.491898,370.102971,-612.876398
3050.797400,-8956.491898,222.061783,-2221.676944
3050.797737,-8660.409521,814.226536,-2221.676944
3050.798075,-9474.636058,-666.185348,-1838.629195
3050.798412,-8512.368333,962.267725,689.485948
3050.798749,-9918.759623,814.226536,2298.286494
3050.799087,-11695.253884,962.267725,1762.019645
3050.799424,-12435.459826,74.020594,919.314598
3050.799762,-11695.253884,-888.247130,459.657299
3050.800099,-8364.327145,0.000000,1991.848295
3050.800436,-7031.956449,-1036.288319,2145.067394
3050.800774,-7328.038826,888.247130,689.485948
3050.801111,-8216.285956,1258.350101,-766.095498
3050.801448,-11991.336260,-370.102971,-689.485948
3050.801786,-10807.006753,370.102971,-459.657299
3050.802123,-9992.780217,0.000000,459.657299
3050.802461,-9548.656652,1480.411884,1455.581446
3050.802798,-9400.615463,-1184.329507,383.047749
3050.803135,-11029.068536,-296.082377,1455.581446
3050.803473,-9918.759623,-592.164754,1149.143247
3050.803810,-10362.883188,-814.226536,306.438199
3050.804147,-11325.150913,-740.205942,-383.047749
3050.804485,-11843.295072,-3849.070898,-689.485948
3050.804822,-10362.883188,-2960.823768,153.219100
3050.805159,-8438.347739,-2442.679609,2451.505594
3050.805497,-9252.574275,-1110.308913,2681.334243
3050.805834,-10807.006753,-666.185348,383.047749
3050.806172,-12953.603985,-1924.535449,229.828649
3050.806509,-11621.233289,-1628.453072,1378.971896
3050.806846,-8882.471304,-2368.659014,2987.772442
3050.807184,-10140.821405,-74.020594,3064.381992
3050.807521,-9844.739029,0.000000,1302.362347
3050.807858,-9844.739029,-740.205942,0.000000
3050.808196,-9178.553681,-370.102971,689.485948
3050.808533,-9104.533087,666.185348,2528.115143
3050.808871,-9474.636058,2146.597232,536.266849
3050.809208,-10140.821405,1554.432478,-766.095498
3050.809545,-12065.356855,444.123565,-1838.629195
3050.809883,-8808.450710,1110.308913,-1991.848295
3050.810220,-7772.162391,666.185348,842.705048
3050.810557,-9844.739029,2220.617826,0.000000
3050.810895,-9178.553681,1406.391290,-3064.381992
3050.811232,-10807.006753,518.144159,-3600.648841
3050.811570,-9548.656652,-370.102971,-1608.800546
3050.811907,-9770.718434,-888.247130,0.000000
3050.812244,-10362.883188,814.226536,-1915.238745
3050.812582,-7994.224174,962.267725,-3294.210641
3050.812919,-10436.903782,-1184.329507,-2374.896044
3050.813256,-10436.903782,-1480.411884,0.000000
3050.813594,-9252.574275,-1702.473667,689.485948
3050.813931,-10955.047942,-666.185348,1685.410096
3050.814268,-11103.089130,-592.164754,1762.019645
3050.814606,-12583.501014,-1332.370696,76.609550
3050.814943,-10732.986159,-666.185348,766.095498
3050.815281,-7994.224174,-962.267725,1225.752797
3050.815618,-9178.553681,74.020594,919.314598
3050.815955,-10955.047942,-296.082377,-612.876398
3050.816293,-11251.130318,-962.267725,-1838.629195
3050.816630,-10732.986159,-1554.432478,229.828649
3050.816967,-9622.677246,-1110.308913,153.219100
3050.817305,-8290.306550,-370.102971,229.828649
3050.817642,-9548.656652,-1628.453072,1455.581446
3050.817980,-9918.759623,-1554.432478,1072.533697
3050.818317,-10658.965565,-962.267725,1378.971896
3050.818654,-11473.192101,-1554.432478,766.095498
3050.818992,-9622.677246,74.020594,1378.971896
3050.819329,-11029.068536,-1702.473667,995.924147
3050.819666,-9326.594869,-1406.391290,0.000000
3050.820004,-7624.121203,-1628.453072,2374.896044
3050.820341,-9252.574275,-296.082377,3677.258390
3050.820678,-9178.553681,740.205942,2451.505594
3050.821016,-11769.274478,666.185348,1378.971896
3050.821353,-11769.274478,2072.576638,1685.410096
3050.821691,-10584.944971,1258.350101,2528.115143
3050.822028,-10881.027347,1924.535449,2451.505594
3050.822365,-8882.471304,1480.411884,3600.648841
3050.822703,-9474.636058,888.247130,2757.943793
3050.823040,-10881.027347,1998.556043,1838.629195
3050.823377,-10881.027347,1184.329507,229.828649
3050.823715,-10436.903782,1776.494261,-1225.752797
3050.824052,-9844.739029,222.061783,-2221.676944
3050.824390,-9400.615463,0.000000,-3294.210641
3050.824727,-7402.059420,-1480.411884,-2834.553343
3050.825064,-7624.121203,-1924.535449,-842.705048
3050.825402,-8364.327145,-1628.453072,-1072.533697
3050.825739,-10288.862594,-814.226536,-689.485948
3050.826076,-12287.418637,-1258.350101,-1608.800546
3050.826414,-11695.253884,-1924.535449,-1302.362347
3050.826751,-11399.171507,-1702.473667,0.000000
3050.827088,-9326.594869,-962.267725,-612.876398
3050.827426,-9104.533087,-2812.782580,919.314598
3050.827763,-11029.068536,-1184.329507,-153.219100
3050.828101,-10362.883188,-1998.556043,-536.266849
3050.828438,-11769.274478,-962.267725,-1532.190996
3050.828775,-11029.068536,0.000000,-995.924147
3050.829113,-10140.821405,-444.123565,-612.876398
3050.829450,-9178.553681,222.061783,-919.314598
3050.829787,-8290.306550,222.061783,1762.019645
3050.830125,-10436.903782,814.226536,2604.724693
3050.830462,-11547.212695,1850.514855,1302.362347
3050.830800,-12509.480420,1776.494261,842.705048
3050.831137,-13027.624579,1110.308913,0.000000
3050.831474,-9622.677246,962.267725,229.828649
3050.831812,-7550.100608,-296.082377,0.000000
3050.832149,-6587.832884,1110.308913,919.314598
3050.832486,-7772.162391,74.020594,306.438199
3050.832824,-10436.903782,592.164754,-1225.752797
3050.833161,-10140.821405,814.226536,-1915.238745
3050.833498,-9844.739029,518.144159,-842.705048
3050.833836,-8512.368333,1110.308913,1072.533697
3050.834173,-9326.594869,-296.082377,1455.581446
3050.834511,-9104.533087,1258.350101,842.705048
3050.834848,-9252.574275,-1110.308913,2681.334243
3050.835185,-10436.903782,-888.247130,2681.334243
3050.835523,-10436.903782,-444.123565,3217.601092
3050.835860,-11325.150913,-444.123565,3447.429741
3050.836197,-10807.006753,0.000000,2451.505594
3050.836535,-10436.903782,-740.205942,2068.457845
3050.836872,-9992.780217,0.000000,1378.971896
3050.837210,-9844.739029,-518.144159,1072.533697
3050.837547,-11251.130318,-518.144159,-306.438199
3050.837884,-10955.047942,666.185348,-1608.800546
3050.838222,-11399.171507,-1036.288319,-1762.019645
3050.838559,-9844.739029,-1332.370696,-2681.334243
3050.838896,-9400.615463,-1554.432478,-1991.848295
3050.839234,-10436.903782,-2072.576638,-1532.190996
3050.839571,-8586.388927,-1480.411884,-1915.238745
3050.839908,-9474.636058,-2886.803174,-766.095498
3050.840246,-11399.171507,-2294.638420,-306.438199
3050.840583,-10214.842000,-3627.009116,1072.533697
3050.840921,-11991.336260,-2442.679609,2221.676944
3050.841258,-10214.842000,-888.247130,1915.238745
3050.841595,-9400.615463,-296.082377,536.266849
3050.841933,-9770.718434,0.000000,766.095498
3050.842270,-8956.491898,-1776.494261,995.924147
3050.842607,-11251.130318,1110.308913,995.924147
3050.842945,-10732.986159,1406.391290,612.876398
3050.843282,-10288.862594,1110.308913,-689.485948
3050.843620,-9178.553681,1036.288319,-1838.629195
3050.843957,-8808.450710,370.102971,995.924147
3050.844294,-9252.574275,1924.535449,612.876398
3050.844632,-8438.347739,2442.679609,1532.190996
3050.844969,-10732.986159,1776.494261,-383.047749
3050.845306,-11029.068536,1850.514855,-536.266849
3050.845644,-11473.192101,1554.432478,76.609550
3050.845981,-11103.089130,1850.514855,-459.657299
3050.846318,-8882.471304,814.226536,-995.924147
3050.846656,-8956.491898,-296.082377,-2145.067394
3050.846993,-8512.368333,148.041188,-689.485948
3050.847331,-9474.636058,-888.247130,-842.705048
3050.847668,-10881.027347,1554.432478,-1455.581446
3050.848005,-10436.903782,-592.164754,-2757.943793
3050.848343,-11473.192101,-1110.308913,-3140.991542
3050.848680,-9178.553681,-1628.453072,-1072.533697
3050.849017,-9252.574275,-2738.761985,1915.238745
3050.849355,-9252.574275,-1702.473667,3294.210641
3050.849692,-9474.636058,-1702.473667,2604.724693
3050.850030,-12139.377449,-1258.350101,1991.848295
3050.850367,-11991.336260,-666.185348,2451.505594
3050.850704,-11399.171507,-1628.453072,1685.410096
3050.851042,-10066.800811,0.000000,2068.457845
3050.851379,-9844.739029,-740.205942,766.095498
3050.851716,-10214.842000,74.020594,-612.876398
3050.852054,-9844.739029,-962.267725,-919.314598
3050.852391,-9548.656652,-1258.350101,-383.047749
3050.852729,-8882.471304,592.164754,842.705048
3050.853066,-10214.842000,222.061783,0.000000
3050.853403,-11547.212695,74.020594,229.828649
3050.853741,-12213.398043,-1628.453072,612.876398
3050.854078,-11473.192101,-1036.288319,1915.238745
3050.854415,-9104.533087,1110.308913,2451.505594
3050.854753,-8956.491898,814.226536,2221.676944
3050.855090,-10288.862594,740.205942,1149.143247
3050.855427,-10436.903782,-666.185348,689.485948
3050.855765,-11029.068536,-444.123565,1532.190996
3050.856102,-9252.574275,-296.082377,1991.848295
3050.856440,-8734.430116,0.000000,1149.143247
