#time,accel_x,accel_y,accel_z
2894.763607,-8882.471304,-5625.565159,-1072.533697
2894.763945,-9622.677246,-5033.400406,-229.828649
2894.764282,-9252.574275,-3478.967927,0.000000
2894.764620,-10584.944971,-1850.514855,-459.657299
2894.764958,-10436.903782,0.000000,-1149.143247
2894.765296,-10658.965565,1332.370696,-1762.019645
2894.765633,-11769.274478,1924.535449,-1838.629195
2894.765971,-10658.965565,666.185348,-1915.238745
2894.766309,-8956.491898,0.000000,-1149.143247
2894.766646,-9252.574275,-888.247130,306.438199
2894.766984,-9030.512492,-1850.514855,842.705048
2894.767322,-8808.450710,-1702.473667,459.657299
2894.767659,-9770.718434,-1776.494261,995.924147
2894.767997,-10066.800811,74.020594,-689.485948
2894.768335,-10807.006753,1332.370696,-1685.410096
2894.768673,-11029.068536,1554.432478,-2451.505594
2894.769010,-10510.924376,370.102971,-3217.601092
2894.769348,-10436.903782,-370.102971,-3140.991542
2894.769686,-9548.656652,-1406.391290,-2221.676944
2894.770023,-8956.491898,-2960.823768,-1532.190996
2894.770361,-9178.553681,-3552.988522,-1455.581446
2894.770699,-9104.533087,-4737.318029,-612.876398
2894.771036,-9326.594869,-3404.947333,-153.219100
2894.771374,-9844.739029,-2886.803174,153.219100
2894.771712,-11029.068536,-1628.453072,-536.266849
2894.772049,-10436.903782,0.000000,-1685.410096
2894.772387,-10732.986159,0.000000,-1838.629195
2894.772725,-10732.986159,-518.144159,-2374.896044
2894.773063,-9622.677246,-2368.659014,-3753.867940
2894.773400,-9770.718434,-3034.844362,-3140.991542
2894.773738,-9696.697840,-4515.256246,-3140.991542
2894.774076,-9696.697840,-5625.565159,-3830.477490
2894.774413,-9474.636058,-6291.750507,-3983.696590
2894.774751,-9400.615463,-5921.647536,-3064.381992
2894.775089,-9326.594869,-4737.318029,-2451.505594
2894.775426,-9548.656652,-3034.844362,-3294.210641
2894.775764,-10732.986159,-1776.494261,-3983.696590
2894.776102,-11769.274478,-2294.638420,-4596.572988
2894.776440,-11547.212695,-3627.009116,-5515.887586
2894.776777,-10807.006753,-4811.338623,-4290.134789
2894.777115,-9030.512492,-5995.668130,-1532.190996
2894.777453,-8216.285956,-6957.935855,536.266849
2894.777790,-8882.471304,-5773.606348,2374.896044
2894.778128,-10066.800811,-4071.132681,306.438199
2894.778466,-11621.233289,-2442.679609,-1608.800546
2894.778803,-12139.377449,-2368.659014,-2451.505594
2894.779141,-10881.027347,-1406.391290,-2451.505594
2894.779479,-10288.862594,-296.082377,-766.095498
2894.779816,-9400.615463,148.041188,-1608.800546
2894.780154,-9252.574275,-740.205942,-1302.362347
2894.780492,-9474.636058,-1998.556043,-1072.533697
2894.780830,-9622.677246,-2664.741391,-995.924147
2894.781167,-9622.677246,-1628.453072,0.000000
2894.781505,-8882.471304,-2072.576638,459.657299
2894.781843,-9474.636058,-2442.679609,-612.876398
2894.782180,-10362.883188,-2442.679609,-1915.238745
2894.782518,-9770.718434,-1184.329507,-2451.505594
2894.782856,-8734.430116,-962.267725,-3064.381992
2894.783193,-8586.388927,-1850.514855,-2528.115143
2894.783531,-9474.636058,-3034.844362,-689.485948
2894.783869,-10807.006753,-2368.659014,-536.266849
2894.784207,-9918.759623,-1406.391290,-1378.971896
2894.784544,-9326.594869,-2294.638420,-459.657299
2894.784882,-10584.944971,-4515.256246,1302.362347
2894.785220,-12065.356855,-3923.091493,1072.533697
2894.785558,-11177.109724,-2294.638420,-229.828649
2894.785895,-9548.656652,-666.185348,-919.314598
2894.786232,-9622.677246,-1332.370696,-306.438199
2894.786570,-11473.192101,-370.102971,-612.876398
2894.786907,-10510.924376,740.205942,-1685.410096
2894.787245,-10140.821405,1184.329507,-1838.629195
2894.787582,-10436.903782,-370.102971,-689.485948
2894.787919,-11029.068536,-592.164754,-459.657299
2894.788257,-10214.842000,-518.144159,-1378.971896
2894.788594,-9326.594869,-1850.514855,-153.219100
2894.788932,-9474.636058,-518.144159,842.705048
2894.789269,-10140.821405,222.061783,-2145.067394
2894.789606,-10140.821405,444.123565,-3600.648841
2894.789944,-9030.512492,-740.205942,-3524.039291
2894.790281,-9326.594869,-888.247130,-2451.505594
2894.790619,-9400.615463,296.082377,-2145.067394
2894.790956,-9030.512492,592.164754,-995.924147
2894.791293,-8956.491898,222.061783,229.828649
2894.791631,-9474.636058,-148.041188,0.000000
2894.791968,-11103.089130,-592.164754,1608.800546
2894.792305,-11103.089130,74.020594,3064.381992
2894.792643,-10066.800811,148.041188,2451.505594
2894.792980,-9474.636058,296.082377,2068.457845
2894.793318,-9696.697840,814.226536,2987.772442
2894.793655,-9474.636058,1776.494261,1915.238745
2894.793992,-10066.800811,2368.659014,0.000000
2894.794330,-10955.047942,1850.514855,-1225.752797
2894.794667,-11399.171507,666.185348,-1532.190996
2894.795005,-9548.656652,0.000000,-842.705048
2894.795342,-9252.574275,-148.041188,1072.533697
2894.795679,-10214.842000,-962.267725,1225.752797
2894.796017,-10214.842000,-1406.391290,0.000000
2894.796354,-10288.862594,-1036.288319,306.438199
2894.796691,-9770.718434,-962.267725,-995.924147
2894.797029,-9178.553681,-2368.659014,-1302.362347
2894.797366,-10584.944971,-2738.761985,229.828649
2894.797704,-10362.883188,-1480.411884,689.485948
2894.798041,-10807.006753,-1184.329507,-383.047749
2894.798378,-11029.068536,-2368.659014,-459.657299
2894.798716,-10066.800811,-3701.029710,-612.876398
2894.799053,-10288.862594,-4515.256246,919.314598
2894.799391,-10140.821405,-3775.050304,842.705048
2894.799728,-9178.553681,-2072.576638,0.000000
2894.800065,-9622.677246,-1554.432478,-306.438199
2894.800403,-10584.944971,-1924.535449,306.438199
2894.800740,-10066.800811,74.020594,1378.971896
2894.801078,-10436.903782,1184.329507,1762.019645
2894.801415,-10955.047942,1184.329507,2528.115143
2894.801752,-11547.212695,0.000000,2451.505594
2894.802090,-11177.109724,1406.391290,995.924147
2894.802427,-10658.965565,74.020594,-459.657299
2894.802764,-9400.615463,-1554.432478,-612.876398
2894.803102,-9030.512492,-1554.432478,-1149.143247
2894.803439,-8586.388927,-1628.453072,-1302.362347
2894.803777,-8512.368333,74.020594,-1762.019645
2894.804114,-8068.244768,-518.144159,-2451.505594
2894.804451,-9918.759623,222.061783,-1991.848295
2894.804789,-9992.780217,444.123565,-1378.971896
2894.805126,-10362.883188,1406.391290,229.828649
2894.805464,-9622.677246,518.144159,2068.457845
2894.805801,-9770.718434,-74.020594,2374.896044
2894.806138,-11251.130318,-740.205942,3064.381992
2894.806476,-10955.047942,-740.205942,842.705048
2894.806813,-9992.780217,-1480.411884,1149.143247
2894.807151,-10732.986159,-1480.411884,1149.143247
2894.807488,-9548.656652,-1258.350101,-459.657299
2894.807825,-9696.697840,-296.082377,-306.438199
2894.808163,-9400.615463,444.123565,-919.314598
2894.808500,-9400.615463,814.226536,-1915.238745
2894.808837,-10658.965565,1184.329507,-459.657299
2894.809175,-10881.027347,666.185348,0.000000
2894.809512,-9918.759623,962.267725,842.705048
2894.809850,-10881.027347,-1036.288319,1838.629195
2894.810187,-11917.315666,-962.267725,2911.162892
2894.810524,-11399.171507,-1332.370696,459.657299
2894.810862,-11029.068536,-2146.597232,-766.095498
2894.811199,-9548.656652,-2960.823768,-2374.896044
2894.811537,-8956.491898,-3034.844362,-2451.505594
2894.811874,-8956.491898,-2072.576638,-2298.286494
2894.812211,-9104.533087,-1036.288319,-1225.752797
2894.812549,-9252.574275,0.000000,-1762.019645
2894.812886,-9696.697840,-740.205942,-1378.971896
2894.813223,-10732.986159,-518.144159,1608.800546
2894.813561,-9548.656652,-444.123565,3677.258390
2894.813898,-10658.965565,0.000000,5362.668486
2894.814236,-11991.336260,0.000000,6665.030833
2894.814573,-10955.047942,1554.432478,2834.553343
2894.814910,-10732.986159,1480.411884,1532.190996
2894.815248,-10658.965565,962.267725,995.924147
2894.815585,-9474.636058,1554.432478,-536.266849
2894.815923,-9474.636058,1036.288319,-995.924147
2894.816260,-9252.574275,1628.453072,-306.438199
2894.816597,-8660.409521,2368.659014,-1762.019645
2894.816935,-10288.862594,2368.659014,-536.266849
2894.817272,-11325.150913,1776.494261,-306.438199
2894.817610,-9548.656652,1776.494261,-612.876398
2894.817947,-9474.636058,1036.288319,995.924147
2894.818284,-9696.697840,-592.164754,1608.800546
2894.818622,-9844.739029,-962.267725,842.705048
2894.818959,-9992.780217,-814.226536,0.000000
2894.819296,-9844.739029,-1776.494261,-536.266849
2894.819634,-9548.656652,-2294.638420,-612.876398
2894.819971,-9474.636058,-2368.659014,-1532.190996
2894.820309,-9252.574275,-2886.803174,-995.924147
2894.820646,-9474.636058,-1702.473667,-536.266849
2894.820983,-9474.636058,-1850.514855,0.000000
2894.821321,-10732.986159,-1184.329507,229.828649
2894.821658,-11177.109724,-1480.411884,1302.362347
2894.821996,-10140.821405,-592.164754,1455.581446
2894.822333,-10658.965565,-1110.308913,2451.505594
2894.822670,-11695.253884,-666.185348,2757.943793
2894.823008,-11029.068536,-1110.308913,153.219100
2894.823345,-11103.089130,-1406.391290,-689.485948
2894.823682,-10436.903782,-2146.597232,-1302.362347
2894.824020,-9770.718434,-1924.535449,-919.314598
2894.824357,-10214.842000,-2738.761985,-766.095498
2894.824695,-9030.512492,-1702.473667,-1991.848295
2894.825032,-8734.430116,-1110.308913,-2681.334243
2894.825369,-10066.800811,-1628.453072,-1762.019645
2894.825707,-9622.677246,-1332.370696,-842.705048
2894.826044,-8956.491898,-962.267725,919.314598
2894.826382,-10288.862594,-666.185348,2374.896044
2894.826719,-11473.192101,222.061783,3370.820191
2894.827056,-11843.295072,222.061783,2068.457845
2894.827394,-9992.780217,74.020594,1149.143247
2894.827731,-9474.636058,-1554.432478,2068.457845
2894.828069,-9474.636058,-1036.288319,2528.115143
2894.828406,-8364.327145,-740.205942,1225.752797
2894.828743,-8660.409521,74.020594,766.095498
2894.829081,-8364.327145,1258.350101,0.000000
2894.829418,-9622.677246,1924.535449,229.828649
2894.829755,-11769.274478,2812.782580,0.000000
2894.830093,-10066.800811,2812.782580,-153.219100
2894.830430,-9622.677246,2664.741391,306.438199
2894.830768,-10658.965565,1628.453072,2374.896044
2894.831105,-10658.965565,1036.288319,1685.410096
2894.831442,-10214.842000,-74.020594,229.828649
2894.831780,-10288.862594,-2294.638420,-76.609550
2894.832117,-9918.759623,-1850.514855,-536.266849
2894.832455,-9548.656652,-2442.679609,-2604.724693
2894.832792,-9252.574275,-2220.617826,-1762.019645
2894.833129,-9178.553681,-1924.535449,-3064.381992
2894.833467,-9326.594869,-444.123565,-2374.896044
2894.833804,-10955.047942,-592.164754,-1532.190996
2894.834142,-10140.821405,-962.267725,-689.485948
2894.834479,-9622.677246,-1332.370696,919.314598
2894.834816,-10658.965565,-1998.556043,3064.381992
2894.835154,-11399.171507,-1480.411884,3907.087040
2894.835491,-10732.986159,-1184.329507,2987.772442
2894.835828,-11399.171507,-1480.411884,2528.115143
2894.836166,-10510.924376,-1480.411884,842.705048
2894.836503,-10066.800811,-740.205942,-612.876398
2894.836841,-9844.739029,-518.144159,-229.828649
2894.837178,-9400.615463,296.082377,-1072.533697
2894.837515,-8290.306550,1036.288319,-2068.457845
2894.837853,-9992.780217,1184.329507,-1608.800546
2894.838190,-10362.883188,1332.370696,-1072.533697
2894.838528,-9548.656652,1480.411884,-306.438199
2894.838865,-10510.924376,148.041188,1685.410096
2894.839202,-11251.130318,740.205942,1991.848295
2894.839540,-10214.842000,370.102971,1302.362347
2894.839877,-9918.759623,0.000000,1149.143247
2894.840214,-9696.697840,-1258.350101,1072.533697
2894.840552,-9992.780217,-888.247130,1149.143247
2894.840889,-10362.883188,-740.205942,306.438199
2894.841227,-9474.636058,-148.041188,-383.047749
2894.841564,-8956.491898,222.061783,-689.485948
2894.841901,-9474.636058,814.226536,-153.219100
2894.842239,-10732.986159,1406.391290,842.705048
2894.842576,-9696.697840,1776.494261,1225.752797
2894.842914,-10214.842000,1776.494261,1991.848295
2894.843251,-10807.006753,444.123565,3064.381992
2894.843588,-10807.006753,444.123565,2451.505594
2894.843926,-10288.862594,518.144159,1302.362347
2894.844263,-9844.739029,-1258.350101,766.095498
2894.844601,-9252.574275,-740.205942,459.657299
2894.844938,-9918.759623,-1406.391290,-229.828649
2894.845275,-9474.636058,-444.123565,-1302.362347
2894.845613,-9400.615463,-370.102971,-2528.115143
2894.845950,-9696.697840,-888.247130,-3140.991542
2894.846287,-9770.718434,-962.267725,-2834.553343
2894.846625,-9548.656652,-1332.370696,-1838.629195
2894.846962,-9326.594869,-1628.453072,-1225.752797
2894.847300,-10066.800811,-2146.597232,612.876398
2894.847637,-11473.192101,-1628.453072,1762.019645
2894.847974,-11177.109724,-1036.288319,1072.533697
2894.848312,-10732.986159,-1924.535449,919.314598
2894.848649,-11029.068536,-2442.679609,919.314598
2894.848987,-10362.883188,-2146.597232,766.095498
2894.849324,-9622.677246,-962.267725,612.876398
2894.849661,-9622.677246,-592.164754,459.657299
2894.849999,-8956.491898,296.082377,-76.609550
2894.850336,-10140.821405,666.185348,76.609550
2894.850673,-10362.883188,1406.391290,1149.143247
2894.851011,-9844.739029,2442.679609,-153.219100
2894.851348,-10436.903782,1924.535449,1072.533697
2894.851686,-10955.047942,1406.391290,2451.505594
2894.852023,-10066.800811,1924.535449,919.314598
2894.852360,-9696.697840,666.185348,536.266849
2894.852698,-10140.821405,-296.082377,1378.971896
2894.853035,-9400.615463,-1036.288319,-459.657299
2894.853373,-9178.553681,-296.082377,-1149.143247
2894.853710,-9474.636058,0.000000,-1225.752797
2894.854047,-9104.533087,0.000000,-2221.676944
2894.854385,-9844.739029,-592.164754,-2911.162892
2894.854722,-9474.636058,592.164754,-1378.971896
2894.855060,-8956.491898,0.000000,-919.314598
2894.855397,-9178.553681,-592.164754,1072.533697
2894.855734,-10288.862594,-888.247130,3217.601092
2894.856072,-11251.130318,-740.205942,3217.601092
2894.856409,-10658.965565,-296.082377,2987.772442
2894.856746,-11399.171507,-1258.350101,2528.115143
2894.857084,-11103.089130,-1332.370696,2374.896044
2894.857421,-10362.883188,-1258.350101,612.876398
2894.857759,-10140.821405,-1110.308913,229.828649
2894.858096,-9326.594869,-222.061783,-1225.752797
2894.858433,-9918.759623,666.185348,-1532.190996
2894.858771,-10584.944971,0.000000,-2221.676944
2894.859108,-9770.718434,592.164754,-2221.676944
2894.859446,-9252.574275,296.082377,-919.314598
2894.859783,-10732.986159,-888.247130,306.438199
2894.860120,-10955.047942,-444.123565,1378.971896
2894.860458,-10881.027347,0.000000,459.657299
2894.860795,-11177.109724,-1480.411884,306.438199
2894.861133,-10214.842000,-2072.576638,842.705048
2894.861470,-9918.759623,-2146.597232,842.705048
2894.861807,-9400.615463,-1924.535449,612.876398
2894.862145,-8660.409521,-740.205942,-766.095498
2894.862482,-9252.574275,518.144159,-1838.629195
2894.862819,-10140.821405,0.000000,-1378.971896
2894.863157,-9770.718434,814.226536,-689.485948
2894.863494,-8808.450710,1702.473667,842.705048
2894.863832,-9844.739029,2072.576638,2681.334243
2894.864169,-10436.903782,1776.494261,2987.772442
2894.864506,-10807.006753,2738.761985,2451.505594
2894.864844,-10584.944971,1628.453072,2374.896044
2894.865181,-10584.944971,1480.411884,1685.410096
2894.865519,-10584.944971,296.082377,919.314598
2894.865856,-9992.780217,1184.329507,0.000000
2894.866193,-9474.636058,518.144159,-383.047749
2894.866531,-9622.677246,1480.411884,-1532.190996
2894.866868,-9474.636058,444.123565,-2681.334243
2894.867205,-10140.821405,-296.082377,-2911.162892
2894.867543,-8290.306550,-296.082377,-1915.238745
2894.867880,-9030.512492,-444.123565,-766.095498
2894.868218,-9844.739029,-1406.391290,1608.800546
2894.868555,-10584.944971,-1332.370696,1455.581446
2894.868892,-10584.944971,-592.164754,229.828649
2894.869230,-10881.027347,-2146.597232,689.485948
2894.869567,-11325.150913,-2072.576638,1762.019645
2894.869905,-10214.842000,-2442.679609,1302.362347
2894.870242,-9474.636058,-1998.556043,1762.019645
2894.870579,-9474.636058,-888.247130,1455.581446
2894.870917,-10510.924376,-888.247130,536.266849
2894.871254,-11251.130318,-222.061783,0.000000
2894.871592,-9918.759623,0.000000,-76.609550
2894.871929,-9030.512492,74.020594,919.314598
2894.872266,-10066.800811,148.041188,2068.457845
2894.872604,-10807.006753,1110.308913,1915.238745
2894.872941,-10584.944971,1480.411884,229.828649
2894.873278,-11103.089130,814.226536,229.828649
2894.873616,-10881.027347,0.000000,229.828649
2894.873953,-9992.780217,0.000000,0.000000
2894.874291,-9548.656652,0.000000,153.219100
2894.874628,-9474.636058,0.000000,-766.095498
2894.874965,-9030.512492,296.082377,-2528.115143
2894.875303,-9548.656652,-74.020594,-1838.629195
2894.875640,-9326.594869,-444.123565,-459.657299
2894.875978,-8364.327145,-296.082377,-153.219100
2894.876315,-9622.677246,148.041188,1149.143247
2894.876652,-10510.924376,666.185348,2451.505594
2894.876990,-10362.883188,1110.308913,1685.410096
2894.877327,-10658.965565,148.041188,1838.629195
2894.877664,-10066.800811,0.000000,1915.238745
2894.878002,-10140.821405,74.020594,2374.896044
2894.878339,-10214.842000,370.102971,1838.629195
2894.878677,-9696.697840,0.000000,383.047749
2894.879014,-9918.759623,740.205942,-612.876398
2894.879351,-10658.965565,444.123565,-1838.629195
2894.879689,-10584.944971,222.061783,-2145.067394
2894.880026,-9104.533087,296.082377,-1991.848295
2894.880364,-8956.491898,-222.061783,-306.438199
2894.880701,-9844.739029,296.082377,612.876398
2894.881038,-10955.047942,148.041188,306.438199
2894.881376,-11473.192101,0.000000,-229.828649
2894.881713,-11325.150913,-1998.556043,-229.828649
2894.882051,-9918.759623,-2072.576638,0.000000
2894.882388,-9770.718434,-3034.844362,459.657299
2894.882725,-9844.739029,-3552.988522,383.047749
2894.883063,-9104.533087,-2664.741391,-612.876398
2894.883400,-9770.718434,-1924.535449,-689.485948
2894.883737,-10362.883188,-1628.453072,-536.266849
2894.884075,-9474.636058,-1258.350101,-383.047749
2894.884412,-9400.615463,-740.205942,1302.362347
2894.884750,-9622.677246,74.020594,2451.505594
2894.885087,-11399.171507,444.123565,3294.210641
2894.885424,-11325.150913,962.267725,2604.724693
2894.885762,-10807.006753,814.226536,2374.896044
2894.886099,-10510.924376,222.061783,2528.115143
2894.886436,-10732.986159,296.082377,1608.800546
2894.886774,-9696.697840,1184.329507,612.876398
2894.887111,-9548.656652,1258.350101,76.609550
2894.887448,-8808.450710,1258.350101,-1532.190996
2894.887785,-9548.656652,1110.308913,-1915.238745
2894.888122,-10140.821405,1332.370696,-1532.190996
2894.888459,-9252.574275,1702.473667,-1685.410096
2894.888797,-9252.574275,1110.308913,-536.266849
2894.889134,-10214.842000,1036.288319,689.485948
2894.889471,-9918.759623,1332.370696,229.828649
2894.889808,-9696.697840,0.000000,306.438199
2894.890145,-10288.862594,-1406.391290,1455.581446
2894.890482,-9622.677246,-1628.453072,1225.752797
2894.890820,-10066.800811,-1184.329507,1149.143247
2894.891157,-9770.718434,-814.226536,995.924147
2894.891494,-9400.615463,-962.267725,383.047749
2894.891831,-10066.800811,-296.082377,-153.219100
2894.892168,-10732.986159,74.020594,306.438199
2894.892505,-9400.615463,74.020594,-153.219100
2894.892843,-9400.615463,-444.123565,459.657299
2894.893180,-10510.924376,0.000000,1532.190996
2894.893517,-11325.150913,518.144159,919.314598
2894.893854,-10881.027347,1110.308913,-383.047749
2894.894191,-10881.027347,-888.247130,-383.047749
2894.894528,-10362.883188,-740.205942,-306.438199
2894.894866,-9622.677246,-1406.391290,-459.657299
2894.895203,-10362.883188,-740.205942,0.000000
2894.895540,-9326.594869,-518.144159,-1532.190996
2894.895877,-9474.636058,-1036.288319,-2221.676944
2894.896214,-10510.924376,-1258.350101,-1455.581446
2894.896551,-9400.615463,-1184.329507,-1225.752797
2894.896889,-8956.491898,-1184.329507,612.876398
2894.897226,-10140.821405,-1332.370696,1608.800546
2894.897563,-10362.883188,-296.082377,1072.533697
2894.897900,-10584.944971,888.247130,766.095498
2894.898237,-10732.986159,-1110.308913,1838.629195
2894.898574,-10436.903782,-888.247130,2374.896044
2894.898912,-9844.739029,74.020594,2451.505594
2894.899249,-10288.862594,518.144159,2987.772442
2894.899586,-9770.718434,1480.411884,2374.896044
2894.899923,-10140.821405,2072.576638,689.485948
2894.900260,-10510.924376,1702.473667,0.000000
2894.900597,-10140.821405,2294.638420,459.657299
2894.900935,-9548.656652,2072.576638,229.828649
2894.901272,-9918.759623,1184.329507,-306.438199
2894.901609,-10066.800811,1406.391290,612.876398
2894.901946,-10288.862594,2294.638420,-383.047749
2894.902283,-10066.800811,740.205942,-536.266849
2894.902620,-9992.780217,0.000000,-459.657299
2894.902958,-9178.553681,-888.247130,-995.924147
2894.903295,-9474.636058,-1480.411884,-766.095498
2894.903632,-9474.636058,-2146.597232,229.828649
2894.903969,-9474.636058,-1110.308913,-229.828649
2894.904306,-9770.718434,-2294.638420,-842.705048
2894.904644,-10066.800811,-1332.370696,-842.705048
2894.904981,-9548.656652,-1406.391290,-153.219100
2894.905318,-9992.780217,-2072.576638,689.485948
2894.905655,-9770.718434,-1924.535449,1072.533697
2894.905992,-10436.903782,-1110.308913,1378.971896
2894.906329,-10584.944971,-814.226536,995.924147
2894.906667,-10955.047942,-592.164754,612.876398
2894.907004,-10955.047942,-740.205942,1915.238745
2894.907341,-10658.965565,0.000000,842.705048
2894.907678,-10658.965565,0.000000,842.705048
2894.908015,-11251.130318,518.144159,306.438199
2894.908352,-10362.883188,518.144159,-689.485948
2894.908690,-10362.883188,-370.102971,-689.485948
2894.909027,-9696.697840,222.061783,-153.219100
2894.909364,-8808.450710,296.082377,-306.438199
2894.909701,-10066.800811,-370.102971,459.657299
2894.910038,-10658.965565,0.000000,-153.219100
2894.910375,-9622.677246,370.102971,-1072.533697
2894.910713,-9770.718434,-1406.391290,0.000000
2894.911050,-9548.656652,-1480.411884,1608.800546
2894.911387,-9030.512492,-1184.329507,995.924147
2894.911724,-9844.739029,-1258.350101,1762.019645
2894.912061,-8808.450710,-296.082377,842.705048
2894.912398,-9326.594869,-148.041188,689.485948
2894.912736,-10436.903782,0.000000,919.314598
2894.913073,-10140.821405,0.000000,1225.752797
2894.913410,-9548.656652,962.267725,1455.581446
2894.913747,-9696.697840,518.144159,1455.581446
2894.914084,-10807.006753,370.102971,2068.457845
2894.914421,-10214.842000,1184.329507,306.438199
2894.914759,-10066.800811,1036.288319,-383.047749
2894.915096,-10658.965565,0.000000,76.609550
2894.915433,-10288.862594,0.000000,-1072.533697
2894.915770,-9992.780217,0.000000,-383.047749
2894.916107,-10436.903782,-370.102971,-612.876398
2894.916444,-9844.739029,0.000000,-1532.190996
2894.916782,-10881.027347,-370.102971,-1608.800546
2894.917119,-11103.089130,-1184.329507,-1302.362347
2894.917456,-9326.594869,-1702.473667,-1685.410096
2894.917793,-10214.842000,-1406.391290,-306.438199
2894.918130,-10436.903782,-2442.679609,383.047749
2894.918467,-9844.739029,-1776.494261,0.000000
2894.918805,-10066.800811,-1776.494261,383.047749
2894.919142,-9622.677246,-2590.720797,153.219100
2894.919479,-9696.697840,-2294.638420,1378.971896
2894.919816,-10288.862594,-1776.494261,1378.971896
2894.920153,-9622.677246,-1110.308913,1302.362347
2894.920490,-9622.677246,296.082377,1838.629195
2894.920828,-10140.821405,222.061783,1378.971896
2894.921165,-10362.883188,370.102971,1762.019645
2894.921502,-9770.718434,518.144159,842.705048
2894.921839,-9622.677246,1628.453072,0.000000
2894.922176,-10658.965565,888.247130,306.438199
2894.922513,-10881.027347,1184.329507,306.438199
2894.922851,-9548.656652,1702.473667,-306.438199
2894.923188,-9696.697840,1036.288319,-536.266849
2894.923525,-9474.636058,666.185348,0.000000
2894.923862,-9918.759623,1036.288319,-919.314598
2894.924199,-10288.862594,0.000000,-229.828649
2894.924537,-9696.697840,666.185348,-306.438199
2894.924874,-10066.800811,-444.123565,76.609550
2894.925211,-10807.006753,592.164754,229.828649
2894.925548,-10436.903782,-740.205942,76.609550
2894.925885,-9326.594869,-814.226536,536.266849
2894.926222,-9178.553681,-1480.411884,306.438199
2894.926560,-10288.862594,-1776.494261,1302.362347
2894.926897,-10214.842000,-740.205942,612.876398
2894.927234,-9474.636058,-888.247130,-153.219100
2894.927571,-9400.615463,-518.144159,459.657299
2894.927908,-9844.739029,-592.164754,0.000000
2894.928245,-9992.780217,0.000000,459.657299
2894.928583,-10510.924376,-444.123565,536.266849
2894.928920,-10140.821405,814.226536,153.219100
2894.929257,-10658.965565,518.144159,76.609550
2894.929594,-11325.150913,-518.144159,306.438199
2894.929931,-9696.697840,-666.185348,-229.828649
2894.930268,-9252.574275,-1258.350101,-842.705048
2894.930606,-10214.842000,-1554.432478,306.438199
2894.930943,-10362.883188,-1332.370696,-1225.752797
2894.931280,-9844.739029,-518.144159,-1762.019645
2894.931617,-9992.780217,-1406.391290,-1608.800546
2894.931954,-10066.800811,-1258.350101,-766.095498
2894.932291,-9918.759623,-1036.288319,229.828649
2894.932629,-10584.944971,-1406.391290,1608.800546
2894.932966,-8956.491898,-740.205942,766.095498
2894.933303,-9770.718434,-518.144159,995.924147
2894.933640,-11103.089130,-592.164754,2451.505594
2894.933977,-10362.883188,-592.164754,1915.238745
2894.934314,-9474.636058,-370.102971,1762.019645
2894.934652,-9844.739029,518.144159,2681.334243
2894.934989,-10584.944971,148.041188,2298.286494
2894.935326,-9770.718434,740.205942,995.924147
2894.935663,-9770.718434,1184.329507,1072.533697
2894.936000,-9918.759623,740.205942,306.438199
2894.936337,-9474.636058,888.247130,-306.438199
2894.936675,-9696.697840,0.000000,153.219100
2894.937012,-9474.636058,814.226536,306.438199
2894.937349,-9474.636058,0.000000,-612.876398
2894.937686,-11177.109724,148.041188,-459.657299
2894.938023,-10584.944971,-518.144159,-1072.533697
2894.938360,-9474.636058,-962.267725,-1225.752797
2894.938698,-9474.636058,-1924.535449,-689.485948
2894.939035,-9474.636058,-2368.659014,229.828649
2894.939372,-9844.739029,-1258.350101,76.609550
2894.939709,-10436.903782,-1850.514855,-153.219100
2894.940046,-9992.780217,-1480.411884,-766.095498
2894.940383,-10658.965565,-2072.576638,-919.314598
2894.940721,-10362.883188,-1702.473667,76.609550
2894.941058,-9992.780217,-1332.370696,459.657299
2894.941395,-9770.718434,-740.205942,612.876398
2894.941732,-10510.924376,-1184.329507,689.485948
2894.942069,-10881.027347,-814.226536,612.876398
2894.942407,-10362.883188,-222.061783,766.095498
2894.942744,-10140.821405,-1036.288319,1608.800546
2894.943081,-10658.965565,0.000000,1455.581446
2894.943418,-10362.883188,592.164754,459.657299
2894.943755,-10436.903782,1036.288319,-1225.752797
2894.944092,-9474.636058,-888.247130,-1302.362347
2894.944430,-9844.739029,-296.082377,-842.705048
2894.944767,-9178.553681,0.000000,-229.828649
2894.945104,-9918.759623,0.000000,-536.266849
2894.945441,-9474.636058,0.000000,0.000000
2894.945778,-9474.636058,0.000000,76.609550
2894.946115,-10362.883188,-518.144159,1378.971896
2894.946453,-9696.697840,-370.102971,995.924147
2894.946790,-8882.471304,-592.164754,1915.238745
2894.947127,-10214.842000,-296.082377,2451.505594
2894.947464,-10214.842000,-296.082377,2528.115143
2894.947801,-10436.903782,592.164754,1225.752797
2894.948138,-9696.697840,0.000000,536.266849
2894.948476,-9770.718434,-518.144159,1455.581446
2894.948813,-9622.677246,666.185348,459.657299
2894.949150,-9548.656652,592.164754,229.828649
2894.949487,-9992.780217,1702.473667,1149.143247
2894.949824,-10436.903782,1110.308913,-459.657299
2894.950161,-11399.171507,1332.370696,229.828649
2894.950499,-11251.130318,1258.350101,153.219100
2894.950836,-9918.759623,370.102971,0.000000
2894.951173,-9696.697840,-814.226536,919.314598
2894.951510,-9844.739029,-1628.453072,1302.362347
2894.951847,-10214.842000,0.000000,-459.657299
2894.952184,-10584.944971,-1110.308913,-2068.457845
2894.952522,-10584.944971,-2220.617826,-2374.896044
2894.952859,-9178.553681,-2442.679609,-2528.115143
2894.953196,-9400.615463,-1924.535449,-1685.410096
2894.953533,-9252.574275,-1998.556043,-536.266849
2894.953870,-9030.512492,-1480.411884,-995.924147
2894.954207,-9992.780217,-1184.329507,-229.828649
2894.954545,-11029.068536,-1628.453072,1072.533697
2894.954882,-9992.780217,-888.247130,1532.190996
2894.955219,-9844.739029,-1184.329507,2068.457845
2894.955556,-10732.986159,-1480.411884,3830.477490
2894.955893,-10658.965565,148.041188,2374.896044
2894.956230,-10955.047942,814.226536,766.095498
2894.956568,-10288.862594,666.185348,0.000000
2894.956905,-10066.800811,296.082377,-612.876398
2894.957242,-9770.718434,1184.329507,-153.219100
2894.957579,-9918.759623,1480.411884,306.438199
2894.957916,-8808.450710,2146.597232,-383.047749
2894.958253,-9474.636058,1258.350101,-995.924147
2894.958591,-11251.130318,740.205942,229.828649
2894.958928,-10584.944971,1776.494261,766.095498
2894.959265,-9696.697840,592.164754,612.876398
2894.959602,-9622.677246,-1036.288319,919.314598
2894.959939,-9548.656652,-1110.308913,1685.410096
2894.960276,-9844.739029,-1184.329507,919.314598
2894.960614,-9252.574275,-1258.350101,0.000000
2894.960951,-9474.636058,-2220.617826,0.000000
2894.961288,-9622.677246,-962.267725,-459.657299
2894.961625,-9622.677246,-2368.659014,229.828649
2894.961962,-9178.553681,-148.041188,-306.438199
2894.962300,-9178.553681,-666.185348,0.000000
2894.962637,-11103.089130,-1258.350101,1149.143247
2894.962974,-10436.903782,-592.164754,766.095498
2894.963311,-9992.780217,-444.123565,1608.800546
2894.963648,-10214.842000,-888.247130,1915.238745
2894.963985,-11177.109724,-962.267725,1991.848295
2894.964323,-11547.212695,0.000000,536.266849
2894.964660,-10214.842000,148.041188,-919.314598
2894.964997,-10584.944971,-962.267725,-1455.581446
2894.965334,-10066.800811,-1184.329507,-1455.581446
2894.965671,-9844.739029,-1184.329507,-995.924147
2894.966008,-10214.842000,-444.123565,-459.657299
2894.966346,-9844.739029,-370.102971,-1838.629195
2894.966683,-10140.821405,-444.123565,-1455.581446
2894.967020,-11029.068536,-1480.411884,536.266849
2894.967357,-9474.636058,-962.267725,459.657299
2894.967694,-9400.615463,-1480.411884,1225.752797
2894.968031,-10732.986159,-1554.432478,2911.162892
2894.968369,-11103.089130,-518.144159,1608.800546
2894.968706,-9992.780217,-592.164754,0.000000
2894.969043,-10066.800811,-888.247130,383.047749
2894.969380,-9474.636058,-962.267725,612.876398
2894.969717,-8586.388927,0.000000,536.266849
2894.970054,-8956.491898,518.144159,1072.533697
2894.970392,-9104.533087,1628.453072,459.657299
2894.970729,-9770.718434,2368.659014,229.828649
2894.971066,-11621.233289,2220.617826,689.485948
2894.971403,-10066.800811,2664.741391,919.314598
2894.971740,-9474.636058,1554.432478,1072.533697
2894.972077,-9844.739029,1480.411884,1608.800546
2894.972415,-10362.883188,592.164754,1225.752797
2894.972752,-10436.903782,296.082377,-459.657299
2894.973089,-10066.800811,0.000000,-1991.848295
2894.973426,-10436.903782,-1702.473667,-842.705048
2894.973763,-9622.677246,-1554.432478,-1685.410096
2894.974100,-8586.388927,-2442.679609,-1685.410096
2894.974438,-8734.430116,-1110.308913,-919.314598
2894.974775,-9030.512492,-444.123565,-919.314598
2894.975112,-11769.274478,-1258.350101,-76.609550
2894.975449,-11177.109724,-370.102971,0.000000
2894.975786,-9918.759623,-740.205942,919.314598
2894.976123,-11029.068536,-1406.391290,3524.039291
2894.976461,-11177.109724,-1184.329507,3447.429741
2894.976798,-11029.068536,-888.247130,2221.676944
2894.977135,-10881.027347,-888.247130,612.876398
2894.977472,-9844.739029,-1776.494261,0.000000
2894.977809,-10436.903782,-740.205942,0.000000
2894.978146,-10140.821405,-1110.308913,0.000000
2894.978484,-8808.450710,444.123565,-536.266849
2894.978821,-9178.553681,1406.391290,-919.314598
2894.979158,-9992.780217,1258.350101,-766.095498
2894.979495,-10658.965565,888.247130,153.219100
2894.979832,-10214.842000,962.267725,229.828649
2894.980170,-9992.780217,592.164754,1455.581446
2894.980507,-11325.150913,0.000000,1608.800546
2894.980844,-10732.986159,-592.164754,995.924147
2894.981181,-9104.533087,-1554.432478,-306.438199
2894.981518,-8512.368333,-1850.514855,0.000000
2894.981855,-8882.471304,-2294.638420,76.609550
2894.982193,-9548.656652,-1110.308913,0.000000
2894.982530,-9030.512492,-148.041188,-689.485948
2894.982867,-8956.491898,518.144159,-1072.533697
2894.983204,-9696.697840,888.247130,0.000000
2894.983541,-10881.027347,1480.411884,1378.971896
2894.983878,-10955.047942,2146.597232,2068.457845
2894.984216,-9992.780217,518.144159,2374.896044
2894.984553,-10955.047942,592.164754,2987.772442
2894.984890,-11769.274478,74.020594,3294.210641
2894.985228,-12213.398043,1036.288319,1455.581446
2894.985565,-10066.800811,-444.123565,-995.924147
2894.985902,-9548.656652,-888.247130,-1072.533697
2894.986240,-9400.615463,-1110.308913,-995.924147
2894.986577,-8438.347739,-296.082377,-2298.286494
2894.986914,-9252.574275,0.000000,-2068.457845
2894.987252,-9548.656652,962.267725,-2911.162892
2894.987589,-10658.965565,0.000000,-2145.067394
2894.987926,-11251.130318,-592.164754,-995.924147
2894.988264,-8882.471304,-1850.514855,0.000000
2894.988601,-9326.594869,-2960.823768,2068.457845
2894.988938,-10436.903782,-2590.720797,2681.334243
2894.989276,-10584.944971,-2368.659014,766.095498
2894.989613,-10807.006753,-2664.741391,-536.266849
2894.989950,-10140.821405,-3108.864956,-229.828649
2894.990288,-9030.512492,-2072.576638,-612.876398
2894.990625,-9030.512492,-1258.350101,766.095498
2894.990962,-9474.636058,74.020594,306.438199
2894.991300,-9400.615463,1406.391290,-766.095498
2894.991637,-11325.150913,1406.391290,842.705048
2894.991974,-11473.192101,1554.432478,1378.971896
2894.992312,-10510.924376,1480.411884,1991.848295
2894.992649,-10732.986159,1406.391290,2987.772442
2894.992986,-11029.068536,1406.391290,3140.991542
2894.993323,-11473.192101,1184.329507,1838.629195
2894.993661,-10214.842000,814.226536,-306.438199
2894.993998,-9770.718434,-222.061783,-1149.143247
2894.994335,-9696.697840,-296.082377,-766.095498
2894.994673,-8808.450710,740.205942,-2221.676944
2894.995010,-9178.553681,0.000000,-1762.019645
2894.995347,-8142.265362,592.164754,-1532.190996
2894.995685,-8068.244768,518.144159,-1532.190996
2894.996022,-11103.089130,0.000000,766.095498
2894.996359,-9474.636058,74.020594,1149.143247
2894.996697,-8956.491898,-444.123565,2374.896044
2894.997034,-10288.862594,-888.247130,4519.963438
2894.997371,-10658.965565,-592.164754,3140.991542
2894.997709,-11103.089130,0.000000,1378.971896
2894.998046,-10288.862594,-962.267725,0.000000
2894.998383,-9400.615463,-592.164754,-383.047749
2894.998721,-9548.656652,-592.164754,-612.876398
2894.999058,-9770.718434,296.082377,-919.314598
2894.999395,-9622.677246,888.247130,-1225.752797
2894.999733,-9918.759623,1332.370696,-1532.190996
2895.000070,-10658.965565,888.247130,-995.924147
2895.000407,-10955.047942,666.185348,0.000000
2895.000745,-9918.759623,0.000000,1072.533697
2895.001082,-10732.986159,-370.102971,1455.581446
2895.001419,-11769.274478,-814.226536,1762.019645
2895.001757,-11547.212695,0.000000,0.000000
2895.002094,-10955.047942,-1628.453072,-1608.800546
2895.002431,-9696.697840,-2886.803174,-1302.362347
2895.002769,-9252.574275,-2886.803174,-1455.581446
2895.003106,-9104.533087,-1776.494261,-1149.143247
2895.003443,-8660.409521,-1258.350101,-1302.362347
2895.003781,-8734.430116,-888.247130,-1072.533697
2895.004118,-9696.697840,-1184.329507,0.000000
2895.004455,-10658.965565,666.185348,1378.971896
2895.004793,-10214.842000,518.144159,3217.601092
2895.005130,-10214.842000,962.267725,3600.648841
2895.005467,-11473.192101,222.061783,4060.306139
2895.005805,-11769.274478,888.247130,3677.258390
2895.006142,-10214.842000,888.247130,1532.190996
2895.006479,-9770.718434,222.061783,842.705048
2895.006816,-9548.656652,74.020594,229.828649
2895.007154,-9030.512492,814.226536,-1762.019645
2895.007491,-8882.471304,1184.329507,-2221.676944
2895.007828,-8956.491898,1998.556043,-2604.724693
2895.008166,-9696.697840,1998.556043,-2374.896044
2895.008503,-10658.965565,1110.308913,-1225.752797
2895.008840,-9918.759623,1184.329507,0.000000
2895.009178,-9326.594869,0.000000,306.438199
2895.009515,-10510.924376,-1036.288319,2145.067394
2895.009852,-11399.171507,-1776.494261,2451.505594
2895.010190,-10807.006753,-1480.411884,1225.752797
2895.010527,-10436.903782,-2220.617826,306.438199
2895.010864,-9992.780217,-3256.906145,-383.047749
2895.011202,-9548.656652,-2516.700203,-612.876398
2895.011539,-9326.594869,-1850.514855,-612.876398
2895.011876,-9104.533087,-888.247130,-1991.848295
2895.012214,-8586.388927,-592.164754,-1302.362347
2895.012551,-10362.883188,-518.144159,0.000000
2895.012888,-10066.800811,-222.061783,842.705048
2895.013226,-9548.656652,148.041188,1608.800546
2895.013563,-10658.965565,0.000000,3524.039291
2895.013900,-11769.274478,-222.061783,3140.991542
2895.014238,-11399.171507,0.000000,2374.896044
2895.014575,-10732.986159,222.061783,153.219100
2895.014912,-10881.027347,-1332.370696,229.828649
2895.015250,-9918.759623,-1184.329507,-1302.362347
2895.015587,-8660.409521,-814.226536,-2221.676944
2895.015924,-8882.471304,0.000000,-2221.676944
2895.016262,-8068.244768,518.144159,-3830.477490
2895.016599,-9770.718434,0.000000,-2298.286494
2895.016936,-10658.965565,518.144159,-306.438199
2895.017274,-9770.718434,888.247130,842.705048
2895.017611,-10436.903782,370.102971,2757.943793
2895.017948,-10955.047942,-296.082377,4060.306139
2895.018286,-11325.150913,0.000000,4136.915689
2895.018623,-10732.986159,-370.102971,2451.505594
2895.018960,-9474.636058,-148.041188,2145.067394
2895.019298,-9770.718434,0.000000,1378.971896
2895.019635,-10140.821405,0.000000,-383.047749
2895.019972,-9104.533087,1480.411884,-2068.457845
2895.020310,-9104.533087,1258.350101,-1685.410096
2895.020647,-9474.636058,1702.473667,-1991.848295
2895.020984,-9770.718434,1332.370696,-1149.143247
2895.021321,-9474.636058,1702.473667,-229.828649
2895.021659,-9474.636058,296.082377,1455.581446
2895.021996,-10436.903782,-222.061783,2451.505594
2895.022333,-11473.192101,-296.082377,3140.991542
2895.022671,-11547.212695,-1036.288319,1532.190996
2895.023008,-10362.883188,-1258.350101,-383.047749
2895.023345,-10510.924376,-2368.659014,-995.924147
2895.023683,-9992.780217,-2294.638420,-1455.581446
2895.024020,-8586.388927,-2812.782580,-1915.238745
2895.024357,-8586.388927,-1702.473667,-2221.676944
2895.024695,-8808.450710,-888.247130,-3140.991542
2895.025032,-10732.986159,-1406.391290,-2451.505594
2895.025369,-10288.862594,-1184.329507,76.609550
2895.025707,-9030.512492,0.000000,1838.629195
2895.026044,-10436.903782,-814.226536,4290.134789
2895.026381,-12139.377449,-370.102971,5286.058936
2895.026719,-11399.171507,222.061783,3753.867940
2895.027056,-11473.192101,74.020594,2757.943793
2895.027393,-10732.986159,-444.123565,1991.848295
2895.027731,-10658.965565,-370.102971,842.705048
2895.028068,-9474.636058,-296.082377,-1149.143247
2895.028405,-8290.306550,370.102971,-1378.971896
2895.028743,-7698.141797,1480.411884,-3370.820191
2895.029080,-9178.553681,1480.411884,-2987.772442
2895.029417,-10362.883188,1776.494261,-1915.238745
2895.029755,-9696.697840,1110.308913,-766.095498
2895.030092,-9770.718434,1110.308913,766.095498
2895.030429,-10288.862594,74.020594,2834.553343
2895.030767,-10584.944971,-444.123565,2911.162892
2895.031104,-10140.821405,-666.185348,2298.286494
2895.031441,-10066.800811,-2146.597232,2451.505594
2895.031779,-10214.842000,-1332.370696,1378.971896
2895.032116,-9844.739029,-1702.473667,-229.828649
2895.032453,-9992.780217,-1110.308913,-995.924147
2895.032791,-8438.347739,-296.082377,-2528.115143
2895.033128,-9622.677246,370.102971,-2145.067394
2895.033465,-10140.821405,370.102971,-1378.971896
2895.033803,-9178.553681,370.102971,-612.876398
2895.034140,-9770.718434,740.205942,1532.190996
2895.034477,-11177.109724,-296.082377,3677.258390
2895.034814,-11769.274478,518.144159,3753.867940
2895.035152,-12065.356855,0.000000,2298.286494
2895.035489,-11621.233289,-592.164754,1762.019645
2895.035826,-10732.986159,-1702.473667,919.314598
2895.036164,-9992.780217,-1554.432478,-995.924147
2895.036501,-9474.636058,-1998.556043,-1991.848295
2895.036838,-8808.450710,-962.267725,-3447.429741
2895.037176,-8956.491898,-962.267725,-3600.648841
2895.037513,-9844.739029,-1184.329507,-3447.429741
2895.037850,-9252.574275,-1258.350101,-919.314598
2895.038188,-8660.409521,-1480.411884,612.876398
2895.038525,-10066.800811,-1258.350101,2681.334243
2895.038862,-11547.212695,-666.185348,4290.134789
2895.039200,-11621.233289,-740.205942,3217.601092
2895.039537,-11177.109724,-1036.288319,2604.724693
2895.039874,-10658.965565,-1332.370696,2451.505594
2895.040212,-9992.780217,-1480.411884,1838.629195
2895.040549,-9474.636058,-444.123565,0.000000
2895.040886,-8882.471304,148.041188,-689.485948
2895.041224,-8586.388927,2072.576638,-1838.629195
2895.041561,-9474.636058,1850.514855,-1762.019645
2895.041898,-10510.924376,3256.906145,-1685.410096
2895.042236,-10066.800811,2812.782580,-459.657299
2895.042573,-9844.739029,1702.473667,1072.533697
2895.042910,-10510.924376,1480.411884,2757.943793
2895.043248,-11177.109724,1776.494261,3064.381992
2895.043585,-10955.047942,666.185348,1302.362347
2895.043922,-9918.759623,-666.185348,0.000000
2895.044260,-10140.821405,-1480.411884,0.000000
2895.044597,-9474.636058,-1628.453072,-1838.629195
2895.044934,-8808.450710,-2294.638420,-2221.676944
2895.045272,-7920.203579,-1110.308913,-2528.115143
2895.045609,-8216.285956,-740.205942,-3217.601092
2895.045946,-9918.759623,-296.082377,-2451.505594
2895.046284,-9548.656652,-370.102971,-1762.019645
2895.046621,-9104.533087,-888.247130,459.657299
2895.046958,-11103.089130,-1924.535449,3600.648841
2895.047296,-11399.171507,-666.185348,4443.353888
2895.047633,-11029.068536,-814.226536,3217.601092
2895.047970,-11621.233289,-1258.350101,2757.943793
2895.048308,-11325.150913,-1776.494261,1838.629195
2895.048645,-11177.109724,-1258.350101,153.219100
2895.048982,-10436.903782,-666.185348,-536.266849
2895.049319,-9326.594869,-592.164754,-1838.629195
2895.049657,-9178.553681,740.205942,-2528.115143
2895.049994,-9770.718434,666.185348,-1991.848295
2895.050331,-9770.718434,888.247130,-919.314598
2895.050669,-9104.533087,444.123565,0.000000
2895.051006,-11177.109724,-148.041188,1915.238745
2895.051343,-11621.233289,222.061783,3064.381992
2895.051681,-11695.253884,-222.061783,2298.286494
2895.052018,-10658.965565,-592.164754,2374.896044
2895.052355,-10066.800811,-2516.700203,1915.238745
2895.052693,-9548.656652,-2146.597232,1378.971896
2895.053030,-8734.430116,-1110.308913,-229.828649
2895.053367,-8956.491898,-740.205942,-919.314598
2895.053705,-8882.471304,0.000000,-2374.896044
2895.054042,-9252.574275,0.000000,-2068.457845
2895.054379,-9400.615463,1702.473667,-612.876398
2895.054717,-8734.430116,2368.659014,-383.047749
2895.055054,-10214.842000,666.185348,2068.457845
2895.055391,-10584.944971,1332.370696,3370.820191
2895.055729,-10955.047942,1776.494261,3677.258390
2895.056066,-12287.418637,1258.350101,3217.601092
2895.056403,-11473.192101,0.000000,1302.362347
2895.056741,-10510.924376,-740.205942,842.705048
2895.057078,-9992.780217,-370.102971,-612.876398
2895.057415,-8290.306550,-740.205942,-2221.676944
2895.057753,-8882.471304,0.000000,-3217.601092
2895.058090,-9622.677246,-666.185348,-4519.963438
2895.058427,-10214.842000,74.020594,-4673.182538
2895.058765,-9548.656652,-444.123565,-3140.991542
2895.059102,-9178.553681,-1332.370696,-1532.190996
2895.059439,-9844.739029,-2294.638420,1302.362347
2895.059777,-11029.068536,-1702.473667,2374.896044
2895.060114,-10881.027347,-1628.453072,1915.238745
2895.060451,-11473.192101,-2664.741391,1608.800546
2895.060789,-11325.150913,-2812.782580,2374.896044
2895.061126,-10362.883188,-2886.803174,919.314598
2895.061463,-9548.656652,-1628.453072,1149.143247
2895.061801,-9400.615463,-740.205942,-536.266849
2895.062138,-9178.553681,0.000000,-1685.410096
2895.062475,-9548.656652,148.041188,-1685.410096
2895.062812,-9696.697840,888.247130,-842.705048
2895.063150,-9474.636058,1184.329507,76.609550
2895.063487,-10140.821405,296.082377,1915.238745
2895.063824,-11251.130318,1776.494261,3600.648841
2895.064162,-10658.965565,592.164754,2374.896044
2895.064499,-10807.006753,592.164754,1455.581446
2895.064836,-10214.842000,-962.267725,1685.410096
2895.065174,-10510.924376,-962.267725,766.095498
2895.065511,-9178.553681,-962.267725,-689.485948
2895.065848,-8882.471304,-444.123565,-1532.190996
2895.066186,-9178.553681,296.082377,-2145.067394
2895.066523,-9400.615463,444.123565,-2681.334243
2895.066860,-10140.821405,370.102971,-1455.581446
2895.067198,-9548.656652,1480.411884,-1149.143247
2895.067535,-9252.574275,-444.123565,536.266849
2895.067872,-11325.150913,0.000000,3217.601092
2895.068210,-10658.965565,-518.144159,3140.991542
2895.068547,-10362.883188,-296.082377,3217.601092
2895.068884,-11177.109724,-1036.288319,3217.601092
2895.069222,-10955.047942,-1480.411884,1762.019645
2895.069559,-10214.842000,-1036.288319,536.266849
2895.069896,-9548.656652,-666.185348,-383.047749
2895.070234,-8956.491898,666.185348,-2068.457845
2895.070571,-9770.718434,370.102971,-2834.553343
2895.070908,-10436.903782,74.020594,-2221.676944
2895.071246,-9326.594869,222.061783,-2681.334243
2895.071583,-9622.677246,-222.061783,-536.266849
2895.071920,-10214.842000,-814.226536,1302.362347
2895.072258,-11251.130318,-1184.329507,1302.362347
2895.072595,-11473.192101,-592.164754,842.705048
2895.072932,-11177.109724,-2072.576638,76.609550
2895.073270,-11399.171507,-2146.597232,1225.752797
2895.073607,-9918.759623,-3034.844362,306.438199
2895.073944,-9844.739029,-2072.576638,383.047749
2895.074282,-9400.615463,-1628.453072,-1302.362347
2895.074619,-9178.553681,222.061783,-2604.724693
2895.074956,-10140.821405,-962.267725,-1532.190996
2895.075294,-9326.594869,-296.082377,-919.314598
2895.075631,-8438.347739,888.247130,459.657299
2895.075968,-10732.986159,444.123565,2987.772442
2895.076306,-10807.006753,1332.370696,3677.258390
2895.076643,-10362.883188,1406.391290,2757.943793
2895.076980,-10955.047942,518.144159,2451.505594
2895.077317,-9844.739029,592.164754,2374.896044
2895.077655,-10066.800811,370.102971,1378.971896
2895.077992,-9400.615463,222.061783,766.095498
2895.078329,-9252.574275,1332.370696,-612.876398
2895.078667,-9548.656652,1184.329507,-2221.676944
2895.079004,-9622.677246,1184.329507,-3140.991542
2895.079341,-9770.718434,-148.041188,-2911.162892
2895.079679,-9178.553681,148.041188,-1685.410096
2895.080016,-8586.388927,-1332.370696,-306.438199
2895.080353,-9844.739029,-1480.411884,2068.457845
2895.080691,-10436.903782,-1258.350101,2068.457845
2895.081028,-10955.047942,-888.247130,1532.190996
2895.081365,-11399.171507,-1554.432478,1838.629195
2895.081703,-10436.903782,-2072.576638,1608.800546
2895.082040,-10584.944971,-1850.514855,1149.143247
2895.082377,-10510.924376,-1628.453072,689.485948
2895.082715,-9918.759623,-518.144159,0.000000
2895.083052,-10436.903782,-222.061783,-1378.971896
2895.083389,-10436.903782,-666.185348,-1685.410096
2895.083727,-9326.594869,-444.123565,-1225.752797
2895.084064,-8956.491898,-814.226536,229.828649
2895.084401,-10140.821405,296.082377,1762.019645
2895.084739,-10732.986159,74.020594,1915.238745
2895.085076,-10732.986159,1036.288319,536.266849
2895.085413,-10955.047942,-518.144159,919.314598
2895.085751,-11325.150913,-296.082377,1532.190996
2895.086088,-9918.759623,-296.082377,229.828649
2895.086425,-9696.697840,-1110.308913,-612.876398
2895.086762,-8882.471304,-666.185348,-1378.971896
2895.087100,-8364.327145,0.000000,-2451.505594
2895.087437,-9474.636058,-518.144159,-2451.505594
2895.087774,-9030.512492,-222.061783,-2145.067394
2895.088112,-8512.368333,74.020594,-612.876398
2895.088449,-9548.656652,148.041188,919.314598
2895.088786,-11399.171507,666.185348,2604.724693
2895.089124,-10955.047942,888.247130,1991.848295
2895.089461,-11177.109724,0.000000,3064.381992
2895.089798,-10807.006753,0.000000,3753.867940
2895.090135,-10066.800811,666.185348,2604.724693
2895.090473,-9992.780217,444.123565,2298.286494
2895.090810,-10066.800811,148.041188,919.314598
2895.091147,-10066.800811,1184.329507,-919.314598
2895.091485,-10288.862594,1554.432478,-1685.410096
2895.091822,-9770.718434,444.123565,-2451.505594
2895.092159,-8512.368333,740.205942,-2374.896044
2895.092497,-8586.388927,0.000000,-536.266849
2895.092834,-9474.636058,0.000000,153.219100
2895.093171,-9622.677246,0.000000,229.828649
2895.093508,-10732.986159,-888.247130,0.000000
2895.093846,-11029.068536,-1776.494261,689.485948
2895.094183,-10140.821405,-2886.803174,612.876398
2895.094520,-10214.842000,-2368.659014,1149.143247
2895.094858,-10140.821405,-2738.761985,1072.533697
2895.095195,-9770.718434,-1406.391290,-766.095498
2895.095532,-10214.842000,-1554.432478,-2068.457845
2895.095870,-10658.965565,-1776.494261,-1762.019645
2895.096207,-9770.718434,-1184.329507,-919.314598
2895.096544,-9400.615463,-1628.453072,153.219100
2895.096882,-10140.821405,-740.205942,2145.067394
2895.097219,-11029.068536,296.082377,2145.067394
2895.097556,-10732.986159,0.000000,2145.067394
2895.097893,-10955.047942,0.000000,2757.943793
2895.098231,-10955.047942,0.000000,3294.210641
2895.098568,-10807.006753,296.082377,2451.505594
2895.098905,-9844.739029,666.185348,995.924147
2895.099243,-9992.780217,1036.288319,0.000000
2895.099580,-9474.636058,518.144159,-1838.629195
2895.099917,-9178.553681,592.164754,-2528.115143
2895.100255,-9030.512492,222.061783,-1915.238745
2895.100592,-8808.450710,296.082377,-1072.533697
2895.100929,-9252.574275,0.000000,0.000000
2895.101266,-10066.800811,222.061783,459.657299
2895.101604,-10140.821405,0.000000,1072.533697
2895.101941,-10066.800811,-962.267725,919.314598
2895.102278,-10436.903782,-1184.329507,1838.629195
2895.102616,-9918.759623,-1258.350101,1991.848295
2895.102953,-9770.718434,-1036.288319,995.924147
2895.103290,-10288.862594,-518.144159,612.876398
2895.103628,-10881.027347,-444.123565,-153.219100
2895.103965,-10066.800811,-148.041188,-1302.362347
2895.104302,-10140.821405,-814.226536,-612.876398
2895.104639,-9030.512492,74.020594,-766.095498
2895.104977,-9252.574275,-962.267725,76.609550
2895.105314,-10510.924376,-518.144159,1378.971896
2895.105651,-10658.965565,1332.370696,153.219100
2895.105989,-11399.171507,0.000000,229.828649
2895.106326,-11177.109724,-518.144159,459.657299
2895.106663,-10140.821405,-1036.288319,383.047749
2895.107001,-10288.862594,-1110.308913,306.438199
2895.107338,-10140.821405,-888.247130,0.000000
2895.107675,-9844.739029,-518.144159,-2145.067394
2895.108012,-9844.739029,-1184.329507,-2834.553343
2895.108350,-10066.800811,-1554.432478,-2068.457845
2895.108687,-8956.491898,-1480.411884,-2068.457845
2895.109024,-8882.471304,-1480.411884,-229.828649
2895.109362,-9548.656652,-1406.391290,1455.581446
2895.109699,-10214.842000,-370.102971,1225.752797
2895.110036,-10732.986159,148.041188,919.314598
2895.110374,-11177.109724,-370.102971,2068.457845
2895.110711,-10510.924376,-740.205942,2528.115143
2895.111048,-9696.697840,814.226536,2681.334243
2895.111385,-9918.759623,296.082377,2834.553343
2895.111723,-9178.553681,1184.329507,2298.286494
2895.112060,-10436.903782,1924.535449,842.705048
2895.112397,-10658.965565,1554.432478,306.438199
2895.112735,-9474.636058,1554.432478,612.876398
2895.113072,-9252.574275,1702.473667,306.438199
2895.113409,-9844.739029,1480.411884,1072.533697
2895.113747,-9548.656652,1480.411884,1302.362347
2895.114084,-9474.636058,1554.432478,536.266849
2895.114421,-10584.944971,592.164754,459.657299
2895.114758,-10436.903782,0.000000,-459.657299
2895.115096,-9918.759623,-740.205942,-766.095498
2895.115433,-9622.677246,-1702.473667,-306.438199
2895.115770,-8882.471304,-1628.453072,-1072.533697
2895.116108,-9178.553681,-1036.288319,-1685.410096
2895.116445,-9992.780217,-1702.473667,-1302.362347
2895.116782,-9770.718434,-1628.453072,-1072.533697
2895.117120,-9622.677246,-1258.350101,-383.047749
2895.117457,-10140.821405,-1258.350101,459.657299
2895.117794,-11103.089130,-1332.370696,2145.067394
2895.118131,-11177.109724,-370.102971,1685.410096
2895.118469,-10732.986159,-592.164754,1225.752797
2895.118806,-11103.089130,-1406.391290,1225.752797
2895.119143,-10584.944971,-1332.370696,1608.800546
2895.119481,-10214.842000,-1258.350101,1149.143247
2895.119818,-10510.924376,-296.082377,689.485948
2895.120155,-10732.986159,222.061783,-383.047749
2895.120493,-10362.883188,296.082377,-2221.676944
2895.120830,-10140.821405,-888.247130,-1685.410096
2895.121167,-9400.615463,0.000000,-612.876398
2895.121504,-9030.512492,-148.041188,-612.876398
2895.121842,-10584.944971,0.000000,383.047749
2895.122179,-10436.903782,0.000000,-76.609550
2895.122516,-9770.718434,-370.102971,-612.876398
2895.122854,-10288.862594,-1036.288319,76.609550
2895.123191,-9622.677246,-1480.411884,1302.362347
2895.123528,-9696.697840,-1184.329507,1532.190996
2895.123866,-9178.553681,-74.020594,1149.143247
2895.124203,-9400.615463,296.082377,1072.533697
2895.124540,-9770.718434,814.226536,153.219100
2895.124877,-10584.944971,148.041188,612.876398
2895.125215,-10510.924376,1554.432478,1225.752797
2895.125552,-9326.594869,1554.432478,766.095498
2895.125889,-9548.656652,1554.432478,2068.457845
2895.126227,-10658.965565,1110.308913,2145.067394
2895.126564,-9918.759623,1406.391290,842.705048
2895.126901,-10288.862594,962.267725,383.047749
2895.127239,-10510.924376,666.185348,0.000000
2895.127576,-9622.677246,-296.082377,-306.438199
2895.127913,-9844.739029,-740.205942,383.047749
2895.128251,-9326.594869,-740.205942,0.000000
2895.128588,-9178.553681,-740.205942,-842.705048
2895.128925,-10362.883188,-666.185348,-842.705048
2895.129262,-10214.842000,-1702.473667,-1608.800546
2895.129600,-9548.656652,-1480.411884,-766.095498
2895.129937,-10066.800811,-2294.638420,-383.047749
2895.130274,-10288.862594,-2664.741391,306.438199
2895.130612,-10288.862594,-1998.556043,306.438199
2895.130949,-9844.739029,-2516.700203,-612.876398
2895.131286,-10510.924376,-2368.659014,306.438199
2895.131624,-10658.965565,-2368.659014,766.095498
2895.131961,-10510.924376,-1332.370696,1149.143247
2895.132298,-10510.924376,-1554.432478,1225.752797
2895.132635,-10584.944971,296.082377,1302.362347
2895.132973,-10584.944971,666.185348,383.047749
2895.133310,-11251.130318,592.164754,1302.362347
2895.133647,-10214.842000,592.164754,919.314598
2895.133985,-9696.697840,592.164754,612.876398
2895.134322,-10584.944971,222.061783,1302.362347
2895.134659,-9992.780217,1850.514855,-383.047749
2895.134997,-9770.718434,296.082377,-306.438199
2895.135334,-9104.533087,592.164754,-995.924147
2895.135671,-8808.450710,962.267725,-995.924147
2895.136008,-9918.759623,592.164754,-153.219100
2895.136346,-9030.512492,74.020594,-689.485948
2895.136683,-9104.533087,444.123565,0.000000
2895.137020,-9844.739029,1184.329507,-229.828649
2895.137358,-9770.718434,592.164754,0.000000
2895.137695,-10066.800811,444.123565,459.657299
2895.138032,-9400.615463,148.041188,842.705048
2895.138370,-9326.594869,518.144159,1149.143247
2895.138707,-10658.965565,222.061783,1608.800546
2895.139044,-10214.842000,518.144159,919.314598
2895.139381,-10362.883188,0.000000,383.047749
2895.139719,-10362.883188,0.000000,689.485948
2895.140056,-9474.636058,592.164754,612.876398
2895.140393,-9992.780217,0.000000,459.657299
2895.140731,-10288.862594,444.123565,1455.581446
2895.141068,-9696.697840,518.144159,76.609550
2895.141405,-10658.965565,444.123565,306.438199
2895.141743,-11547.212695,-888.247130,383.047749
2895.142080,-10214.842000,-888.247130,-306.438199
2895.142417,-9400.615463,-1184.329507,-306.438199
2895.142754,-10214.842000,-1554.432478,766.095498
2895.143092,-9844.739029,-1628.453072,-306.438199
2895.143429,-10214.842000,-1924.535449,-1991.848295
2895.143766,-10807.006753,-2294.638420,-995.924147
2895.144104,-9992.780217,-2516.700203,-995.924147
2895.144441,-9844.739029,-1850.514855,229.828649
2895.144778,-9844.739029,-1998.556043,842.705048
2895.145116,-9474.636058,-1036.288319,689.485948
2895.145453,-9844.739029,-814.226536,536.266849
2895.145790,-11251.130318,-592.164754,2145.067394
2895.146127,-11177.109724,-222.061783,2145.067394
2895.146465,-10807.006753,-148.041188,1072.533697
2895.146802,-10288.862594,-370.102971,2757.943793
2895.147139,-10214.842000,888.247130,2374.896044
2895.147477,-9400.615463,888.247130,1149.143247
2895.147814,-10066.800811,1406.391290,689.485948
2895.148151,-9548.656652,1406.391290,0.000000
2895.148489,-10066.800811,1406.391290,-995.924147
2895.148826,-10436.903782,1702.473667,-153.219100
2895.149163,-9252.574275,1480.411884,-689.485948
2895.149500,-9252.574275,1628.453072,-536.266849
2895.149838,-10214.842000,592.164754,0.000000
2895.150175,-9548.656652,1184.329507,-689.485948
2895.150512,-9252.574275,-296.082377,-995.924147
2895.150850,-9622.677246,-1554.432478,306.438199
2895.151187,-9622.677246,-1480.411884,0.000000
2895.151524,-9474.636058,-518.144159,0.000000
2895.151862,-9770.718434,-1184.329507,-1608.800546
2895.152199,-9474.636058,-2146.597232,-1149.143247
2895.152536,-9474.636058,-1110.308913,-842.705048
2895.152873,-9992.780217,-1924.535449,-153.219100
2895.153211,-10510.924376,-518.144159,919.314598
2895.153548,-9992.780217,-592.164754,459.657299
2895.153885,-10881.027347,-222.061783,1378.971896
2895.154223,-11251.130318,-444.123565,1455.581446
2895.154560,-10732.986159,-296.082377,536.266849
2895.154897,-10362.883188,-1406.391290,1225.752797
2895.155235,-10732.986159,-518.144159,1455.581446
2895.155572,-10510.924376,0.000000,306.438199
2895.155909,-11029.068536,-296.082377,-1225.752797
2895.156246,-9474.636058,-1184.329507,-1455.581446
2895.156584,-9252.574275,-1184.329507,-1225.752797
2895.156921,-9474.636058,-888.247130,-612.876398
2895.157258,-9400.615463,-814.226536,0.000000
2895.157596,-9474.636058,-444.123565,-459.657299
2895.157933,-10066.800811,-666.185348,0.000000
2895.158270,-10732.986159,-518.144159,919.314598
2895.158608,-10658.965565,-444.123565,1685.410096
2895.158945,-9474.636058,-370.102971,995.924147
2895.159282,-9844.739029,-740.205942,1991.848295
2895.159619,-10066.800811,-222.061783,2221.676944
2895.159957,-9918.759623,0.000000,1225.752797
2895.160294,-9992.780217,74.020594,842.705048
2895.160631,-9622.677246,444.123565,1225.752797
2895.160969,-9474.636058,888.247130,1149.143247
2895.161306,-9844.739029,1998.556043,1302.362347
2895.161643,-9548.656652,2442.679609,1225.752797
2895.161981,-9770.718434,2368.659014,229.828649
2895.162318,-11399.171507,1702.473667,536.266849
2895.162655,-10658.965565,1258.350101,612.876398
2895.162993,-9326.594869,74.020594,306.438199
2895.163330,-9178.553681,-740.205942,919.314598
2895.163667,-9696.697840,-888.247130,842.705048
2895.164004,-9474.636058,-592.164754,-766.095498
2895.164342,-9844.739029,-370.102971,-2451.505594
2895.164679,-10510.924376,-1554.432478,-2604.724693
2895.165016,-9474.636058,-1480.411884,-2987.772442
2895.165354,-9548.656652,-2220.617826,-1838.629195
2895.165691,-9844.739029,-1184.329507,-536.266849
2895.166028,-9178.553681,-1258.350101,-766.095498
2895.166366,-10807.006753,-2072.576638,0.000000
2895.166703,-11695.253884,-1924.535449,766.095498
2895.167040,-10584.944971,-1332.370696,1072.533697
2895.167377,-10436.903782,-1702.473667,2145.067394
2895.167715,-10881.027347,-1628.453072,3294.210641
2895.168052,-10362.883188,0.000000,1378.971896
2895.168389,-10066.800811,-148.041188,0.000000
2895.168727,-10362.883188,-370.102971,306.438199
2895.169064,-9474.636058,-296.082377,-1072.533697
2895.169401,-9548.656652,74.020594,0.000000
2895.169739,-9844.739029,814.226536,229.828649
2895.170076,-9474.636058,1036.288319,-153.219100
2895.170413,-9696.697840,1036.288319,229.828649
2895.170750,-10881.027347,444.123565,536.266849
2895.171088,-9992.780217,1258.350101,536.266849
2895.171425,-9548.656652,370.102971,766.095498
2895.171762,-9844.739029,-962.267725,689.485948
2895.172100,-9918.759623,0.000000,1149.143247
2895.172437,-9992.780217,222.061783,229.828649
2895.172774,-9474.636058,74.020594,-229.828649
2895.173112,-9474.636058,0.000000,-842.705048
2895.173449,-9770.718434,0.000000,-459.657299
2895.173786,-9474.636058,0.000000,0.000000
2895.174123,-8882.471304,666.185348,306.438199
2895.174461,-9696.697840,1554.432478,766.095498
2895.174798,-10807.006753,-296.082377,1455.581446
2895.175135,-10732.986159,444.123565,1378.971896
2895.175473,-9326.594869,148.041188,1991.848295
2895.175810,-9918.759623,74.020594,3447.429741
2895.176147,-10881.027347,0.000000,2987.772442
2895.176485,-11399.171507,296.082377,842.705048
2895.176822,-10732.986159,1110.308913,-306.438199
2895.177159,-10436.903782,-592.164754,-1149.143247
2895.177496,-9548.656652,-1332.370696,-2145.067394
2895.177834,-9326.594869,-962.267725,-1762.019645
2895.178171,-9326.594869,-74.020594,-1302.362347
2895.178508,-9252.574275,0.000000,-2374.896044
2895.178846,-10288.862594,-962.267725,-1378.971896
2895.179183,-11547.212695,-1628.453072,-229.828649
2895.179520,-10658.965565,-1850.514855,459.657299
2895.179858,-10066.800811,-1406.391290,919.314598
2895.180195,-10658.965565,-2220.617826,2374.896044
2895.180532,-11325.150913,-1258.350101,2298.286494
2895.180869,-10288.862594,-2072.576638,306.438199
2895.181207,-9770.718434,-1702.473667,0.000000
2895.181544,-9548.656652,-1480.411884,383.047749
2895.181881,-9770.718434,-1036.288319,153.219100
2895.182219,-9770.718434,74.020594,1072.533697
2895.182556,-9326.594869,1258.350101,612.876398
2895.182893,-9770.718434,1554.432478,153.219100
2895.183231,-11251.130318,1776.494261,689.485948
2895.183568,-10658.965565,2220.617826,842.705048
2895.183905,-9918.759623,1850.514855,1225.752797
2895.184242,-10066.800811,444.123565,1685.410096
2895.184580,-9918.759623,1110.308913,1532.190996
2895.184917,-9992.780217,0.000000,-919.314598
2895.185254,-9548.656652,-148.041188,-1225.752797
2895.185592,-8956.491898,-518.144159,-2911.162892
2895.185929,-9474.636058,-1258.350101,-2528.115143
2895.186266,-9622.677246,-888.247130,-1991.848295
2895.186604,-9030.512492,-148.041188,-2528.115143
2895.186941,-9400.615463,0.000000,-1838.629195
2895.187278,-10732.986159,-666.185348,-153.219100
2895.187615,-10436.903782,-1184.329507,766.095498
2895.187953,-9696.697840,-1184.329507,1838.629195
2895.188290,-10732.986159,-1850.514855,3907.087040
2895.188627,-11547.212695,-1702.473667,3983.696590
2895.188965,-11695.253884,-1184.329507,1838.629195
2895.189302,-10510.924376,-1110.308913,459.657299
2895.189639,-9696.697840,-1554.432478,-76.609550
2895.189976,-9770.718434,-814.226536,-919.314598
2895.190314,-9696.697840,-666.185348,-995.924147
2895.190651,-9252.574275,-370.102971,-1149.143247
2895.190988,-9326.594869,444.123565,-995.924147
2895.191326,-10362.883188,-296.082377,-612.876398
2895.191663,-10955.047942,0.000000,1378.971896
2895.192000,-10214.842000,-148.041188,1762.019645
2895.192337,-10362.883188,-666.185348,1685.410096
2895.192675,-10658.965565,-962.267725,1838.629195
2895.193012,-11325.150913,-1332.370696,1149.143247
2895.193349,-10584.944971,-1480.411884,229.828649
2895.193687,-9400.615463,-2220.617826,-995.924147
2895.194024,-9326.594869,-962.267725,-689.485948
2895.194361,-9474.636058,-1332.370696,-842.705048
2895.194698,-9252.574275,592.164754,-842.705048
2895.195036,-9030.512492,1184.329507,-766.095498
2895.195373,-10066.800811,1184.329507,766.095498
2895.195710,-11029.068536,1850.514855,1915.238745
2895.196048,-10881.027347,1924.535449,2451.505594
2895.196385,-10140.821405,1406.391290,2834.553343
2895.196722,-9844.739029,1406.391290,4136.915689
2895.197059,-11177.109724,1184.329507,3753.867940
2895.197397,-10955.047942,1110.308913,766.095498
2895.197734,-9326.594869,666.185348,-1378.971896
2895.198071,-9474.636058,222.061783,-1838.629195
2895.198409,-9252.574275,-296.082377,-2834.553343
2895.198746,-9326.594869,74.020594,-2834.553343
2895.199083,-8290.306550,370.102971,-2911.162892
2895.199420,-8142.265362,444.123565,-2834.553343
2895.199758,-9918.759623,0.000000,-1762.019645
2895.200095,-10881.027347,-592.164754,-76.609550
2895.200432,-10658.965565,-1184.329507,459.657299
2895.200770,-11029.068536,-2738.761985,2374.896044
2895.201107,-11177.109724,-1554.432478,3217.601092
2895.201444,-11029.068536,-1850.514855,1685.410096
2895.201781,-10214.842000,-2516.700203,306.438199
2895.202119,-9326.594869,-3034.844362,-612.876398
2895.202456,-9548.656652,-2664.741391,-1072.533697
2895.202793,-9992.780217,-1406.391290,-1225.752797
2895.203131,-9844.739029,-444.123565,-689.485948
2895.203468,-9696.697840,222.061783,-995.924147
2895.203805,-10214.842000,296.082377,76.609550
2895.204142,-10436.903782,74.020594,2451.505594
2895.204480,-10584.944971,296.082377,3294.210641
2895.204817,-10881.027347,0.000000,3677.258390
2895.205154,-11843.295072,592.164754,4060.306139
2895.205492,-11473.192101,370.102971,2221.676944
2895.205829,-10510.924376,592.164754,229.828649
2895.206166,-9844.739029,-888.247130,-766.095498
2895.206503,-8142.265362,-888.247130,-2374.896044
2895.206841,-7994.224174,-962.267725,-1838.629195
2895.207178,-9030.512492,0.000000,-2068.457845
2895.207515,-7698.141797,222.061783,-2604.724693
2895.207853,-9622.677246,740.205942,-1149.143247
2895.208190,-10955.047942,666.185348,612.876398
2895.208527,-10066.800811,814.226536,1302.362347
2895.208864,-9474.636058,370.102971,2911.162892
2895.209202,-9992.780217,-962.267725,4213.525239
2895.209539,-11251.130318,-592.164754,4673.182538
2895.209876,-11251.130318,296.082377,2451.505594
2895.210214,-10658.965565,-592.164754,459.657299
2895.210551,-10214.842000,-370.102971,-842.705048
2895.210888,-9326.594869,-592.164754,-1991.848295
2895.211225,-8734.430116,296.082377,-1685.410096
2895.211563,-8364.327145,444.123565,-2221.676944
2895.211900,-8956.491898,1110.308913,-3064.381992
2895.212237,-10584.944971,148.041188,-1225.752797
2895.212575,-10584.944971,666.185348,-306.438199
2895.212912,-9622.677246,148.041188,536.266849
2895.213249,-11177.109724,-962.267725,2374.896044
2895.213586,-11843.295072,-1406.391290,2221.676944
2895.213924,-11325.150913,-962.267725,919.314598
2895.214261,-10658.965565,-2812.782580,-459.657299
2895.214598,-9474.636058,-3182.885551,-1991.848295
2895.214936,-9548.656652,-3923.091493,-1762.019645
2895.215273,-9104.533087,-2664.741391,-1838.629195
2895.215610,-8660.409521,-1258.350101,-1838.629195
2895.215947,-9178.553681,-518.144159,-1608.800546
2895.216285,-10066.800811,-888.247130,-1072.533697
2895.216622,-10510.924376,-296.082377,1455.581446
2895.216959,-10510.924376,370.102971,2987.772442
2895.217297,-10807.006753,74.020594,4060.306139
2895.217634,-12065.356855,370.102971,5286.058936
2895.217971,-11695.253884,0.000000,4366.744339
2895.218308,-10584.944971,592.164754,2145.067394
2895.218646,-9844.739029,-518.144159,1455.581446
2895.218983,-9030.512492,296.082377,306.438199
2895.219320,-8882.471304,518.144159,-919.314598
2895.219658,-9178.553681,1702.473667,-2068.457845
2895.219995,-8512.368333,2664.741391,-3370.820191
2895.220332,-8956.491898,1554.432478,-3217.601092
2895.220669,-10288.862594,1776.494261,-1149.143247
2895.221007,-9474.636058,1406.391290,-153.219100
2895.221344,-9326.594869,962.267725,919.314598
2895.221681,-10436.903782,-962.267725,3294.210641
2895.222019,-11029.068536,-1332.370696,3370.820191
2895.222356,-10658.965565,-1110.308913,2298.286494
2895.222693,-10584.944971,-1702.473667,1455.581446
2895.223030,-9844.739029,-2220.617826,-153.219100
2895.223368,-9326.594869,-2368.659014,-612.876398
2895.223705,-8660.409521,-1036.288319,-995.924147
2895.224042,-8734.430116,0.000000,-1991.848295
2895.224380,-9400.615463,740.205942,-2221.676944
2895.224717,-10584.944971,518.144159,-766.095498
2895.225054,-11177.109724,370.102971,383.047749
2895.225391,-10066.800811,0.000000,1685.410096
2895.225729,-10510.924376,148.041188,3217.601092
2895.226066,-12213.398043,-592.164754,4136.915689
2895.226403,-11769.274478,-222.061783,1532.190996
2895.226741,-10584.944971,-1332.370696,612.876398
2895.227078,-10140.821405,-1258.350101,-689.485948
2895.227415,-9622.677246,-1702.473667,-2298.286494
2895.227752,-9548.656652,-1036.288319,-2528.115143
2895.228090,-8882.471304,-296.082377,-4213.525239
2895.228427,-8142.265362,0.000000,-4136.915689
2895.228764,-9400.615463,-740.205942,-2451.505594
2895.229102,-9918.759623,-296.082377,-383.047749
2895.229439,-10066.800811,74.020594,1302.362347
2895.229776,-10362.883188,-666.185348,3140.991542
2895.230113,-10658.965565,-370.102971,3907.087040
2895.230451,-11251.130318,-740.205942,4136.915689
2895.230788,-11029.068536,-518.144159,3907.087040
2895.231125,-9770.718434,-740.205942,2604.724693
2895.231463,-9844.739029,-740.205942,1685.410096
2895.231800,-9104.533087,0.000000,383.047749
2895.232137,-8438.347739,740.205942,-536.266849
2895.232474,-8882.471304,2368.659014,-1455.581446
2895.232812,-9696.697840,1776.494261,-2298.286494
2895.233149,-10510.924376,2146.597232,-1685.410096
2895.233486,-9178.553681,1554.432478,-766.095498
2895.233824,-9400.615463,1184.329507,919.314598
2895.234161,-10732.986159,-592.164754,2604.724693
2895.234498,-11399.171507,0.000000,2834.553343
2895.234835,-10881.027347,-962.267725,1685.410096
2895.235173,-10436.903782,-1480.411884,459.657299
2895.235510,-10066.800811,-2368.659014,-383.047749
2895.235847,-10288.862594,-2886.803174,-1072.533697
2895.236185,-9474.636058,-2368.659014,-2145.067394
2895.236522,-9178.553681,-1036.288319,-2757.943793
2895.236859,-9326.594869,-888.247130,-3217.601092
2895.237196,-10140.821405,-1184.329507,-2451.505594
2895.237534,-9918.759623,-1332.370696,-459.657299
2895.237871,-9474.636058,-1110.308913,842.705048
2895.238208,-10510.924376,-962.267725,3294.210641
2895.238546,-12361.439231,-518.144159,4290.134789
2895.238883,-11547.212695,-444.123565,3294.210641
2895.239220,-10955.047942,-1110.308913,2604.724693
2895.239557,-10881.027347,-740.205942,2681.334243
2895.239895,-9992.780217,-370.102971,919.314598
2895.240232,-9400.615463,-222.061783,-995.924147
2895.240569,-8808.450710,814.226536,-2451.505594
2895.240907,-8290.306550,1036.288319,-3830.477490
2895.241244,-8882.471304,814.226536,-3600.648841
2895.241581,-9474.636058,1850.514855,-1915.238745
2895.241918,-9178.553681,1406.391290,-1225.752797
2895.242256,-9918.759623,370.102971,842.705048
2895.242593,-11029.068536,74.020594,2987.772442
2895.242930,-11029.068536,0.000000,3217.601092
2895.243268,-10732.986159,-888.247130,3064.381992
2895.243605,-9622.677246,-1628.453072,2681.334243
2895.243942,-9770.718434,-1628.453072,1762.019645
2895.244279,-9918.759623,-740.205942,153.219100
2895.244617,-9474.636058,-296.082377,-536.266849
2895.244954,-8956.491898,1110.308913,-2528.115143
2895.245291,-9252.574275,666.185348,-2911.162892
2895.245628,-10584.944971,1480.411884,-1455.581446
2895.245966,-9474.636058,1184.329507,-383.047749
2895.246303,-9474.636058,296.082377,1149.143247
2895.246640,-10807.006753,-370.102971,3370.820191
2895.246978,-11621.233289,222.061783,4060.306139
2895.247315,-11843.295072,-296.082377,2834.553343
2895.247652,-11473.192101,-1332.370696,1838.629195
2895.247989,-10140.821405,-1776.494261,1149.143247
2895.248327,-10140.821405,-1850.514855,-306.438199
2895.248664,-9992.780217,-1406.391290,-2145.067394
2895.249001,-8734.430116,-740.205942,-4136.915689
2895.249339,-8882.471304,-666.185348,-4903.011187
2895.249676,-9548.656652,-1332.370696,-4519.963438
2895.250013,-9844.739029,-740.205942,-2451.505594
2895.250350,-9696.697840,-1258.350101,-306.438199
2895.250688,-10066.800811,-2220.617826,1532.190996
2895.251025,-10436.903782,-1480.411884,4136.915689
2895.251362,-11621.233289,-814.226536,3677.258390
2895.251700,-11917.315666,-2146.597232,3600.648841
2895.252037,-10955.047942,-1776.494261,3447.429741
2895.252374,-10658.965565,-962.267725,2221.676944
2895.252711,-9548.656652,-370.102971,1302.362347
2895.253049,-8512.368333,518.144159,-612.876398
2895.253386,-8290.306550,1702.473667,-1608.800546
2895.253723,-9548.656652,1406.391290,-2145.067394
2895.254061,-9770.718434,2146.597232,-1762.019645
2895.254398,-9474.636058,2368.659014,-536.266849
2895.254735,-10066.800811,1998.556043,1455.581446
2895.255072,-10807.006753,1258.350101,2757.943793
2895.255410,-10807.006753,1776.494261,2757.943793
2895.255747,-10658.965565,1184.329507,1915.238745
2895.256084,-9992.780217,-666.185348,1378.971896
2895.256422,-9918.759623,-1258.350101,459.657299
2895.256759,-9104.533087,-666.185348,-995.924147
2895.257096,-9474.636058,-1036.288319,-1455.581446
2895.257433,-8660.409521,0.000000,-2451.505594
2895.257771,-8586.388927,0.000000,-3294.210641
2895.258108,-9844.739029,148.041188,-2374.896044
2895.258445,-8808.450710,0.000000,-1608.800546
2895.258783,-9474.636058,-888.247130,536.266849
2895.259120,-10955.047942,-1258.350101,3983.696590
2895.259457,-11621.233289,-592.164754,4213.525239
2895.259794,-11473.192101,0.000000,3064.381992
2895.260132,-11029.068536,-1332.370696,2987.772442
2895.260469,-10955.047942,-1554.432478,2451.505594
2895.260806,-10288.862594,-1554.432478,766.095498
2895.261144,-10436.903782,-370.102971,-689.485948
2895.261481,-10066.800811,148.041188,-2528.115143
2895.261818,-9252.574275,148.041188,-4903.011187
2895.262155,-9104.533087,296.082377,-4060.306139
2895.262493,-9178.553681,222.061783,-2911.162892
2895.262830,-9104.533087,74.020594,-1225.752797
2895.263167,-10066.800811,-962.267725,766.095498
2895.263505,-11621.233289,-370.102971,2451.505594
2895.263842,-11473.192101,-518.144159,1608.800546
2895.264179,-11177.109724,-1776.494261,2221.676944
2895.264516,-10732.986159,-2368.659014,2681.334243
2895.264854,-9992.780217,-2516.700203,1838.629195
2895.265191,-9844.739029,-1628.453072,995.924147
2895.265528,-8882.471304,-814.226536,-842.705048
2895.265866,-8586.388927,-296.082377,-1455.581446
2895.266203,-9548.656652,0.000000,-919.314598
2895.266540,-9918.759623,1110.308913,-612.876398
2895.266877,-9178.553681,2664.741391,459.657299
2895.267215,-10214.842000,2368.659014,2221.676944
2895.267552,-10658.965565,1258.350101,3370.820191
2895.267889,-10881.027347,2220.617826,3983.696590
2895.268227,-10955.047942,1702.473667,3294.210641
2895.268564,-10807.006753,444.123565,2604.724693
2895.268901,-10807.006753,-222.061783,1685.410096
2895.269238,-9770.718434,0.000000,0.000000
2895.269576,-9252.574275,-740.205942,-1378.971896
2895.269913,-8586.388927,148.041188,-3064.381992
2895.270250,-8364.327145,-222.061783,-4366.744339
2895.270588,-9770.718434,-74.020594,-4136.915689
2895.270925,-9104.533087,148.041188,-4213.525239
2895.271262,-8956.491898,-1258.350101,-1991.848295
2895.271599,-10584.944971,-1184.329507,1302.362347
2895.271937,-11325.150913,-1480.411884,2528.115143
2895.272274,-11251.130318,-1554.432478,2528.115143
2895.272611,-10807.006753,-2960.823768,2298.286494
2895.272949,-11399.171507,-3404.947333,3064.381992
2895.273286,-10732.986159,-3182.885551,2451.505594
2895.273623,-9770.718434,-2368.659014,536.266849
2895.273960,-9918.759623,-370.102971,-459.657299
2895.274298,-9918.759623,-222.061783,-2451.505594
2895.274635,-10066.800811,148.041188,-2451.505594
2895.274972,-9400.615463,444.123565,-1608.800546
2895.275310,-9030.512492,1036.288319,-306.438199
2895.275647,-9992.780217,444.123565,1378.971896
2895.275984,-11769.274478,1036.288319,2221.676944
2895.276321,-11769.274478,740.205942,2068.457845
2895.276659,-11177.109724,148.041188,1685.410096
2895.276996,-10732.986159,-370.102971,1991.848295
2895.277333,-10288.862594,-1184.329507,689.485948
2895.277671,-8956.491898,-740.205942,0.000000
2895.278008,-8364.327145,-592.164754,-1378.971896
2895.278345,-8882.471304,666.185348,-2451.505594
2895.278682,-9622.677246,0.000000,-2451.505594
2895.279020,-9992.780217,444.123565,-1991.848295
2895.279357,-8438.347739,1110.308913,-919.314598
2895.279694,-9104.533087,296.082377,995.924147
2895.280032,-10658.965565,444.123565,4136.915689
2895.280369,-10362.883188,592.164754,3524.039291
2895.280706,-10807.006753,74.020594,3447.429741
2895.281043,-11325.150913,370.102971,4290.134789
2895.281381,-10807.006753,-296.082377,2298.286494
2895.281718,-10066.800811,-370.102971,1915.238745
2895.282055,-8882.471304,148.041188,612.876398
2895.282393,-8586.388927,1332.370696,-1762.019645
2895.282730,-9548.656652,592.164754,-3140.991542
2895.283067,-9844.739029,148.041188,-3217.601092
2895.283404,-9326.594869,222.061783,-3064.381992
2895.283742,-9104.533087,0.000000,-1685.410096
2895.284079,-10807.006753,-592.164754,612.876398
2895.284416,-11473.192101,-444.123565,842.705048
2895.284754,-10658.965565,-814.226536,229.828649
2895.285091,-11399.171507,-2294.638420,1225.752797
2895.285428,-10732.986159,-3404.947333,2145.067394
2895.285765,-10436.903782,-2664.741391,1532.190996
2895.286103,-10881.027347,-2516.700203,1378.971896
2895.286440,-9622.677246,-666.185348,-842.705048
2895.286777,-9474.636058,-1258.350101,-1762.019645
2895.287115,-10288.862594,-1110.308913,-1455.581446
2895.287452,-8438.347739,-962.267725,-1072.533697
2895.287789,-9104.533087,0.000000,536.266849
2895.288127,-10214.842000,444.123565,2451.505594
2895.288464,-11103.089130,1332.370696,2451.505594
2895.288801,-11325.150913,1924.535449,3140.991542
2895.289139,-11029.068536,296.082377,2528.115143
2895.289476,-10436.903782,592.164754,2911.162892
2895.289813,-10362.883188,296.082377,2068.457845
2895.290151,-9474.636058,444.123565,1225.752797
2895.290488,-8956.491898,592.164754,-383.047749
2895.290825,-9104.533087,444.123565,-2298.286494
2895.291163,-9548.656652,1110.308913,-3064.381992
2895.291500,-9252.574275,148.041188,-2987.772442
2895.291837,-8216.285956,1036.288319,-2604.724693
2895.292175,-8956.491898,-370.102971,-689.485948
2895.292512,-10658.965565,592.164754,842.705048
2895.292849,-10584.944971,370.102971,536.266849
2895.293187,-11251.130318,-888.247130,995.924147
2895.293524,-10658.965565,-1776.494261,1838.629195
2895.293861,-10214.842000,-1850.514855,1762.019645
2895.294199,-10214.842000,-2664.741391,2451.505594
2895.294536,-9770.718434,-1184.329507,995.924147
2895.294873,-9992.780217,-1480.411884,76.609550
2895.295211,-10288.862594,74.020594,-1991.848295
2895.295548,-10140.821405,-592.164754,-2221.676944
2895.295885,-9844.739029,74.020594,-1072.533697
2895.296223,-9104.533087,-666.185348,-766.095498
2895.296560,-10066.800811,74.020594,1225.752797
2895.296897,-10955.047942,444.123565,1685.410096
2895.297235,-11547.212695,-148.041188,229.828649
2895.297572,-11325.150913,-1480.411884,766.095498
2895.297909,-11621.233289,-2146.597232,1532.190996
2895.298247,-10140.821405,-1480.411884,612.876398
2895.298584,-9696.697840,-2368.659014,153.219100
2895.298921,-9252.574275,-962.267725,-995.924147
2895.299259,-8882.471304,-1628.453072,-2145.067394
2895.299596,-10214.842000,-1184.329507,-1915.238745
2895.299933,-9400.615463,0.000000,-1838.629195
2895.300271,-9030.512492,-444.123565,-919.314598
2895.300608,-9918.759623,444.123565,1455.581446
2895.300945,-10955.047942,222.061783,2145.067394
2895.301283,-10584.944971,1628.453072,2528.115143
2895.301620,-10955.047942,74.020594,2757.943793
2895.301957,-10510.924376,592.164754,3600.648841
2895.302295,-9844.739029,222.061783,2911.162892
2895.302632,-9622.677246,814.226536,3064.381992
2895.302970,-9400.615463,1332.370696,1685.410096
2895.303307,-9178.553681,1924.535449,-383.047749
2895.303644,-10362.883188,2664.741391,-842.705048
2895.303982,-10362.883188,2442.679609,-1838.629195
2895.304319,-9104.533087,2072.576638,-2374.896044
2895.304656,-8586.388927,1258.350101,-1455.581446
2895.304994,-10214.842000,592.164754,612.876398
2895.305331,-10140.821405,962.267725,383.047749
2895.305668,-10584.944971,0.000000,-612.876398
2895.306006,-10732.986159,-1480.411884,612.876398
2895.306343,-9770.718434,-2146.597232,229.828649
2895.306680,-9622.677246,-2738.761985,919.314598
2895.307018,-10362.883188,-1850.514855,842.705048
2895.307355,-9474.636058,-1554.432478,-1225.752797
2895.307692,-10362.883188,-1258.350101,-2451.505594
2895.308030,-10066.800811,-1702.473667,-2298.286494
2895.308367,-9400.615463,-1110.308913,-1378.971896
2895.308704,-9770.718434,-1924.535449,76.609550
2895.309042,-10436.903782,-1850.514855,1378.971896
2895.309379,-10584.944971,-296.082377,1991.848295
2895.309716,-10881.027347,-592.164754,2068.457845
2895.310054,-11029.068536,-814.226536,1685.410096
2895.310391,-11251.130318,-1184.329507,1991.848295
2895.310728,-10362.883188,-592.164754,2298.286494
2895.311066,-9844.739029,-296.082377,1838.629195
2895.311403,-9918.759623,148.041188,0.000000
2895.311740,-9400.615463,0.000000,-2221.676944
2895.312078,-9474.636058,148.041188,-2451.505594
2895.312415,-9474.636058,1110.308913,-2451.505594
2895.312752,-9178.553681,222.061783,-2298.286494
2895.313090,-9400.615463,-370.102971,-1685.410096
2895.313427,-9918.759623,0.000000,0.000000
2895.313764,-9622.677246,74.020594,459.657299
2895.314102,-9696.697840,-814.226536,1378.971896
2895.314439,-9770.718434,-814.226536,2451.505594
2895.314776,-9992.780217,-740.205942,2681.334243
2895.315114,-10510.924376,0.000000,2145.067394
2895.315451,-9844.739029,0.000000,1455.581446
2895.315788,-10288.862594,444.123565,842.705048
2895.316126,-10066.800811,444.123565,-536.266849
2895.316463,-10288.862594,888.247130,-536.266849
2895.316800,-8956.491898,740.205942,-919.314598
2895.317138,-9030.512492,962.267725,-383.047749
2895.317475,-10140.821405,148.041188,766.095498
2895.317812,-10732.986159,1036.288319,1225.752797
2895.318150,-10584.944971,444.123565,0.000000
2895.318487,-10955.047942,-444.123565,842.705048
2895.318824,-10510.924376,-888.247130,842.705048
2895.319162,-9918.759623,-1702.473667,459.657299
2895.319499,-10214.842000,-962.267725,842.705048
2895.319836,-9992.780217,-1110.308913,-1455.581446
2895.320174,-10066.800811,-1776.494261,-2374.896044
2895.320511,-10140.821405,-2590.720797,-2451.505594
2895.320848,-8882.471304,-2368.659014,-2221.676944
2895.321186,-8660.409521,-2294.638420,-995.924147
2895.321523,-10436.903782,-2294.638420,612.876398
2895.321861,-9622.677246,-1628.453072,536.266849
2895.322198,-10214.842000,-1554.432478,1072.533697
2895.322535,-11325.150913,-1702.473667,2451.505594
2895.322873,-11399.171507,-1480.411884,2757.943793
2895.323210,-10807.006753,-962.267725,3064.381992
2895.323547,-10807.006753,-296.082377,2757.943793
2895.323885,-9548.656652,444.123565,1685.410096
2895.324222,-9548.656652,888.247130,153.219100
2895.324559,-10510.924376,666.185348,229.828649
2895.324897,-9548.656652,1184.329507,-842.705048
2895.325234,-9030.512492,2072.576638,-766.095498
2895.325571,-10214.842000,2220.617826,0.000000
2895.325909,-9548.656652,1998.556043,689.485948
2895.326246,-9548.656652,1258.350101,-306.438199
2895.326583,-9844.739029,888.247130,306.438199
2895.326921,-9918.759623,0.000000,842.705048
2895.327258,-9844.739029,0.000000,842.705048
2895.327595,-10066.800811,-888.247130,766.095498
2895.327933,-9696.697840,0.000000,76.609550
2895.328270,-9696.697840,0.000000,-842.705048
2895.328607,-10288.862594,-444.123565,-766.095498
2895.328945,-9622.677246,-444.123565,-1455.581446
2895.329282,-9104.533087,-370.102971,-1378.971896
2895.329619,-9474.636058,-666.185348,0.000000
2895.329957,-9918.759623,-370.102971,995.924147
2895.330294,-10214.842000,-296.082377,995.924147
2895.330631,-10140.821405,-888.247130,383.047749
2895.330969,-10288.862594,-666.185348,1302.362347
2895.331306,-10510.924376,-518.144159,1608.800546
2895.331643,-10955.047942,-1480.411884,1302.362347
2895.331981,-9696.697840,0.000000,689.485948
2895.332318,-10214.842000,222.061783,-536.266849
2895.332655,-10510.924376,-814.226536,-1378.971896
2895.332993,-9918.759623,-814.226536,-2604.724693
2895.333330,-9474.636058,-518.144159,-1685.410096
2895.333667,-9400.615463,-1332.370696,-1532.190996
2895.334005,-10066.800811,-1258.350101,-766.095498
2895.334342,-10658.965565,-1110.308913,-459.657299
2895.334679,-10436.903782,-1110.308913,-1225.752797
2895.335017,-10732.986159,-2368.659014,0.000000
2895.335354,-10510.924376,-1480.411884,1149.143247
2895.335691,-10214.842000,-1628.453072,1455.581446
2895.336029,-10140.821405,-1480.411884,1991.848295
2895.336366,-9918.759623,-592.164754,1455.581446
2895.336703,-9770.718434,296.082377,612.876398
2895.337041,-11029.068536,74.020594,1378.971896
2895.337378,-10436.903782,296.082377,1608.800546
2895.337715,-9548.656652,592.164754,919.314598
2895.338053,-9844.739029,444.123565,1685.410096
2895.338390,-10510.924376,2294.638420,2451.505594
2895.338727,-9992.780217,1924.535449,229.828649
2895.339065,-9474.636058,1110.308913,0.000000
2895.339402,-9770.718434,740.205942,919.314598
2895.339740,-9992.780217,740.205942,229.828649
2895.340077,-9918.759623,518.144159,153.219100
2895.340414,-9622.677246,370.102971,0.000000
2895.340752,-9178.553681,74.020594,-766.095498
2895.341089,-9548.656652,148.041188,-1532.190996
2895.341426,-10214.842000,-814.226536,-1302.362347
2895.341764,-9104.533087,-1406.391290,-1915.238745
2895.342101,-9104.533087,-1480.411884,-153.219100
2895.342438,-10362.883188,-1258.350101,1378.971896
2895.342776,-10732.986159,-1110.308913,306.438199
2895.343113,-10658.965565,-1110.308913,-306.438199
2895.343450,-11399.171507,-1406.391290,536.266849
2895.343788,-10214.842000,-1332.370696,689.485948
2895.344125,-10140.821405,-1480.411884,766.095498
2895.344462,-11103.089130,-592.164754,2221.676944
2895.344800,-10140.821405,0.000000,919.314598
2895.345137,-10955.047942,518.144159,76.609550
2895.345474,-11399.171507,0.000000,153.219100
2895.345812,-9622.677246,74.020594,0.000000
2895.346149,-9474.636058,-296.082377,153.219100
2895.346486,-9696.697840,-222.061783,689.485948
2895.346824,-9918.759623,370.102971,459.657299
2895.347161,-10510.924376,740.205942,-459.657299
2895.347498,-10066.800811,-148.041188,-689.485948
2895.347836,-9548.656652,0.000000,-459.657299
2895.348173,-9696.697840,0.000000,-383.047749
2895.348510,-9474.636058,-666.185348,-153.219100
2895.348848,-9252.574275,0.000000,0.000000
2895.349185,-9178.553681,-296.082377,-459.657299
2895.349522,-10066.800811,-222.061783,919.314598
2895.349860,-10362.883188,518.144159,995.924147
2895.350197,-9474.636058,148.041188,459.657299
2895.350534,-9548.656652,-666.185348,1838.629195
2895.350872,-10140.821405,0.000000,2145.067394
2895.351209,-10066.800811,814.226536,1378.971896
2895.351546,-10140.821405,1110.308913,842.705048
2895.351884,-10584.944971,444.123565,689.485948
2895.352221,-10066.800811,1110.308913,0.000000
2895.352558,-10066.800811,518.144159,0.000000
2895.352896,-9622.677246,222.061783,536.266849
2895.353233,-8882.471304,148.041188,0.000000
2895.353570,-9918.759623,-370.102971,-383.047749
2895.353908,-10510.924376,0.000000,0.000000
2895.354245,-9992.780217,-814.226536,0.000000
2895.354582,-9992.780217,-1480.411884,-229.828649
2895.354920,-10140.821405,-1850.514855,153.219100
2895.355257,-10436.903782,-1110.308913,0.000000
2895.355594,-9918.759623,-1924.535449,-1455.581446
2895.355932,-9770.718434,-2738.761985,-1685.410096
2895.356269,-9770.718434,-2590.720797,-1072.533697
2895.356606,-10140.821405,-2516.700203,-612.876398
2895.356944,-9992.780217,-2072.576638,-76.609550
2895.357281,-9992.780217,-1776.494261,0.000000
2895.357619,-9918.759623,-1998.556043,383.047749
2895.357956,-11029.068536,-1702.473667,1991.848295
2895.358293,-10362.883188,-74.020594,2068.457845
2895.358631,-10436.903782,-592.164754,2145.067394
2895.358968,-10807.006753,-444.123565,3140.991542
2895.359305,-10732.986159,592.164754,2374.896044
2895.359643,-10436.903782,1258.350101,1302.362347
2895.359980,-10584.944971,1258.350101,919.314598
2895.360317,-9548.656652,814.226536,-383.047749
2895.360655,-9326.594869,1258.350101,-612.876398
2895.360992,-9326.594869,962.267725,-306.438199
2895.361329,-9104.533087,1702.473667,-612.876398
2895.361667,-9400.615463,1184.329507,-383.047749
2895.362004,-9844.739029,962.267725,-612.876398
2895.362341,-9844.739029,888.247130,-383.047749
2895.362679,-9030.512492,74.020594,0.000000
2895.363016,-9030.512492,-888.247130,1072.533697
2895.363353,-10066.800811,-740.205942,1838.629195
2895.363691,-10214.842000,148.041188,229.828649
2895.364028,-10140.821405,0.000000,-612.876398
2895.364365,-10362.883188,-1406.391290,-995.924147
2895.364703,-8956.491898,-1258.350101,-766.095498
2895.365040,-9474.636058,-1776.494261,306.438199
2895.365377,-9178.553681,-740.205942,919.314598
2895.365715,-9548.656652,222.061783,0.000000
2895.366052,-11473.192101,-444.123565,1149.143247
2895.366389,-11325.150913,518.144159,995.924147
2895.366727,-10584.944971,0.000000,1225.752797
2895.367064,-11251.130318,-444.123565,1532.190996
2895.367401,-10658.965565,-888.247130,1225.752797
2895.367739,-10732.986159,74.020594,995.924147
2895.368076,-10362.883188,-592.164754,-689.485948
2895.368413,-10066.800811,-1036.288319,-1455.581446
2895.368751,-10510.924376,-1258.350101,-1378.971896
2895.369088,-9918.759623,-2072.576638,-1302.362347
2895.369425,-9178.553681,-444.123565,-919.314598
2895.369763,-8808.450710,-814.226536,-919.314598
2895.370100,-10140.821405,-962.267725,76.609550
2895.370437,-11029.068536,-1258.350101,612.876398
2895.370775,-10288.862594,-370.102971,1072.533697
2895.371112,-9992.780217,-296.082377,1532.190996
2895.371449,-10510.924376,-1258.350101,2604.724693
2895.371787,-10955.047942,74.020594,2528.115143
2895.372124,-9770.718434,-74.020594,1225.752797
2895.372461,-9474.636058,74.020594,1915.238745
2895.372799,-9400.615463,74.020594,1149.143247
2895.373136,-9474.636058,888.247130,229.828649
2895.373473,-9178.553681,1554.432478,842.705048
2895.373811,-8882.471304,2442.679609,459.657299
2895.374148,-9474.636058,2738.761985,459.657299
2895.374485,-10881.027347,2146.597232,229.828649
2895.374823,-10288.862594,1776.494261,689.485948
2895.375160,-9844.739029,1776.494261,-153.219100
2895.375497,-8882.471304,0.000000,689.485948
2895.375835,-10140.821405,0.000000,1915.238745
2895.376172,-10436.903782,-296.082377,-153.219100
2895.376510,-9548.656652,-666.185348,-1762.019645
2895.376847,-9844.739029,-1776.494261,-1685.410096
2895.377184,-9918.759623,-1628.453072,-1991.848295
2895.377522,-9326.594869,-2368.659014,-1225.752797
2895.377859,-9992.780217,-1036.288319,0.000000
2895.378196,-9474.636058,-296.082377,-1302.362347
2895.378534,-11103.089130,-1850.514855,-459.657299
2895.378871,-11325.150913,-1406.391290,995.924147
2895.379208,-10214.842000,-2072.576638,689.485948
2895.379546,-10658.965565,-1850.514855,2681.334243
2895.379883,-11547.212695,-2072.576638,3064.381992
2895.380220,-11029.068536,-1332.370696,1915.238745
2895.380558,-10436.903782,-962.267725,842.705048
2895.380895,-10066.800811,-1998.556043,536.266849
2895.381232,-9918.759623,-814.226536,-612.876398
2895.381570,-9548.656652,-1554.432478,-766.095498
2895.381907,-9474.636058,148.041188,-842.705048
2895.382244,-8586.388927,370.102971,-1302.362347
2895.382582,-9696.697840,296.082377,-766.095498
2895.382919,-10881.027347,148.041188,-306.438199
2895.383256,-10066.800811,148.041188,0.000000
2895.383594,-9918.759623,74.020594,612.876398
2895.383931,-11029.068536,-222.061783,2145.067394
2895.384268,-11029.068536,-444.123565,1762.019645
2895.384606,-9548.656652,0.000000,0.000000
2895.384943,-9918.759623,-592.164754,306.438199
2895.385280,-9622.677246,-74.020594,-306.438199
2895.385618,-9252.574275,-296.082377,-995.924147
2895.385955,-9548.656652,370.102971,919.314598
2895.386292,-8660.409521,1554.432478,0.000000
2895.386630,-9178.553681,2368.659014,229.828649
2895.386967,-11473.192101,1924.535449,1225.752797
2895.387304,-10214.842000,2442.679609,1072.533697
2895.387641,-10066.800811,2072.576638,1302.362347
2895.387979,-10214.842000,444.123565,2987.772442
2895.388316,-10214.842000,888.247130,3294.210641
2895.388653,-11177.109724,296.082377,1378.971896
2895.388991,-10140.821405,74.020594,-306.438199
2895.389328,-8808.450710,-962.267725,-1302.362347
2895.389665,-9326.594869,-1480.411884,-1072.533697
2895.390002,-8512.368333,-1258.350101,-2451.505594
2895.390340,-8734.430116,-296.082377,-2681.334243
2895.390677,-9178.553681,74.020594,-2757.943793
2895.391014,-10436.903782,-962.267725,-2681.334243
2895.391352,-11325.150913,-592.164754,-536.266849
2895.391689,-10140.821405,-2146.597232,0.000000
2895.392026,-10140.821405,-2294.638420,1838.629195
2895.392363,-11103.089130,-2146.597232,2911.162892
2895.392701,-11843.295072,-1480.411884,2451.505594
2895.393038,-10807.006753,-2294.638420,766.095498
2895.393375,-10658.965565,-2442.679609,1225.752797
2895.393713,-10584.944971,-1480.411884,612.876398
2895.394050,-9770.718434,-1036.288319,0.000000
2895.394387,-9474.636058,222.061783,0.000000
2895.394725,-8956.491898,1850.514855,0.000000
2895.395062,-10288.862594,1332.370696,76.609550
2895.395399,-11325.150913,2294.638420,306.438199
2895.395736,-10955.047942,1776.494261,536.266849
2895.396074,-10214.842000,1258.350101,1838.629195
2895.396411,-10584.944971,0.000000,2451.505594
2895.396748,-10436.903782,222.061783,3064.381992
2895.397086,-9770.718434,0.000000,689.485948
2895.397423,-8882.471304,-666.185348,-383.047749
2895.397760,-8956.491898,-370.102971,-1532.190996
2895.398097,-8734.430116,-666.185348,-2681.334243
2895.398435,-8882.471304,0.000000,-2145.067394
2895.398772,-8882.471304,444.123565,-2604.724693
2895.399109,-8660.409521,888.247130,-2374.896044
2895.399447,-10140.821405,370.102971,-459.657299
2895.399784,-9844.739029,74.020594,766.095498
2895.400121,-9548.656652,-444.123565,2145.067394
2895.400459,-11177.109724,-1554.432478,3830.477490
2895.400796,-11843.295072,-814.226536,4903.011187
2895.401133,-11177.109724,-592.164754,2528.115143
2895.401470,-10510.924376,-1406.391290,1302.362347
2895.401808,-9252.574275,-1554.432478,0.000000
2895.402145,-9548.656652,-1480.411884,-919.314598
2895.402482,-9770.718434,-74.020594,-1838.629195
2895.402820,-9474.636058,222.061783,-2987.772442
2895.403157,-9252.574275,814.226536,-3064.381992
2895.403494,-10214.842000,-370.102971,-1915.238745
2895.403831,-10658.965565,-518.144159,0.000000
2895.404169,-9474.636058,-1332.370696,919.314598
2895.404506,-10807.006753,-2294.638420,2834.553343
2895.404843,-11695.253884,-2368.659014,3294.210641
2895.405181,-11399.171507,-1998.556043,2374.896044
2895.405518,-11251.130318,-2220.617826,842.705048
2895.405855,-10066.800811,-3034.844362,0.000000
2895.406193,-8956.491898,-2368.659014,-995.924147
2895.406530,-8586.388927,-1258.350101,-1225.752797
2895.406867,-8364.327145,-518.144159,-1608.800546
2895.407204,-8290.306550,518.144159,-2298.286494
2895.407542,-9844.739029,0.000000,-919.314598
2895.407879,-10955.047942,1258.350101,766.095498
2895.408216,-10881.027347,2146.597232,2068.457845
2895.408554,-10584.944971,2072.576638,3677.258390
2895.408891,-10658.965565,1406.391290,4673.182538
2895.409228,-11621.233289,1924.535449,5132.839837
2895.409565,-10807.006753,1184.329507,2298.286494
2895.409903,-10066.800811,666.185348,612.876398
2895.410240,-9474.636058,740.205942,-612.876398
2895.410577,-9030.512492,592.164754,-2145.067394
2895.410915,-8956.491898,1702.473667,-2834.553343
2895.411252,-8808.450710,2294.638420,-3600.648841
2895.411589,-9326.594869,1258.350101,-3447.429741
2895.411926,-9474.636058,592.164754,-2834.553343
2895.412264,-10066.800811,0.000000,-536.266849
2895.412601,-9844.739029,-1036.288319,1532.190996
2895.412938,-10140.821405,-2294.638420,2681.334243
2895.413276,-11769.274478,-1110.308913,4443.353888
2895.413613,-12361.439231,-1406.391290,2528.115143
2895.413950,-10732.986159,-1924.535449,153.219100
2895.414288,-10288.862594,-3108.864956,0.000000
2895.414625,-8956.491898,-2220.617826,-1149.143247
2895.414962,-8512.368333,-2368.659014,-536.266849
2895.415299,-8956.491898,0.000000,-1378.971896
2895.415637,-9104.533087,666.185348,-2528.115143
2895.415974,-10658.965565,222.061783,-1455.581446
2895.416311,-10881.027347,-148.041188,76.609550
2895.416649,-9770.718434,74.020594,1991.848295
2895.416986,-10658.965565,-592.164754,3677.258390
2895.417323,-11769.274478,-222.061783,4673.182538
2895.417660,-12213.398043,-370.102971,3447.429741
2895.417998,-11695.253884,-666.185348,1225.752797
2895.418335,-10362.883188,-1258.350101,153.219100
2895.418672,-9474.636058,-1850.514855,-1378.971896
2895.419010,-8438.347739,-1332.370696,-2681.334243
2895.419347,-8216.285956,-444.123565,-2757.943793
2895.419684,-8290.306550,1036.288319,-3677.258390
2895.420022,-9400.615463,518.144159,-2528.115143
2895.420359,-10658.965565,370.102971,-919.314598
2895.420696,-9844.739029,1406.391290,766.095498
2895.421033,-9696.697840,888.247130,3294.210641
2895.421371,-10732.986159,74.020594,5439.278036
2895.421708,-11547.212695,0.000000,5515.887586
2895.422045,-10732.986159,666.185348,3907.087040
2895.422383,-10658.965565,-222.061783,2451.505594
2895.422720,-9844.739029,-370.102971,1225.752797
2895.423057,-8586.388927,222.061783,-689.485948
2895.423394,-8734.430116,1110.308913,-1685.410096
2895.423732,-7846.182985,1850.514855,-3370.820191
2895.424069,-8290.306550,1184.329507,-4979.620737
2895.424406,-9474.636058,1036.288319,-2451.505594
2895.424744,-8882.471304,962.267725,-1302.362347
2895.425081,-9252.574275,444.123565,842.705048
2895.425418,-11843.295072,-666.185348,2757.943793
2895.425755,-11917.315666,-740.205942,2834.553343
2895.426093,-12583.501014,-1110.308913,1838.629195
2895.426430,-11177.109724,-2442.679609,229.828649
2895.426767,-9474.636058,-3182.885551,0.000000
2895.427105,-9770.718434,-2886.803174,-919.314598
2895.427442,-9770.718434,-2590.720797,-2451.505594
2895.427779,-9030.512492,-1184.329507,-3600.648841
2895.428117,-9252.574275,-740.205942,-3753.867940
2895.428454,-9844.739029,-1258.350101,-2298.286494
2895.428791,-10362.883188,-444.123565,153.219100
2895.429128,-9400.615463,-814.226536,2068.457845
2895.429466,-10732.986159,-592.164754,4519.963438
2895.429803,-12657.521608,-222.061783,5822.325785
2895.430140,-12657.521608,0.000000,4903.011187
2895.430478,-11547.212695,-296.082377,3600.648841
2895.430815,-10214.842000,-740.205942,2298.286494
2895.431152,-9548.656652,0.000000,766.095498
2895.431489,-8068.244768,-444.123565,-1378.971896
2895.431827,-7550.100608,0.000000,-2451.505594
2895.432164,-7920.203579,1406.391290,-3677.258390
2895.432501,-9326.594869,1480.411884,-3294.210641
2895.432839,-10140.821405,1184.329507,-2221.676944
2895.433176,-9696.697840,1332.370696,-383.047749
2895.433513,-9474.636058,296.082377,1685.410096
2895.433851,-10510.924376,-296.082377,3447.429741
2895.434188,-11399.171507,-296.082377,4749.792088
2895.434525,-11621.233289,-592.164754,3447.429741
2895.434862,-10807.006753,-1480.411884,2374.896044
2895.435200,-11029.068536,-740.205942,1378.971896
2895.435537,-10288.862594,-1110.308913,0.000000
2895.435874,-8956.491898,-518.144159,-1838.629195
2895.436212,-8438.347739,740.205942,-2528.115143
2895.436549,-8808.450710,814.226536,-3753.867940
2895.436886,-9548.656652,592.164754,-2451.505594
2895.437223,-9992.780217,740.205942,-612.876398
2895.437561,-9252.574275,814.226536,229.828649
2895.437898,-10658.965565,0.000000,3064.381992
2895.438235,-12361.439231,0.000000,3753.867940
2895.438573,-11769.274478,-222.061783,1991.848295
2895.438910,-11621.233289,-1554.432478,1072.533697
2895.439247,-10436.903782,-2516.700203,612.876398
2895.439585,-9474.636058,-1924.535449,-995.924147
2895.439922,-9252.574275,-1924.535449,-2298.286494
2895.440259,-8290.306550,-1850.514855,-4366.744339
2895.440596,-8068.244768,-666.185348,-5132.839837
2895.440934,-9844.739029,-1702.473667,-3447.429741
2895.441271,-10510.924376,-296.082377,-1685.410096
2895.441608,-9474.636058,-1110.308913,-229.828649
2895.441946,-10288.862594,-296.082377,2145.067394
2895.442283,-11843.295072,-592.164754,4136.915689
2895.442620,-12361.439231,-296.082377,4979.620737
2895.442957,-11843.295072,-296.082377,4519.963438
2895.443295,-10955.047942,-1332.370696,3907.087040
2895.443632,-10066.800811,-666.185348,2834.553343
2895.443969,-9474.636058,-222.061783,766.095498
2895.444307,-9178.553681,222.061783,229.828649
2895.444644,-7698.141797,1628.453072,-2451.505594
2895.444981,-8882.471304,1850.514855,-2451.505594
2895.445318,-9844.739029,2442.679609,-1991.848295
2895.445656,-9104.533087,2886.803174,-1838.629195
2895.445993,-9844.739029,1110.308913,1149.143247
2895.446330,-10436.903782,962.267725,2451.505594
2895.446668,-11251.130318,518.144159,2911.162892
2895.447005,-11991.336260,148.041188,2451.505594
2895.447342,-10362.883188,-1480.411884,1149.143247
2895.447680,-9918.759623,-2146.597232,612.876398
2895.448017,-9622.677246,-2516.700203,229.828649
2895.448354,-8512.368333,-1924.535449,-995.924147
2895.448691,-8660.409521,-962.267725,-3140.991542
2895.449029,-8956.491898,-740.205942,-3140.991542
2895.449366,-9770.718434,0.000000,-3140.991542
2895.449703,-9918.759623,0.000000,-1608.800546
2895.450041,-9770.718434,74.020594,306.438199
2895.450378,-10584.944971,-592.164754,2374.896044
2895.450715,-12213.398043,74.020594,4290.134789
2895.451052,-12139.377449,0.000000,3294.210641
2895.451390,-11399.171507,-1776.494261,3370.820191
2895.451727,-11325.150913,-1924.535449,2604.724693
2895.452064,-10436.903782,-1258.350101,919.314598
2895.452402,-9918.759623,-888.247130,-153.219100
2895.452739,-8734.430116,-888.247130,-1762.019645
2895.453076,-7920.203579,74.020594,-3600.648841
2895.453414,-8660.409521,-296.082377,-3600.648841
2895.453751,-9252.574275,666.185348,-3064.381992
2895.454088,-9400.615463,296.082377,-2221.676944
2895.454425,-10584.944971,0.000000,-612.876398
2895.454763,-10881.027347,-740.205942,1915.238745
2895.455100,-11325.150913,-962.267725,2911.162892
2895.455437,-10658.965565,-1258.350101,2681.334243
2895.455775,-10658.965565,-2220.617826,3370.820191
2895.456112,-10510.924376,-2072.576638,2834.553343
2895.456449,-9252.574275,-740.205942,689.485948
2895.456786,-9474.636058,-296.082377,153.219100
2895.457124,-9548.656652,444.123565,-1149.143247
2895.457461,-8808.450710,1184.329507,-2068.457845
2895.457798,-10066.800811,2516.700203,-1225.752797
2895.458136,-9030.512492,2590.720797,-689.485948
2895.458473,-9104.533087,1480.411884,306.438199
2895.458810,-11177.109724,1258.350101,2528.115143
2895.459148,-11029.068536,888.247130,2681.334243
2895.459485,-11251.130318,666.185348,2911.162892
2895.459822,-10807.006753,-962.267725,2451.505594
2895.460159,-10066.800811,-1554.432478,1685.410096
2895.460497,-9474.636058,-1480.411884,383.047749
2895.460834,-9400.615463,-1332.370696,-766.095498
2895.461171,-9104.533087,0.000000,-2681.334243
2895.461509,-9770.718434,-444.123565,-4213.525239
2895.461846,-9844.739029,-814.226536,-4060.306139
2895.462183,-8956.491898,-592.164754,-3294.210641
2895.462520,-9178.553681,-518.144159,-1455.581446
2895.462858,-10214.842000,-1850.514855,612.876398
2895.463195,-11177.109724,-1406.391290,2451.505594
2895.463532,-11473.192101,-1554.432478,2911.162892
2895.463870,-11991.336260,-1776.494261,3907.087040
2895.464207,-11621.233289,-2516.700203,4213.525239
2895.464544,-11177.109724,-1480.411884,2221.676944
2895.464881,-10066.800811,-1036.288319,1838.629195
2895.465219,-9178.553681,0.000000,0.000000
2895.465556,-8660.409521,592.164754,-1532.190996
2895.465893,-9696.697840,296.082377,-1762.019645
2895.466231,-9770.718434,1554.432478,-1608.800546
2895.466568,-8512.368333,2146.597232,-2374.896044
2895.466905,-10140.821405,666.185348,306.438199
2895.467243,-10362.883188,1110.308913,1608.800546
2895.467580,-10436.903782,592.164754,1685.410096
2895.467917,-10881.027347,222.061783,2374.896044
2895.468254,-10436.903782,-1036.288319,1838.629195
2895.468592,-10436.903782,-1554.432478,1762.019645
2895.468929,-9326.594869,-1406.391290,995.924147
2895.469266,-8882.471304,-1258.350101,-306.438199
2895.469604,-9252.574275,0.000000,-1149.143247
2895.469941,-9622.677246,-592.164754,-3064.381992
2895.470278,-9548.656652,740.205942,-2528.115143
2895.470615,-9178.553681,1110.308913,-1838.629195
2895.470953,-9252.574275,74.020594,0.000000
2895.471290,-10584.944971,666.185348,1915.238745
2895.471627,-11399.171507,148.041188,3140.991542
2895.471965,-11621.233289,962.267725,2987.772442
2895.472302,-11399.171507,-1110.308913,2681.334243
2895.472639,-11177.109724,-1406.391290,3064.381992
2895.472977,-9992.780217,-1776.494261,1991.848295
2895.473314,-9622.677246,-296.082377,766.095498
2895.473651,-9178.553681,666.185348,-1225.752797
2895.473988,-9326.594869,0.000000,-3447.429741
2895.474326,-9918.759623,-592.164754,-3830.477490
2895.474663,-8956.491898,222.061783,-4213.525239
2895.475000,-8882.471304,-148.041188,-2528.115143
2895.475338,-9844.739029,-518.144159,-766.095498
2895.475675,-10658.965565,-962.267725,766.095498
2895.476012,-10881.027347,-740.205942,1455.581446
2895.476349,-11251.130318,-2368.659014,2068.457845
2895.476687,-11473.192101,-2516.700203,3064.381992
2895.477024,-11325.150913,-2294.638420,2068.457845
2895.477361,-9622.677246,-1998.556043,1532.190996
2895.477699,-9474.636058,-1332.370696,842.705048
2895.478036,-9400.615463,-296.082377,-306.438199
2895.478373,-10066.800811,518.144159,-1225.752797
2895.478710,-10214.842000,518.144159,-689.485948
2895.479048,-8438.347739,1776.494261,-689.485948
2895.479385,-9474.636058,1110.308913,842.705048
2895.479722,-11251.130318,2294.638420,2987.772442
2895.480060,-10658.965565,1850.514855,2834.553343
2895.480397,-11029.068536,1036.288319,2221.676944
2895.480734,-10658.965565,296.082377,2681.334243
2895.481072,-10066.800811,-222.061783,1991.848295
2895.481409,-9770.718434,-370.102971,1072.533697
2895.481746,-9252.574275,-296.082377,-153.219100
2895.482083,-9400.615463,888.247130,-1838.629195
2895.482421,-9918.759623,370.102971,-3830.477490
2895.482758,-9918.759623,148.041188,-3217.601092
2895.483095,-8364.327145,-518.144159,-3140.991542
2895.483433,-8290.306550,-1110.308913,-1762.019645
2895.483770,-9992.780217,-666.185348,306.438199
2895.484107,-10510.924376,-814.226536,995.924147
2895.484444,-10807.006753,-592.164754,1532.190996
2895.484782,-11843.295072,-1998.556043,2374.896044
2895.485119,-11103.089130,-1628.453072,2528.115143
2895.485456,-11325.150913,-1628.453072,2911.162892
2895.485794,-10140.821405,-1702.473667,2068.457845
2895.486131,-9178.553681,-592.164754,536.266849
2895.486468,-9918.759623,-296.082377,-995.924147
2895.486805,-10140.821405,0.000000,-842.705048
2895.487143,-9474.636058,592.164754,-2221.676944
2895.487480,-9252.574275,222.061783,-1532.190996
2895.487817,-9918.759623,592.164754,-536.266849
2895.488154,-10436.903782,444.123565,229.828649
2895.488492,-10288.862594,222.061783,842.705048
2895.488829,-10436.903782,-1110.308913,1532.190996
2895.489166,-11029.068536,-740.205942,2145.067394
2895.489503,-11103.089130,-888.247130,1532.190996
2895.489840,-10510.924376,-1480.411884,1149.143247
2895.490178,-9622.677246,-1406.391290,-306.438199
2895.490515,-9178.553681,-1036.288319,-1072.533697
2895.490852,-8882.471304,-370.102971,-1915.238745
2895.491189,-9474.636058,-296.082377,-1762.019645
2895.491527,-8586.388927,222.061783,-1378.971896
2895.491864,-8364.327145,-444.123565,-766.095498
2895.492201,-10066.800811,74.020594,2145.067394
2895.492538,-10955.047942,1850.514855,2987.772442
2895.492875,-10732.986159,444.123565,2451.505594
2895.493213,-10955.047942,444.123565,3524.039291
2895.493550,-10362.883188,0.000000,4136.915689
2895.493887,-10214.842000,0.000000,3370.820191
2895.494224,-10214.842000,0.000000,2374.896044
2895.494562,-10510.924376,1110.308913,0.000000
2895.494899,-10436.903782,592.164754,-1532.190996
2895.495236,-9770.718434,0.000000,-3064.381992
2895.495573,-8512.368333,0.000000,-2681.334243
2895.495910,-8438.347739,-666.185348,-2145.067394
2895.496248,-9104.533087,0.000000,-919.314598
2895.496585,-10288.862594,148.041188,-995.924147
2895.496922,-11325.150913,-296.082377,-842.705048
2895.497259,-11621.233289,-1776.494261,383.047749
2895.497597,-11029.068536,-2664.741391,995.924147
2895.497934,-10436.903782,-2368.659014,1455.581446
2895.498271,-10436.903782,-1924.535449,1302.362347
2895.498608,-10436.903782,-1628.453072,76.609550
2895.498945,-9548.656652,-1406.391290,-1378.971896
2895.499283,-10510.924376,-1332.370696,-995.924147
2895.499620,-9474.636058,-888.247130,-1302.362347
2895.499957,-8956.491898,-592.164754,-689.485948
2895.500294,-9474.636058,-148.041188,995.924147
2895.500632,-10066.800811,1110.308913,1762.019645
2895.500969,-10807.006753,1184.329507,1685.410096
2895.501306,-11251.130318,666.185348,2068.457845
2895.501643,-10955.047942,-148.041188,2528.115143
2895.501980,-10214.842000,74.020594,1455.581446
2895.502318,-10140.821405,370.102971,1455.581446
2895.502655,-9770.718434,518.144159,919.314598
2895.502992,-9252.574275,518.144159,-1455.581446
2895.503329,-9622.677246,444.123565,-2451.505594
2895.503667,-9474.636058,592.164754,-3064.381992
2895.504004,-8438.347739,148.041188,-2604.724693
2895.504341,-9252.574275,-296.082377,-842.705048
2895.504678,-9622.677246,1406.391290,306.438199
2895.505015,-10140.821405,1628.453072,459.657299
2895.505353,-11399.171507,0.000000,1302.362347
2895.505690,-10881.027347,74.020594,1762.019645
2895.506027,-11177.109724,-1332.370696,3140.991542
2895.506364,-10436.903782,-1184.329507,3370.820191
2895.506702,-9696.697840,-592.164754,2757.943793
2895.507039,-10362.883188,-444.123565,1532.190996
2895.507376,-10066.800811,-592.164754,-229.828649
2895.507713,-9474.636058,-592.164754,-383.047749
2895.508050,-8882.471304,296.082377,-383.047749
2895.508388,-9400.615463,74.020594,-153.219100
2895.508725,-10140.821405,74.020594,383.047749
2895.509062,-10584.944971,814.226536,0.000000
2895.509399,-10658.965565,296.082377,-153.219100
2895.509737,-10584.944971,-1110.308913,306.438199
2895.510074,-10362.883188,-1776.494261,842.705048
2895.510411,-9918.759623,-2072.576638,612.876398
2895.510748,-9992.780217,-1776.494261,612.876398
2895.511085,-10214.842000,-1332.370696,-1378.971896
2895.511423,-10214.842000,-1850.514855,-2757.943793
2895.511760,-9992.780217,-1850.514855,-1685.410096
2895.512097,-9326.594869,-444.123565,-1532.190996
2895.512434,-9252.574275,-888.247130,-1072.533697
2895.512772,-9548.656652,-592.164754,306.438199
2895.513109,-10288.862594,0.000000,1149.143247
2895.513446,-10732.986159,518.144159,919.314598
2895.513783,-11103.089130,74.020594,1838.629195
2895.514120,-11029.068536,0.000000,2987.772442
2895.514458,-10362.883188,0.000000,3217.601092
2895.514795,-9474.636058,444.123565,3217.601092
2895.515132,-9992.780217,1332.370696,2221.676944
2895.515469,-10066.800811,1258.350101,459.657299
2895.515806,-9770.718434,1554.432478,-766.095498
2895.516144,-9400.615463,2220.617826,-1302.362347
2895.516481,-8734.430116,1702.473667,-1915.238745
2895.516818,-8512.368333,1258.350101,-919.314598
2895.517155,-9400.615463,296.082377,0.000000
2895.517493,-9548.656652,1332.370696,-689.485948
2895.517830,-10066.800811,222.061783,-536.266849
2895.518167,-10584.944971,-962.267725,459.657299
2895.518504,-9844.739029,-1628.453072,459.657299
2895.518841,-9992.780217,-1998.556043,1685.410096
2895.519179,-10214.842000,-1406.391290,1762.019645
2895.519516,-9844.739029,-888.247130,0.000000
2895.519853,-10584.944971,-1258.350101,-995.924147
2895.520190,-10510.924376,-1702.473667,-459.657299
2895.520528,-9252.574275,-962.267725,-229.828649
2895.520865,-9622.677246,-1184.329507,0.000000
2895.521202,-10955.047942,-296.082377,995.924147
2895.521539,-10807.006753,0.000000,842.705048
2895.521876,-10807.006753,0.000000,0.000000
2895.522214,-10658.965565,-1036.288319,1532.190996
2895.522551,-10436.903782,-1258.350101,1915.238745
2895.522888,-10066.800811,-1110.308913,1685.410096
2895.523225,-10510.924376,-518.144159,1608.800546
2895.523563,-10510.924376,0.000000,76.609550
2895.523900,-10140.821405,-296.082377,-919.314598
2895.524237,-10214.842000,-1258.350101,-842.705048
2895.524574,-8882.471304,-222.061783,-1378.971896
2895.524911,-8660.409521,-740.205942,-1225.752797
2895.525249,-9474.636058,-740.205942,-459.657299
2895.525586,-9770.718434,74.020594,-459.657299
2895.525923,-10066.800811,-296.082377,-153.219100
2895.526260,-10362.883188,-814.226536,229.828649
2895.526598,-9770.718434,-740.205942,1072.533697
2895.526935,-10140.821405,-444.123565,1608.800546
2895.527272,-9918.759623,-370.102971,1762.019645
2895.527609,-9844.739029,296.082377,1532.190996
2895.527946,-10214.842000,1258.350101,1072.533697
2895.528284,-10658.965565,962.267725,153.219100
2895.528621,-9992.780217,1110.308913,689.485948
2895.528958,-9252.574275,1554.432478,383.047749
2895.529295,-9326.594869,1628.453072,459.657299
2895.529633,-10362.883188,1258.350101,842.705048
2895.529970,-10288.862594,1628.453072,-229.828649
2895.530307,-10214.842000,370.102971,-1225.752797
2895.530644,-10066.800811,148.041188,459.657299
2895.530981,-9548.656652,-222.061783,689.485948
2895.531319,-9770.718434,-1480.411884,612.876398
2895.531656,-9992.780217,-1332.370696,459.657299
2895.531993,-9622.677246,0.000000,-1225.752797
2895.532330,-10584.944971,-1258.350101,-1915.238745
2895.532668,-9844.739029,-2146.597232,-1762.019645
2895.533005,-9400.615463,-1554.432478,-1455.581446
2895.533342,-9622.677246,-1554.432478,-842.705048
2895.533679,-9696.697840,-1406.391290,0.000000
2895.534016,-10584.944971,-1480.411884,0.000000
2895.534354,-10807.006753,-2294.638420,383.047749
2895.534691,-10288.862594,-1406.391290,1149.143247
2895.535028,-10955.047942,-1628.453072,2068.457845
2895.535365,-9844.739029,-1184.329507,2145.067394
2895.535703,-10362.883188,-814.226536,2374.896044
2895.536040,-10436.903782,0.000000,2681.334243
2895.536377,-9844.739029,0.000000,995.924147
2895.536714,-10881.027347,222.061783,1608.800546
2895.537051,-10584.944971,592.164754,842.705048
2895.537389,-9104.533087,814.226536,0.000000
2895.537726,-10214.842000,1184.329507,536.266849
2895.538063,-10140.821405,1036.288319,-383.047749
2895.538400,-9548.656652,1480.411884,-995.924147
2895.538738,-10214.842000,370.102971,-689.485948
2895.539075,-10066.800811,814.226536,0.000000
2895.539412,-9622.677246,296.082377,0.000000
2895.539749,-9992.780217,-222.061783,229.828649
2895.540086,-9400.615463,222.061783,842.705048
2895.540424,-9474.636058,518.144159,0.000000
2895.540761,-10362.883188,296.082377,229.828649
2895.541098,-10140.821405,370.102971,229.828649
2895.541435,-9548.656652,148.041188,76.609550
2895.541773,-9918.759623,0.000000,383.047749
2895.542110,-9992.780217,-222.061783,842.705048
2895.542447,-10214.842000,518.144159,689.485948
2895.542784,-10288.862594,-666.185348,383.047749
2895.543121,-9326.594869,-518.144159,536.266849
2895.543459,-9178.553681,-518.144159,995.924147
2895.543796,-9844.739029,-296.082377,842.705048
2895.544133,-10288.862594,-740.205942,306.438199
2895.544470,-10658.965565,666.185348,-766.095498
2895.544808,-10214.842000,-222.061783,-1302.362347
2895.545145,-10362.883188,-740.205942,-1225.752797
2895.545482,-9474.636058,-1036.288319,-1225.752797
2895.545819,-9770.718434,-1036.288319,-842.705048
2895.546156,-10584.944971,-1480.411884,-383.047749
2895.546494,-10436.903782,-1258.350101,-1991.848295
2895.546831,-10955.047942,-2590.720797,-306.438199
2895.547168,-10732.986159,-1850.514855,-153.219100
2895.547505,-9622.677246,-2294.638420,383.047749
2895.547843,-10140.821405,-1258.350101,919.314598
2895.548180,-10288.862594,-1110.308913,842.705048
2895.548517,-10436.903782,-592.164754,1302.362347
2895.548854,-10955.047942,0.000000,1378.971896
2895.549191,-10881.027347,-222.061783,1608.800546
2895.549529,-10881.027347,666.185348,2528.115143
2895.549866,-9992.780217,74.020594,2221.676944
2895.550203,-9178.553681,296.082377,2451.505594
2895.550540,-9844.739029,962.267725,2068.457845
2895.550878,-9918.759623,1036.288319,689.485948
2895.551215,-9918.759623,1110.308913,229.828649
2895.551552,-9548.656652,1110.308913,612.876398
2895.551889,-8956.491898,1036.288319,-459.657299
2895.552226,-9030.512492,740.205942,-536.266849
2895.552564,-9030.512492,2072.576638,0.000000
2895.552901,-9104.533087,518.144159,-1685.410096
2895.553238,-9992.780217,296.082377,-1072.533697
2895.553575,-10362.883188,222.061783,-995.924147
2895.553913,-9770.718434,-296.082377,-689.485948
2895.554250,-9770.718434,-1702.473667,0.000000
2895.554587,-9992.780217,-518.144159,153.219100
2895.554924,-10288.862594,-592.164754,229.828649
2895.555261,-10066.800811,-814.226536,-306.438199
2895.555599,-10584.944971,-740.205942,689.485948
2895.555936,-10881.027347,-740.205942,459.657299
2895.556273,-10214.842000,-1036.288319,919.314598
2895.556610,-10510.924376,0.000000,1225.752797
2895.556947,-10584.944971,0.000000,919.314598
2895.557285,-9918.759623,-444.123565,612.876398
2895.557622,-10732.986159,-740.205942,1225.752797
2895.557959,-9992.780217,-814.226536,536.266849
2895.558296,-9844.739029,-888.247130,153.219100
2895.558634,-10584.944971,-2072.576638,842.705048
2895.558971,-9770.718434,-444.123565,-383.047749
2895.559308,-9252.574275,-592.164754,-995.924147
2895.559645,-9548.656652,-962.267725,-766.095498
2895.559982,-9252.574275,-1036.288319,-1378.971896
2895.560320,-9844.739029,-1036.288319,-995.924147
2895.560657,-10140.821405,-1184.329507,-459.657299
2895.560994,-9696.697840,-370.102971,0.000000
2895.561331,-9844.739029,-592.164754,-153.219100
2895.561669,-10510.924376,-666.185348,612.876398
2895.562006,-10066.800811,0.000000,995.924147
2895.562343,-9696.697840,-296.082377,689.485948
2895.562680,-10955.047942,-444.123565,2374.896044
2895.563017,-10732.986159,444.123565,2374.896044
2895.563355,-10584.944971,1110.308913,1225.752797
2895.563692,-10214.842000,1036.288319,536.266849
2895.564029,-9918.759623,740.205942,842.705048
2895.564366,-9326.594869,1776.494261,689.485948
2895.564704,-10288.862594,592.164754,766.095498
2895.565041,-9474.636058,1702.473667,766.095498
2895.565378,-9918.759623,1184.329507,0.000000
2895.565715,-10955.047942,592.164754,0.000000
2895.566052,-9548.656652,370.102971,-229.828649
2895.566390,-9252.574275,74.020594,-459.657299
2895.566727,-9252.574275,-1258.350101,0.000000
2895.567064,-9400.615463,-1480.411884,-306.438199
2895.567401,-9622.677246,-1036.288319,-229.828649
2895.567739,-10510.924376,-1184.329507,-1378.971896
2895.568076,-10066.800811,-1776.494261,-1378.971896
2895.568413,-10066.800811,-1628.453072,-1685.410096
2895.568750,-9622.677246,-2368.659014,-612.876398
2895.569087,-8956.491898,-1554.432478,229.828649
2895.569425,-9474.636058,-1258.350101,229.828649
2895.569762,-10955.047942,-1554.432478,766.095498
2895.570099,-11621.233289,-1554.432478,995.924147
2895.570436,-10881.027347,-592.164754,1685.410096
2895.570774,-10510.924376,-740.205942,1532.190996
2895.571111,-10658.965565,-962.267725,2834.553343
2895.571448,-10436.903782,0.000000,2681.334243
2895.571785,-10584.944971,370.102971,1072.533697
2895.572122,-10510.924376,74.020594,612.876398
2895.572460,-10807.006753,0.000000,229.828649
2895.572797,-9918.759623,-148.041188,-459.657299
2895.573134,-9548.656652,666.185348,76.609550
2895.573471,-9252.574275,1184.329507,229.828649
2895.573809,-9622.677246,1036.288319,-383.047749
2895.574146,-9770.718434,296.082377,-689.485948
2895.574483,-9844.739029,1332.370696,-919.314598
2895.574820,-9400.615463,0.000000,0.000000
2895.575157,-9474.636058,-740.205942,842.705048
2895.575495,-10066.800811,-296.082377,1455.581446
2895.575832,-9844.739029,222.061783,766.095498
2895.576169,-9696.697840,592.164754,536.266849
2895.576506,-10214.842000,-148.041188,76.609550
2895.576844,-9770.718434,518.144159,153.219100
2895.577181,-9548.656652,-444.123565,919.314598
2895.577518,-9844.739029,740.205942,536.266849
2895.577855,-9474.636058,1702.473667,-383.047749
2895.578192,-10362.883188,962.267725,0.000000
2895.578530,-10658.965565,740.205942,919.314598
2895.578867,-9844.739029,518.144159,76.609550
2895.579204,-10140.821405,370.102971,1302.362347
2895.579541,-10807.006753,0.000000,1378.971896
2895.579879,-10584.944971,370.102971,306.438199
2895.580216,-10807.006753,-592.164754,-612.876398
2895.580553,-10362.883188,-1110.308913,-306.438199
2895.580890,-9770.718434,-1184.329507,-1302.362347
2895.581227,-9548.656652,-1184.329507,-1532.190996
2895.581565,-9548.656652,-1036.288319,-1072.533697
2895.581902,-9178.553681,-1184.329507,-2757.943793
2895.582239,-10214.842000,-1480.411884,-1532.190996
2895.582576,-10881.027347,-1998.556043,0.000000
2895.582914,-9696.697840,-1554.432478,306.438199
2895.583251,-9918.759623,-1628.453072,1838.629195
2895.583588,-10584.944971,-2146.597232,2757.943793
2895.583925,-10658.965565,-1406.391290,2451.505594
2895.584262,-11103.089130,-1776.494261,2068.457845
2895.584600,-10288.862594,-666.185348,1838.629195
2895.584937,-10214.842000,-592.164754,1532.190996
2895.585274,-9844.739029,-814.226536,1225.752797
2895.585611,-9252.574275,666.185348,689.485948
2895.585949,-8808.450710,814.226536,689.485948
2895.586286,-9400.615463,1554.432478,383.047749
2895.586623,-10510.924376,666.185348,0.000000
2895.586960,-10362.883188,740.205942,0.000000
