#time,accel_x,accel_y,accel_z
2861.734226,-8882.471304,-1258.350101,-995.924147
2861.734564,-9474.636058,-2220.617826,-1149.143247
2861.734901,-9474.636058,-740.205942,-2221.676944
2861.735239,-8882.471304,-592.164754,-3907.087040
2861.735576,-9400.615463,-444.123565,-3294.210641
2861.735913,-9474.636058,-814.226536,-2604.724693
2861.736251,-10140.821405,-888.247130,-2298.286494
2861.736588,-9844.739029,-814.226536,-2604.724693
2861.736925,-10214.842000,-1924.535449,-2298.286494
2861.737263,-10436.903782,-3182.885551,-1072.533697
2861.737600,-10140.821405,-3997.112087,-459.657299
2861.737937,-9548.656652,-3108.864956,-306.438199
2861.738275,-10362.883188,-2738.761985,0.000000
2861.738612,-10807.006753,-2442.679609,-995.924147
2861.738949,-11621.233289,-1850.514855,-1149.143247
2861.739287,-11843.295072,-1406.391290,-2374.896044
2861.739624,-11177.109724,-518.144159,-2604.724693
2861.739961,-11325.150913,-1184.329507,-2834.553343
2861.740299,-9918.759623,-1924.535449,-2221.676944
2861.740636,-9400.615463,-1776.494261,-1915.238745
2861.740974,-9844.739029,-2590.720797,-1225.752797
2861.741311,-9696.697840,-1998.556043,-995.924147
2861.741648,-9474.636058,-2072.576638,-1455.581446
2861.741986,-9918.759623,-1258.350101,-766.095498
2861.742323,-10214.842000,-888.247130,-1378.971896
2861.742660,-9992.780217,-1110.308913,-2528.115143
2861.742998,-9622.677246,-962.267725,-3447.429741
2861.743335,-9474.636058,-2146.597232,-4213.525239
2861.743672,-9178.553681,-2664.741391,-4749.792088
2861.744010,-8586.388927,-3997.112087,-5286.058936
2861.744347,-8068.244768,-4737.318029,-4366.744339
2861.744684,-7031.956449,-5255.462188,-3140.991542
2861.745022,-7772.162391,-4515.256246,-1225.752797
2861.745359,-8956.491898,-3330.926739,229.828649
2861.745696,-9918.759623,-1924.535449,153.219100
2861.746034,-11547.212695,-666.185348,229.828649
2861.746371,-13471.748144,-962.267725,-1149.143247
2861.746709,-12509.480420,-1776.494261,-2145.067394
2861.747046,-11399.171507,-3701.029710,-2221.676944
2861.747383,-9474.636058,-4811.338623,-1302.362347
2861.747721,-8068.244768,-4663.297435,-919.314598
2861.748058,-8512.368333,-3701.029710,-383.047749
2861.748395,-9622.677246,-2368.659014,-919.314598
2861.748733,-10584.944971,-1702.473667,-1378.971896
2861.749070,-11621.233289,-814.226536,-766.095498
2861.749407,-11325.150913,-1110.308913,-1455.581446
2861.749745,-11029.068536,-1258.350101,-153.219100
2861.750082,-10436.903782,-2368.659014,153.219100
2861.750419,-9844.739029,-3256.906145,0.000000
2861.750757,-9252.574275,-4293.194464,-995.924147
2861.751094,-9104.533087,-5107.421000,-2451.505594
2861.751431,-9474.636058,-6069.688724,-2528.115143
2861.751769,-8512.368333,-5921.647536,-1838.629195
2861.752106,-7920.203579,-2960.823768,-689.485948
2861.752444,-9326.594869,-1036.288319,-919.314598
2861.752781,-10584.944971,148.041188,-1685.410096
2861.753118,-11103.089130,-444.123565,-306.438199
2861.753456,-11177.109724,0.000000,2528.115143
2861.753793,-9844.739029,1258.350101,4213.525239
2861.754130,-11843.295072,814.226536,3907.087040
2861.754468,-12657.521608,-740.205942,919.314598
2861.754805,-10955.047942,-2072.576638,-1072.533697
2861.755142,-8956.491898,-2368.659014,536.266849
2861.755480,-6809.894666,74.020594,1225.752797
2861.755817,-7402.059420,1036.288319,1838.629195
2861.756154,-10288.862594,3404.947333,-612.876398
2861.756492,-11103.089130,4441.235652,-2987.772442
2861.756829,-11991.336260,6143.709319,-2451.505594
2861.757166,-11251.130318,4515.256246,-1149.143247
2861.757504,-11103.089130,2368.659014,0.000000
2861.757841,-10807.006753,0.000000,229.828649
2861.758179,-9770.718434,-2664.741391,-689.485948
2861.758516,-7328.038826,-2220.617826,995.924147
2861.758853,-6513.812290,-3256.906145,1685.410096
2861.759191,-8512.368333,-1850.514855,1762.019645
2861.759528,-10658.965565,0.000000,306.438199
2861.759865,-11177.109724,2960.823768,-1532.190996
2861.760203,-10510.924376,4145.153275,-2757.943793
2861.760540,-10362.883188,2368.659014,-2298.286494
2861.760877,-11695.253884,888.247130,0.000000
2861.761215,-11769.274478,-1406.391290,1608.800546
2861.761552,-9326.594869,-1036.288319,2834.553343
2861.761889,-7476.080014,-2220.617826,2528.115143
2861.762227,-10362.883188,-2960.823768,2987.772442
2861.762564,-11621.233289,-2960.823768,842.705048
2861.762899,-11103.089130,0.000000,-919.314598
2861.763236,-9474.636058,1702.473667,-995.924147
2861.763574,-9104.533087,2146.597232,-2298.286494
2861.763911,-11769.274478,1184.329507,-2298.286494
2861.764249,-12509.480420,1554.432478,-2757.943793
2861.764586,-9770.718434,222.061783,-1072.533697
2861.764924,-8734.430116,-1554.432478,1532.190996
2861.765261,-10214.842000,-3478.967927,1685.410096
2861.765599,-10584.944971,-4293.194464,536.266849
2861.765936,-9474.636058,-3182.885551,995.924147
2861.766274,-7920.203579,-1184.329507,1225.752797
2861.766611,-8438.347739,-592.164754,383.047749
2861.766949,-11621.233289,-740.205942,229.828649
2861.767286,-11473.192101,888.247130,-1532.190996
2861.767624,-9696.697840,1628.453072,-229.828649
2861.767961,-8512.368333,1258.350101,2451.505594
2861.768299,-10510.924376,-1184.329507,3140.991542
2861.768636,-11621.233289,-2072.576638,2681.334243
2861.768974,-9770.718434,0.000000,1915.238745
2861.769311,-8216.285956,-370.102971,2298.286494
2861.769649,-9326.594869,-962.267725,2451.505594
2861.769986,-11621.233289,-1554.432478,766.095498
2861.770324,-10732.986159,1406.391290,-1455.581446
2861.770661,-9918.759623,1406.391290,-2451.505594
2861.770999,-8808.450710,1628.453072,-1991.848295
2861.771336,-9548.656652,-444.123565,-2145.067394
2861.771674,-11621.233289,-666.185348,-919.314598
2861.772011,-10066.800811,-444.123565,-689.485948
2861.772349,-8438.347739,-1554.432478,0.000000
2861.772686,-10436.903782,-3478.967927,153.219100
2861.773024,-11547.212695,-5107.421000,0.000000
2861.773361,-10066.800811,-4071.132681,-919.314598
2861.773699,-7698.141797,-2368.659014,-459.657299
2861.774036,-8956.491898,-2368.659014,612.876398
2861.774374,-10807.006753,-2146.597232,0.000000
2861.774711,-11473.192101,-74.020594,-1225.752797
2861.775049,-10807.006753,1110.308913,-306.438199
2861.775386,-10066.800811,370.102971,0.000000
2861.775724,-11769.274478,-1406.391290,1072.533697
2861.776061,-12139.377449,-2368.659014,1149.143247
2861.776399,-9400.615463,-1702.473667,1072.533697
2861.776736,-8290.306550,-1332.370696,1685.410096
2861.777074,-9178.553681,-1924.535449,2145.067394
2861.777411,-10955.047942,-148.041188,766.095498
2861.777749,-11103.089130,1776.494261,-1378.971896
2861.778086,-9400.615463,4071.132681,-2604.724693
2861.778424,-9548.656652,2812.782580,-1532.190996
2861.778761,-11621.233289,222.061783,0.000000
2861.779098,-10658.965565,222.061783,-842.705048
2861.779436,-8808.450710,444.123565,0.000000
2861.779773,-8068.244768,0.000000,2374.896044
2861.780111,-9696.697840,-1924.535449,2757.943793
2861.780448,-11177.109724,-1924.535449,2834.553343
2861.780786,-9992.780217,0.000000,1072.533697
2861.781123,-7254.018232,1702.473667,842.705048
2861.781461,-9474.636058,1554.432478,842.705048
2861.781798,-11769.274478,1850.514855,536.266849
2861.782136,-11177.109724,2664.741391,0.000000
2861.782473,-9622.677246,2960.823768,229.828649
2861.782811,-9548.656652,1554.432478,919.314598
2861.783148,-10732.986159,-1184.329507,2068.457845
2861.783486,-10955.047942,-1184.329507,2145.067394
2861.783823,-9178.553681,148.041188,2145.067394
2861.784161,-8734.430116,444.123565,919.314598
2861.784498,-10436.903782,-592.164754,-1072.533697
2861.784836,-12139.377449,-592.164754,-1838.629195
2861.785173,-10214.842000,1110.308913,-2145.067394
2861.785511,-8290.306550,1184.329507,-2298.286494
2861.785848,-9252.574275,-592.164754,-919.314598
2861.786186,-11251.130318,-2220.617826,-689.485948
2861.786523,-11029.068536,-2220.617826,-612.876398
2861.786861,-9474.636058,-1258.350101,229.828649
2861.787198,-9104.533087,-2590.720797,1302.362347
2861.787536,-11621.233289,-3552.988522,1762.019645
2861.787873,-12213.398043,-3404.947333,0.000000
2861.788211,-9918.759623,-1332.370696,-1302.362347
2861.788548,-8956.491898,-740.205942,-612.876398
2861.788886,-9252.574275,-1480.411884,919.314598
2861.789223,-10436.903782,-1036.288319,1762.019645
2861.789561,-10732.986159,1184.329507,1608.800546
2861.789898,-9474.636058,1628.453072,1378.971896
2861.790236,-10436.903782,444.123565,1149.143247
2861.790573,-12213.398043,-962.267725,1685.410096
2861.790911,-11621.233289,-592.164754,612.876398
2861.791248,-8808.450710,814.226536,536.266849
2861.791586,-7476.080014,296.082377,766.095498
2861.791923,-9770.718434,-740.205942,842.705048
2861.792261,-10362.883188,0.000000,-689.485948
2861.792598,-9696.697840,1554.432478,-1608.800546
2861.792936,-8438.347739,1628.453072,-1149.143247
2861.793273,-9548.656652,148.041188,-536.266849
2861.793611,-11843.295072,-962.267725,0.000000
2861.793948,-11399.171507,-888.247130,0.000000
2861.794286,-8068.244768,-1036.288319,229.828649
2861.794623,-8734.430116,-2368.659014,1762.019645
2861.794961,-10584.944971,-4219.173869,2451.505594
2861.795298,-10288.862594,-2960.823768,1302.362347
2861.795636,-8956.491898,-592.164754,229.828649
2861.795973,-9030.512492,-592.164754,0.000000
2861.796311,-10881.027347,-1258.350101,0.000000
2861.796648,-12731.542202,-740.205942,153.219100
2861.796986,-10510.924376,518.144159,-612.876398
2861.797323,-8734.430116,296.082377,0.000000
2861.797661,-10066.800811,-888.247130,1762.019645
2861.797998,-11325.150913,-2442.679609,1455.581446
2861.798336,-11029.068536,-1554.432478,383.047749
2861.798673,-9326.594869,-518.144159,-612.876398
2861.799011,-8512.368333,-1036.288319,-153.219100
2861.799348,-11029.068536,-1480.411884,-306.438199
2861.799685,-11917.315666,-814.226536,-1455.581446
2861.800023,-9918.759623,888.247130,-3217.601092
2861.800360,-8586.388927,444.123565,-2221.676944
2861.800698,-10140.821405,-1850.514855,306.438199
2861.801035,-10584.944971,-1850.514855,612.876398
2861.801373,-9696.697840,-370.102971,612.876398
2861.801710,-8586.388927,0.000000,919.314598
2861.802048,-9178.553681,-1036.288319,995.924147
2861.802385,-11621.233289,-1332.370696,1762.019645
2861.802723,-11251.130318,-740.205942,689.485948
2861.803060,-8290.306550,1406.391290,306.438199
2861.803398,-8216.285956,1184.329507,1838.629195
2861.803735,-10214.842000,1628.453072,2374.896044
2861.804073,-11399.171507,1924.535449,1302.362347
2861.804410,-10362.883188,3330.926739,536.266849
2861.804748,-8734.430116,3330.926739,995.924147
2861.805085,-9992.780217,1776.494261,2068.457845
2861.805423,-11251.130318,370.102971,2145.067394
2861.805760,-10436.903782,666.185348,383.047749
2861.806098,-8290.306550,1184.329507,-612.876398
2861.806435,-8364.327145,592.164754,-689.485948
2861.806773,-10584.944971,-222.061783,-459.657299
2861.807110,-11325.150913,296.082377,-1455.581446
2861.807448,-8660.409521,1406.391290,-2068.457845
2861.807785,-8290.306550,0.000000,-1608.800546
2861.808123,-10510.924376,-1850.514855,-536.266849
2861.808460,-12287.418637,-2442.679609,459.657299
2861.808798,-9844.739029,-1258.350101,-383.047749
2861.809135,-8068.244768,-1480.411884,1225.752797
2861.809473,-10140.821405,-2590.720797,2451.505594
2861.809810,-11917.315666,-3478.967927,2145.067394
2861.810148,-11029.068536,-1184.329507,842.705048
2861.810485,-8956.491898,-296.082377,153.219100
2861.810823,-9178.553681,-444.123565,919.314598
2861.811160,-11325.150913,-740.205942,1302.362347
2861.811498,-11843.295072,-444.123565,766.095498
2861.811835,-10140.821405,148.041188,-459.657299
2861.812173,-8660.409521,0.000000,76.609550
2861.812510,-10436.903782,-1332.370696,1302.362347
2861.812848,-11473.192101,-1850.514855,995.924147
2861.813185,-9918.759623,-370.102971,76.609550
2861.813523,-8734.430116,962.267725,0.000000
2861.813860,-9622.677246,0.000000,-612.876398
2861.814198,-11843.295072,-518.144159,-1302.362347
2861.814535,-11325.150913,-1184.329507,-2145.067394
2861.814873,-7846.182985,370.102971,-1608.800546
2861.815210,-7846.182985,0.000000,0.000000
2861.815548,-10510.924376,-1480.411884,1225.752797
2861.815885,-11103.089130,-1110.308913,536.266849
2861.816223,-9548.656652,-370.102971,306.438199
2861.816560,-7772.162391,148.041188,995.924147
2861.816898,-9622.677246,-296.082377,2681.334243
2861.817235,-12065.356855,-814.226536,2068.457845
2861.817573,-10807.006753,370.102971,306.438199
2861.817910,-8586.388927,1924.535449,0.000000
2861.818248,-9252.574275,962.267725,1072.533697
2861.818585,-11251.130318,0.000000,1532.190996
2861.818923,-11251.130318,296.082377,536.266849
2861.819260,-9474.636058,1480.411884,-459.657299
2861.819597,-9030.512492,1406.391290,-306.438199
2861.819935,-10955.047942,-1184.329507,-536.266849
2861.820272,-11917.315666,-1702.473667,-536.266849
2861.820610,-9474.636058,-296.082377,-1915.238745
2861.820947,-7476.080014,-296.082377,-766.095498
2861.821285,-9178.553681,-814.226536,0.000000
2861.821622,-11621.233289,-1998.556043,-1072.533697
2861.821960,-10658.965565,-1110.308913,-2068.457845
2861.822297,-8660.409521,-592.164754,-1072.533697
2861.822635,-8882.471304,-1110.308913,1149.143247
2861.822972,-11473.192101,-1850.514855,1149.143247
2861.823310,-11843.295072,-1554.432478,153.219100
2861.823647,-9696.697840,-888.247130,-459.657299
2861.823985,-9104.533087,-1332.370696,1532.190996
2861.824322,-10436.903782,-1480.411884,2681.334243
2861.824660,-11103.089130,-1036.288319,2757.943793
2861.824997,-9770.718434,1110.308913,1838.629195
2861.825335,-8808.450710,2442.679609,1149.143247
2861.825672,-10807.006753,1850.514855,766.095498
2861.826010,-12583.501014,592.164754,612.876398
2861.826347,-11769.274478,1184.329507,306.438199
2861.826685,-8660.409521,2442.679609,153.219100
2861.827022,-8364.327145,1406.391290,306.438199
2861.827360,-10214.842000,296.082377,842.705048
2861.827697,-10510.924376,-370.102971,-612.876398
2861.828035,-9178.553681,1776.494261,-459.657299
2861.828372,-7624.121203,2072.576638,-919.314598
2861.828710,-9400.615463,148.041188,-536.266849
2861.829047,-11547.212695,666.185348,-383.047749
2861.829385,-10066.800811,666.185348,-1225.752797
2861.829722,-8216.285956,1258.350101,0.000000
2861.830060,-8956.491898,-888.247130,1302.362347
2861.830397,-11029.068536,-1924.535449,2145.067394
2861.830735,-11251.130318,-1702.473667,1915.238745
2861.831072,-9326.594869,370.102971,995.924147
2861.831410,-9474.636058,222.061783,1455.581446
2861.831747,-11621.233289,-1776.494261,689.485948
2861.832085,-11843.295072,-592.164754,76.609550
2861.832422,-9992.780217,296.082377,-229.828649
2861.832760,-8216.285956,1110.308913,612.876398
2861.833097,-10288.862594,0.000000,842.705048
2861.833435,-12879.583391,-962.267725,919.314598
2861.833772,-10955.047942,592.164754,-842.705048
2861.834110,-8882.471304,518.144159,-919.314598
2861.834447,-9326.594869,-888.247130,612.876398
2861.834785,-11325.150913,-1924.535449,-229.828649
2861.835122,-11843.295072,-2072.576638,-383.047749
2861.835460,-9400.615463,-296.082377,-3064.381992
2861.835797,-7846.182985,-1480.411884,-1838.629195
2861.836135,-9992.780217,-2072.576638,383.047749
2861.836472,-10140.821405,-2590.720797,383.047749
2861.836810,-9474.636058,0.000000,0.000000
2861.837147,-8586.388927,592.164754,153.219100
2861.837485,-10288.862594,-888.247130,153.219100
2861.837822,-11917.315666,-2146.597232,459.657299
2861.838160,-10955.047942,-1258.350101,842.705048
2861.838497,-8142.265362,666.185348,1455.581446
2861.838835,-8142.265362,0.000000,1532.190996
2861.839172,-10658.965565,222.061783,1991.848295
2861.839509,-10955.047942,518.144159,229.828649
2861.839847,-9548.656652,2368.659014,459.657299
2861.840184,-8512.368333,3404.947333,995.924147
2861.840522,-10214.842000,814.226536,1302.362347
2861.840859,-12139.377449,888.247130,536.266849
2861.841197,-10732.986159,1332.370696,-536.266849
2861.841534,-8142.265362,1702.473667,-306.438199
2861.841872,-8882.471304,-592.164754,229.828649
2861.842209,-10955.047942,-1184.329507,1149.143247
2861.842547,-10436.903782,0.000000,0.000000
2861.842884,-8956.491898,814.226536,-1685.410096
2861.843222,-8956.491898,-962.267725,-766.095498
2861.843559,-11695.253884,-2072.576638,-1149.143247
2861.843897,-11695.253884,-2220.617826,-383.047749
2861.844234,-9992.780217,-740.205942,-766.095498
2861.844572,-7920.203579,-1110.308913,0.000000
2861.844909,-10436.903782,-2368.659014,2068.457845
2861.845247,-12139.377449,-2294.638420,1762.019645
2861.845584,-11029.068536,-370.102971,766.095498
2861.845922,-9030.512492,0.000000,1225.752797
2861.846259,-10066.800811,-444.123565,1378.971896
2861.846597,-11251.130318,-962.267725,919.314598
2861.846934,-12065.356855,222.061783,689.485948
2861.847272,-9104.533087,888.247130,-612.876398
2861.847609,-8512.368333,296.082377,306.438199
2861.847947,-10140.821405,0.000000,1685.410096
2861.848284,-10732.986159,-740.205942,383.047749
2861.848622,-9696.697840,1406.391290,76.609550
2861.848959,-8734.430116,1332.370696,-536.266849
2861.849297,-10066.800811,0.000000,-612.876398
2861.849634,-11695.253884,-814.226536,-995.924147
2861.849972,-10584.944971,-666.185348,-842.705048
2861.850309,-7698.141797,518.144159,-1149.143247
2861.850647,-7994.224174,-740.205942,536.266849
2861.850984,-10658.965565,-888.247130,995.924147
2861.851322,-11177.109724,-370.102971,76.609550
2861.851659,-9474.636058,1406.391290,0.000000
2861.851997,-8586.388927,814.226536,1072.533697
2861.852334,-10288.862594,0.000000,2221.676944
2861.852672,-11769.274478,518.144159,1991.848295
2861.853009,-10807.006753,1480.411884,842.705048
2861.853347,-8660.409521,1554.432478,612.876398
2861.853684,-9474.636058,814.226536,1149.143247
2861.854022,-11547.212695,222.061783,2374.896044
2861.854359,-10881.027347,1406.391290,459.657299
2861.854697,-8586.388927,1776.494261,-919.314598
2861.855034,-9548.656652,592.164754,-536.266849
2861.855372,-11103.089130,-1110.308913,-995.924147
2861.855709,-10955.047942,-1184.329507,-1838.629195
2861.856047,-9326.594869,-814.226536,-1608.800546
2861.856384,-7179.997637,-370.102971,-919.314598
2861.856722,-9548.656652,-1776.494261,153.219100
2861.857059,-11325.150913,-2590.720797,-612.876398
2861.857397,-10214.842000,-1184.329507,-1608.800546
2861.857734,-8882.471304,-1184.329507,-766.095498
2861.858072,-9474.636058,-1924.535449,383.047749
2861.858409,-11695.253884,-2072.576638,919.314598
2861.858747,-11473.192101,-1924.535449,0.000000
2861.859084,-8956.491898,-1628.453072,-459.657299
2861.859421,-8290.306550,-1998.556043,1455.581446
2861.859759,-10288.862594,-2294.638420,2987.772442
2861.860096,-11473.192101,-962.267725,2911.162892
2861.860434,-10288.862594,1184.329507,1608.800546
2861.860771,-9918.759623,1406.391290,1455.581446
2861.861109,-11251.130318,1332.370696,536.266849
2861.861446,-12361.439231,-74.020594,-306.438199
2861.861784,-10955.047942,666.185348,306.438199
2861.862121,-8068.244768,666.185348,76.609550
2861.862459,-7994.224174,444.123565,1149.143247
2861.862796,-10436.903782,-148.041188,459.657299
2861.863134,-11325.150913,0.000000,-383.047749
2861.863471,-9178.553681,518.144159,-1072.533697
2861.863809,-7476.080014,814.226536,-689.485948
2861.864146,-9918.759623,-1036.288319,842.705048
2861.864484,-11029.068536,-1184.329507,0.000000
2861.864821,-9474.636058,-148.041188,-459.657299
2861.865159,-7624.121203,444.123565,229.828649
2861.865496,-9252.574275,-1702.473667,1149.143247
2861.865834,-11029.068536,-1850.514855,2298.286494
2861.866171,-10510.924376,-370.102971,842.705048
2861.866509,-8882.471304,296.082377,842.705048
2861.866846,-10140.821405,74.020594,766.095498
2861.867184,-11991.336260,-1332.370696,612.876398
2861.867521,-11991.336260,-888.247130,-76.609550
2861.867859,-9474.636058,148.041188,-76.609550
2861.868196,-7772.162391,518.144159,306.438199
2861.868534,-10436.903782,-222.061783,919.314598
2861.868871,-12805.562797,-444.123565,0.000000
2861.869208,-11029.068536,740.205942,-1762.019645
2861.869546,-9030.512492,888.247130,-1225.752797
2861.869883,-9696.697840,-296.082377,76.609550
2861.870221,-11325.150913,-1554.432478,-76.609550
2861.870558,-10955.047942,-1258.350101,-1455.581446
2861.870896,-8586.388927,-592.164754,-2221.676944
2861.871233,-8068.244768,-1258.350101,-766.095498
2861.871571,-10140.821405,-2220.617826,1378.971896
2861.871908,-10658.965565,-1702.473667,919.314598
2861.872246,-9474.636058,0.000000,0.000000
2861.872583,-8882.471304,740.205942,0.000000
2861.872921,-10732.986159,-962.267725,536.266849
2861.873258,-11621.233289,-1480.411884,842.705048
2861.873596,-9844.739029,-222.061783,919.314598
2861.873933,-8216.285956,962.267725,1455.581446
2861.874271,-8660.409521,962.267725,2145.067394
2861.874608,-11029.068536,222.061783,1915.238745
2861.874946,-11251.130318,962.267725,1149.143247
2861.875283,-9104.533087,2886.803174,383.047749
2861.875620,-8660.409521,3034.844362,1685.410096
2861.875958,-11177.109724,1332.370696,1915.238745
2861.876295,-11843.295072,1480.411884,842.705048
2861.876633,-9918.759623,1776.494261,229.828649
2861.876970,-8364.327145,1998.556043,-306.438199
2861.877308,-9548.656652,148.041188,612.876398
2861.877645,-11177.109724,-518.144159,919.314598
2861.877983,-10140.821405,222.061783,-306.438199
2861.878320,-8882.471304,888.247130,-1149.143247
2861.878658,-9918.759623,-444.123565,-919.314598
2861.878995,-11769.274478,-2220.617826,-689.485948
2861.879333,-11473.192101,-2220.617826,-995.924147
2861.879670,-8808.450710,-1628.453072,0.000000
2861.880008,-7772.162391,-1036.288319,919.314598
2861.880345,-10436.903782,-2368.659014,2068.457845
2861.880683,-12435.459826,-1850.514855,1378.971896
2861.881020,-10436.903782,-592.164754,-229.828649
2861.881358,-9178.553681,0.000000,383.047749
2861.881695,-10140.821405,-1110.308913,2068.457845
2861.882032,-11251.130318,-2442.679609,1149.143247
2861.882370,-11029.068536,-814.226536,76.609550
2861.882707,-8734.430116,-444.123565,0.000000
2861.883045,-8586.388927,-148.041188,306.438199
2861.883382,-10584.944971,-2368.659014,1225.752797
2861.883720,-10955.047942,-518.144159,229.828649
2861.884057,-9770.718434,296.082377,-766.095498
2861.884395,-9326.594869,814.226536,-919.314598
2861.884732,-11029.068536,-888.247130,-1378.971896
2861.885070,-11695.253884,-2368.659014,-1378.971896
2861.885407,-9474.636058,-1406.391290,-1608.800546
2861.885745,-7772.162391,-740.205942,-459.657299
2861.886082,-8734.430116,-1332.370696,766.095498
2861.886420,-11177.109724,-1850.514855,459.657299
2861.886757,-11325.150913,-1110.308913,-383.047749
2861.887095,-9178.553681,592.164754,-383.047749
2861.887432,-9030.512492,444.123565,1378.971896
2861.887769,-11177.109724,-592.164754,1838.629195
2861.888107,-11547.212695,74.020594,1149.143247
2861.888444,-9770.718434,962.267725,842.705048
2861.888782,-8512.368333,888.247130,612.876398
2861.889119,-9474.636058,-296.082377,2374.896044
2861.889457,-10955.047942,-370.102971,2528.115143
2861.889794,-10436.903782,962.267725,689.485948
2861.890132,-8956.491898,1850.514855,-459.657299
2861.890469,-9474.636058,444.123565,-919.314598
2861.890807,-11029.068536,-2220.617826,-919.314598
2861.891144,-10214.842000,-1406.391290,-1455.581446
2861.891482,-8660.409521,74.020594,-536.266849
2861.891819,-7920.203579,-370.102971,0.000000
2861.892157,-10140.821405,-1628.453072,-383.047749
2861.892494,-11917.315666,-1702.473667,-229.828649
2861.892832,-10584.944971,-666.185348,-1149.143247
2861.893169,-8438.347739,-1036.288319,-689.485948
2861.893507,-10140.821405,-1554.432478,995.924147
2861.893844,-11473.192101,-2220.617826,459.657299
2861.894181,-10881.027347,-1184.329507,-612.876398
2861.894519,-9104.533087,-888.247130,229.828649
2861.894856,-8734.430116,-518.144159,1378.971896
2861.895194,-11177.109724,-1554.432478,3294.210641
2861.895531,-11621.233289,296.082377,1991.848295
2861.895869,-9770.718434,2146.597232,612.876398
2861.896206,-10066.800811,2368.659014,459.657299
2861.896544,-11473.192101,0.000000,229.828649
2861.896881,-11769.274478,0.000000,306.438199
2861.897219,-9770.718434,1036.288319,229.828649
2861.897556,-8142.265362,1036.288319,612.876398
2861.897894,-8660.409521,814.226536,459.657299
2861.898231,-10807.006753,-518.144159,-536.266849
2861.898569,-10732.986159,814.226536,-995.924147
2861.898906,-8438.347739,1184.329507,-2145.067394
2861.899244,-7846.182985,740.205942,-459.657299
2861.899581,-10732.986159,-666.185348,76.609550
2861.899919,-11029.068536,-888.247130,-306.438199
2861.900256,-9326.594869,962.267725,0.000000
2861.900593,-7476.080014,-592.164754,459.657299
2861.900931,-9548.656652,-1776.494261,1915.238745
2861.901268,-11547.212695,-814.226536,2451.505594
2861.901606,-10732.986159,74.020594,766.095498
2861.901943,-9548.656652,1110.308913,153.219100
2861.902281,-10584.944971,-296.082377,0.000000
2861.902618,-11991.336260,-1110.308913,383.047749
2861.902956,-10510.924376,-962.267725,0.000000
2861.903293,-8660.409521,74.020594,842.705048
2861.903631,-9104.533087,0.000000,1149.143247
2861.903968,-10807.006753,-962.267725,919.314598
2861.904306,-12583.501014,-444.123565,0.000000
2861.904643,-10658.965565,0.000000,-1608.800546
2861.904981,-8216.285956,74.020594,-1378.971896
2861.905318,-9844.739029,-1258.350101,459.657299
2861.905656,-12139.377449,-1850.514855,0.000000
2861.905993,-10362.883188,-1554.432478,-2221.676944
2861.906331,-8438.347739,-1628.453072,-1608.800546
2861.906668,-8216.285956,-2294.638420,229.828649
2861.907005,-10140.821405,-3182.885551,1685.410096
2861.907343,-10732.986159,-1628.453072,1149.143247
2861.907680,-9400.615463,-666.185348,-306.438199
2861.908018,-9400.615463,-518.144159,612.876398
2861.908355,-11547.212695,-1924.535449,1149.143247
2861.908693,-11769.274478,-2146.597232,1225.752797
2861.909030,-10214.842000,-222.061783,1302.362347
2861.909368,-8290.306550,0.000000,1455.581446
2861.909705,-9326.594869,148.041188,1915.238745
2861.910043,-11103.089130,-592.164754,1149.143247
2861.910380,-11251.130318,1110.308913,0.000000
2861.910718,-9326.594869,1702.473667,-306.438199
2861.911055,-8956.491898,1628.453072,-229.828649
2861.911393,-10955.047942,518.144159,612.876398
2861.911730,-11547.212695,148.041188,0.000000
2861.912068,-9178.553681,962.267725,-1149.143247
2861.912405,-8142.265362,296.082377,229.828649
2861.912743,-9992.780217,-296.082377,1072.533697
2861.913080,-11177.109724,-518.144159,0.000000
2861.913417,-10510.924376,0.000000,-842.705048
2861.913755,-8142.265362,296.082377,-1608.800546
2861.914092,-9918.759623,-2220.617826,-1149.143247
2861.914430,-11473.192101,-2368.659014,-536.266849
2861.914767,-10066.800811,-1628.453072,-1762.019645
2861.915105,-8586.388927,-962.267725,-229.828649
2861.915442,-8586.388927,-1036.288319,306.438199
2861.915780,-10955.047942,-2146.597232,1302.362347
2861.916117,-12657.521608,-1258.350101,1072.533697
2861.916455,-10066.800811,0.000000,0.000000
2861.916792,-8586.388927,444.123565,919.314598
2861.917130,-10288.862594,-592.164754,2068.457845
2861.917467,-12065.356855,-740.205942,1455.581446
2861.917805,-10807.006753,222.061783,0.000000
2861.918142,-8882.471304,814.226536,0.000000
2861.918480,-8586.388927,148.041188,383.047749
2861.918817,-10955.047942,-888.247130,1378.971896
2861.919155,-10584.944971,518.144159,919.314598
2861.919492,-9326.594869,1554.432478,-689.485948
2861.919829,-9474.636058,1332.370696,-76.609550
2861.920167,-11547.212695,-74.020594,-306.438199
2861.920504,-11843.295072,-1332.370696,0.000000
2861.920842,-9548.656652,-296.082377,0.000000
2861.921179,-7624.121203,74.020594,995.924147
2861.921517,-9400.615463,-444.123565,1915.238745
2861.921854,-11769.274478,-888.247130,1225.752797
2861.922192,-10436.903782,0.000000,-229.828649
2861.922529,-8586.388927,888.247130,76.609550
2861.922867,-9178.553681,814.226536,1149.143247
2861.923204,-11325.150913,0.000000,2451.505594
2861.923542,-11547.212695,518.144159,1072.533697
2861.923879,-8808.450710,2146.597232,229.828649
2861.924217,-8808.450710,1332.370696,842.705048
2861.924554,-10362.883188,296.082377,2451.505594
2861.924892,-11103.089130,296.082377,2145.067394
2861.925229,-10510.924376,1480.411884,536.266849
2861.925567,-8734.430116,2072.576638,-1302.362347
2861.925904,-10214.842000,74.020594,-689.485948
2861.926241,-11769.274478,-1554.432478,-919.314598
2861.926579,-9178.553681,-1628.453072,-2145.067394
2861.926916,-7698.141797,148.041188,-1608.800546
2861.927254,-8068.244768,-1110.308913,-1532.190996
2861.927591,-11103.089130,-2516.700203,-1225.752797
2861.927929,-11251.130318,-2368.659014,-1838.629195
2861.928266,-9326.594869,-1702.473667,-2451.505594
2861.928604,-8586.388927,-1036.288319,-153.219100
2861.928941,-11251.130318,-2368.659014,459.657299
2861.929279,-12435.459826,-2738.761985,0.000000
2861.929616,-10807.006753,-1924.535449,-689.485948
2861.929954,-8882.471304,-1480.411884,1149.143247
2861.930291,-9548.656652,-1406.391290,2451.505594
2861.930629,-11547.212695,-1924.535449,3447.429741
2861.930966,-11029.068536,0.000000,2068.457845
2861.931304,-9474.636058,1110.308913,919.314598
2861.931641,-9844.739029,1258.350101,1302.362347
2861.931979,-11843.295072,-592.164754,1532.190996
2861.932316,-11843.295072,-666.185348,842.705048
2861.932653,-9400.615463,518.144159,689.485948
2861.932991,-8290.306550,1406.391290,1149.143247
2861.933328,-9178.553681,-1110.308913,536.266849
2861.933666,-11029.068536,-1184.329507,0.000000
2861.934003,-10066.800811,-370.102971,-229.828649
2861.934341,-7920.203579,1036.288319,-612.876398
2861.934678,-8216.285956,148.041188,76.609550
2861.935016,-10955.047942,-888.247130,536.266849
2861.935353,-11473.192101,-518.144159,76.609550
2861.935691,-9030.512492,1406.391290,-1072.533697
2861.936028,-8660.409521,0.000000,689.485948
2861.936366,-9992.780217,-1036.288319,1685.410096
2861.936703,-11177.109724,-1184.329507,1685.410096
2861.937041,-9992.780217,740.205942,1302.362347
2861.937378,-8808.450710,1554.432478,459.657299
2861.937716,-11177.109724,-518.144159,995.924147
2861.938053,-12953.603985,-740.205942,383.047749
2861.938391,-10732.986159,-370.102971,0.000000
2861.938728,-8142.265362,1110.308913,919.314598
2861.939065,-8808.450710,222.061783,842.705048
2861.939403,-11251.130318,-1036.288319,0.000000
2861.939740,-11621.233289,-370.102971,-689.485948
2861.940078,-9548.656652,518.144159,-1838.629195
2861.940415,-8142.265362,666.185348,-995.924147
2861.940753,-10584.944971,-1480.411884,0.000000
2861.941090,-11325.150913,-1554.432478,-1608.800546
2861.941428,-10066.800811,-740.205942,-2987.772442
2861.941765,-8512.368333,-666.185348,-1762.019645
2861.942103,-8882.471304,-2812.782580,229.828649
2861.942440,-11251.130318,-2886.803174,2145.067394
2861.942778,-10955.047942,-1480.411884,766.095498
2861.943115,-9622.677246,518.144159,0.000000
2861.943453,-9770.718434,-592.164754,0.000000
2861.943790,-11325.150913,-888.247130,536.266849
2861.944128,-11695.253884,-1702.473667,995.924147
2861.944465,-9104.533087,518.144159,1378.971896
2861.944803,-8290.306550,1110.308913,1762.019645
2861.945140,-10584.944971,740.205942,2068.457845
2861.945477,-11621.233289,296.082377,919.314598
2861.945815,-10807.006753,1776.494261,919.314598
2861.946152,-8734.430116,2368.659014,536.266849
2861.946490,-8956.491898,1332.370696,1225.752797
2861.946827,-11917.315666,740.205942,1838.629195
2861.947165,-11399.171507,1332.370696,-459.657299
2861.947502,-9030.512492,2516.700203,-995.924147
2861.947840,-8364.327145,814.226536,0.000000
2861.948177,-9918.759623,-296.082377,612.876398
2861.948515,-10658.965565,-444.123565,536.266849
2861.948852,-9992.780217,962.267725,-536.266849
2861.949190,-7994.224174,222.061783,-766.095498
2861.949527,-10214.842000,-2220.617826,-229.828649
2861.949865,-11843.295072,-2368.659014,306.438199
2861.950202,-9992.780217,-1480.411884,-459.657299
2861.950540,-8068.244768,-962.267725,459.657299
2861.950877,-8512.368333,-1924.535449,1608.800546
2861.951215,-11103.089130,-2368.659014,1608.800546
2861.951552,-11473.192101,-1110.308913,383.047749
2861.951889,-9548.656652,148.041188,153.219100
2861.952227,-8808.450710,222.061783,612.876398
2861.952564,-10807.006753,-1184.329507,1838.629195
2861.952902,-12435.459826,-1184.329507,919.314598
2861.953239,-10658.965565,148.041188,-612.876398
2861.953577,-8512.368333,814.226536,-153.219100
2861.953914,-10584.944971,-1258.350101,1378.971896
2861.954252,-11103.089130,-1480.411884,919.314598
2861.954589,-10510.924376,0.000000,0.000000
2861.954927,-8956.491898,962.267725,-229.828649
2861.955264,-9474.636058,0.000000,-689.485948
2861.955602,-11547.212695,-1332.370696,-1072.533697
2861.955939,-11399.171507,-1554.432478,-1991.848295
2861.956277,-8364.327145,74.020594,-1838.629195
2861.956614,-7772.162391,-592.164754,0.000000
2861.956952,-9474.636058,-1406.391290,153.219100
2861.957289,-11177.109724,-1628.453072,76.609550
2861.957627,-9696.697840,-370.102971,0.000000
2861.957964,-7772.162391,0.000000,459.657299
2861.958301,-9030.512492,296.082377,2298.286494
2861.958639,-11473.192101,0.000000,2757.943793
2861.958976,-11473.192101,740.205942,383.047749
2861.959314,-9252.574275,1998.556043,0.000000
2861.959651,-8512.368333,1110.308913,1608.800546
2861.959989,-10362.883188,222.061783,2374.896044
2861.960326,-11399.171507,518.144159,1685.410096
2861.960664,-10140.821405,1924.535449,0.000000
2861.961001,-8364.327145,1480.411884,-1302.362347
2861.961339,-10807.006753,0.000000,306.438199
2861.961676,-11917.315666,-962.267725,0.000000
2861.962013,-10214.842000,-740.205942,-1991.848295
2861.962351,-8216.285956,296.082377,-2221.676944
2861.962688,-9178.553681,-740.205942,-536.266849
2861.963025,-11325.150913,-1924.535449,-229.828649
2861.963363,-11325.150913,-1924.535449,-1149.143247
2861.963700,-9696.697840,-370.102971,-1532.190996
2861.964037,-8882.471304,-1184.329507,-76.609550
2861.964374,-11399.171507,-1998.556043,842.705048
2861.964712,-12361.439231,-2516.700203,153.219100
2861.965049,-10436.903782,-1702.473667,-612.876398
2861.965386,-8142.265362,-1184.329507,76.609550
2861.965723,-9400.615463,-1702.473667,2374.896044
2861.966061,-11029.068536,-1554.432478,3447.429741
2861.966398,-10881.027347,74.020594,2068.457845
2861.966735,-8586.388927,1480.411884,153.219100
2861.967073,-9252.574275,814.226536,766.095498
2861.967410,-11917.315666,148.041188,1378.971896
2861.967747,-11769.274478,222.061783,229.828649
2861.968084,-8586.388927,1776.494261,-306.438199
2861.968422,-7920.203579,1480.411884,459.657299
2861.968759,-9548.656652,0.000000,612.876398
2861.969096,-11473.192101,0.000000,153.219100
2861.969434,-10214.842000,962.267725,-1072.533697
2861.969771,-7920.203579,1702.473667,-1532.190996
2861.970108,-9326.594869,222.061783,459.657299
2861.970445,-11843.295072,-740.205942,306.438199
2861.970783,-11547.212695,222.061783,-612.876398
2861.971120,-8364.327145,1332.370696,-1532.190996
2861.971457,-8142.265362,296.082377,306.438199
2861.971794,-10955.047942,-1480.411884,2987.772442
2861.972132,-11399.171507,-296.082377,2374.896044
2861.972469,-10140.821405,888.247130,919.314598
2861.972806,-9474.636058,814.226536,612.876398
2861.973144,-11103.089130,-370.102971,1225.752797
2861.973481,-12509.480420,-1332.370696,1685.410096
2861.973818,-9622.677246,148.041188,76.609550
2861.974155,-7402.059420,444.123565,-459.657299
2861.974493,-9104.533087,-370.102971,1302.362347
2861.974830,-11029.068536,-666.185348,689.485948
2861.975167,-11399.171507,-962.267725,-459.657299
2861.975504,-8586.388927,222.061783,-1915.238745
2861.975842,-8142.265362,74.020594,-689.485948
2861.976179,-11695.253884,-1258.350101,1072.533697
2861.976516,-11843.295072,-2294.638420,-1072.533697
2861.976854,-9622.677246,-740.205942,-2757.943793
2861.977191,-8216.285956,-1110.308913,-2221.676944
2861.977528,-9104.533087,-2812.782580,995.924147
2861.977865,-11029.068536,-3108.864956,2374.896044
2861.978203,-10214.842000,-1776.494261,536.266849
2861.978540,-9104.533087,666.185348,-689.485948
2861.978877,-9992.780217,-1110.308913,306.438199
2861.979215,-12879.583391,-2072.576638,2221.676944
2861.979552,-11917.315666,-1480.411884,1685.410096
2861.979889,-9030.512492,814.226536,229.828649
2861.980226,-7994.224174,1110.308913,1455.581446
2861.980564,-10732.986159,-740.205942,2451.505594
2861.980901,-11917.315666,0.000000,2068.457845
2861.981238,-9918.759623,1480.411884,-536.266849
2861.981575,-8216.285956,2294.638420,-842.705048
2861.981913,-9326.594869,1406.391290,1072.533697
2861.982250,-11917.315666,444.123565,919.314598
2861.982587,-10658.965565,666.185348,-1072.533697
2861.982925,-7846.182985,1628.453072,-1608.800546
2861.983262,-7994.224174,518.144159,76.609550
2861.983599,-10881.027347,-1406.391290,1532.190996
2861.983936,-10955.047942,-296.082377,0.000000
2861.984274,-8956.491898,740.205942,-1608.800546
2861.984611,-8364.327145,0.000000,-1072.533697
2861.984948,-10288.862594,-2146.597232,612.876398
2861.985285,-11769.274478,-2738.761985,919.314598
2861.985623,-9548.656652,-1184.329507,-612.876398
2861.985960,-7402.059420,-296.082377,-1225.752797
2861.986297,-9770.718434,-2072.576638,1915.238745
2861.986635,-11991.336260,-2072.576638,2068.457845
2861.986972,-11547.212695,-814.226536,306.438199
2861.987309,-9104.533087,740.205942,-536.266849
2861.987646,-9104.533087,740.205942,229.828649
2861.987984,-12361.439231,-740.205942,2681.334243
2861.988321,-12361.439231,-888.247130,689.485948
2861.988658,-9622.677246,740.205942,-2145.067394
2861.988996,-8364.327145,1184.329507,-842.705048
2861.989333,-10140.821405,-518.144159,1225.752797
2861.989670,-11177.109724,-962.267725,1378.971896
2861.990007,-10288.862594,518.144159,-612.876398
2861.990345,-9030.512492,2368.659014,-1455.581446
2861.990682,-9992.780217,-518.144159,-229.828649
2861.991019,-12139.377449,-1776.494261,153.219100
2861.991356,-10732.986159,-1480.411884,-612.876398
2861.991694,-7920.203579,0.000000,-842.705048
2861.992031,-7254.018232,0.000000,229.828649
2861.992368,-10584.944971,-1850.514855,2451.505594
2861.992706,-11769.274478,-1184.329507,1532.190996
2861.993043,-9326.594869,888.247130,-1072.533697
2861.993380,-8364.327145,1184.329507,383.047749
2861.993717,-10066.800811,74.020594,2681.334243
2861.994055,-12139.377449,-1110.308913,2757.943793
2861.994392,-10436.903782,1554.432478,612.876398
2861.994729,-7254.018232,1924.535449,-766.095498
2861.995066,-8290.306550,592.164754,1915.238745
2861.995404,-10955.047942,-222.061783,3217.601092
2861.995741,-11103.089130,1332.370696,995.924147
2861.996078,-9918.759623,2812.782580,-1225.752797
2861.996416,-9104.533087,1702.473667,-1838.629195
2861.996753,-10955.047942,-666.185348,0.000000
2861.997090,-11251.130318,-1332.370696,0.000000
2861.997427,-9178.553681,0.000000,-1838.629195
2861.997765,-7772.162391,-444.123565,-2298.286494
2861.998102,-9326.594869,-1776.494261,76.609550
2861.998439,-11325.150913,-2590.720797,0.000000
2861.998777,-11029.068536,-1480.411884,-1608.800546
2861.999114,-9474.636058,0.000000,-1991.848295
2861.999451,-9474.636058,-1480.411884,-995.924147
2861.999788,-11991.336260,-2590.720797,1149.143247
2862.000126,-11695.253884,-2812.782580,306.438199
2862.000463,-9474.636058,-1258.350101,-1149.143247
2862.000800,-8512.368333,-1702.473667,459.657299
2862.001137,-10214.842000,-2072.576638,2911.162892
2862.001475,-11843.295072,-2072.576638,2987.772442
2862.001812,-10140.821405,0.000000,919.314598
2862.002149,-8734.430116,1628.453072,153.219100
2862.002487,-10436.903782,222.061783,1838.629195
2862.002824,-12213.398043,-666.185348,1685.410096
2862.003161,-11251.130318,0.000000,229.828649
2862.003498,-8586.388927,962.267725,-536.266849
2862.003836,-7476.080014,740.205942,306.438199
2862.004173,-10436.903782,-1554.432478,1532.190996
2862.004510,-11029.068536,-296.082377,0.000000
2862.004847,-9104.533087,1258.350101,-1762.019645
2862.005185,-8512.368333,814.226536,-1302.362347
2862.005522,-9474.636058,-1258.350101,0.000000
2862.005859,-11695.253884,-1480.411884,1225.752797
2862.006197,-11177.109724,-296.082377,-306.438199
2862.006534,-7254.018232,592.164754,-1072.533697
2862.006871,-8142.265362,-296.082377,1455.581446
2862.007208,-10510.924376,-1776.494261,3140.991542
2862.007546,-11251.130318,222.061783,2374.896044
2862.007883,-9918.759623,1702.473667,383.047749
2862.008220,-9474.636058,888.247130,459.657299
2862.008558,-11843.295072,-222.061783,1838.629195
2862.008895,-12361.439231,-592.164754,1455.581446
2862.009232,-9326.594869,518.144159,0.000000
2862.009569,-7179.997637,222.061783,-229.828649
2862.009907,-9400.615463,-222.061783,1302.362347
2862.010244,-11769.274478,-666.185348,612.876398
2862.010581,-11621.233289,518.144159,-1455.581446
2862.010918,-9252.574275,1628.453072,-2604.724693
2862.011256,-9104.533087,222.061783,-1608.800546
2862.011593,-11325.150913,-1258.350101,229.828649
2862.011930,-11547.212695,-1406.391290,-1302.362347
2862.012268,-9252.574275,-148.041188,-3140.991542
2862.012605,-7254.018232,-1776.494261,-1532.190996
2862.012942,-9844.739029,-2368.659014,1225.752797
2862.013279,-11399.171507,-2516.700203,1915.238745
2862.013617,-10288.862594,222.061783,-306.438199
2862.013954,-8364.327145,444.123565,-1225.752797
2862.014291,-10288.862594,-1110.308913,842.705048
2862.014628,-12361.439231,-1702.473667,2221.676944
2862.014966,-11251.130318,-148.041188,2145.067394
2862.015303,-8512.368333,1110.308913,842.705048
2862.015640,-8290.306550,1554.432478,1608.800546
2862.015978,-11177.109724,0.000000,3600.648841
2862.016315,-11695.253884,814.226536,1532.190996
2862.016652,-9178.553681,1628.453072,-536.266849
2862.016989,-8438.347739,2516.700203,76.609550
2862.017327,-10140.821405,1110.308913,919.314598
2862.017664,-12213.398043,0.000000,536.266849
2862.018001,-10362.883188,1110.308913,-842.705048
2862.018338,-7179.997637,888.247130,-1685.410096
2862.018676,-8290.306550,370.102971,842.705048
2862.019013,-10807.006753,-1184.329507,1378.971896
2862.019350,-10955.047942,148.041188,0.000000
2862.019688,-9104.533087,444.123565,-1378.971896
2862.020025,-9252.574275,-444.123565,-689.485948
2862.020362,-11325.150913,-2220.617826,459.657299
2862.020699,-12139.377449,-2886.803174,383.047749
2862.021037,-8882.471304,-1184.329507,-766.095498
2862.021374,-6957.935855,-1776.494261,-383.047749
2862.021711,-9622.677246,-1776.494261,2374.896044
2862.022049,-12287.418637,-2294.638420,2068.457845
2862.022386,-12139.377449,-370.102971,229.828649
2862.022723,-9104.533087,814.226536,-612.876398
2862.023060,-10214.842000,296.082377,689.485948
2862.023398,-12139.377449,-1480.411884,1991.848295
2862.023735,-11843.295072,-962.267725,153.219100
2862.024072,-9400.615463,-518.144159,-1378.971896
2862.024409,-7994.224174,0.000000,-689.485948
2862.024747,-9770.718434,-1554.432478,1072.533697
2862.025084,-11843.295072,-1110.308913,919.314598
2862.025421,-9844.739029,74.020594,-1532.190996
2862.025759,-8586.388927,1332.370696,-2681.334243
2862.026096,-10214.842000,-592.164754,-1072.533697
2862.026433,-11473.192101,-2516.700203,0.000000
2862.026770,-10955.047942,-1776.494261,-459.657299
2862.027108,-7402.059420,-370.102971,-1225.752797
2862.027445,-7624.121203,0.000000,1072.533697
2862.027782,-11325.150913,-2146.597232,2298.286494
2862.028119,-11399.171507,-666.185348,995.924147
2862.028457,-9474.636058,444.123565,-536.266849
2862.028794,-8660.409521,888.247130,766.095498
2862.029131,-10584.944971,0.000000,2451.505594
2862.029469,-12361.439231,0.000000,2221.676944
2862.029806,-10066.800811,1258.350101,153.219100
2862.030143,-7402.059420,1480.411884,-689.485948
2862.030480,-8734.430116,1184.329507,2451.505594
2862.030818,-11251.130318,0.000000,3217.601092
2862.031155,-11399.171507,1702.473667,536.266849
2862.031492,-9548.656652,2886.803174,-1532.190996
2862.031830,-9474.636058,1702.473667,-1455.581446
2862.032167,-11695.253884,-444.123565,306.438199
2862.032504,-11621.233289,-1184.329507,-229.828649
2862.032841,-8586.388927,0.000000,-1762.019645
2862.033179,-6957.935855,-592.164754,-1225.752797
2862.033516,-9548.656652,-1554.432478,1072.533697
2862.033853,-11917.315666,-3034.844362,1225.752797
2862.034190,-10510.924376,-1480.411884,-842.705048
2862.034528,-8882.471304,0.000000,-1225.752797
2862.034865,-9992.780217,-962.267725,306.438199
2862.035202,-11843.295072,-2886.803174,1225.752797
2862.035540,-11103.089130,-2516.700203,76.609550
2862.035877,-8882.471304,-1184.329507,-689.485948
2862.036214,-7698.141797,-592.164754,536.266849
2862.036551,-10658.965565,-1628.453072,3140.991542
2862.036889,-12361.439231,-666.185348,2068.457845
2862.037226,-10214.842000,1554.432478,0.000000
2862.037563,-8956.491898,1850.514855,-689.485948
2862.037900,-10881.027347,666.185348,1378.971896
2862.038238,-12139.377449,-296.082377,1225.752797
2862.038575,-10807.006753,666.185348,0.000000
2862.038912,-8068.244768,1776.494261,-1302.362347
2862.039250,-8438.347739,962.267725,229.828649
2862.039587,-11177.109724,-888.247130,1225.752797
2862.039924,-10881.027347,74.020594,-612.876398
2862.040261,-8734.430116,1480.411884,-2451.505594
2862.040599,-8364.327145,1036.288319,-1378.971896
2862.040936,-10658.965565,-1110.308913,0.000000
2862.041273,-11769.274478,-1924.535449,612.876398
2862.041611,-9992.780217,-222.061783,-766.095498
2862.041948,-7105.977043,222.061783,-1072.533697
2862.042285,-8586.388927,-666.185348,1608.800546
2862.042622,-11399.171507,-1480.411884,3677.258390
2862.042960,-11103.089130,0.000000,919.314598
2862.043297,-8956.491898,1480.411884,-306.438199
2862.043634,-10066.800811,666.185348,383.047749
2862.043971,-11991.336260,-1628.453072,2221.676944
2862.044309,-11399.171507,-814.226536,1072.533697
2862.044646,-8734.430116,74.020594,-766.095498
2862.044983,-7624.121203,370.102971,306.438199
2862.045321,-9696.697840,-1258.350101,1378.971896
2862.045658,-11843.295072,-1924.535449,612.876398
2862.045995,-10066.800811,370.102971,-995.924147
2862.046332,-8586.388927,666.185348,-1838.629195
2862.046670,-10066.800811,-1110.308913,-306.438199
2862.047007,-12139.377449,-2146.597232,0.000000
2862.047344,-11547.212695,-1554.432478,-1149.143247
2862.047681,-8808.450710,-1702.473667,-2451.505594
2862.048019,-7698.141797,-2072.576638,-536.266849
2862.048356,-10584.944971,-3627.009116,2145.067394
2862.048693,-11843.295072,-3108.864956,1838.629195
2862.049031,-9918.759623,-592.164754,-306.438199
2862.049368,-8882.471304,0.000000,-842.705048
2862.049705,-11029.068536,-1480.411884,1608.800546
2862.050042,-12583.501014,-2368.659014,2374.896044
2862.050380,-10732.986159,0.000000,1072.533697
2862.050717,-8364.327145,814.226536,229.828649
2862.051054,-8438.347739,740.205942,1915.238745
2862.051392,-11399.171507,148.041188,2681.334243
2862.051729,-11621.233289,666.185348,1149.143247
2862.052066,-9030.512492,2442.679609,-689.485948
2862.052403,-8586.388927,2294.638420,0.000000
2862.052741,-10807.006753,296.082377,1455.581446
2862.053078,-11177.109724,370.102971,0.000000
2862.053415,-9474.636058,1258.350101,-1302.362347
2862.053752,-7105.977043,1776.494261,-1762.019645
2862.054090,-8512.368333,0.000000,153.219100
2862.054427,-10881.027347,-1036.288319,1762.019645
2862.054764,-10140.821405,888.247130,-1378.971896
2862.055102,-8956.491898,888.247130,-1838.629195
2862.055439,-9400.615463,-222.061783,-689.485948
2862.055776,-10955.047942,-2072.576638,0.000000
2862.056113,-11917.315666,-1776.494261,229.828649
2862.056451,-9104.533087,-370.102971,-995.924147
2862.056788,-7772.162391,-1110.308913,-459.657299
2862.057125,-10362.883188,-1924.535449,1915.238745
2862.057462,-12139.377449,-1258.350101,2374.896044
2862.057800,-10807.006753,222.061783,-306.438199
2862.058137,-8882.471304,666.185348,-1225.752797
2862.058474,-9918.759623,0.000000,842.705048
2862.058812,-12139.377449,-1702.473667,1302.362347
2862.059149,-11769.274478,-370.102971,459.657299
2862.059486,-8660.409521,0.000000,-1378.971896
2862.059823,-8142.265362,-296.082377,0.000000
2862.060161,-10732.986159,-1480.411884,1608.800546
2862.060498,-11325.150913,-1776.494261,842.705048
2862.060835,-9474.636058,740.205942,-995.924147
2862.061173,-8290.306550,296.082377,-1378.971896
2862.061510,-10510.924376,-1036.288319,76.609550
2862.061847,-11843.295072,-2294.638420,536.266849
2862.062184,-10362.883188,-1110.308913,229.828649
2862.062522,-7550.100608,-518.144159,229.828649
2862.062859,-8660.409521,-1184.329507,1838.629195
2862.063196,-11769.274478,-1480.411884,3064.381992
2862.063533,-11547.212695,-888.247130,1378.971896
2862.063871,-8882.471304,1184.329507,0.000000
2862.064208,-8438.347739,444.123565,1072.533697
2862.064545,-11325.150913,-222.061783,3294.210641
2862.064883,-11991.336260,666.185348,2298.286494
2862.065220,-9992.780217,1998.556043,0.000000
2862.065557,-7846.182985,1850.514855,76.609550
2862.065894,-8956.491898,888.247130,2298.286494
2862.066232,-11843.295072,370.102971,3217.601092
2862.066569,-10807.006753,1702.473667,-76.609550
2862.066906,-8438.347739,2220.617826,-1915.238745
2862.067244,-9178.553681,888.247130,-459.657299
2862.067581,-11769.274478,-962.267725,0.000000
2862.067918,-11547.212695,-962.267725,-612.876398
2862.068255,-7772.162391,-740.205942,-2451.505594
2862.068593,-7105.977043,-666.185348,-1915.238745
2862.068930,-9400.615463,-2294.638420,-383.047749
2862.069267,-11621.233289,-2516.700203,0.000000
2862.069605,-10214.842000,-814.226536,-1608.800546
2862.069942,-8364.327145,-666.185348,-1838.629195
2862.070279,-9844.739029,-1184.329507,0.000000
2862.070616,-12139.377449,-3034.844362,536.266849
2862.070954,-11399.171507,-1924.535449,-306.438199
2862.071291,-8364.327145,-1628.453072,-1149.143247
2862.071628,-8438.347739,-1480.411884,612.876398
2862.071965,-11325.150913,-1850.514855,2451.505594
2862.072303,-11769.274478,-1332.370696,1072.533697
2862.072640,-9548.656652,1184.329507,0.000000
2862.072977,-8586.388927,1406.391290,-536.266849
2862.073315,-11325.150913,0.000000,1149.143247
2862.073652,-12731.542202,-444.123565,229.828649
2862.073989,-10288.862594,296.082377,-459.657299
2862.074326,-7772.162391,1628.453072,-689.485948
2862.074664,-8364.327145,518.144159,383.047749
2862.075001,-11547.212695,-814.226536,1225.752797
2862.075338,-11103.089130,-666.185348,-383.047749
2862.075676,-8142.265362,1332.370696,-2068.457845
2862.076013,-7772.162391,0.000000,-306.438199
2862.076350,-10881.027347,-1554.432478,2221.676944
2862.076687,-11177.109724,-1776.494261,919.314598
2862.077025,-9622.677246,888.247130,-76.609550
2862.077362,-7402.059420,666.185348,76.609550
2862.077699,-9104.533087,-1258.350101,2145.067394
2862.078037,-11769.274478,-962.267725,4136.915689
2862.078374,-9918.759623,0.000000,1455.581446
2862.078711,-8290.306550,1850.514855,612.876398
2862.079048,-9844.739029,1110.308913,1838.629195
2862.079386,-12213.398043,-1036.288319,1838.629195
2862.079723,-11843.295072,0.000000,1072.533697
2862.080060,-8660.409521,444.123565,-383.047749
2862.080398,-7698.141797,814.226536,383.047749
2862.080735,-10955.047942,-814.226536,2451.505594
2862.081072,-12213.398043,-296.082377,1225.752797
2862.081409,-10288.862594,592.164754,-1302.362347
2862.081747,-8734.430116,1036.288319,-1455.581446
2862.082084,-10436.903782,-370.102971,0.000000
2862.082421,-12805.562797,-1554.432478,306.438199
2862.082758,-11029.068536,-1036.288319,-2145.067394
2862.083096,-8216.285956,-444.123565,-3370.820191
2862.083433,-8808.450710,-2220.617826,-1149.143247
2862.083770,-10658.965565,-2590.720797,842.705048
2862.084108,-11695.253884,-2664.741391,383.047749
2862.084445,-8808.450710,0.000000,-1685.410096
2862.084782,-8364.327145,0.000000,-459.657299
2862.085119,-11695.253884,-1628.453072,1915.238745
2862.085457,-12139.377449,-1924.535449,1685.410096
2862.085794,-9992.780217,370.102971,459.657299
2862.086131,-8142.265362,1628.453072,536.266849
2862.086469,-8882.471304,444.123565,1915.238745
2862.086806,-11621.233289,-444.123565,2374.896044
2862.087143,-10732.986159,444.123565,919.314598
2862.087480,-7846.182985,2960.823768,-612.876398
2862.087818,-8734.430116,1850.514855,76.609550
2862.088155,-11103.089130,370.102971,919.314598
2862.088492,-10955.047942,370.102971,0.000000
2862.088830,-9696.697840,1776.494261,-1378.971896
2862.089167,-8364.327145,1776.494261,-766.095498
2862.089504,-9548.656652,-592.164754,306.438199
2862.089841,-11621.233289,-962.267725,689.485948
2862.090179,-10066.800811,148.041188,-612.876398
2862.090516,-8290.306550,1406.391290,-1072.533697
2862.090853,-9770.718434,-666.185348,0.000000
2862.091191,-12361.439231,-2294.638420,306.438199
2862.091528,-11621.233289,-962.267725,-383.047749
2862.091865,-8512.368333,-740.205942,-1072.533697
2862.092202,-7920.203579,-740.205942,612.876398
2862.092540,-10214.842000,-2516.700203,2068.457845
2862.092877,-11843.295072,-1406.391290,2374.896044
2862.093214,-9918.759623,0.000000,229.828649
2862.093552,-8882.471304,962.267725,153.219100
2862.093889,-10584.944971,-370.102971,1762.019645
2862.094226,-12657.521608,-1480.411884,2451.505594
2862.094563,-10658.965565,-592.164754,153.219100
2862.094901,-8068.244768,666.185348,-1225.752797
2862.095238,-8734.430116,-814.226536,0.000000
2862.095575,-10732.986159,-1850.514855,76.609550
2862.095912,-10732.986159,-2220.617826,229.828649
2862.096250,-8956.491898,888.247130,-1915.238745
2862.096587,-8216.285956,0.000000,-1685.410096
2862.096924,-10955.047942,-888.247130,0.000000
2862.097262,-11843.295072,-2368.659014,-689.485948
2862.097599,-10140.821405,-814.226536,-1149.143247
2862.097936,-7994.224174,0.000000,-76.609550
2862.098273,-9104.533087,-1776.494261,1302.362347
2862.098611,-11769.274478,-1776.494261,2681.334243
2862.098948,-11621.233289,-666.185348,1072.533697
2862.099285,-8364.327145,1110.308913,153.219100
2862.099623,-8660.409521,518.144159,1455.581446
2862.099960,-11695.253884,-296.082377,3217.601092
2862.100297,-11843.295072,814.226536,1838.629195
2862.100634,-9992.780217,2294.638420,0.000000
2862.100972,-7772.162391,1776.494261,76.609550
2862.101309,-9918.759623,-370.102971,2145.067394
2862.101646,-11177.109724,370.102971,2451.505594
2862.101984,-9770.718434,1332.370696,0.000000
2862.102321,-8438.347739,2294.638420,-1608.800546
2862.102658,-9400.615463,222.061783,-842.705048
2862.102995,-11843.295072,-962.267725,0.000000
2862.103333,-10584.944971,-1036.288319,-766.095498
2862.103670,-7476.080014,222.061783,-2604.724693
2862.104007,-7624.121203,-1480.411884,-459.657299
2862.104345,-10066.800811,-2590.720797,766.095498
2862.104682,-11399.171507,-2072.576638,536.266849
2862.105019,-9918.759623,-74.020594,-1225.752797
2862.105356,-8734.430116,-592.164754,-842.705048
2862.105694,-10807.006753,-1480.411884,919.314598
2862.106031,-12731.542202,-2146.597232,1378.971896
2862.106368,-11029.068536,-444.123565,229.828649
2862.106705,-8364.327145,0.000000,-459.657299
2862.107043,-9622.677246,-1184.329507,919.314598
2862.107380,-11843.295072,-962.267725,2298.286494
2862.107717,-11917.315666,-370.102971,1378.971896
2862.108055,-9400.615463,2072.576638,-536.266849
2862.108392,-9030.512492,1406.391290,0.000000
2862.108729,-11843.295072,222.061783,1302.362347
2862.109066,-12213.398043,370.102971,0.000000
2862.109404,-9770.718434,1406.391290,-1072.533697
2862.109741,-7920.203579,1554.432478,-153.219100
2862.110078,-9178.553681,0.000000,995.924147
2862.110416,-11547.212695,-370.102971,1149.143247
2862.110753,-10362.883188,444.123565,-153.219100
2862.111090,-8068.244768,1036.288319,-1378.971896
2862.111427,-8068.244768,148.041188,229.828649
2862.111765,-10288.862594,-1406.391290,1838.629195
2862.112102,-11177.109724,-666.185348,536.266849
2862.112439,-9178.553681,962.267725,-153.219100
2862.112777,-7476.080014,222.061783,0.000000
2862.113114,-9548.656652,-1628.453072,2221.676944
2862.113451,-11695.253884,-370.102971,2911.162892
2862.113788,-9918.759623,814.226536,1072.533697
2862.114126,-8290.306550,2072.576638,0.000000
2862.114463,-10288.862594,148.041188,1378.971896
2862.114800,-13027.624579,-444.123565,1838.629195
2862.115138,-11399.171507,0.000000,0.000000
2862.115475,-8586.388927,888.247130,-1149.143247
2862.115812,-8142.265362,296.082377,306.438199
2862.116149,-10658.965565,-1184.329507,919.314598
2862.116487,-11843.295072,-592.164754,229.828649
2862.116824,-10214.842000,444.123565,-1378.971896
2862.117161,-8586.388927,370.102971,-1302.362347
2862.117498,-10732.986159,-1406.391290,76.609550
2862.117836,-12731.542202,-1998.556043,153.219100
2862.118173,-10584.944971,-1776.494261,-1532.190996
2862.118510,-8216.285956,-1480.411884,-1762.019645
2862.118848,-8808.450710,-2960.823768,-229.828649
2862.119185,-11251.130318,-3552.988522,1455.581446
2862.119522,-11325.150913,-2516.700203,612.876398
2862.119859,-8882.471304,-1184.329507,-995.924147
2862.120197,-8512.368333,-666.185348,0.000000
2862.120534,-11473.192101,-2368.659014,1455.581446
2862.120871,-12213.398043,-2294.638420,919.314598
2862.121209,-9326.594869,-296.082377,229.828649
2862.121546,-7846.182985,296.082377,1378.971896
2862.121883,-9474.636058,-444.123565,2451.505594
2862.122220,-10955.047942,-888.247130,2757.943793
2862.122558,-11177.109724,962.267725,1149.143247
2862.122895,-8882.471304,2516.700203,0.000000
2862.123232,-8882.471304,1850.514855,229.828649
2862.123570,-11621.233289,814.226536,766.095498
2862.123907,-11177.109724,148.041188,-306.438199
2862.124244,-9030.512492,1332.370696,-1991.848295
2862.124581,-7550.100608,888.247130,-1149.143247
2862.124919,-9548.656652,-888.247130,536.266849
2862.125256,-11251.130318,-592.164754,536.266849
2862.125593,-9474.636058,666.185348,-842.705048
2862.125931,-8290.306550,1406.391290,-1302.362347
2862.126268,-10510.924376,-222.061783,0.000000
2862.126605,-12731.542202,-1554.432478,689.485948
2862.126942,-10881.027347,-814.226536,-459.657299
2862.127280,-7772.162391,-592.164754,-766.095498
2862.127617,-8438.347739,-1036.288319,842.705048
2862.127954,-10732.986159,-1554.432478,2528.115143
2862.128291,-11843.295072,-592.164754,1378.971896
2862.128629,-9548.656652,518.144159,-153.219100
2862.128966,-8364.327145,1332.370696,-306.438199
2862.129303,-11251.130318,0.000000,1685.410096
2862.129641,-12953.603985,-296.082377,1532.190996
2862.129978,-10436.903782,444.123565,-306.438199
2862.130315,-7920.203579,1036.288319,-229.828649
2862.130652,-9252.574275,-888.247130,1225.752797
2862.130990,-11473.192101,-1628.453072,1072.533697
2862.131327,-10807.006753,-592.164754,383.047749
2862.131664,-8882.471304,740.205942,-689.485948
2862.132002,-8660.409521,296.082377,-1072.533697
2862.132339,-11843.295072,-1850.514855,153.219100
2862.132676,-11621.233289,-2516.700203,0.000000
2862.133013,-8660.409521,-370.102971,-1838.629195
2862.133351,-7254.018232,-296.082377,-306.438199
2862.133688,-9622.677246,-814.226536,1991.848295
2862.134025,-11473.192101,-1776.494261,1991.848295
2862.134363,-10584.944971,0.000000,842.705048
2862.134700,-8290.306550,1702.473667,-383.047749
2862.135037,-9400.615463,518.144159,2374.896044
2862.135374,-11917.315666,-740.205942,3294.210641
2862.135712,-11251.130318,888.247130,1455.581446
2862.136049,-8734.430116,1702.473667,0.000000
2862.136386,-8290.306550,1998.556043,536.266849
2862.136724,-10436.903782,-370.102971,2451.505594
2862.137061,-11325.150913,592.164754,1685.410096
2862.137398,-9770.718434,2368.659014,229.828649
2862.137735,-8586.388927,2368.659014,-2068.457845
2862.138073,-10881.027347,222.061783,-383.047749
2862.138410,-12657.521608,-1184.329507,-306.438199
2862.138747,-10288.862594,-962.267725,-1915.238745
2862.139085,-7402.059420,0.000000,-2068.457845
2862.139422,-7846.182985,-1924.535449,-612.876398
2862.139759,-10436.903782,-3182.885551,229.828649
2862.140096,-11029.068536,-2146.597232,0.000000
2862.140434,-9770.718434,-592.164754,-995.924147
2862.140771,-9030.512492,-148.041188,-536.266849
2862.141108,-11695.253884,-2072.576638,536.266849
2862.141445,-12583.501014,-2368.659014,842.705048
2862.141783,-10066.800811,-1776.494261,0.000000
2862.142120,-8142.265362,-666.185348,306.438199
2862.142457,-9474.636058,-2146.597232,1685.410096
2862.142795,-11621.233289,-2368.659014,2451.505594
2862.143132,-10955.047942,-74.020594,1072.533697
2862.143469,-8956.491898,962.267725,153.219100
2862.143806,-9844.739029,1110.308913,0.000000
2862.144144,-12287.418637,-1258.350101,229.828649
2862.144481,-11843.295072,-888.247130,0.000000
2862.144818,-8734.430116,444.123565,-1378.971896
2862.145156,-7402.059420,814.226536,-306.438199
2862.145493,-9844.739029,-962.267725,766.095498
2862.145830,-11473.192101,-962.267725,153.219100
2862.146167,-10362.883188,592.164754,-995.924147
2862.146505,-8660.409521,1184.329507,-1915.238745
2862.146842,-9326.594869,0.000000,306.438199
2862.147179,-11547.212695,-1554.432478,1685.410096
2862.147517,-11029.068536,-296.082377,919.314598
2862.147854,-8586.388927,814.226536,0.000000
2862.148191,-8290.306550,0.000000,536.266849
2862.148528,-10288.862594,-1184.329507,2451.505594
2862.148866,-11251.130318,-518.144159,2987.772442
2862.149203,-9474.636058,1776.494261,1608.800546
2862.149540,-8364.327145,2294.638420,76.609550
2862.149878,-11029.068536,444.123565,1072.533697
2862.150215,-12731.542202,0.000000,1225.752797
2862.150552,-10732.986159,370.102971,-459.657299
2862.150889,-7402.059420,962.267725,-689.485948
2862.151227,-7920.203579,296.082377,919.314598
2862.151564,-10658.965565,-814.226536,1302.362347
2862.151901,-11103.089130,-592.164754,-689.485948
2862.152238,-9252.574275,1110.308913,-1991.848295
2862.152576,-9178.553681,370.102971,-995.924147
2862.152913,-11695.253884,-814.226536,0.000000
2862.153250,-11843.295072,-1258.350101,-536.266849
2862.153588,-10140.821405,-444.123565,-2068.457845
2862.153925,-7846.182985,-1110.308913,-1455.581446
2862.154262,-9252.574275,-2516.700203,306.438199
2862.154599,-11251.130318,-3256.906145,1302.362347
2862.154937,-10658.965565,-1184.329507,459.657299
2862.155274,-9474.636058,-74.020594,-612.876398
2862.155611,-9548.656652,-518.144159,0.000000
2862.155949,-11991.336260,-2664.741391,1685.410096
2862.156286,-12287.418637,-1036.288319,1302.362347
2862.156623,-8586.388927,0.000000,0.000000
2862.156960,-8216.285956,1332.370696,1378.971896
2862.157298,-10288.862594,-666.185348,2604.724693
2862.157635,-11621.233289,-518.144159,1685.410096
2862.157972,-10658.965565,2220.617826,306.438199
2862.158310,-8586.388927,1776.494261,-919.314598
2862.158647,-9474.636058,1258.350101,459.657299
2862.158984,-11473.192101,0.000000,689.485948
2862.159321,-10510.924376,740.205942,-229.828649
2862.159659,-8142.265362,1406.391290,-1225.752797
2862.159996,-8142.265362,-74.020594,-459.657299
2862.160333,-10140.821405,-666.185348,1378.971896
2862.160671,-10955.047942,-962.267725,1378.971896
2862.161008,-9326.594869,1406.391290,-383.047749
2862.161345,-8660.409521,-148.041188,-536.266849
2862.161682,-11399.171507,-888.247130,536.266849
2862.162020,-12213.398043,-1628.453072,0.000000
2862.162357,-10066.800811,-1110.308913,-995.924147
2862.162694,-7105.977043,-962.267725,-689.485948
2862.163031,-8660.409521,-1406.391290,1149.143247
2862.163369,-11843.295072,-2294.638420,2757.943793
2862.163706,-11473.192101,74.020594,612.876398
2862.164043,-9622.677246,148.041188,0.000000
2862.164381,-9474.636058,518.144159,0.000000
2862.164718,-11325.150913,-1036.288319,1991.848295
2862.165056,-13027.624579,-962.267725,2145.067394
2862.165393,-9252.574275,148.041188,-766.095498
2862.165730,-7772.162391,222.061783,-842.705048
2862.166068,-9844.739029,-1332.370696,612.876398
2862.166405,-11029.068536,-2146.597232,306.438199
2862.166742,-10584.944971,-518.144159,-842.705048
2862.167080,-8956.491898,0.000000,-1838.629195
2862.167417,-9252.574275,-296.082377,-1608.800546
2862.167755,-12065.356855,-2664.741391,-842.705048
2862.168092,-11399.171507,-1924.535449,-995.924147
2862.168429,-8216.285956,-1110.308913,-1302.362347
2862.168767,-8068.244768,-962.267725,536.266849
2862.169104,-10214.842000,-1258.350101,2068.457845
2862.169442,-11769.274478,-1332.370696,1302.362347
2862.169779,-10584.944971,888.247130,842.705048
2862.170116,-8808.450710,888.247130,229.828649
2862.170454,-9844.739029,740.205942,2145.067394
2862.170791,-12139.377449,-222.061783,2681.334243
2862.171129,-11029.068536,1110.308913,1302.362347
2862.171466,-7846.182985,1850.514855,-383.047749
2862.171803,-8438.347739,1406.391290,1532.190996
2862.172141,-10955.047942,222.061783,1991.848295
2862.172478,-11103.089130,1036.288319,1149.143247
2862.172816,-9252.574275,3034.844362,-995.924147
2862.173153,-8734.430116,2146.597232,-1225.752797
2862.173490,-11473.192101,370.102971,-536.266849
2862.173828,-11843.295072,-888.247130,-766.095498
2862.174165,-10214.842000,-222.061783,-1762.019645
2862.174502,-6587.832884,-518.144159,-2145.067394
2862.174840,-7846.182985,-1332.370696,-153.219100
2862.175177,-11177.109724,-2664.741391,1149.143247
2862.175515,-11177.109724,-1406.391290,-689.485948
2862.175852,-9400.615463,-296.082377,-1072.533697
2862.176189,-9400.615463,-888.247130,0.000000
2862.176527,-11547.212695,-2516.700203,1685.410096
2862.176864,-12287.418637,-2146.597232,2068.457845
2862.177202,-9326.594869,-1480.411884,536.266849
2862.177539,-8068.244768,-666.185348,1302.362347
2862.177876,-10362.883188,-1554.432478,3064.381992
2862.178214,-12287.418637,-1924.535449,2298.286494
2862.178551,-10807.006753,370.102971,766.095498
2862.178889,-8956.491898,962.267725,-383.047749
2862.179226,-9844.739029,370.102971,-383.047749
2862.179563,-12213.398043,-1332.370696,0.000000
2862.179901,-11177.109724,-592.164754,-153.219100
2862.180238,-7994.224174,444.123565,-1915.238745
2862.180576,-7846.182985,296.082377,76.609550
2862.180913,-11325.150913,-444.123565,1072.533697
2862.181250,-11991.336260,-666.185348,76.609550
2862.181588,-9696.697840,888.247130,-1685.410096
2862.181925,-7920.203579,592.164754,-1302.362347
2862.182263,-9696.697840,-962.267725,1149.143247
2862.182600,-11695.253884,-1554.432478,1455.581446
2862.182937,-10658.965565,222.061783,0.000000
2862.183275,-7476.080014,296.082377,-612.876398
2862.183612,-8216.285956,0.000000,766.095498
2862.183949,-10362.883188,-1258.350101,3600.648841
2862.184287,-11103.089130,222.061783,2604.724693
2862.184624,-8512.368333,2146.597232,612.876398
2862.184962,-9548.656652,2146.597232,459.657299
2862.185299,-11843.295072,296.082377,995.924147
2862.185636,-12213.398043,-740.205942,689.485948
2862.185974,-9622.677246,444.123565,-306.438199
2862.186311,-7179.997637,1406.391290,-689.485948
2862.186649,-9030.512492,148.041188,612.876398
2862.186986,-11917.315666,-370.102971,1378.971896
2862.187323,-10510.924376,0.000000,-995.924147
2862.187661,-8882.471304,740.205942,-2145.067394
2862.187998,-9622.677246,0.000000,-689.485948
2862.188336,-11917.315666,-1406.391290,-459.657299
2862.188673,-11991.336260,-1258.350101,-383.047749
2862.189010,-9474.636058,-888.247130,-1762.019645
2862.189348,-7698.141797,-1406.391290,-383.047749
2862.189685,-10288.862594,-2590.720797,1608.800546
2862.190023,-11917.315666,-3404.947333,2145.067394
2862.190360,-10584.944971,-1480.411884,306.438199
2862.190697,-8956.491898,-370.102971,-229.828649
2862.191035,-10140.821405,-1776.494261,612.876398
2862.191372,-12583.501014,-2812.782580,1685.410096
2862.191710,-10955.047942,-1554.432478,1455.581446
2862.192047,-7624.121203,222.061783,536.266849
2862.192384,-8364.327145,518.144159,1762.019645
2862.192722,-11029.068536,-888.247130,2528.115143
2862.193059,-11991.336260,-296.082377,1685.410096
2862.193396,-9844.739029,2146.597232,-459.657299
2862.193734,-8438.347739,2368.659014,0.000000
2862.194071,-10288.862594,888.247130,689.485948
2862.194409,-11177.109724,-592.164754,1072.533697
2862.194746,-9992.780217,962.267725,0.000000
2862.195083,-7920.203579,1332.370696,-995.924147
2862.195421,-8734.430116,666.185348,306.438199
2862.195758,-11103.089130,-592.164754,1685.410096
2862.196096,-10584.944971,-222.061783,536.266849
2862.196433,-8808.450710,1702.473667,-306.438199
2862.196770,-9030.512492,740.205942,0.000000
2862.197108,-11769.274478,-666.185348,0.000000
2862.197445,-12435.459826,-1406.391290,-383.047749
2862.197783,-9770.718434,0.000000,-1378.971896
2862.198120,-7698.141797,0.000000,-306.438199
2862.198457,-9474.636058,-1036.288319,1915.238745
2862.198795,-11621.233289,-1554.432478,1455.581446
2862.199132,-10807.006753,222.061783,-153.219100
2862.199470,-9400.615463,1332.370696,-536.266849
2862.199807,-9548.656652,0.000000,536.266849
2862.200144,-11843.295072,-962.267725,1915.238745
2862.200482,-11547.212695,-592.164754,383.047749
2862.200819,-9178.553681,222.061783,-1302.362347
2862.201157,-7402.059420,148.041188,-1532.190996
2862.201494,-10140.821405,-1850.514855,306.438199
2862.201831,-11473.192101,-1924.535449,689.485948
2862.202169,-9770.718434,-222.061783,-2068.457845
2862.202506,-8660.409521,666.185348,-2451.505594
2862.202843,-10214.842000,-1702.473667,-1225.752797
2862.203181,-11547.212695,-3330.926739,-1149.143247
2862.203518,-10658.965565,-2072.576638,-1072.533697
2862.203856,-7624.121203,-666.185348,-153.219100
2862.204193,-8364.327145,-1110.308913,766.095498
2862.204530,-11399.171507,-1998.556043,1838.629195
2862.204868,-12509.480420,-962.267725,1149.143247
2862.205205,-10362.883188,962.267725,153.219100
2862.205543,-9104.533087,666.185348,842.705048
2862.205880,-10362.883188,0.000000,2451.505594
2862.206217,-12139.377449,0.000000,3140.991542
2862.206555,-10362.883188,1554.432478,1455.581446
2862.206892,-8290.306550,2294.638420,995.924147
2862.207230,-9400.615463,518.144159,2451.505594
2862.207567,-11177.109724,222.061783,3447.429741
2862.207904,-10732.986159,1480.411884,2298.286494
2862.208242,-8808.450710,2664.741391,459.657299
2862.208579,-8956.491898,1258.350101,689.485948
2862.208917,-11103.089130,-666.185348,76.609550
2862.209254,-11917.315666,-740.205942,-383.047749
2862.209591,-9548.656652,592.164754,-1608.800546
2862.209929,-6957.935855,-74.020594,-1838.629195
2862.210266,-8882.471304,-1406.391290,383.047749
2862.210603,-10732.986159,-2886.803174,153.219100
2862.210941,-10066.800811,-1258.350101,-1915.238745
2862.211278,-8364.327145,0.000000,-1762.019645
2862.211616,-9548.656652,-666.185348,0.000000
2862.211953,-11843.295072,-1924.535449,842.705048
2862.212290,-11843.295072,-1258.350101,306.438199
2862.212628,-9474.636058,-148.041188,76.609550
2862.212965,-8142.265362,-592.164754,229.828649
2862.213303,-10584.944971,-1480.411884,2374.896044
2862.213640,-12213.398043,-518.144159,2068.457845
2862.213977,-10658.965565,888.247130,229.828649
2862.214315,-9474.636058,2220.617826,-995.924147
2862.214652,-10732.986159,0.000000,-919.314598
2862.214990,-12213.398043,-888.247130,-306.438199
2862.215327,-10436.903782,-592.164754,-1455.581446
2862.215664,-7846.182985,518.144159,-1685.410096
2862.216002,-7994.224174,-222.061783,0.000000
2862.216339,-11695.253884,-1184.329507,842.705048
2862.216677,-11843.295072,-814.226536,-1225.752797
2862.217014,-9400.615463,592.164754,-2068.457845
2862.217351,-7920.203579,0.000000,-1378.971896
2862.217689,-9844.739029,-1702.473667,229.828649
2862.218026,-11769.274478,-1258.350101,919.314598
2862.218364,-9918.759623,0.000000,0.000000
2862.218701,-7550.100608,0.000000,-766.095498
2862.219038,-8660.409521,-666.185348,1991.848295
2862.219376,-10881.027347,-1332.370696,3524.039291
2862.219713,-10732.986159,740.205942,2528.115143
2862.220050,-8660.409521,1702.473667,919.314598
2862.220388,-9326.594869,1480.411884,1149.143247
2862.220725,-11843.295072,444.123565,1762.019645
2862.221063,-12287.418637,-370.102971,1149.143247
2862.221400,-9474.636058,1406.391290,0.000000
2862.221737,-7254.018232,814.226536,0.000000
2862.222075,-9992.780217,222.061783,612.876398
2862.222412,-11991.336260,-592.164754,689.485948
2862.222750,-10066.800811,-222.061783,-1455.581446
2862.223087,-7846.182985,740.205942,-1532.190996
2862.223424,-9548.656652,-592.164754,306.438199
2862.223762,-12065.356855,-1184.329507,536.266849
2862.224099,-11695.253884,-1480.411884,-1532.190996
2862.224437,-9104.533087,-592.164754,-1608.800546
2862.224774,-8216.285956,-1480.411884,-383.047749
2862.225111,-10362.883188,-2442.679609,1762.019645
2862.225449,-11843.295072,-2294.638420,1532.190996
2862.225786,-9918.759623,-370.102971,76.609550
2862.226124,-8660.409521,148.041188,-536.266849
2862.226461,-10807.006753,-1702.473667,689.485948
2862.226798,-12213.398043,-2146.597232,1838.629195
2862.227136,-10732.986159,-740.205942,1149.143247
2862.227473,-8068.244768,1036.288319,766.095498
2862.227811,-8438.347739,888.247130,1225.752797
2862.228148,-11769.274478,0.000000,2451.505594
2862.228485,-11843.295072,74.020594,995.924147
2862.228823,-9178.553681,1554.432478,-1149.143247
2862.229160,-8586.388927,2294.638420,0.000000
2862.229497,-10214.842000,222.061783,229.828649
2862.229835,-11325.150913,0.000000,0.000000
2862.230172,-9548.656652,1110.308913,-689.485948
2862.230510,-7476.080014,1480.411884,-1225.752797
2862.230847,-9104.533087,148.041188,0.000000
2862.231184,-10955.047942,-888.247130,1225.752797
2862.231522,-10732.986159,0.000000,0.000000
2862.231859,-8068.244768,1184.329507,-919.314598
2862.232197,-8438.347739,1406.391290,0.000000
2862.232534,-11917.315666,-1406.391290,1072.533697
2862.232871,-12065.356855,-1332.370696,0.000000
2862.233209,-9030.512492,0.000000,-1225.752797
2862.233546,-8142.265362,222.061783,-383.047749
2862.233884,-9770.718434,-888.247130,1302.362347
2862.234221,-11991.336260,-1628.453072,1762.019645
2862.234558,-10436.903782,0.000000,-153.219100
2862.234896,-7772.162391,1332.370696,-689.485948
2862.235233,-9844.739029,0.000000,1608.800546
2862.235571,-12213.398043,-666.185348,1302.362347
2862.235908,-11547.212695,-592.164754,536.266849
2862.236245,-9252.574275,888.247130,-766.095498
2862.236583,-7846.182985,-296.082377,-383.047749
2862.236920,-10807.006753,-1554.432478,1838.629195
2862.237257,-11695.253884,-1998.556043,1532.190996
2862.237595,-9548.656652,0.000000,-842.705048
2862.237932,-8882.471304,222.061783,-1532.190996
2862.238270,-10881.027347,-2368.659014,-766.095498
2862.238607,-11917.315666,-3034.844362,0.000000
2862.238944,-9622.677246,-2368.659014,-689.485948
2862.239282,-7698.141797,-592.164754,-459.657299
2862.239619,-9178.553681,-1184.329507,536.266849
2862.239957,-11843.295072,-2368.659014,1915.238745
2862.240294,-11769.274478,-1406.391290,1072.533697
2862.240631,-9622.677246,-296.082377,536.266849
2862.240969,-8586.388927,1036.288319,1455.581446
2862.241306,-10732.986159,-1184.329507,3140.991542
2862.241644,-12213.398043,0.000000,2681.334243
2862.241981,-9696.697840,1184.329507,76.609550
2862.242318,-8512.368333,2146.597232,459.657299
2862.242656,-9030.512492,148.041188,1915.238745
2862.242993,-10881.027347,962.267725,1532.190996
2862.243331,-10436.903782,1776.494261,536.266849
2862.243668,-8290.306550,3182.885551,-1378.971896
2862.244005,-8660.409521,1480.411884,0.000000
2862.244343,-11843.295072,0.000000,-229.828649
2862.244680,-11473.192101,-370.102971,-1302.362347
2862.245018,-9474.636058,1184.329507,-1608.800546
2862.245355,-7846.182985,0.000000,-1532.190996
2862.245692,-9030.512492,-2146.597232,-536.266849
2862.246030,-11029.068536,-2664.741391,-306.438199
2862.246367,-9918.759623,-666.185348,-1532.190996
2862.246704,-7920.203579,0.000000,-2068.457845
2862.247042,-10140.821405,-666.185348,0.000000
2862.247379,-12361.439231,-1406.391290,689.485948
2862.247717,-11843.295072,-1628.453072,76.609550
2862.248054,-9104.533087,444.123565,0.000000
2862.248391,-8586.388927,-592.164754,842.705048
2862.248729,-11769.274478,-1628.453072,2911.162892
2862.249066,-11695.253884,-814.226536,2451.505594
2862.249404,-9548.656652,1258.350101,766.095498
2862.249741,-9548.656652,1850.514855,153.219100
2862.250078,-11547.212695,-740.205942,689.485948
2862.250416,-12213.398043,-370.102971,0.000000
2862.250753,-10066.800811,-296.082377,-842.705048
2862.251091,-7402.059420,1110.308913,-612.876398
2862.251428,-8512.368333,-740.205942,76.609550
2862.251765,-11473.192101,-1406.391290,612.876398
2862.252103,-11029.068536,0.000000,-1072.533697
2862.252440,-8882.471304,296.082377,-1225.752797
2862.252778,-8512.368333,74.020594,306.438199
2862.253115,-10732.986159,-1480.411884,1838.629195
2862.253452,-11843.295072,-888.247130,1149.143247
2862.253790,-9474.636058,814.226536,-612.876398
2862.254127,-7846.182985,444.123565,383.047749
2862.254465,-9104.533087,-962.267725,2604.724693
2862.254802,-11399.171507,-740.205942,3370.820191
2862.255139,-10732.986159,1554.432478,2604.724693
2862.255477,-8956.491898,2368.659014,306.438199
2862.255814,-9104.533087,1628.453072,1149.143247
2862.256151,-12361.439231,74.020594,2068.457845
2862.256489,-11177.109724,740.205942,842.705048
2862.256826,-9400.615463,1998.556043,-919.314598
2862.257164,-8586.388927,666.185348,-689.485948
2862.257501,-10288.862594,0.000000,76.609550
2862.257838,-11251.130318,-962.267725,-306.438199
2862.258176,-9474.636058,0.000000,-1838.629195
2862.258513,-7772.162391,74.020594,-1991.848295
2862.258851,-9918.759623,-1480.411884,0.000000
2862.259188,-11769.274478,-1924.535449,-229.828649
2862.259525,-11547.212695,-1480.411884,-2068.457845
2862.259863,-8956.491898,-962.267725,-2451.505594
2862.260200,-8290.306550,-2294.638420,-766.095498
2862.260538,-10955.047942,-3256.906145,1915.238745
2862.260875,-11473.192101,-2294.638420,1455.581446
2862.261212,-9178.553681,-666.185348,-383.047749
2862.261550,-8882.471304,-1036.288319,-536.266849
2862.261887,-11547.212695,-2368.659014,1072.533697
2862.262225,-12509.480420,-2590.720797,1149.143247
2862.262562,-9918.759623,-666.185348,229.828649
2862.262899,-7920.203579,740.205942,459.657299
2862.263237,-9178.553681,-518.144159,1685.410096
2862.263574,-11695.253884,-888.247130,2145.067394
2862.263911,-11103.089130,0.000000,842.705048
2862.264249,-9548.656652,1850.514855,-383.047749
2862.264586,-9400.615463,1702.473667,383.047749
2862.264924,-11547.212695,74.020594,1225.752797
2862.265261,-11769.274478,370.102971,153.219100
2862.265598,-9696.697840,592.164754,-1378.971896
2862.265936,-7476.080014,666.185348,-459.657299
2862.266273,-8734.430116,-370.102971,766.095498
2862.266610,-11029.068536,-1184.329507,1225.752797
2862.266947,-10436.903782,666.185348,0.000000
2862.267285,-7994.224174,1036.288319,-1225.752797
2862.267622,-9252.574275,148.041188,766.095498
2862.267959,-12139.377449,-1110.308913,1302.362347
2862.268296,-10732.986159,-592.164754,0.000000
2862.268634,-8512.368333,148.041188,-306.438199
2862.268971,-8438.347739,-296.082377,383.047749
2862.269308,-10288.862594,-1036.288319,1685.410096
2862.269646,-12213.398043,-666.185348,1149.143247
2862.269983,-9844.739029,444.123565,-383.047749
2862.270320,-7994.224174,1110.308913,-919.314598
2862.270657,-9844.739029,0.000000,1302.362347
2862.270995,-12139.377449,-592.164754,919.314598
2862.271332,-11473.192101,74.020594,-536.266849
2862.271669,-8364.327145,888.247130,-2145.067394
2862.272006,-8660.409521,-592.164754,0.000000
2862.272344,-10881.027347,-1628.453072,1608.800546
2862.272681,-11621.233289,-1036.288319,612.876398
2862.273018,-9474.636058,222.061783,-1225.752797
2862.273355,-9104.533087,74.020594,-1991.848295
2862.273693,-11177.109724,-1850.514855,-536.266849
2862.274030,-12435.459826,-2590.720797,0.000000
2862.274367,-9622.677246,-1406.391290,-1225.752797
2862.274704,-7550.100608,0.000000,-306.438199
2862.275042,-9400.615463,-962.267725,1302.362347
2862.275379,-11917.315666,-1850.514855,1608.800546
2862.275716,-11473.192101,-592.164754,766.095498
2862.276054,-9400.615463,740.205942,229.828649
2862.276391,-8734.430116,740.205942,1762.019645
2862.276728,-11991.336260,-370.102971,3140.991542
2862.277065,-11547.212695,370.102971,1532.190996
2862.277403,-9030.512492,1332.370696,0.000000
2862.277740,-8068.244768,1702.473667,612.876398
2862.278077,-9474.636058,1184.329507,2145.067394
2862.278414,-11325.150913,814.226536,2221.676944
2862.278752,-9992.780217,2072.576638,76.609550
2862.279089,-8142.265362,2442.679609,-766.095498
2862.279426,-9474.636058,1184.329507,306.438199
2862.279763,-12139.377449,-1332.370696,306.438199
2862.280101,-10658.965565,0.000000,-842.705048
2862.280438,-7772.162391,444.123565,-2068.457845
2862.280775,-8290.306550,-370.102971,-1302.362347
2862.281113,-9992.780217,-1702.473667,-383.047749
2862.281450,-11843.295072,-2294.638420,-766.095498
2862.281787,-9992.780217,-518.144159,-1608.800546
2862.282124,-7476.080014,-592.164754,-1685.410096
2862.282462,-10436.903782,-1628.453072,689.485948
2862.282799,-12805.562797,-2516.700203,1455.581446
2862.283136,-11325.150913,-1406.391290,0.000000
2862.283473,-8512.368333,-666.185348,0.000000
2862.283811,-9474.636058,-222.061783,2068.457845
2862.284148,-12139.377449,-2146.597232,3140.991542
2862.284485,-11621.233289,-888.247130,2221.676944
2862.284822,-9474.636058,888.247130,0.000000
2862.285160,-9622.677246,814.226536,0.000000
2862.285497,-11325.150913,-1480.411884,0.000000
2862.285834,-11843.295072,-1850.514855,-383.047749
2862.286171,-9178.553681,-666.185348,-1225.752797
2862.286509,-7254.018232,222.061783,-1072.533697
2862.286846,-9030.512492,-814.226536,306.438199
2862.287183,-11029.068536,-2220.617826,76.609550
2862.287521,-10955.047942,-518.144159,-842.705048
2862.287858,-8882.471304,74.020594,-1302.362347
2862.288195,-8290.306550,-148.041188,383.047749
2862.288532,-11251.130318,-1998.556043,2145.067394
2862.288870,-11399.171507,-1406.391290,153.219100
2862.289207,-8808.450710,0.000000,-842.705048
2862.289544,-7920.203579,370.102971,306.438199
2862.289881,-9992.780217,-1406.391290,2834.553343
2862.290219,-11473.192101,-296.082377,3370.820191
2862.290556,-10214.842000,1776.494261,1685.410096
2862.290893,-9030.512492,2664.741391,536.266849
2862.291230,-9918.759623,1924.535449,1838.629195
2862.291568,-12213.398043,444.123565,2451.505594
2862.291905,-11325.150913,666.185348,1149.143247
2862.292242,-8586.388927,2072.576638,-383.047749
2862.292579,-8882.471304,1480.411884,76.609550
2862.292917,-10955.047942,-370.102971,383.047749
2862.293254,-11029.068536,-962.267725,-536.266849
2862.293591,-9474.636058,888.247130,-2298.286494
2862.293929,-7772.162391,222.061783,-1225.752797
2862.294266,-10140.821405,-888.247130,-383.047749
2862.294603,-12139.377449,-2516.700203,-995.924147
2862.294940,-10658.965565,-740.205942,-2298.286494
2862.295278,-8438.347739,-814.226536,-1915.238745
2862.295615,-8364.327145,-2146.597232,0.000000
2862.295952,-10584.944971,-3034.844362,1838.629195
2862.296289,-11621.233289,-1628.453072,536.266849
2862.296627,-9474.636058,-592.164754,-766.095498
2862.296964,-9770.718434,-666.185348,-229.828649
2862.297301,-11843.295072,-2590.720797,2145.067394
2862.297638,-12065.356855,-2368.659014,1532.190996
2862.297976,-9548.656652,74.020594,536.266849
2862.298313,-7476.080014,222.061783,536.266849
2862.298650,-10066.800811,-370.102971,2681.334243
2862.298988,-11843.295072,-666.185348,1838.629195
2862.299325,-11177.109724,1110.308913,0.000000
2862.299662,-9622.677246,2368.659014,-153.219100
2862.299999,-9844.739029,1036.288319,383.047749
2862.300337,-11251.130318,-370.102971,842.705048
2862.300674,-11103.089130,-148.041188,-383.047749
2862.301011,-8808.450710,1036.288319,-1302.362347
2862.301348,-7550.100608,518.144159,0.000000
2862.301686,-8956.491898,-1258.350101,1302.362347
2862.302023,-11029.068536,-814.226536,1608.800546
2862.302360,-9992.780217,592.164754,-612.876398
2862.302697,-7994.224174,1110.308913,-919.314598
2862.303035,-9178.553681,74.020594,766.095498
2862.303372,-11843.295072,-1332.370696,1838.629195
2862.303709,-10658.965565,-666.185348,229.828649
2862.304046,-8290.306550,518.144159,0.000000
2862.304384,-8586.388927,296.082377,2451.505594
2862.304721,-10955.047942,-1258.350101,2528.115143
2862.305058,-11621.233289,-370.102971,1149.143247
2862.305396,-9622.677246,962.267725,-919.314598
2862.305733,-8586.388927,814.226536,-766.095498
2862.306070,-10214.842000,-518.144159,536.266849
2862.306407,-12509.480420,-814.226536,766.095498
2862.306745,-10807.006753,888.247130,-1532.190996
2862.307082,-8512.368333,666.185348,-2374.896044
2862.307419,-9474.636058,-444.123565,0.000000
2862.307756,-11177.109724,-2294.638420,1455.581446
2862.308094,-11769.274478,-296.082377,76.609550
2862.308431,-9548.656652,814.226536,-2068.457845
2862.308768,-9326.594869,-666.185348,-2068.457845
2862.309105,-11917.315666,-2368.659014,-76.609550
2862.309443,-11843.295072,-2738.761985,-306.438199
2862.309780,-8882.471304,-1036.288319,-1378.971896
2862.310117,-7179.997637,-1184.329507,-306.438199
2862.310455,-9548.656652,-2146.597232,1685.410096
2862.310792,-11695.253884,-2368.659014,1915.238745
2862.311129,-10732.986159,-296.082377,459.657299
2862.311466,-8956.491898,222.061783,76.609550
2862.311804,-9548.656652,-444.123565,1915.238745
2862.312141,-11695.253884,-148.041188,2757.943793
2862.312478,-11325.150913,0.000000,1608.800546
2862.312815,-8438.347739,1406.391290,0.000000
2862.313153,-7476.080014,518.144159,306.438199
2862.313490,-10362.883188,370.102971,2451.505594
2862.313827,-11029.068536,1776.494261,1225.752797
2862.314164,-10436.903782,2220.617826,-689.485948
2862.314502,-8660.409521,1998.556043,-1302.362347
2862.314839,-9770.718434,1110.308913,-153.219100
2862.315176,-12065.356855,-518.144159,1455.581446
2862.315513,-10510.924376,148.041188,-919.314598
2862.315851,-7994.224174,222.061783,-1532.190996
2862.316188,-8956.491898,-370.102971,689.485948
2862.316525,-11029.068536,-2368.659014,1072.533697
2862.316863,-11399.171507,-1332.370696,383.047749
2862.317200,-9622.677246,-666.185348,-1685.410096
2862.317537,-7994.224174,-296.082377,-536.266849
2862.317874,-10658.965565,-1776.494261,995.924147
2862.318212,-12139.377449,-2368.659014,1455.581446
2862.318549,-10288.862594,-518.144159,-383.047749
2862.318886,-8364.327145,-962.267725,-459.657299
2862.319223,-9030.512492,-1184.329507,2451.505594
2862.319561,-11325.150913,-1850.514855,2911.162892
2862.319898,-11251.130318,-74.020594,1762.019645
2862.320235,-9252.574275,1332.370696,-536.266849
2862.320572,-9548.656652,0.000000,0.000000
2862.320910,-11917.315666,-592.164754,536.266849
2862.321247,-11473.192101,-1702.473667,-229.828649
2862.321584,-8512.368333,0.000000,-1225.752797
2862.321922,-6735.874072,0.000000,-1072.533697
2862.322259,-9474.636058,-518.144159,383.047749
2862.322596,-11769.274478,-888.247130,0.000000
2862.322933,-10807.006753,518.144159,-2145.067394
2862.323271,-8956.491898,518.144159,-1532.190996
2862.323608,-10066.800811,296.082377,0.000000
2862.323945,-11843.295072,-1258.350101,2068.457845
2862.324282,-12139.377449,-888.247130,76.609550
2862.324620,-8290.306550,518.144159,-995.924147
2862.324957,-7846.182985,-222.061783,1149.143247
2862.325294,-10881.027347,-962.267725,3524.039291
2862.325631,-11325.150913,-518.144159,2911.162892
2862.325969,-10510.924376,1776.494261,1072.533697
2862.326306,-9178.553681,3108.864956,-229.828649
2862.326643,-9992.780217,1036.288319,536.266849
2862.326980,-12065.356855,0.000000,2068.457845
2862.327318,-9548.656652,0.000000,153.219100
2862.327655,-7105.977043,1258.350101,-459.657299
2862.327992,-8586.388927,1332.370696,995.924147
2862.328330,-11473.192101,-1036.288319,1149.143247
2862.328667,-11621.233289,-444.123565,-306.438199
2862.329004,-9178.553681,518.144159,-2451.505594
2862.329341,-7772.162391,0.000000,-1532.190996
2862.329679,-10288.862594,-1554.432478,-306.438199
2862.330016,-11769.274478,-2812.782580,-612.876398
2862.330353,-9696.697840,-1036.288319,-2834.553343
2862.330690,-7920.203579,-1406.391290,-1915.238745
2862.331028,-9030.512492,-2072.576638,766.095498
2862.331365,-11547.212695,-3330.926739,1915.238745
2862.331702,-11473.192101,-1184.329507,612.876398
2862.332039,-9474.636058,0.000000,-1302.362347
2862.332377,-9844.739029,-888.247130,306.438199
2862.332714,-12213.398043,-2146.597232,1991.848295
2862.333051,-12213.398043,-1924.535449,1915.238745
2862.333389,-9252.574275,-444.123565,459.657299
2862.333726,-7402.059420,888.247130,919.314598
2862.334063,-10510.924376,-222.061783,3524.039291
2862.334400,-12139.377449,-740.205942,2757.943793
2862.334738,-10362.883188,1554.432478,0.000000
2862.335075,-9030.512492,2368.659014,0.000000
2862.335412,-9548.656652,740.205942,1532.190996
2862.335749,-11473.192101,-444.123565,1455.581446
2862.336087,-11029.068536,0.000000,-76.609550
2862.336424,-7698.141797,1480.411884,-1915.238745
2862.336761,-7402.059420,444.123565,-459.657299
2862.337098,-9918.759623,-1110.308913,1149.143247
2862.337436,-10584.944971,-666.185348,306.438199
2862.337773,-9770.718434,1332.370696,-842.705048
2862.338110,-7920.203579,1406.391290,-766.095498
2862.338447,-9770.718434,-962.267725,153.219100
2862.338785,-12213.398043,-1184.329507,1991.848295
2862.339122,-9918.759623,-148.041188,229.828649
2862.339459,-7254.018232,888.247130,-459.657299
2862.339797,-9104.533087,296.082377,2145.067394
2862.340134,-12361.439231,-814.226536,2298.286494
2862.340471,-11917.315666,222.061783,766.095498
2862.340808,-9770.718434,1036.288319,-1149.143247
2862.341146,-8586.388927,1184.329507,-306.438199
2862.341483,-10955.047942,-1184.329507,919.314598
2862.341820,-12213.398043,-962.267725,689.485948
2862.342157,-9548.656652,222.061783,-2221.676944
2862.342495,-8068.244768,444.123565,-1915.238745
2862.342832,-9474.636058,-1184.329507,153.219100
2862.343169,-11547.212695,-2368.659014,842.705048
2862.343506,-10881.027347,-370.102971,-766.095498
2862.343844,-8438.347739,592.164754,-2528.115143
2862.344181,-9474.636058,-1628.453072,-1532.190996
2862.344518,-11399.171507,-3330.926739,0.000000
2862.344856,-11177.109724,-3256.906145,-153.219100
2862.345193,-8586.388927,-1036.288319,-1072.533697
2862.345530,-7624.121203,-1776.494261,-536.266849
2862.345867,-10214.842000,-2590.720797,1915.238745
2862.346205,-11917.315666,-1998.556043,1532.190996
2862.346542,-10362.883188,0.000000,0.000000
2862.346879,-8882.471304,1332.370696,76.609550
2862.347216,-9844.739029,0.000000,1915.238745
2862.347554,-12361.439231,0.000000,2987.772442
2862.347891,-11473.192101,814.226536,1149.143247
2862.348228,-8734.430116,2146.597232,0.000000
2862.348565,-8364.327145,1184.329507,1378.971896
2862.348903,-11029.068536,74.020594,3370.820191
2862.349240,-11251.130318,962.267725,1915.238745
2862.349577,-10140.821405,2738.761985,-459.657299
2862.349914,-8586.388927,2294.638420,-1149.143247
2862.350252,-9992.780217,148.041188,842.705048
2862.350589,-11547.212695,-888.247130,1532.190996
2862.350926,-9474.636058,444.123565,-1225.752797
2862.351264,-7624.121203,666.185348,-1225.752797
2862.351601,-8290.306550,-888.247130,153.219100
2862.351938,-10732.986159,-2590.720797,1072.533697
2862.352275,-11029.068536,-1332.370696,-153.219100
2862.352613,-8882.471304,-74.020594,-1991.848295
2862.352950,-7846.182985,-740.205942,-536.266849
2862.353287,-10436.903782,-2368.659014,1532.190996
2862.353624,-11769.274478,-1702.473667,919.314598
2862.353962,-10214.842000,-740.205942,-459.657299
2862.354299,-8068.244768,-222.061783,-383.047749
2862.354636,-10362.883188,-592.164754,1991.848295
2862.354973,-12731.542202,-1480.411884,2834.553343
2862.355311,-11251.130318,740.205942,459.657299
2862.355648,-9770.718434,1258.350101,-1378.971896
2862.355985,-10362.883188,0.000000,306.438199
2862.356323,-11917.315666,-1332.370696,0.000000
2862.356660,-11621.233289,-1628.453072,-229.828649
2862.356997,-8512.368333,0.000000,-2221.676944
2862.357334,-7328.038826,-444.123565,-995.924147
2862.357672,-10140.821405,-1036.288319,919.314598
2862.358009,-11769.274478,-1036.288319,76.609550
2862.358346,-10584.944971,74.020594,-2221.676944
2862.358683,-8290.306550,0.000000,-1225.752797
2862.359021,-9622.677246,-1406.391290,1072.533697
2862.359358,-11547.212695,-1998.556043,1838.629195
2862.359695,-11177.109724,-814.226536,612.876398
2862.360032,-7772.162391,222.061783,-1149.143247
2862.360370,-7772.162391,-814.226536,842.705048
2862.360707,-10732.986159,-1628.453072,3907.087040
2862.361044,-11029.068536,0.000000,2374.896044
2862.361381,-9992.780217,1998.556043,536.266849
2862.361719,-8734.430116,2368.659014,1378.971896
2862.362056,-10066.800811,592.164754,1762.019645
2862.362393,-11843.295072,888.247130,1838.629195
2862.362731,-9918.759623,1332.370696,229.828649
2862.363068,-7920.203579,1998.556043,-766.095498
2862.363405,-9474.636058,222.061783,689.485948
2862.363742,-11769.274478,74.020594,1302.362347
2862.364080,-11325.150913,0.000000,-766.095498
2862.364417,-8142.265362,296.082377,-2145.067394
2862.364754,-8586.388927,0.000000,-766.095498
2862.365092,-11399.171507,-1406.391290,919.314598
2862.365429,-11991.336260,-1628.453072,-612.876398
2862.365767,-9696.697840,-1184.329507,-1838.629195
2862.366104,-8512.368333,-962.267725,-766.095498
2862.366441,-10362.883188,-2072.576638,1072.533697
2862.366779,-11843.295072,-2368.659014,1762.019645
2862.367116,-10584.944971,-814.226536,306.438199
2862.367453,-9326.594869,-148.041188,-612.876398
2862.367791,-10140.821405,-1628.453072,766.095498
2862.368128,-11843.295072,-2368.659014,1915.238745
2862.368465,-11695.253884,-1554.432478,2221.676944
2862.368803,-8808.450710,222.061783,0.000000
2862.369140,-7846.182985,814.226536,995.924147
2862.369477,-10732.986159,-296.082377,1991.848295
2862.369815,-11843.295072,-148.041188,1149.143247
2862.370152,-9696.697840,1554.432478,-842.705048
2862.370489,-8290.306550,2146.597232,-536.266849
2862.370827,-9844.739029,296.082377,995.924147
2862.371164,-11251.130318,370.102971,689.485948
2862.371501,-10658.965565,1258.350101,-995.924147
2862.371839,-8586.388927,1184.329507,-2068.457845
2862.372176,-8216.285956,740.205942,-995.924147
2862.372513,-10436.903782,-666.185348,459.657299
2862.372851,-11251.130318,-296.082377,689.485948
2862.373188,-8882.471304,740.205942,-995.924147
2862.373525,-9178.553681,1110.308913,0.000000
2862.373863,-10881.027347,-370.102971,1455.581446
2862.374200,-12213.398043,-962.267725,842.705048
2862.374537,-10436.903782,-370.102971,536.266849
2862.374875,-7624.121203,740.205942,536.266849
2862.375212,-10140.821405,-592.164754,2451.505594
2862.375549,-11917.315666,-1036.288319,2221.676944
2862.375887,-10807.006753,74.020594,383.047749
2862.376224,-9252.574275,1184.329507,-229.828649
2862.376561,-8882.471304,296.082377,689.485948
2862.376899,-11399.171507,-1110.308913,1455.581446
2862.377236,-11695.253884,-740.205942,153.219100
2862.377573,-9474.636058,-296.082377,-1685.410096
2862.377911,-7846.182985,148.041188,-1149.143247
2862.378248,-9548.656652,-2072.576638,459.657299
2862.378585,-11251.130318,-2072.576638,1455.581446
2862.378923,-10140.821405,-1036.288319,-612.876398
2862.379260,-8660.409521,148.041188,-1991.848295
2862.379597,-10510.924376,-1258.350101,-1072.533697
2862.379935,-12139.377449,-3330.926739,-153.219100
2862.380272,-11177.109724,-2516.700203,-689.485948
2862.380609,-8364.327145,-1332.370696,-1072.533697
2862.380947,-8290.306550,-1480.411884,842.705048
2862.381284,-10881.027347,-2368.659014,2145.067394
2862.381621,-11621.233289,-1924.535449,919.314598
2862.381959,-9918.759623,0.000000,0.000000
2862.382296,-8734.430116,1258.350101,1072.533697
2862.382633,-10658.965565,222.061783,2298.286494
2862.382971,-12139.377449,-370.102971,2145.067394
2862.383308,-11029.068536,1332.370696,1072.533697
2862.383645,-9030.512492,1998.556043,0.000000
2862.383983,-8660.409521,1406.391290,919.314598
2862.384320,-10584.944971,0.000000,2068.457845
2862.384657,-10881.027347,1036.288319,842.705048
2862.384995,-8586.388927,2664.741391,-1149.143247
2862.385332,-8438.347739,2294.638420,-1072.533697
2862.385669,-10955.047942,0.000000,-306.438199
2862.386007,-11177.109724,-370.102971,-842.705048
2862.386344,-9178.553681,370.102971,-1225.752797
2862.386681,-7402.059420,1110.308913,-1378.971896
2862.387019,-9474.636058,-1036.288319,306.438199
2862.387356,-11769.274478,-1628.453072,1149.143247
2862.387693,-10955.047942,-962.267725,-919.314598
2862.388031,-9178.553681,74.020594,-383.047749
2862.388368,-8882.471304,-888.247130,766.095498
2862.388706,-11029.068536,-2294.638420,1838.629195
2862.389043,-11843.295072,-1480.411884,1072.533697
2862.389380,-9992.780217,-444.123565,0.000000
2862.389718,-8512.368333,0.000000,0.000000
2862.390055,-10510.924376,-1850.514855,1762.019645
2862.390392,-11769.274478,-1258.350101,2298.286494
2862.390730,-10807.006753,-222.061783,0.000000
2862.391067,-9326.594869,1406.391290,-612.876398
2862.391404,-10732.986159,-370.102971,229.828649
2862.391742,-11843.295072,-1850.514855,842.705048
2862.392079,-10732.986159,-962.267725,-1072.533697
2862.392416,-8882.471304,0.000000,-1378.971896
2862.392754,-8438.347739,-740.205942,0.000000
2862.393091,-10436.903782,-1998.556043,766.095498
2862.393428,-11769.274478,-1776.494261,76.609550
2862.393766,-9252.574275,222.061783,-1608.800546
2862.394103,-8512.368333,-148.041188,-612.876398
2862.394440,-10362.883188,-962.267725,1991.848295
2862.394778,-11547.212695,-1332.370696,1072.533697
2862.395115,-10881.027347,0.000000,306.438199
2862.395452,-9104.533087,74.020594,-383.047749
2862.395790,-8512.368333,-740.205942,1378.971896
2862.396127,-11103.089130,-1110.308913,3064.381992
2862.396464,-10140.821405,222.061783,1838.629195
2862.396802,-8882.471304,2442.679609,0.000000
2862.397139,-9252.574275,2220.617826,76.609550
2862.397476,-11177.109724,296.082377,766.095498
2862.397814,-11177.109724,814.226536,536.266849
2862.398151,-9474.636058,2368.659014,-306.438199
2862.398488,-7698.141797,2072.576638,-383.047749
2862.398826,-9696.697840,74.020594,766.095498
2862.399163,-11399.171507,-74.020594,766.095498
2862.399500,-10140.821405,-296.082377,-1149.143247
2862.399838,-8364.327145,814.226536,-1072.533697
2862.400175,-8586.388927,-666.185348,-229.828649
2862.400512,-10584.944971,-2516.700203,0.000000
2862.400850,-10955.047942,-1998.556043,-1302.362347
2862.401187,-9178.553681,-740.205942,-2068.457845
2862.401524,-8438.347739,-1554.432478,-919.314598
2862.401862,-10288.862594,-2886.803174,766.095498
2862.402199,-11695.253884,-1998.556043,1225.752797
2862.402536,-10214.842000,-1332.370696,76.609550
2862.402874,-9326.594869,-814.226536,-459.657299
2862.403211,-10288.862594,-2220.617826,1455.581446
2862.403548,-12583.501014,-2516.700203,1991.848295
2862.403886,-11177.109724,-1332.370696,1149.143247
2862.404223,-9696.697840,-444.123565,229.828649
2862.404560,-8586.388927,-222.061783,1302.362347
2862.404898,-10807.006753,-1480.411884,2451.505594
2862.405235,-11769.274478,0.000000,2068.457845
2862.405572,-9548.656652,1406.391290,-689.485948
2862.405910,-8586.388927,1628.453072,229.828649
2862.406247,-10955.047942,148.041188,1762.019645
2862.406584,-11177.109724,-592.164754,689.485948
2862.406922,-10584.944971,1110.308913,-995.924147
2862.407259,-8068.244768,370.102971,-2221.676944
2862.407596,-8512.368333,0.000000,76.609550
2862.407934,-10584.944971,-1332.370696,1149.143247
2862.408271,-10288.862594,-148.041188,0.000000
2862.408608,-8438.347739,1184.329507,-842.705048
2862.408946,-9178.553681,1036.288319,-766.095498
2862.409283,-11177.109724,0.000000,1225.752797
2862.409620,-11621.233289,0.000000,536.266849
2862.409958,-9474.636058,888.247130,306.438199
2862.410295,-7846.182985,1110.308913,153.219100
2862.410632,-9844.739029,0.000000,2604.724693
2862.410970,-11843.295072,222.061783,2298.286494
2862.411307,-10510.924376,148.041188,0.000000
2862.411644,-8512.368333,1184.329507,-76.609550
2862.411982,-9252.574275,222.061783,536.266849
2862.412319,-11621.233289,0.000000,1608.800546
2862.412657,-11399.171507,-74.020594,-229.828649
2862.412994,-9326.594869,1184.329507,-2298.286494
2862.413331,-8216.285956,-518.144159,-1225.752797
2862.413669,-9844.739029,-1406.391290,229.828649
2862.414006,-11843.295072,-1480.411884,612.876398
2862.414343,-10436.903782,-370.102971,-1608.800546
2862.414681,-8734.430116,148.041188,-2451.505594
2862.415018,-10214.842000,-2072.576638,-766.095498
2862.415355,-12139.377449,-3256.906145,0.000000
2862.415693,-10955.047942,-2146.597232,-1149.143247
2862.416030,-8734.430116,-1628.453072,-1072.533697
2862.416367,-8290.306550,-1110.308913,0.000000
2862.416705,-11029.068536,-3034.844362,1991.848295
2862.417042,-11991.336260,-1776.494261,2374.896044
2862.417379,-9474.636058,-370.102971,842.705048
2862.417717,-9252.574275,222.061783,2298.286494
2862.418054,-11177.109724,-148.041188,3907.087040
2862.418391,-12065.356855,-666.185348,3140.991542
2862.418729,-10807.006753,1258.350101,1302.362347
2862.419066,-8512.368333,888.247130,689.485948
2862.419403,-8882.471304,1036.288319,1532.190996
2862.419741,-11029.068536,0.000000,2221.676944
2862.420078,-10214.842000,1036.288319,459.657299
2862.420415,-7254.018232,2738.761985,-1838.629195
2862.420753,-8660.409521,1258.350101,-919.314598
2862.421090,-11029.068536,814.226536,0.000000
2862.421427,-11547.212695,-518.144159,-995.924147
2862.421765,-8956.491898,1332.370696,-1302.362347
2862.422102,-7476.080014,296.082377,-1378.971896
2862.422439,-9844.739029,-444.123565,842.705048
2862.422777,-11399.171507,-1332.370696,383.047749
2862.423114,-10510.924376,0.000000,-612.876398
2862.423451,-8364.327145,296.082377,-919.314598
2862.423789,-8882.471304,0.000000,0.000000
2862.424126,-11843.295072,-1628.453072,1072.533697
2862.424463,-11103.089130,-962.267725,612.876398
2862.424801,-9030.512492,-222.061783,-919.314598
2862.425138,-8882.471304,-370.102971,536.266849
2862.425475,-10510.924376,-1554.432478,1991.848295
2862.425813,-11695.253884,-1036.288319,2681.334243
2862.426150,-10807.006753,592.164754,-689.485948
2862.426487,-8882.471304,1036.288319,-1378.971896
2862.426825,-11325.150913,-296.082377,153.219100
2862.427162,-12361.439231,-2294.638420,0.000000
2862.427499,-10066.800811,-1332.370696,-1532.190996
2862.427837,-8068.244768,-814.226536,-1685.410096
2862.428174,-8216.285956,-888.247130,-536.266849
2862.428511,-10732.986159,-2516.700203,689.485948
2862.428849,-11621.233289,-1480.411884,-383.047749
2862.429186,-9178.553681,-74.020594,-1838.629195
2862.429523,-9030.512492,-296.082377,0.000000
2862.429861,-11177.109724,-1850.514855,2451.505594
2862.430198,-12065.356855,-2072.576638,1838.629195
2862.430535,-10436.903782,-444.123565,689.485948
2862.430873,-8216.285956,74.020594,153.219100
2862.431210,-9104.533087,-814.226536,2451.505594
2862.431547,-11029.068536,-1258.350101,3600.648841
2862.431885,-10510.924376,444.123565,2068.457845
2862.432222,-9474.636058,2812.782580,306.438199
2862.432559,-9548.656652,2220.617826,612.876398
2862.432897,-11251.130318,518.144159,1455.581446
2862.433234,-10732.986159,222.061783,919.314598
2862.433571,-8290.306550,2664.741391,-459.657299
2862.433909,-7920.203579,1332.370696,0.000000
2862.434246,-9696.697840,592.164754,1072.533697
2862.434583,-11547.212695,0.000000,76.609550
2862.434921,-10362.883188,814.226536,-919.314598
2862.435258,-8290.306550,1332.370696,-1532.190996
2862.435596,-9178.553681,-370.102971,-229.828649
2862.435933,-11103.089130,-1702.473667,153.219100
2862.436270,-10658.965565,-1258.350101,-1225.752797
2862.436608,-8660.409521,-518.144159,-1915.238745
2862.436945,-8808.450710,-888.247130,-689.485948
2862.437282,-10732.986159,-2220.617826,766.095498
2862.437620,-11621.233289,-1776.494261,842.705048
2862.437957,-9992.780217,-148.041188,-612.876398
2862.438294,-9252.574275,-370.102971,0.000000
2862.438632,-11547.212695,-1702.473667,1302.362347
2862.438969,-12509.480420,-2368.659014,1378.971896
2862.439306,-10807.006753,-1036.288319,229.828649
2862.439644,-8438.347739,0.000000,0.000000
2862.439981,-8956.491898,-518.144159,1149.143247
2862.440318,-11325.150913,-1258.350101,1991.848295
2862.440656,-11473.192101,370.102971,1072.533697
2862.440993,-9178.553681,1258.350101,-1455.581446
2862.441330,-8882.471304,1110.308913,-306.438199
2862.441668,-10881.027347,-148.041188,1225.752797
2862.442005,-11547.212695,-888.247130,536.266849
2862.442342,-9548.656652,888.247130,-995.924147
2862.442680,-8290.306550,666.185348,-1608.800546
2862.443017,-8956.491898,-888.247130,459.657299
2862.443354,-10362.883188,-2294.638420,1149.143247
2862.443692,-10066.800811,222.061783,229.828649
2862.444029,-9030.512492,1110.308913,-306.438199
2862.444366,-9918.759623,518.144159,-612.876398
2862.444704,-11991.336260,-370.102971,919.314598
2862.445041,-11399.171507,-444.123565,612.876398
2862.445378,-8216.285956,1110.308913,0.000000
2862.445716,-7698.141797,666.185348,919.314598
2862.446053,-10436.903782,0.000000,2604.724693
2862.446390,-11399.171507,-444.123565,2068.457845
2862.446728,-10658.965565,1110.308913,0.000000
2862.447065,-8586.388927,1480.411884,-153.219100
2862.447402,-9992.780217,148.041188,1149.143247
2862.447740,-11621.233289,-814.226536,1455.581446
2862.448077,-10436.903782,0.000000,-306.438199
2862.448414,-8364.327145,148.041188,-995.924147
2862.448752,-8512.368333,-666.185348,0.000000
2862.449089,-10066.800811,-1702.473667,1838.629195
2862.449426,-11325.150913,-1184.329507,689.485948
2862.449764,-10066.800811,370.102971,-1378.971896
2862.450101,-9400.615463,0.000000,-2604.724693
2862.450438,-11029.068536,-2368.659014,-919.314598
2862.450776,-11769.274478,-3923.091493,0.000000
2862.451113,-9548.656652,-2368.659014,-1225.752797
2862.451450,-7846.182985,-1184.329507,-919.314598
2862.451788,-9030.512492,-2442.679609,306.438199
2862.452125,-11103.089130,-2664.741391,1532.190996
2862.452462,-11843.295072,-1332.370696,1225.752797
2862.452800,-9770.718434,370.102971,153.219100
2862.453137,-9326.594869,222.061783,995.924147
2862.453474,-11843.295072,-518.144159,3524.039291
2862.453812,-11917.315666,0.000000,2604.724693
2862.454149,-10066.800811,888.247130,153.219100
2862.454486,-8438.347739,814.226536,306.438199
2862.454824,-9400.615463,444.123565,1532.190996
2862.455161,-11029.068536,74.020594,2221.676944
2862.455498,-10066.800811,1776.494261,-153.219100
2862.455836,-7846.182985,2294.638420,-1991.848295
2862.456173,-9622.677246,1036.288319,-1149.143247
2862.456510,-11325.150913,-296.082377,-459.657299
2862.456848,-10732.986159,-296.082377,-1608.800546
2862.457185,-7846.182985,592.164754,-2068.457845
2862.457522,-7179.997637,0.000000,-919.314598
2862.457860,-9992.780217,-740.205942,536.266849
2862.458197,-11547.212695,-1480.411884,459.657299
2862.458535,-10510.924376,370.102971,-536.266849
2862.458872,-8438.347739,0.000000,-1225.752797
2862.459209,-10140.821405,-962.267725,995.924147
2862.459547,-11843.295072,-1850.514855,2068.457845
2862.459884,-10955.047942,-888.247130,383.047749
2862.460221,-8438.347739,370.102971,-306.438199
2862.460559,-9104.533087,-518.144159,1072.533697
2862.460896,-10807.006753,-1110.308913,2834.553343
2862.461233,-11843.295072,0.000000,1762.019645
2862.461571,-10436.903782,1110.308913,-229.828649
2862.461908,-9474.636058,888.247130,-766.095498
2862.462245,-11695.253884,-370.102971,383.047749
2862.462583,-11991.336260,-1776.494261,76.609550
2862.462920,-9326.594869,-1184.329507,-1225.752797
2862.463257,-7402.059420,-370.102971,-1302.362347
2862.463595,-9326.594869,-888.247130,536.266849
2862.463932,-11769.274478,-1332.370696,536.266849
2862.464269,-11399.171507,-518.144159,-1378.971896
2862.464607,-9178.553681,148.041188,-1302.362347
2862.464944,-8882.471304,-296.082377,-229.828649
2862.465281,-11473.192101,-1480.411884,2528.115143
2862.465619,-11917.315666,-1776.494261,1838.629195
2862.465956,-9326.594869,-74.020594,-229.828649
2862.466294,-8364.327145,-74.020594,919.314598
2862.466631,-9548.656652,-1184.329507,3294.210641
2862.466968,-11251.130318,-666.185348,3907.087040
2862.467306,-10436.903782,1480.411884,2221.676944
2862.467643,-9178.553681,2812.782580,0.000000
2862.467981,-10658.965565,1554.432478,689.485948
2862.468318,-12213.398043,370.102971,1455.581446
2862.468655,-10584.944971,74.020594,76.609550
2862.468993,-7328.038826,1628.453072,-536.266849
2862.469330,-7624.121203,1702.473667,229.828649
2862.469668,-10288.862594,148.041188,612.876398
2862.470005,-11843.295072,-370.102971,0.000000
2862.470342,-9770.718434,1480.411884,-1838.629195
2862.470680,-8586.388927,814.226536,-1915.238745
2862.471017,-10140.821405,444.123565,-689.485948
2862.471354,-11177.109724,-1850.514855,-766.095498
2862.471692,-10436.903782,-1554.432478,-1149.143247
2862.472029,-7772.162391,-1184.329507,-1685.410096
2862.472367,-8734.430116,-1332.370696,306.438199
2862.472704,-11177.109724,-2664.741391,1225.752797
2862.473041,-10807.006753,-1702.473667,0.000000
2862.473379,-10288.862594,-518.144159,-536.266849
2862.473716,-9548.656652,-518.144159,-612.876398
2862.474054,-11473.192101,-2516.700203,995.924147
2862.474391,-11917.315666,-3182.885551,919.314598
2862.474728,-9474.636058,-1184.329507,76.609550
2862.475066,-7772.162391,0.000000,459.657299
2862.475403,-9770.718434,-1332.370696,1685.410096
2862.475741,-11547.212695,-1258.350101,1762.019645
2862.476078,-11695.253884,-888.247130,306.438199
2862.476415,-8512.368333,888.247130,-459.657299
2862.476753,-8586.388927,148.041188,153.219100
2862.477090,-11473.192101,-1258.350101,2298.286494
2862.477427,-11547.212695,-962.267725,306.438199
2862.477765,-8956.491898,-370.102971,-1302.362347
2862.478102,-8216.285956,444.123565,-919.314598
2862.478440,-9548.656652,-1110.308913,689.485948
2862.478777,-11029.068536,-962.267725,1378.971896
2862.479114,-9918.759623,814.226536,-229.828649
2862.479452,-8808.450710,1406.391290,-919.314598
2862.479789,-10584.944971,370.102971,689.485948
2862.480127,-11843.295072,-1110.308913,1532.190996
2862.480464,-10510.924376,-370.102971,842.705048
2862.480801,-8142.265362,888.247130,612.876398
2862.481139,-8142.265362,2072.576638,1608.800546
2862.481476,-11399.171507,296.082377,2221.676944
2862.481814,-12065.356855,666.185348,842.705048
2862.482151,-9770.718434,2590.720797,-1378.971896
2862.482488,-9252.574275,2294.638420,-383.047749
2862.482826,-10362.883188,1036.288319,919.314598
2862.483163,-11029.068536,-1110.308913,689.485948
2862.483501,-10140.821405,370.102971,-536.266849
2862.483838,-7402.059420,888.247130,-1608.800546
2862.484175,-8882.471304,-518.144159,536.266849
2862.484513,-10732.986159,-1480.411884,1302.362347
2862.484850,-10510.924376,-370.102971,0.000000
2862.485187,-9918.759623,1110.308913,-1532.190996
2862.485525,-9696.697840,-370.102971,-2528.115143
2862.485862,-11399.171507,-3034.844362,-229.828649
2862.486200,-11547.212695,-3330.926739,0.000000
2862.486537,-8660.409521,-2220.617826,-1455.581446
2862.486874,-8068.244768,-1110.308913,-689.485948
2862.487212,-10066.800811,-2516.700203,919.314598
2862.487549,-11843.295072,-2368.659014,689.485948
2862.487887,-11399.171507,-1480.411884,229.828649
2862.488224,-9474.636058,592.164754,153.219100
2862.488561,-10140.821405,0.000000,1685.410096
2862.488899,-12361.439231,-962.267725,3447.429741
2862.489236,-11843.295072,0.000000,2374.896044
2862.489574,-9548.656652,1184.329507,459.657299
2862.489911,-9030.512492,1406.391290,1378.971896
2862.490248,-10584.944971,-296.082377,2068.457845
2862.490586,-11325.150913,666.185348,2298.286494
2862.490923,-9770.718434,1776.494261,-153.219100
2862.491261,-8660.409521,2072.576638,-1225.752797
2862.491598,-9474.636058,592.164754,-1225.752797
2862.491935,-10955.047942,-1110.308913,0.000000
2862.492273,-9474.636058,-222.061783,-1225.752797
2862.492610,-7328.038826,444.123565,-1225.752797
2862.492947,-7920.203579,1036.288319,153.219100
2862.493285,-11029.068536,-1258.350101,1149.143247
2862.493622,-11325.150913,-296.082377,306.438199
2862.493960,-9548.656652,444.123565,-612.876398
2862.494297,-9252.574275,888.247130,76.609550
2862.494634,-10066.800811,-1036.288319,995.924147
2862.494972,-11621.233289,-1702.473667,1378.971896
2862.495309,-10362.883188,74.020594,842.705048
2862.495647,-8512.368333,592.164754,-536.266849
2862.495984,-9474.636058,-444.123565,1532.190996
2862.496321,-11251.130318,-296.082377,2145.067394
2862.496659,-11177.109724,296.082377,1072.533697
2862.496996,-10214.842000,1702.473667,-383.047749
2862.497334,-9992.780217,740.205942,-842.705048
2862.497671,-11917.315666,-1184.329507,306.438199
2862.498008,-11399.171507,-1776.494261,-306.438199
2862.498346,-8808.450710,-1184.329507,-1991.848295
2862.498683,-7698.141797,-518.144159,-1378.971896
2862.499021,-9770.718434,-2072.576638,-306.438199
2862.499358,-11251.130318,-1924.535449,-1225.752797
2862.499695,-11103.089130,-1406.391290,-2145.067394
2862.500033,-9030.512492,0.000000,-1991.848295
2862.500370,-9030.512492,-1554.432478,-612.876398
2862.500707,-11621.233289,-2442.679609,2221.676944
2862.501045,-11103.089130,-1554.432478,842.705048
2862.501382,-9252.574275,-814.226536,0.000000
2862.501720,-8586.388927,-592.164754,1532.190996
2862.502057,-10214.842000,-1480.411884,3294.210641
2862.502394,-11325.150913,0.000000,3524.039291
2862.502732,-10436.903782,1628.453072,1455.581446
2862.503069,-9252.574275,2072.576638,459.657299
2862.503407,-10288.862594,370.102971,1302.362347
2862.503744,-11325.150913,592.164754,1608.800546
2862.504081,-10140.821405,666.185348,536.266849
2862.504419,-7402.059420,2072.576638,-612.876398
2862.504756,-7994.224174,2368.659014,0.000000
2862.505094,-11325.150913,222.061783,1302.362347
2862.505431,-11251.130318,444.123565,0.000000
2862.505768,-9696.697840,1184.329507,-1838.629195
2862.506106,-9030.512492,888.247130,-689.485948
2862.506443,-9844.739029,-740.205942,229.828649
2862.506780,-11251.130318,-1998.556043,612.876398
2862.507118,-9770.718434,-1184.329507,-842.705048
2862.507455,-7698.141797,-592.164754,-1072.533697
2862.507793,-9474.636058,-1332.370696,995.924147
2862.508130,-11177.109724,-1480.411884,1838.629195
2862.508467,-11177.109724,-962.267725,612.876398
2862.508805,-10214.842000,222.061783,-153.219100
2862.509142,-9474.636058,-740.205942,229.828649
2862.509480,-11621.233289,-2294.638420,1685.410096
2862.509817,-11251.130318,-2220.617826,1225.752797
2862.510154,-8882.471304,-222.061783,0.000000
2862.510492,-8216.285956,0.000000,-153.219100
2862.510829,-10436.903782,-592.164754,689.485948
2862.511167,-11695.253884,-1036.288319,383.047749
2862.511504,-10436.903782,74.020594,-1378.971896
2862.511841,-8586.388927,1406.391290,-1302.362347
2862.512179,-9474.636058,370.102971,-459.657299
2862.512516,-11843.295072,-592.164754,995.924147
2862.512854,-11547.212695,-444.123565,-612.876398
2862.513191,-8882.471304,-148.041188,-1608.800546
2862.513528,-8438.347739,370.102971,-689.485948
2862.513866,-10362.883188,-1924.535449,1532.190996
2862.514203,-10732.986159,-962.267725,1149.143247
2862.514540,-9474.636058,0.000000,0.000000
2862.514878,-9252.574275,592.164754,306.438199
2862.515215,-10732.986159,-370.102971,689.485948
2862.515553,-12065.356855,-1702.473667,1149.143247
2862.515890,-10140.821405,-148.041188,1072.533697
2862.516227,-7772.162391,370.102971,229.828649
2862.516565,-8660.409521,592.164754,1608.800546
2862.516902,-11547.212695,-370.102971,1915.238745
2862.517240,-10955.047942,444.123565,306.438199
2862.517577,-9030.512492,1332.370696,-995.924147
2862.517914,-8512.368333,1184.329507,0.000000
2862.518252,-10436.903782,296.082377,1149.143247
2862.518589,-11695.253884,-370.102971,612.876398
2862.518927,-9548.656652,592.164754,-1149.143247
2862.519264,-7994.224174,296.082377,-1149.143247
2862.519601,-9252.574275,0.000000,1455.581446
2862.519939,-11177.109724,-1776.494261,1378.971896
2862.520276,-10732.986159,-444.123565,0.000000
2862.520614,-9770.718434,370.102971,-1532.190996
2862.520951,-10140.821405,-1036.288319,-1455.581446
2862.521288,-11621.233289,-2664.741391,459.657299
2862.521626,-11473.192101,-2812.782580,0.000000
2862.521963,-8956.491898,-1702.473667,-1225.752797
2862.522300,-7846.182985,-1110.308913,-1072.533697
2862.522638,-10658.965565,-1628.453072,1072.533697
2862.522975,-12139.377449,-2368.659014,919.314598
2862.523313,-10214.842000,-1554.432478,153.219100
2862.523650,-8956.491898,740.205942,306.438199
2862.523987,-10140.821405,0.000000,2451.505594
2862.524325,-11695.253884,-666.185348,2451.505594
2862.524662,-11251.130318,0.000000,1455.581446
2862.525000,-8882.471304,888.247130,459.657299
2862.525337,-8290.306550,888.247130,536.266849
2862.525674,-10214.842000,-444.123565,2221.676944
2862.526012,-10288.862594,666.185348,1149.143247
2862.526349,-8734.430116,1554.432478,-1225.752797
2862.526687,-8364.327145,1850.514855,-1532.190996
2862.527024,-10436.903782,74.020594,-153.219100
2862.527361,-11473.192101,-888.247130,0.000000
2862.527699,-9474.636058,0.000000,-919.314598
2862.528036,-7105.977043,370.102971,-1378.971896
2862.528373,-8808.450710,-74.020594,612.876398
2862.528711,-11695.253884,-1776.494261,1608.800546
2862.529048,-11103.089130,0.000000,0.000000
2862.529386,-9104.533087,740.205942,-1302.362347
2862.529723,-9104.533087,814.226536,0.000000
2862.530060,-11325.150913,-888.247130,1378.971896
2862.530398,-12287.418637,-518.144159,689.485948
2862.530735,-10436.903782,222.061783,76.609550
2862.531073,-8142.265362,592.164754,-689.485948
2862.531410,-9622.677246,-370.102971,1455.581446
2862.531747,-11177.109724,-1406.391290,2604.724693
2862.532085,-10140.821405,296.082377,919.314598
2862.532422,-9400.615463,1332.370696,-153.219100
2862.532760,-10807.006753,888.247130,383.047749
2862.533097,-11621.233289,-1406.391290,76.609550
2862.533434,-10955.047942,-1554.432478,-459.657299
2862.533772,-7846.182985,0.000000,-1072.533697
2862.534109,-8142.265362,-592.164754,-766.095498
2862.534447,-10436.903782,-1998.556043,306.438199
2862.534784,-11399.171507,-1850.514855,-1378.971896
2862.535121,-9400.615463,-1332.370696,-1838.629195
2862.535459,-8586.388927,-888.247130,-1378.971896
2862.535796,-9474.636058,-1554.432478,459.657299
2862.536133,-11473.192101,-1924.535449,1685.410096
2862.536471,-10807.006753,-814.226536,383.047749
2862.536808,-9178.553681,0.000000,-459.657299
2862.537146,-9104.533087,-148.041188,1608.800546
2862.537483,-11029.068536,-1184.329507,4060.306139
2862.537820,-11325.150913,666.185348,2757.943793
2862.538158,-10066.800811,2146.597232,1302.362347
2862.538495,-9178.553681,2368.659014,1149.143247
2862.538833,-10881.027347,0.000000,1532.190996
2862.539170,-11473.192101,-592.164754,1225.752797
2862.539507,-9474.636058,1554.432478,0.000000
2862.539845,-7920.203579,1850.514855,-842.705048
2862.540182,-9030.512492,888.247130,-536.266849
2862.540520,-11029.068536,-592.164754,612.876398
2862.540857,-10140.821405,74.020594,-1838.629195
2862.541194,-8660.409521,962.267725,-2298.286494
2862.541532,-8734.430116,74.020594,-1149.143247
2862.541869,-10362.883188,-1258.350101,-536.266849
2862.542207,-11177.109724,-2072.576638,-612.876398
2862.542544,-9474.636058,-888.247130,-995.924147
2862.542881,-8216.285956,-1554.432478,-1378.971896
2862.543219,-9400.615463,-2368.659014,919.314598
2862.543556,-11547.212695,-2146.597232,1762.019645
2862.543893,-10584.944971,-444.123565,153.219100
2862.544231,-9474.636058,-148.041188,-689.485948
2862.544568,-10807.006753,-962.267725,1225.752797
2862.544906,-11843.295072,-1702.473667,1532.190996
2862.545243,-11103.089130,-1110.308913,919.314598
2862.545580,-9548.656652,0.000000,76.609550
2862.545918,-9104.533087,-74.020594,459.657299
2862.546255,-11029.068536,-1184.329507,1455.581446
2862.546593,-11917.315666,-1258.350101,919.314598
2862.546930,-9844.739029,592.164754,-766.095498
2862.547267,-8512.368333,814.226536,-1149.143247
2862.547605,-9548.656652,0.000000,306.438199
2862.547942,-11103.089130,-814.226536,536.266849
2862.548280,-11177.109724,370.102971,-689.485948
2862.548617,-8660.409521,518.144159,-1991.848295
2862.548954,-8512.368333,0.000000,0.000000
2862.549292,-10436.903782,-1332.370696,1915.238745
2862.549629,-10584.944971,-1036.288319,1072.533697
2862.549967,-8956.491898,370.102971,-153.219100
2862.550304,-9178.553681,148.041188,459.657299
2862.550641,-10732.986159,-814.226536,1762.019645
2862.550979,-11103.089130,-666.185348,1149.143247
2862.551316,-9474.636058,222.061783,766.095498
2862.551653,-7772.162391,740.205942,1072.533697
2862.551991,-8956.491898,444.123565,1225.752797
2862.552328,-11399.171507,444.123565,2374.896044
2862.552666,-11251.130318,666.185348,689.485948
2862.553003,-9104.533087,2072.576638,-1072.533697
2862.553340,-9178.553681,1480.411884,689.485948
2862.553678,-11325.150913,222.061783,1149.143247
2862.554015,-11695.253884,-296.082377,76.609550
2862.554353,-9548.656652,592.164754,-1532.190996
2862.554690,-7920.203579,-222.061783,-1378.971896
2862.555027,-9474.636058,-1110.308913,766.095498
2862.555365,-11103.089130,-1480.411884,1149.143247
2862.555702,-10288.862594,148.041188,-1149.143247
2862.556040,-9918.759623,0.000000,-2221.676944
2862.556377,-10732.986159,-962.267725,-919.314598
2862.556714,-11695.253884,-2738.761985,-459.657299
2862.557052,-11103.089130,-2590.720797,-459.657299
2862.557389,-8956.491898,-1850.514855,-1149.143247
2862.557726,-8290.306550,-2368.659014,-536.266849
2862.558064,-10288.862594,-2590.720797,995.924147
2862.558401,-11843.295072,-2516.700203,612.876398
2862.558739,-9844.739029,-370.102971,0.000000
2862.559076,-8512.368333,0.000000,459.657299
2862.559413,-10732.986159,0.000000,2681.334243
2862.559751,-12287.418637,-444.123565,2221.676944
2862.560088,-11177.109724,0.000000,995.924147
