#time,accel_x,accel_y,accel_z
2953.180447,-9844.739029,1036.288319,-1378.971896
2953.180784,-10140.821405,-666.185348,-1302.362347
2953.181122,-9918.759623,-666.185348,-995.924147
2953.181459,-9326.594869,-814.226536,-995.924147
2953.181797,-9252.574275,-1184.329507,-995.924147
2953.182134,-9474.636058,-1184.329507,-1915.238745
2953.182472,-10362.883188,-2146.597232,-1149.143247
2953.182809,-10140.821405,-2294.638420,-1378.971896
2953.183147,-9474.636058,-2664.741391,-383.047749
2953.183484,-9844.739029,-1110.308913,459.657299
2953.183822,-10658.965565,-1998.556043,0.000000
2953.184159,-10732.986159,-2072.576638,0.000000
2953.184497,-10510.924376,-2146.597232,612.876398
2953.184834,-10362.883188,-888.247130,1225.752797
2953.185172,-10732.986159,-1480.411884,919.314598
2953.185509,-11029.068536,-518.144159,-383.047749
2953.185847,-10658.965565,-1258.350101,0.000000
2953.186184,-9844.739029,-296.082377,76.609550
2953.186521,-9696.697840,-370.102971,229.828649
2953.186859,-11029.068536,-222.061783,-689.485948
2953.187196,-10066.800811,-370.102971,-1762.019645
2953.187534,-9400.615463,-888.247130,-1225.752797
2953.187871,-8956.491898,-1110.308913,536.266849
2953.188209,-9400.615463,-518.144159,229.828649
2953.188546,-11029.068536,0.000000,-1532.190996
2953.188884,-10288.862594,-1036.288319,-2911.162892
2953.189221,-9104.533087,-2220.617826,-2298.286494
2953.189559,-9030.512492,-2738.761985,-153.219100
2953.189896,-9252.574275,-1850.514855,-1302.362347
2953.190234,-9696.697840,-1924.535449,-2145.067394
2953.190571,-9992.780217,-1924.535449,-2145.067394
2953.190909,-9252.574275,-2146.597232,-1608.800546
2953.191246,-10140.821405,-2072.576638,-995.924147
2953.191584,-10436.903782,-1850.514855,-1378.971896
2953.191921,-11325.150913,-1702.473667,-2451.505594
2953.192259,-10510.924376,-2146.597232,-3370.820191
2953.192596,-9326.594869,-2516.700203,-2145.067394
2953.192934,-9400.615463,-2960.823768,-1915.238745
2953.193271,-9474.636058,-2960.823768,-1455.581446
2953.193609,-9696.697840,-2664.741391,-1762.019645
2953.193946,-10214.842000,-1702.473667,-1991.848295
2953.194284,-10510.924376,-1406.391290,-2528.115143
2953.194621,-10955.047942,-2590.720797,-3830.477490
2953.194958,-10288.862594,-3627.009116,-4673.182538
2953.195296,-9844.739029,-4737.318029,-4060.306139
2953.195633,-10140.821405,-5255.462188,-2987.772442
2953.195971,-8882.471304,-5329.482782,-3140.991542
2953.196308,-8068.244768,-5403.503377,-2681.334243
2953.196646,-9030.512492,-5107.421000,-1991.848295
2953.196983,-10288.862594,-4219.173869,-2374.896044
2953.197321,-11251.130318,-2886.803174,-3294.210641
2953.197658,-10881.027347,-2960.823768,-2834.553343
2953.197996,-11399.171507,-3552.988522,-2145.067394
2953.198333,-10658.965565,-4219.173869,-1225.752797
2953.198671,-10066.800811,-3997.112087,76.609550
2953.199008,-9622.677246,-3330.926739,766.095498
2953.199346,-9474.636058,-2812.782580,459.657299
2953.199683,-9844.739029,-2368.659014,229.828649
2953.200021,-10214.842000,-2146.597232,536.266849
2953.200358,-9474.636058,-518.144159,995.924147
2953.200696,-10140.821405,1110.308913,1302.362347
2953.201033,-10658.965565,2072.576638,0.000000
2953.201371,-11843.295072,1406.391290,-1608.800546
2953.201708,-11251.130318,-740.205942,-3217.601092
2953.202046,-9474.636058,-1776.494261,-1455.581446
2953.202383,-8734.430116,-1850.514855,76.609550
2953.202720,-8586.388927,-2146.597232,-1378.971896
2953.203058,-8438.347739,-2220.617826,-2298.286494
2953.203395,-9400.615463,-2812.782580,-2604.724693
2953.203733,-9252.574275,-1628.453072,-1915.238745
2953.204070,-8586.388927,-444.123565,-2528.115143
2953.204408,-9770.718434,-296.082377,-1532.190996
2953.204745,-11917.315666,-1480.411884,-2068.457845
2953.205083,-10881.027347,-1628.453072,-2451.505594
2953.205420,-9104.533087,-1850.514855,-1915.238745
2953.205758,-8068.244768,-3849.070898,229.828649
2953.206095,-9474.636058,-4367.215058,1072.533697
2953.206433,-10362.883188,-3182.885551,-766.095498
2953.206770,-9622.677246,-1480.411884,-2681.334243
2953.207108,-9918.759623,-2072.576638,-2604.724693
2953.207445,-12435.459826,-2368.659014,-2911.162892
2953.207783,-11621.233289,-962.267725,-4596.572988
2953.208120,-10214.842000,-888.247130,-4290.134789
2953.208458,-9326.594869,-1258.350101,-2604.724693
2953.208795,-9844.739029,-1184.329507,-2911.162892
2953.209133,-10955.047942,-2442.679609,-2987.772442
2953.209470,-11251.130318,-3256.906145,-3064.381992
2953.209808,-9326.594869,-3108.864956,-2911.162892
2953.210145,-9696.697840,-3034.844362,-2451.505594
2953.210483,-10807.006753,-3034.844362,-1608.800546
2953.210820,-9918.759623,-2442.679609,-2681.334243
2953.211157,-9474.636058,-2960.823768,-4060.306139
2953.211495,-10288.862594,-2516.700203,-3140.991542
2953.211832,-10066.800811,-3034.844362,-2451.505594
2953.212170,-9548.656652,-2516.700203,-2221.676944
2953.212507,-9178.553681,-2368.659014,-1915.238745
2953.212845,-9400.615463,-2442.679609,-1302.362347
2953.213182,-10362.883188,-2294.638420,612.876398
2953.213520,-9622.677246,-2368.659014,1225.752797
2953.213857,-8512.368333,-592.164754,2221.676944
2953.214195,-11029.068536,592.164754,2451.505594
2953.214532,-11103.089130,1110.308913,76.609550
2953.214870,-11399.171507,370.102971,-842.705048
2953.215207,-10436.903782,-1332.370696,-1378.971896
2953.215545,-9474.636058,-2072.576638,-1838.629195
2953.215882,-8882.471304,-2072.576638,-2451.505594
2953.216220,-7846.182985,-2368.659014,-2451.505594
2953.216557,-8512.368333,-3256.906145,-2681.334243
2953.216895,-9178.553681,-3627.009116,-2298.286494
2953.217232,-9400.615463,-2368.659014,-766.095498
2953.217570,-10140.821405,-1036.288319,0.000000
2953.217907,-9992.780217,-962.267725,-306.438199
2953.218245,-12065.356855,-2516.700203,-612.876398
2953.218582,-11029.068536,-3552.988522,-1838.629195
2953.218920,-10584.944971,-4959.379811,-1302.362347
2953.219257,-9770.718434,-4885.359217,-1608.800546
2953.219594,-7994.224174,-5921.647536,-2987.772442
2953.219932,-8882.471304,-6069.688724,-1225.752797
2953.220269,-8660.409521,-5255.462188,-689.485948
2953.220607,-8734.430116,-3108.864956,306.438199
2953.220944,-10140.821405,444.123565,306.438199
2953.221282,-11843.295072,666.185348,-842.705048
2953.221619,-13101.645173,74.020594,-842.705048
2953.221957,-14063.912898,-592.164754,76.609550
2953.222294,-11251.130318,-1554.432478,0.000000
2953.222632,-10214.842000,-1110.308913,-229.828649
2953.222969,-9030.512492,-3701.029710,-2221.676944
2953.223307,-8956.491898,-4811.338623,-2604.724693
2953.223644,-7328.038826,-3404.947333,-1915.238745
2953.223982,-6883.915261,-962.267725,-612.876398
2953.224319,-10066.800811,1406.391290,-919.314598
2953.224657,-11547.212695,2146.597232,-3983.696590
2953.224994,-12879.583391,2442.679609,-3140.991542
2953.225332,-11473.192101,740.205942,-766.095498
2953.225669,-9474.636058,370.102971,2068.457845
2953.226007,-9992.780217,-740.205942,2987.772442
2953.226344,-9326.594869,-1924.535449,2604.724693
2953.226682,-7772.162391,-2294.638420,1915.238745
2953.227019,-7994.224174,-2294.638420,2681.334243
2953.227357,-9252.574275,-888.247130,2681.334243
2953.227694,-10881.027347,1036.288319,306.438199
2953.228031,-11325.150913,2664.741391,-1225.752797
2953.228369,-10362.883188,3330.926739,-1838.629195
2953.228706,-10140.821405,3034.844362,306.438199
2953.229044,-10732.986159,2960.823768,1762.019645
2953.229381,-10658.965565,2294.638420,2221.676944
2953.229719,-11177.109724,1036.288319,1685.410096
2953.230056,-10288.862594,-1110.308913,919.314598
2953.230394,-10362.883188,-2812.782580,1455.581446
2953.230731,-8956.491898,-3330.926739,-229.828649
2953.231069,-9326.594869,-3478.967927,-459.657299
2953.231406,-9474.636058,-1480.411884,-1991.848295
2953.231744,-8956.491898,-296.082377,-2604.724693
2953.232081,-9474.636058,1110.308913,-2451.505594
2953.232419,-9474.636058,1110.308913,-1762.019645
2953.232756,-12139.377449,444.123565,-76.609550
2953.233094,-12139.377449,-444.123565,-459.657299
2953.233431,-9770.718434,-2220.617826,0.000000
2953.233769,-8438.347739,-4737.318029,1991.848295
2953.234106,-8438.347739,-5255.462188,4596.572988
2953.234444,-9918.759623,-3701.029710,4826.401637
2953.234781,-10955.047942,-814.226536,2374.896044
2953.235118,-9918.759623,518.144159,153.219100
2953.235456,-11177.109724,2442.679609,-1149.143247
2953.235793,-11325.150913,3256.906145,-1991.848295
2953.236131,-10288.862594,2960.823768,-1455.581446
2953.236468,-9474.636058,1924.535449,-1302.362347
2953.236805,-9548.656652,1184.329507,459.657299
2953.237143,-10214.842000,296.082377,1378.971896
2953.237480,-10140.821405,370.102971,2298.286494
2953.237818,-10510.924376,-592.164754,3064.381992
2953.238155,-10955.047942,-370.102971,1685.410096
2953.238492,-9844.739029,-1258.350101,-995.924147
2953.238830,-9178.553681,0.000000,-1762.019645
2953.239167,-7476.080014,-740.205942,-2068.457845
2953.239505,-8068.244768,0.000000,-1378.971896
2953.239842,-9326.594869,1628.453072,-1072.533697
2953.240179,-9770.718434,1628.453072,-1302.362347
2953.240517,-10066.800811,296.082377,-459.657299
2953.240854,-11547.212695,-1258.350101,1072.533697
2953.241191,-11917.315666,-3034.844362,1838.629195
2953.241529,-10510.924376,-2664.741391,2604.724693
2953.241866,-8956.491898,-4071.132681,2757.943793
2953.242204,-9474.636058,-2738.761985,2757.943793
2953.242541,-9474.636058,-814.226536,1149.143247
2953.242878,-10066.800811,1480.411884,153.219100
2953.243216,-11177.109724,1776.494261,-306.438199
2953.243553,-12805.562797,1776.494261,-1072.533697
2953.243891,-12731.542202,1184.329507,-2528.115143
2953.244228,-11399.171507,-740.205942,-2068.457845
2953.244565,-8438.347739,-3404.947333,-842.705048
2953.244903,-8438.347739,-4219.173869,766.095498
2953.245240,-9104.533087,-4589.276840,1532.190996
2953.245578,-9030.512492,-1850.514855,-536.266849
2953.245915,-10362.883188,-2812.782580,-536.266849
2953.246252,-10955.047942,-1258.350101,-2451.505594
2953.246590,-10214.842000,-962.267725,-3064.381992
2953.246927,-9474.636058,0.000000,-842.705048
2953.247265,-7698.141797,-1998.556043,-153.219100
2953.247602,-8956.491898,-2220.617826,1378.971896
2953.247939,-9696.697840,-1776.494261,1838.629195
2953.248277,-9992.780217,-1110.308913,3140.991542
2953.248614,-11251.130318,-74.020594,2987.772442
2953.248952,-11547.212695,-444.123565,2068.457845
2953.249289,-10288.862594,1036.288319,919.314598
2953.249626,-8364.327145,0.000000,383.047749
2953.249964,-8586.388927,1110.308913,1991.848295
2953.250301,-9474.636058,1036.288319,536.266849
2953.250639,-10658.965565,2886.803174,612.876398
2953.250976,-10658.965565,3775.050304,612.876398
2953.251313,-11103.089130,2664.741391,536.266849
2953.251651,-12065.356855,2812.782580,1225.752797
2953.251988,-11399.171507,592.164754,-229.828649
2953.252326,-9548.656652,-592.164754,459.657299
2953.252663,-9104.533087,-2146.597232,459.657299
2953.253000,-9030.512492,-1554.432478,-383.047749
2953.253338,-8216.285956,-962.267725,-1072.533697
2953.253675,-8142.265362,0.000000,-612.876398
2953.254013,-9696.697840,666.185348,-612.876398
2953.254350,-11399.171507,666.185348,-1762.019645
2953.254687,-11103.089130,518.144159,-1685.410096
2953.255025,-9992.780217,-1332.370696,0.000000
2953.255362,-9474.636058,-2368.659014,1455.581446
2953.255700,-9844.739029,-1850.514855,2987.772442
2953.256037,-9918.759623,-2738.761985,2604.724693
2953.256374,-9696.697840,-2220.617826,2987.772442
2953.256712,-10288.862594,-1110.308913,1072.533697
2953.257049,-12435.459826,518.144159,306.438199
2953.257386,-11029.068536,1184.329507,-2451.505594
2953.257724,-9326.594869,888.247130,-1838.629195
2953.258061,-10362.883188,888.247130,-995.924147
2953.258399,-9992.780217,370.102971,-1225.752797
2953.258736,-10066.800811,1110.308913,0.000000
2953.259073,-9696.697840,-370.102971,459.657299
2953.259411,-11399.171507,-666.185348,1608.800546
2953.259748,-12361.439231,-740.205942,842.705048
2953.260086,-10288.862594,-888.247130,-1225.752797
2953.260423,-8586.388927,-1184.329507,-689.485948
2953.260760,-9030.512492,-2072.576638,-459.657299
2953.261098,-8882.471304,0.000000,-459.657299
2953.261435,-9104.533087,444.123565,-459.657299
2953.261773,-9400.615463,1184.329507,459.657299
2953.262110,-10807.006753,1332.370696,0.000000
2953.262447,-11695.253884,1184.329507,995.924147
2953.262785,-10510.924376,666.185348,689.485948
2953.263122,-8438.347739,-2220.617826,2145.067394
2953.263460,-8290.306550,-1776.494261,3600.648841
2953.263797,-8586.388927,-1184.329507,2987.772442
2953.264134,-9622.677246,1554.432478,1378.971896
2953.264472,-10140.821405,1258.350101,0.000000
2953.264809,-11399.171507,2146.597232,-1225.752797
2953.265147,-11325.150913,1406.391290,-1532.190996
2953.265484,-10214.842000,1480.411884,-1838.629195
2953.265821,-8290.306550,-666.185348,-459.657299
2953.266159,-9770.718434,-1776.494261,-383.047749
2953.266496,-9844.739029,-2590.720797,-153.219100
2953.266834,-9992.780217,-1702.473667,229.828649
2953.267171,-10066.800811,-2146.597232,1149.143247
2953.267508,-11177.109724,-2442.679609,-306.438199
2953.267846,-11547.212695,-2368.659014,-1149.143247
2953.268183,-9622.677246,-1776.494261,-1225.752797
2953.268521,-8216.285956,-1998.556043,-766.095498
2953.268858,-10362.883188,-1924.535449,0.000000
2953.269195,-10881.027347,-1554.432478,-766.095498
2953.269533,-10362.883188,-1554.432478,0.000000
2953.269870,-10140.821405,-1702.473667,1378.971896
2953.270208,-10658.965565,-1850.514855,2451.505594
2953.270545,-11029.068536,-1110.308913,2528.115143
2953.270882,-9696.697840,-1184.329507,919.314598
2953.271220,-9474.636058,-518.144159,1225.752797
2953.271557,-9770.718434,148.041188,1149.143247
2953.271895,-10140.821405,222.061783,536.266849
2953.272232,-9474.636058,1480.411884,0.000000
2953.272569,-9622.677246,1776.494261,0.000000
2953.272907,-10436.903782,1702.473667,-306.438199
2953.273244,-10436.903782,1184.329507,-612.876398
2953.273581,-9474.636058,1258.350101,689.485948
2953.273919,-9474.636058,-296.082377,153.219100
2953.274256,-9770.718434,-740.205942,612.876398
2953.274594,-8956.491898,-888.247130,766.095498
2953.274931,-8290.306550,-814.226536,1378.971896
2953.275268,-9622.677246,0.000000,1149.143247
2953.275606,-11325.150913,1184.329507,76.609550
2953.275943,-11029.068536,1998.556043,-995.924147
2953.276281,-9844.739029,1554.432478,-995.924147
2953.276618,-10362.883188,962.267725,0.000000
2953.276955,-10436.903782,518.144159,842.705048
2953.277293,-10214.842000,-296.082377,1302.362347
2953.277630,-9474.636058,-222.061783,1762.019645
2953.277968,-9918.759623,-1036.288319,1532.190996
2953.278305,-11103.089130,-296.082377,1378.971896
2953.278642,-10807.006753,0.000000,0.000000
2953.278980,-9548.656652,74.020594,0.000000
2953.279317,-9992.780217,0.000000,229.828649
2953.279655,-10362.883188,370.102971,-612.876398
2953.279992,-10066.800811,592.164754,-1378.971896
2953.280329,-9992.780217,-148.041188,-1149.143247
2953.280667,-10362.883188,-1332.370696,-1378.971896
2953.281004,-9992.780217,-1702.473667,-536.266849
2953.281342,-9548.656652,-2220.617826,0.000000
2953.281679,-8512.368333,-2516.700203,306.438199
2953.282016,-9548.656652,-2886.803174,612.876398
2953.282354,-10955.047942,-1554.432478,0.000000
2953.282691,-10510.924376,-1036.288319,-612.876398
2953.283029,-9104.533087,0.000000,153.219100
2953.283366,-9844.739029,-592.164754,1072.533697
2953.283703,-10436.903782,-444.123565,1838.629195
2953.284041,-10436.903782,518.144159,995.924147
2953.284378,-10066.800811,1406.391290,2374.896044
2953.284716,-11473.192101,518.144159,2221.676944
2953.285053,-10658.965565,444.123565,1455.581446
2953.285390,-10881.027347,1406.391290,1302.362347
2953.285728,-9548.656652,1332.370696,1225.752797
2953.286065,-9548.656652,740.205942,919.314598
2953.286403,-9844.739029,962.267725,76.609550
2953.286740,-9326.594869,1628.453072,-229.828649
2953.287077,-8882.471304,2294.638420,842.705048
2953.287415,-10732.986159,1776.494261,229.828649
2953.287752,-10362.883188,1850.514855,-76.609550
2953.288090,-10955.047942,592.164754,-1608.800546
2953.288427,-9548.656652,-740.205942,-1378.971896
2953.288764,-8586.388927,-2072.576638,-1378.971896
2953.289102,-8956.491898,-2812.782580,0.000000
2953.289439,-8438.347739,-1924.535449,459.657299
2953.289776,-8216.285956,-1702.473667,76.609550
2953.290114,-10066.800811,-888.247130,-612.876398
2953.290451,-11029.068536,-592.164754,76.609550
2953.290789,-11399.171507,0.000000,0.000000
2953.291126,-10732.986159,74.020594,842.705048
2953.291463,-10584.944971,-888.247130,1149.143247
2953.291801,-10510.924376,-1406.391290,1685.410096
2953.292138,-10066.800811,-592.164754,2221.676944
2953.292476,-9474.636058,-1184.329507,1302.362347
2953.292813,-10362.883188,-370.102971,-459.657299
2953.293150,-11325.150913,-370.102971,-995.924147
2953.293488,-10955.047942,148.041188,-1532.190996
2953.293825,-9178.553681,518.144159,-1225.752797
2953.294163,-9696.697840,148.041188,-536.266849
2953.294500,-10955.047942,-222.061783,153.219100
2953.294837,-9918.759623,0.000000,229.828649
2953.295175,-9252.574275,-444.123565,229.828649
2953.295512,-9844.739029,0.000000,766.095498
2953.295850,-10436.903782,-1184.329507,76.609550
2953.296187,-10066.800811,-296.082377,-306.438199
2953.296524,-9104.533087,-222.061783,-1455.581446
2953.296862,-9474.636058,-518.144159,0.000000
2953.297199,-9622.677246,0.000000,76.609550
2953.297537,-9178.553681,814.226536,0.000000
2953.297874,-9770.718434,888.247130,1302.362347
2953.298211,-10214.842000,2220.617826,2068.457845
2953.298549,-10955.047942,1332.370696,1302.362347
2953.298886,-10584.944971,1628.453072,2068.457845
2953.299224,-9326.594869,0.000000,2451.505594
2953.299561,-9844.739029,0.000000,2451.505594
2953.299898,-10584.944971,148.041188,1378.971896
2953.300236,-10066.800811,1036.288319,306.438199
2953.300573,-9474.636058,148.041188,0.000000
2953.300911,-10140.821405,444.123565,-689.485948
2953.301248,-10140.821405,74.020594,-919.314598
2953.301585,-9844.739029,518.144159,-1149.143247
2953.301923,-9622.677246,0.000000,-1149.143247
2953.302260,-10807.006753,-888.247130,-1302.362347
2953.302598,-11177.109724,-1554.432478,-1072.533697
2953.302935,-9770.718434,-2368.659014,-153.219100
2953.303272,-9030.512492,-2886.803174,995.924147
2953.303610,-9104.533087,-2442.679609,1378.971896
2953.303947,-10584.944971,-1776.494261,612.876398
2953.304285,-10881.027347,-1554.432478,-306.438199
2953.304622,-10066.800811,-2220.617826,-612.876398
2953.304959,-10807.006753,-1258.350101,306.438199
2953.305297,-10140.821405,-1110.308913,1072.533697
2953.305634,-9252.574275,0.000000,2374.896044
2953.305971,-9770.718434,-222.061783,2451.505594
2953.306309,-10807.006753,296.082377,2757.943793
2953.306646,-10658.965565,888.247130,1072.533697
2953.306984,-11399.171507,1110.308913,1149.143247
2953.307321,-11251.130318,222.061783,0.000000
2953.307658,-9992.780217,222.061783,-919.314598
2953.307996,-8660.409521,0.000000,-536.266849
2953.308333,-7698.141797,740.205942,0.000000
2953.308671,-7994.224174,370.102971,0.000000
2953.309008,-9918.759623,1184.329507,-612.876398
2953.309345,-10807.006753,1702.473667,-1532.190996
2953.309683,-10732.986159,1110.308913,-1225.752797
2953.310020,-9474.636058,0.000000,-612.876398
2953.310358,-9030.512492,-666.185348,76.609550
2953.310695,-8882.471304,-888.247130,842.705048
2953.311032,-8364.327145,-740.205942,1532.190996
2953.311370,-8734.430116,-740.205942,1149.143247
2953.311707,-10436.903782,-518.144159,1608.800546
2953.312045,-11103.089130,1258.350101,919.314598
2953.312382,-11029.068536,1258.350101,-459.657299
2953.312719,-11177.109724,592.164754,0.000000
2953.313057,-9770.718434,666.185348,0.000000
2953.313394,-9696.697840,74.020594,536.266849
2953.313732,-9400.615463,0.000000,1302.362347
2953.314069,-10214.842000,-148.041188,2068.457845
2953.314406,-11621.233289,518.144159,1838.629195
2953.314744,-11695.253884,1184.329507,0.000000
2953.315081,-10584.944971,370.102971,-1225.752797
2953.315419,-10288.862594,-962.267725,-1991.848295
2953.315756,-9918.759623,-1850.514855,-1455.581446
2953.316093,-9104.533087,-1998.556043,-919.314598
2953.316431,-7698.141797,-2072.576638,-612.876398
2953.316768,-8512.368333,-1628.453072,766.095498
2953.317106,-11029.068536,-888.247130,536.266849
2953.317443,-11029.068536,-592.164754,-459.657299
2953.317780,-10732.986159,-1110.308913,153.219100
2953.318118,-10732.986159,-1554.432478,612.876398
2953.318455,-9474.636058,-2146.597232,229.828649
2953.318793,-9474.636058,-1554.432478,1302.362347
2953.319130,-8142.265362,-1924.535449,1838.629195
2953.319467,-9252.574275,148.041188,2987.772442
2953.319805,-11177.109724,2294.638420,2145.067394
2953.320142,-11621.233289,2294.638420,536.266849
2953.320480,-11843.295072,2368.659014,995.924147
2953.320817,-11547.212695,1184.329507,689.485948
2953.321154,-11251.130318,888.247130,1072.533697
2953.321492,-9474.636058,740.205942,229.828649
2953.321829,-7772.162391,370.102971,1225.752797
2953.322166,-9104.533087,888.247130,1225.752797
2953.322504,-10436.903782,1554.432478,0.000000
2953.322841,-10362.883188,2664.741391,-766.095498
2953.323179,-10732.986159,666.185348,-1532.190996
2953.323516,-10288.862594,296.082377,-2145.067394
2953.323853,-9252.574275,-444.123565,-2681.334243
2953.324191,-7698.141797,-1554.432478,-1302.362347
2953.324528,-6513.812290,-2960.823768,153.219100
2953.324866,-8586.388927,-2220.617826,1455.581446
2953.325203,-10214.842000,-1924.535449,612.876398
2953.325540,-10436.903782,-222.061783,-689.485948
2953.325878,-10732.986159,-2368.659014,306.438199
2953.326215,-11251.130318,-1110.308913,153.219100
2953.326553,-9918.759623,-2220.617826,306.438199
2953.326890,-9696.697840,-1406.391290,766.095498
2953.327227,-8586.388927,-2072.576638,1072.533697
2953.327565,-10658.965565,-296.082377,2068.457845
2953.327902,-11991.336260,888.247130,1378.971896
2953.328240,-11547.212695,1110.308913,0.000000
2953.328577,-11473.192101,-222.061783,-1149.143247
2953.328914,-11325.150913,-1036.288319,-1072.533697
2953.329252,-10658.965565,-962.267725,-383.047749
2953.329589,-8956.491898,-1554.432478,0.000000
2953.329927,-9030.512492,-1184.329507,689.485948
2953.330264,-9992.780217,-296.082377,612.876398
2953.330601,-10584.944971,592.164754,0.000000
2953.330939,-10436.903782,1110.308913,-153.219100
2953.331276,-10066.800811,-518.144159,-536.266849
2953.331614,-10066.800811,-1184.329507,459.657299
2953.331951,-9844.739029,-1776.494261,229.828649
2953.332288,-7846.182985,-1110.308913,1608.800546
2953.332626,-7994.224174,-2146.597232,2221.676944
2953.332963,-9104.533087,148.041188,2374.896044
2953.333301,-10140.821405,1554.432478,1302.362347
2953.333638,-10732.986159,2072.576638,1225.752797
2953.333975,-11103.089130,1776.494261,306.438199
2953.334313,-10955.047942,1776.494261,229.828649
2953.334650,-10214.842000,1924.535449,919.314598
2953.334988,-8660.409521,444.123565,1225.752797
2953.335325,-8290.306550,148.041188,1685.410096
2953.335662,-10214.842000,1924.535449,1072.533697
2953.336000,-11843.295072,1628.453072,-229.828649
2953.336337,-10732.986159,1258.350101,-766.095498
2953.336675,-10288.862594,592.164754,-1225.752797
2953.337012,-11177.109724,-518.144159,-306.438199
2953.337350,-9918.759623,-888.247130,-1915.238745
2953.337687,-7920.203579,-2294.638420,-919.314598
2953.338025,-8660.409521,-1924.535449,-536.266849
2953.338363,-9696.697840,-1184.329507,-229.828649
2953.338700,-10658.965565,-222.061783,-689.485948
2953.339038,-10510.924376,-962.267725,-1838.629195
2953.339375,-10658.965565,-1702.473667,-1378.971896
2953.339713,-10955.047942,-3034.844362,-536.266849
2953.340050,-9844.739029,-3034.844362,76.609550
2953.340388,-8512.368333,-2960.823768,1915.238745
2953.340725,-9992.780217,-2738.761985,2757.943793
2953.341063,-10732.986159,-222.061783,2298.286494
2953.341400,-10436.903782,370.102971,766.095498
2953.341738,-10140.821405,1332.370696,689.485948
2953.342075,-10584.944971,592.164754,76.609550
2953.342413,-11769.274478,740.205942,-306.438199
2953.342750,-10881.027347,74.020594,-842.705048
2953.343088,-8734.430116,-370.102971,306.438199
2953.343425,-9030.512492,-666.185348,1991.848295
2953.343763,-10807.006753,370.102971,2374.896044
2953.344100,-10510.924376,2072.576638,1225.752797
2953.344438,-10066.800811,1332.370696,306.438199
2953.344775,-11325.150913,1036.288319,-689.485948
2953.345113,-10214.842000,-1036.288319,-1378.971896
2953.345450,-9030.512492,-740.205942,-153.219100
2953.345788,-7994.224174,-1184.329507,1378.971896
2953.346126,-8216.285956,-962.267725,1378.971896
2953.346463,-9548.656652,814.226536,1149.143247
2953.346801,-10214.842000,1702.473667,153.219100
2953.347138,-10807.006753,592.164754,459.657299
2953.347476,-11399.171507,-370.102971,-536.266849
2953.347813,-10140.821405,-888.247130,0.000000
2953.348151,-9474.636058,-444.123565,842.705048
2953.348488,-8068.244768,-1036.288319,1378.971896
2953.348826,-8586.388927,-592.164754,1685.410096
2953.349163,-9770.718434,222.061783,766.095498
2953.349501,-10881.027347,1628.453072,1225.752797
2953.349838,-11621.233289,1776.494261,0.000000
2953.350176,-12139.377449,148.041188,-1608.800546
2953.350513,-11251.130318,-518.144159,-1915.238745
2953.350851,-9548.656652,-1406.391290,-2451.505594
2953.351188,-7698.141797,-2368.659014,-1225.752797
2953.351526,-8512.368333,-2294.638420,-995.924147
2953.351863,-9400.615463,-1702.473667,-689.485948
2953.352201,-10066.800811,-518.144159,-1302.362347
2953.352538,-11177.109724,-1480.411884,-306.438199
2953.352876,-11991.336260,-1036.288319,-689.485948
2953.353214,-11843.295072,-1924.535449,-919.314598
2953.353551,-9918.759623,-2220.617826,-306.438199
2953.353889,-8068.244768,-3034.844362,995.924147
2953.354226,-8586.388927,-2220.617826,2757.943793
2953.354564,-10066.800811,-962.267725,2987.772442
2953.354901,-10881.027347,814.226536,1838.629195
2953.355239,-11547.212695,1776.494261,536.266849
2953.355576,-11991.336260,1110.308913,-383.047749
2953.355914,-10955.047942,222.061783,229.828649
2953.356251,-8808.450710,-592.164754,1149.143247
2953.356589,-8068.244768,-888.247130,2987.772442
2953.356926,-9178.553681,0.000000,2451.505594
2953.357264,-10066.800811,888.247130,1991.848295
2953.357601,-10584.944971,1924.535449,1838.629195
2953.357939,-10288.862594,1924.535449,766.095498
2953.358276,-11547.212695,1628.453072,-153.219100
2953.358614,-11843.295072,222.061783,-1532.190996
2953.358951,-8734.430116,-666.185348,-1838.629195
2953.359289,-7476.080014,-2220.617826,-383.047749
2953.359626,-8734.430116,-1776.494261,1455.581446
2953.359964,-9178.553681,-888.247130,842.705048
2953.360301,-9992.780217,0.000000,459.657299
2953.360639,-11177.109724,-222.061783,-766.095498
2953.360977,-11843.295072,-740.205942,-919.314598
2953.361314,-11177.109724,-1924.535449,-383.047749
2953.361652,-9104.533087,-2072.576638,229.828649
2953.361989,-7550.100608,-2368.659014,1762.019645
2953.362327,-9178.553681,-740.205942,2145.067394
2953.362664,-10510.924376,-814.226536,1225.752797
2953.363002,-10881.027347,740.205942,766.095498
2953.363339,-11621.233289,74.020594,0.000000
2953.363677,-11991.336260,0.000000,-842.705048
2953.364014,-10436.903782,-296.082377,-1915.238745
2953.364352,-9474.636058,-814.226536,-1149.143247
2953.364689,-8142.265362,-2294.638420,-612.876398
2953.365027,-9030.512492,-1110.308913,0.000000
2953.365364,-10214.842000,74.020594,76.609550
2953.365702,-10658.965565,666.185348,-766.095498
2953.366039,-10362.883188,74.020594,-2068.457845
2953.366377,-10510.924376,-444.123565,-2068.457845
2953.366714,-10214.842000,-962.267725,-1378.971896
2953.367052,-9178.553681,-1628.453072,0.000000
2953.367389,-8512.368333,-2442.679609,383.047749
2953.367727,-8808.450710,-592.164754,1762.019645
2953.368065,-10658.965565,222.061783,1072.533697
2953.368402,-10510.924376,1184.329507,1532.190996
2953.368740,-10436.903782,1036.288319,536.266849
2953.369077,-11177.109724,666.185348,383.047749
2953.369415,-10732.986159,1036.288319,459.657299
2953.369752,-8956.491898,0.000000,842.705048
2953.370090,-8734.430116,0.000000,2451.505594
2953.370427,-10066.800811,0.000000,2528.115143
2953.370765,-9844.739029,2664.741391,1072.533697
2953.371102,-10955.047942,2812.782580,306.438199
2953.371440,-12213.398043,1702.473667,-383.047749
2953.371777,-11399.171507,592.164754,-1072.533697
2953.372115,-10066.800811,-74.020594,-1149.143247
2953.372452,-8586.388927,-1776.494261,0.000000
2953.372790,-8586.388927,-2812.782580,229.828649
2953.373127,-8734.430116,-1258.350101,919.314598
2953.373465,-9474.636058,-888.247130,536.266849
2953.373802,-10214.842000,-222.061783,689.485948
2953.374140,-11843.295072,-222.061783,0.000000
2953.374477,-11991.336260,-1554.432478,-612.876398
2953.374815,-10658.965565,-1924.535449,-1455.581446
2953.375152,-8142.265362,-2812.782580,0.000000
2953.375490,-8660.409521,-2738.761985,1915.238745
2953.375828,-9548.656652,-2368.659014,2451.505594
2953.376165,-10288.862594,-592.164754,1838.629195
2953.376503,-11103.089130,518.144159,689.485948
2953.376840,-11695.253884,370.102971,612.876398
2953.377178,-11695.253884,222.061783,919.314598
2953.377515,-10584.944971,0.000000,0.000000
2953.377853,-8956.491898,-518.144159,919.314598
2953.378190,-9622.677246,-148.041188,1378.971896
2953.378528,-10288.862594,74.020594,153.219100
2953.378865,-9622.677246,1258.350101,-536.266849
2953.379203,-9474.636058,814.226536,0.000000
2953.379540,-10584.944971,740.205942,-995.924147
2953.379878,-10807.006753,148.041188,-1915.238745
2953.380215,-9104.533087,-518.144159,-2451.505594
2953.380553,-7772.162391,-1480.411884,-1532.190996
2953.380890,-8586.388927,-1628.453072,76.609550
2953.381228,-9326.594869,-1332.370696,306.438199
2953.381565,-8734.430116,-814.226536,1149.143247
2953.381903,-9474.636058,-296.082377,1225.752797
2953.382240,-10510.924376,-740.205942,766.095498
2953.382578,-12139.377449,296.082377,536.266849
2953.382915,-10955.047942,-888.247130,-383.047749
2953.383253,-9474.636058,-1628.453072,689.485948
2953.383591,-9326.594869,-1110.308913,1685.410096
2953.383928,-9992.780217,-296.082377,995.924147
2953.384266,-10066.800811,296.082377,689.485948
2953.384603,-9770.718434,-444.123565,306.438199
2953.384941,-11399.171507,962.267725,689.485948
2953.385278,-12361.439231,0.000000,76.609550
2953.385616,-10436.903782,0.000000,-919.314598
2953.385953,-9474.636058,-2146.597232,-306.438199
2953.386291,-9992.780217,-1850.514855,995.924147
2953.386628,-9474.636058,-1702.473667,459.657299
2953.386966,-9474.636058,-1036.288319,76.609550
2953.387303,-9918.759623,-1480.411884,0.000000
2953.387641,-10881.027347,-666.185348,-1608.800546
2953.387978,-11325.150913,-1332.370696,-1838.629195
2953.388316,-9400.615463,-1332.370696,-1532.190996
2953.388653,-7920.203579,-2590.720797,-153.219100
2953.388991,-9400.615463,-1850.514855,1149.143247
2953.389328,-9992.780217,-1110.308913,919.314598
2953.389666,-9696.697840,-666.185348,2528.115143
2953.390003,-10807.006753,148.041188,3370.820191
2953.390341,-11621.233289,1406.391290,2528.115143
2953.390679,-11547.212695,1628.453072,919.314598
2953.391016,-10510.924376,1036.288319,689.485948
2953.391354,-9030.512492,296.082377,536.266849
2953.391691,-9474.636058,444.123565,1225.752797
2953.392029,-9474.636058,1702.473667,919.314598
2953.392366,-9474.636058,2516.700203,0.000000
2953.392704,-10066.800811,2146.597232,-459.657299
2953.393041,-10584.944971,2516.700203,0.000000
2953.393379,-10658.965565,1258.350101,-995.924147
2953.393716,-9622.677246,1554.432478,-689.485948
2953.394054,-9400.615463,222.061783,-1378.971896
2953.394391,-10066.800811,-370.102971,-1378.971896
2953.394729,-9030.512492,-1036.288319,-1378.971896
2953.395066,-8586.388927,-740.205942,76.609550
2953.395404,-9474.636058,-592.164754,153.219100
2953.395741,-10807.006753,0.000000,-306.438199
2953.396079,-11547.212695,-740.205942,-1608.800546
2953.396416,-9844.739029,-1628.453072,-1149.143247
2953.396754,-9326.594869,-1998.556043,306.438199
2953.397091,-10436.903782,-2590.720797,2298.286494
2953.397429,-9252.574275,-1184.329507,1838.629195
2953.397766,-9548.656652,-592.164754,2757.943793
2953.398104,-11843.295072,-814.226536,2068.457845
2953.398442,-12065.356855,0.000000,1149.143247
2953.398779,-11547.212695,0.000000,0.000000
2953.399117,-9696.697840,-370.102971,-76.609550
2953.399454,-9252.574275,-740.205942,0.000000
2953.399792,-10436.903782,-1184.329507,153.219100
2953.400129,-9548.656652,-1480.411884,-766.095498
2953.400467,-9326.594869,-666.185348,612.876398
2953.400804,-10362.883188,74.020594,995.924147
2953.401142,-11399.171507,148.041188,229.828649
2953.401479,-11473.192101,0.000000,-766.095498
2953.401817,-9770.718434,-1110.308913,-689.485948
2953.402154,-9548.656652,-1184.329507,995.924147
2953.402492,-9918.759623,-1554.432478,1378.971896
2953.402829,-9474.636058,-296.082377,536.266849
2953.403167,-9104.533087,-444.123565,1149.143247
2953.403504,-9548.656652,0.000000,1072.533697
2953.403842,-10510.924376,888.247130,1302.362347
2953.404179,-10510.924376,888.247130,536.266849
2953.404517,-9326.594869,740.205942,995.924147
2953.404854,-9992.780217,666.185348,1378.971896
2953.405192,-9844.739029,592.164754,1838.629195
2953.405530,-9178.553681,1924.535449,1762.019645
2953.405867,-9400.615463,0.000000,2834.553343
2953.406205,-10362.883188,1702.473667,1302.362347
2953.406542,-10881.027347,222.061783,-76.609550
2953.406880,-10288.862594,962.267725,-536.266849
2953.407217,-8142.265362,-518.144159,-612.876398
2953.407555,-9252.574275,-1332.370696,-919.314598
2953.407892,-10066.800811,-296.082377,-1225.752797
2953.408230,-9326.594869,0.000000,-2834.553343
2953.408567,-9474.636058,-148.041188,-2374.896044
2953.408905,-10807.006753,-962.267725,-2374.896044
2953.409242,-10732.986159,-1110.308913,-1532.190996
2953.409580,-10214.842000,-1628.453072,-689.485948
2953.409917,-8956.491898,-2146.597232,919.314598
2953.410255,-10288.862594,-2368.659014,995.924147
2953.410592,-11621.233289,-1850.514855,1149.143247
2953.410930,-10807.006753,-1184.329507,383.047749
2953.411267,-10510.924376,-1554.432478,459.657299
2953.411605,-11251.130318,-592.164754,1608.800546
2953.411942,-11399.171507,-740.205942,919.314598
2953.412280,-9844.739029,74.020594,76.609550
2953.412617,-9252.574275,-1258.350101,536.266849
2953.412955,-9400.615463,-296.082377,1149.143247
2953.413293,-9178.553681,0.000000,842.705048
2953.413630,-9474.636058,296.082377,1302.362347
2953.413968,-10140.821405,0.000000,766.095498
2953.414305,-10362.883188,0.000000,995.924147
2953.414643,-10510.924376,740.205942,1072.533697
2953.414980,-9696.697840,888.247130,1302.362347
2953.415318,-8586.388927,0.000000,229.828649
2953.415655,-10066.800811,0.000000,0.000000
2953.415993,-10732.986159,-518.144159,0.000000
2953.416330,-8216.285956,74.020594,76.609550
2953.416668,-9326.594869,592.164754,306.438199
2953.417005,-11251.130318,740.205942,1685.410096
2953.417343,-10658.965565,1110.308913,0.000000
2953.417680,-9696.697840,814.226536,612.876398
2953.418018,-10510.924376,296.082377,1685.410096
2953.418355,-10658.965565,0.000000,2298.286494
2953.418693,-11029.068536,-74.020594,1532.190996
2953.419030,-9474.636058,0.000000,1302.362347
2953.419368,-9252.574275,-148.041188,1302.362347
2953.419705,-9918.759623,-592.164754,1455.581446
2953.420043,-9548.656652,-592.164754,-536.266849
2953.420381,-8808.450710,0.000000,-995.924147
2953.420718,-10066.800811,0.000000,-383.047749
2953.421056,-9844.739029,222.061783,-1225.752797
2953.421393,-9252.574275,-666.185348,-1225.752797
2953.421731,-10214.842000,0.000000,-995.924147
2953.422068,-9992.780217,-1036.288319,-1991.848295
2953.422406,-9474.636058,-1110.308913,-1532.190996
2953.422743,-11177.109724,-2294.638420,-919.314598
2953.423081,-9770.718434,-2368.659014,-1225.752797
2953.423418,-9104.533087,-2368.659014,-1532.190996
2953.423756,-10510.924376,-1998.556043,-153.219100
2953.424093,-10658.965565,-1258.350101,0.000000
2953.424431,-10881.027347,-1036.288319,612.876398
2953.424768,-11177.109724,-1036.288319,536.266849
2953.425106,-11177.109724,-1258.350101,995.924147
2953.425443,-10881.027347,-296.082377,2145.067394
2953.425781,-9400.615463,0.000000,1915.238745
2953.426118,-9548.656652,0.000000,1838.629195
2953.426456,-10288.862594,518.144159,1072.533697
2953.426793,-10436.903782,1628.453072,536.266849
2953.427131,-9474.636058,1480.411884,919.314598
2953.427468,-10140.821405,1184.329507,842.705048
2953.427806,-10658.965565,1480.411884,1149.143247
2953.428144,-10214.842000,1184.329507,536.266849
2953.428481,-9030.512492,1406.391290,0.000000
2953.428819,-8142.265362,1110.308913,536.266849
2953.429156,-9178.553681,1480.411884,1302.362347
2953.429494,-10362.883188,2220.617826,229.828649
2953.429831,-9844.739029,1036.288319,-1302.362347
2953.430169,-9622.677246,0.000000,-1225.752797
2953.430506,-9844.739029,0.000000,0.000000
2953.430844,-9178.553681,-592.164754,-536.266849
2953.431181,-8956.491898,-518.144159,612.876398
2953.431519,-9474.636058,-1110.308913,1149.143247
2953.431856,-10288.862594,-1110.308913,995.924147
2953.432194,-10584.944971,222.061783,919.314598
2953.432531,-10807.006753,74.020594,1225.752797
2953.432869,-10807.006753,-370.102971,459.657299
2953.433206,-11029.068536,-1110.308913,1225.752797
2953.433544,-10510.924376,296.082377,1455.581446
2953.433881,-9030.512492,-148.041188,995.924147
2953.434219,-9548.656652,-148.041188,766.095498
2953.434556,-10658.965565,-296.082377,0.000000
2953.434893,-11029.068536,-518.144159,-1225.752797
2953.435231,-10214.842000,-444.123565,-1685.410096
2953.435568,-9326.594869,-1332.370696,-1532.190996
2953.435906,-9548.656652,-1480.411884,-766.095498
2953.436243,-9548.656652,-962.267725,-612.876398
2953.436580,-9474.636058,-740.205942,-536.266849
2953.436918,-9548.656652,-1480.411884,-536.266849
2953.437255,-10510.924376,-1332.370696,153.219100
2953.437593,-10584.944971,-962.267725,766.095498
2953.437930,-9770.718434,-1628.453072,383.047749
2953.438267,-9474.636058,-1480.411884,766.095498
2953.438605,-10436.903782,-1554.432478,459.657299
2953.438942,-9030.512492,-1258.350101,842.705048
2953.439280,-8956.491898,-1332.370696,1762.019645
2953.439617,-10140.821405,222.061783,2604.724693
2953.439954,-10510.924376,1184.329507,1455.581446
2953.440292,-11251.130318,2442.679609,612.876398
2953.440629,-10584.944971,1998.556043,0.000000
2953.440967,-10362.883188,1776.494261,689.485948
2953.441304,-10807.006753,814.226536,1762.019645
2953.441641,-9400.615463,888.247130,842.705048
2953.441979,-8956.491898,666.185348,1072.533697
2953.442316,-10436.903782,888.247130,689.485948
2953.442653,-10881.027347,-296.082377,-306.438199
2953.442991,-9696.697840,740.205942,-1225.752797
2953.443328,-9178.553681,-666.185348,-1302.362347
2953.443666,-9622.677246,-370.102971,-689.485948
2953.444003,-9622.677246,-888.247130,-1608.800546
2953.444340,-9622.677246,-370.102971,-1532.190996
2953.444678,-9252.574275,-2072.576638,-612.876398
2953.445015,-9548.656652,-1184.329507,306.438199
2953.445353,-10658.965565,-1258.350101,842.705048
2953.445690,-9992.780217,-518.144159,0.000000
2953.446027,-9622.677246,-1924.535449,-306.438199
2953.446365,-10436.903782,-2368.659014,919.314598
2953.446702,-11103.089130,-1480.411884,1225.752797
2953.447040,-10362.883188,-1406.391290,1149.143247
2953.447377,-9252.574275,-1628.453072,1838.629195
2953.447714,-9918.759623,296.082377,2221.676944
2953.448052,-10658.965565,1554.432478,2068.457845
2953.448389,-11103.089130,1776.494261,919.314598
2953.448727,-10584.944971,592.164754,-995.924147
2953.449064,-11103.089130,888.247130,-459.657299
2953.449401,-11325.150913,666.185348,-1302.362347
2953.449739,-9178.553681,74.020594,-766.095498
2953.450076,-7994.224174,-444.123565,0.000000
2953.450414,-9030.512492,518.144159,76.609550
2953.450751,-9770.718434,1332.370696,-536.266849
2953.451088,-10807.006753,592.164754,-1149.143247
2953.451426,-10288.862594,-592.164754,-306.438199
2953.451763,-10288.862594,-666.185348,229.828649
2953.452100,-9770.718434,-296.082377,383.047749
2953.452438,-7920.203579,-518.144159,995.924147
2953.452775,-7550.100608,-1850.514855,1685.410096
2953.453113,-9178.553681,518.144159,2298.286494
2953.453450,-10510.924376,1036.288319,1149.143247
2953.453787,-11103.089130,1850.514855,0.000000
2953.454125,-10658.965565,296.082377,-1378.971896
2953.454462,-11325.150913,148.041188,-229.828649
2953.454800,-9770.718434,296.082377,536.266849
2953.455137,-8068.244768,-592.164754,1072.533697
2953.455474,-8956.491898,74.020594,1991.848295
2953.455812,-10732.986159,666.185348,1532.190996
2953.456149,-12287.418637,1110.308913,1225.752797
2953.456487,-12139.377449,740.205942,-536.266849
2953.456824,-10584.944971,-888.247130,-459.657299
2953.457161,-11103.089130,-1258.350101,536.266849
2953.457499,-9770.718434,-1554.432478,-1225.752797
2953.457836,-7846.182985,-1776.494261,-1685.410096
2953.458174,-8956.491898,-2368.659014,-995.924147
2953.458511,-9474.636058,-2294.638420,-919.314598
2953.458848,-10881.027347,-962.267725,-536.266849
2953.459186,-10807.006753,-814.226536,0.000000
2953.459523,-9844.739029,-1184.329507,-612.876398
2953.459861,-11473.192101,-1702.473667,153.219100
2953.460198,-10214.842000,-2368.659014,1225.752797
2953.460535,-8290.306550,-2960.823768,2528.115143
2953.460873,-9178.553681,-2294.638420,4290.134789
2953.461210,-10510.924376,-370.102971,4443.353888
2953.461547,-11103.089130,1702.473667,2451.505594
2953.461885,-10881.027347,2368.659014,766.095498
2953.462222,-11177.109724,1184.329507,-1072.533697
2953.462560,-11103.089130,1554.432478,-1455.581446
2953.462897,-9400.615463,296.082377,-1225.752797
2953.463234,-7698.141797,74.020594,1149.143247
2953.463572,-7772.162391,370.102971,1455.581446
2953.463909,-9770.718434,1480.411884,1072.533697
2953.464247,-10658.965565,1776.494261,229.828649
2953.464584,-10732.986159,1332.370696,0.000000
2953.464921,-11325.150913,888.247130,0.000000
2953.465259,-11917.315666,-1110.308913,-612.876398
2953.465596,-8956.491898,-1258.350101,-995.924147
2953.465934,-7105.977043,-2072.576638,0.000000
2953.466271,-9030.512492,-888.247130,919.314598
2953.466608,-9918.759623,-740.205942,-1072.533697
2953.466946,-10140.821405,74.020594,-1762.019645
2953.467283,-10436.903782,-1184.329507,-689.485948
2953.467621,-10732.986159,-296.082377,0.000000
2953.467958,-11399.171507,-888.247130,842.705048
2953.468295,-10807.006753,-296.082377,689.485948
2953.468633,-8882.471304,-1480.411884,536.266849
2953.468970,-9844.739029,-1332.370696,1685.410096
2953.469308,-9992.780217,-370.102971,1991.848295
2953.469645,-10066.800811,518.144159,1455.581446
2953.469982,-10732.986159,518.144159,0.000000
2953.470320,-10955.047942,0.000000,-1762.019645
2953.470657,-11621.233289,-888.247130,-1991.848295
2953.470994,-9548.656652,-1332.370696,-1608.800546
2953.471332,-7105.977043,-2146.597232,-1302.362347
2953.471669,-8956.491898,-1406.391290,383.047749
2953.472007,-10140.821405,-296.082377,306.438199
2953.472344,-10584.944971,0.000000,-459.657299
2953.472681,-11621.233289,-1110.308913,1072.533697
2953.473019,-11251.130318,-1258.350101,995.924147
2953.473356,-11473.192101,-1036.288319,1225.752797
2953.473694,-10066.800811,-592.164754,995.924147
2953.474031,-8068.244768,-1554.432478,995.924147
2953.474368,-9252.574275,-962.267725,2298.286494
2953.474706,-9770.718434,222.061783,2068.457845
2953.475043,-10140.821405,2294.638420,766.095498
2953.475381,-10510.924376,888.247130,229.828649
2953.475718,-10510.924376,1110.308913,-689.485948
2953.476055,-10881.027347,370.102971,383.047749
2953.476393,-8216.285956,148.041188,1225.752797
2953.476730,-6883.915261,0.000000,1838.629195
2953.477068,-10214.842000,0.000000,2604.724693
2953.477405,-9844.739029,1702.473667,995.924147
2953.477742,-10510.924376,1406.391290,-306.438199
2953.478080,-11029.068536,444.123565,-689.485948
2953.478417,-10881.027347,0.000000,-1838.629195
2953.478755,-10584.944971,-888.247130,-2451.505594
2953.479092,-7994.224174,-1184.329507,-2374.896044
2953.479429,-7402.059420,-2368.659014,-2145.067394
2953.479767,-9400.615463,-2220.617826,153.219100
2953.480104,-10807.006753,-1184.329507,0.000000
2953.480441,-10732.986159,592.164754,76.609550
2953.480779,-11325.150913,-888.247130,-153.219100
2953.481116,-12657.521608,-1184.329507,153.219100
2953.481454,-11103.089130,-2072.576638,306.438199
2953.481791,-9252.574275,-2664.741391,1149.143247
2953.482128,-8882.471304,-2442.679609,2374.896044
2953.482466,-10288.862594,-2220.617826,1838.629195
2953.482803,-10510.924376,518.144159,1378.971896
2953.483141,-10584.944971,1702.473667,1149.143247
2953.483478,-11029.068536,1702.473667,153.219100
2953.483815,-11843.295072,962.267725,-536.266849
2953.484153,-10658.965565,296.082377,-612.876398
2953.484490,-8586.388927,222.061783,0.000000
2953.484828,-7846.182985,444.123565,612.876398
2953.485165,-9326.594869,-222.061783,1838.629195
2953.485502,-10066.800811,1480.411884,995.924147
2953.485840,-10510.924376,962.267725,459.657299
2953.486177,-10362.883188,1702.473667,-153.219100
2953.486515,-10881.027347,0.000000,-1149.143247
2953.486852,-10436.903782,-370.102971,-459.657299
2953.487189,-8290.306550,-962.267725,-995.924147
2953.487527,-7624.121203,-888.247130,919.314598
2953.487864,-9104.533087,-370.102971,2298.286494
2953.488202,-9770.718434,740.205942,1532.190996
2953.488539,-9992.780217,1332.370696,919.314598
2953.488876,-10584.944971,518.144159,995.924147
2953.489214,-11547.212695,666.185348,919.314598
2953.489551,-11177.109724,0.000000,536.266849
2953.489888,-9622.677246,0.000000,919.314598
2953.490226,-8586.388927,-962.267725,995.924147
2953.490563,-9770.718434,-370.102971,1991.848295
2953.490901,-9918.759623,518.144159,1762.019645
2953.491238,-10732.986159,296.082377,459.657299
2953.491575,-11103.089130,592.164754,-536.266849
2953.491913,-11843.295072,-888.247130,-1838.629195
2953.492250,-10362.883188,-592.164754,-1915.238745
2953.492588,-9178.553681,-2516.700203,-919.314598
2953.492925,-8290.306550,-3182.885551,0.000000
2953.493262,-8586.388927,-3108.864956,0.000000
2953.493600,-10140.821405,-1702.473667,229.828649
2953.493937,-10066.800811,-1480.411884,-383.047749
2953.494275,-10510.924376,-1924.535449,-1762.019645
2953.494612,-11399.171507,-1924.535449,-919.314598
2953.494949,-10881.027347,-2368.659014,-919.314598
2953.495287,-8808.450710,-3256.906145,-76.609550
2953.495624,-7920.203579,-2960.823768,995.924147
2953.495962,-9696.697840,-1850.514855,2911.162892
2953.496299,-10362.883188,0.000000,2145.067394
2953.496636,-11177.109724,592.164754,1302.362347
2953.496974,-11843.295072,370.102971,1532.190996
2953.497311,-11325.150913,592.164754,842.705048
2953.497649,-10807.006753,1258.350101,383.047749
2953.497986,-9326.594869,1110.308913,229.828649
2953.498323,-9252.574275,222.061783,612.876398
2953.498661,-9474.636058,1184.329507,536.266849
2953.498998,-9252.574275,2738.761985,-612.876398
2953.499335,-9770.718434,2590.720797,-995.924147
2953.499673,-10807.006753,1110.308913,-919.314598
2953.500010,-10955.047942,814.226536,-1455.581446
2953.500348,-9844.739029,370.102971,-1455.581446
2953.500685,-8734.430116,-1628.453072,-459.657299
2953.501022,-7772.162391,-1110.308913,383.047749
2953.501360,-8882.471304,-1406.391290,1302.362347
2953.501697,-10658.965565,666.185348,1838.629195
2953.502035,-10362.883188,0.000000,229.828649
2953.502372,-11325.150913,0.000000,-536.266849
2953.502709,-10732.986159,-1184.329507,0.000000
2953.503047,-9844.739029,-962.267725,-612.876398
2953.503384,-9252.574275,-1258.350101,76.609550
2953.503722,-9918.759623,-1850.514855,1685.410096
2953.504059,-9400.615463,-740.205942,1455.581446
2953.504396,-10066.800811,296.082377,1838.629195
2953.504734,-11177.109724,740.205942,1915.238745
2953.505071,-11547.212695,296.082377,766.095498
2953.505409,-12583.501014,0.000000,842.705048
2953.505746,-11029.068536,296.082377,0.000000
2953.506083,-9178.553681,-1628.453072,0.000000
2953.506421,-8586.388927,-1702.473667,766.095498
2953.506758,-9252.574275,-518.144159,-383.047749
2953.507096,-10362.883188,0.000000,-919.314598
2953.507433,-10140.821405,222.061783,-2834.553343
2953.507770,-10584.944971,-296.082377,-2298.286494
2953.508108,-11177.109724,-814.226536,-1072.533697
2953.508445,-9548.656652,-1406.391290,-612.876398
2953.508782,-8512.368333,-2294.638420,919.314598
2953.509120,-9030.512492,-1406.391290,2298.286494
2953.509457,-10066.800811,-296.082377,2221.676944
2953.509795,-10140.821405,74.020594,1532.190996
2953.510132,-9992.780217,370.102971,1302.362347
2953.510469,-10807.006753,1036.288319,1685.410096
2953.510807,-11251.130318,1110.308913,689.485948
2953.511144,-9918.759623,814.226536,-612.876398
2953.511482,-7994.224174,740.205942,0.000000
2953.511819,-9178.553681,888.247130,689.485948
2953.512156,-9622.677246,1850.514855,842.705048
2953.512494,-9918.759623,1554.432478,536.266849
2953.512831,-9474.636058,1850.514855,76.609550
2953.513169,-11325.150913,1628.453072,-306.438199
2953.513506,-11473.192101,1258.350101,-1225.752797
2953.513843,-9770.718434,-666.185348,-1608.800546
2953.514181,-9252.574275,-2664.741391,-536.266849
2953.514518,-9104.533087,-2738.761985,612.876398
2953.514856,-8660.409521,-2664.741391,0.000000
2953.515193,-9474.636058,-1924.535449,766.095498
2953.515530,-9992.780217,-2368.659014,0.000000
2953.515868,-11473.192101,-1332.370696,0.000000
2953.516205,-11769.274478,-1258.350101,-1225.752797
2953.516543,-9992.780217,-1998.556043,-766.095498
2953.516880,-8956.491898,-2516.700203,536.266849
2953.517217,-10288.862594,-2220.617826,2068.457845
2953.517555,-11177.109724,-1110.308913,2068.457845
2953.517892,-10881.027347,-518.144159,1378.971896
2953.518229,-10510.924376,-1036.288319,1149.143247
2953.518567,-11843.295072,-740.205942,1532.190996
2953.518904,-10658.965565,-518.144159,1149.143247
2953.519242,-9178.553681,-888.247130,1378.971896
2953.519579,-9622.677246,-1480.411884,1685.410096
2953.519916,-10362.883188,0.000000,766.095498
2953.520254,-10214.842000,1184.329507,0.000000
2953.520591,-9622.677246,1776.494261,-229.828649
2953.520929,-9548.656652,1036.288319,-689.485948
2953.521266,-11251.130318,888.247130,-766.095498
2953.521603,-10362.883188,296.082377,-2145.067394
2953.521941,-8586.388927,-1258.350101,-2068.457845
2953.522278,-7994.224174,-2368.659014,-153.219100
2953.522616,-8438.347739,-1776.494261,1532.190996
2953.522953,-7920.203579,0.000000,1149.143247
2953.523290,-8734.430116,592.164754,1302.362347
2953.523628,-10584.944971,1036.288319,766.095498
2953.523965,-12731.542202,814.226536,306.438199
2953.524303,-12139.377449,1554.432478,689.485948
2953.524640,-9474.636058,666.185348,766.095498
2953.524977,-9030.512492,370.102971,2068.457845
2953.525315,-10066.800811,0.000000,2221.676944
2953.525652,-9548.656652,1036.288319,383.047749
2953.525990,-9844.739029,518.144159,0.000000
2953.526327,-11177.109724,1184.329507,-153.219100
2953.526664,-11917.315666,888.247130,-1072.533697
2953.527002,-11325.150913,1480.411884,-1915.238745
2953.527339,-9252.574275,0.000000,-1762.019645
2953.527676,-8586.388927,0.000000,-766.095498
2953.528014,-9696.697840,-1036.288319,-306.438199
2953.528351,-9770.718434,-296.082377,-919.314598
2953.528689,-9178.553681,-1480.411884,-1685.410096
2953.529026,-10807.006753,-1554.432478,-1149.143247
2953.529363,-11251.130318,-2146.597232,-766.095498
2953.529701,-9844.739029,-2886.803174,-1608.800546
2953.530038,-7994.224174,-3108.864956,-153.219100
2953.530376,-8586.388927,-3701.029710,995.924147
2953.530713,-10140.821405,-3108.864956,1762.019645
2953.531050,-10436.903782,-1628.453072,1532.190996
2953.531388,-9548.656652,-444.123565,1455.581446
2953.531725,-10658.965565,296.082377,1915.238745
2953.532063,-12583.501014,814.226536,1532.190996
2953.532400,-10807.006753,592.164754,1149.143247
2953.532737,-9474.636058,-740.205942,2604.724693
2953.533075,-10288.862594,814.226536,2987.772442
2953.533412,-11029.068536,814.226536,1991.848295
2953.533750,-10510.924376,1776.494261,689.485948
2953.534087,-9548.656652,1036.288319,-612.876398
2953.534424,-10510.924376,1406.391290,0.000000
2953.534762,-9918.759623,1628.453072,-612.876398
2953.535099,-9326.594869,1258.350101,-383.047749
2953.535436,-9474.636058,0.000000,0.000000
2953.535774,-10066.800811,888.247130,-766.095498
2953.536111,-10658.965565,-296.082377,-612.876398
2953.536448,-9178.553681,0.000000,459.657299
2953.536786,-7698.141797,-888.247130,1378.971896
2953.537123,-10214.842000,-1184.329507,2068.457845
2953.537461,-9622.677246,-1184.329507,0.000000
2953.537798,-9178.553681,-962.267725,-229.828649
2953.538135,-9622.677246,-1258.350101,766.095498
2953.538473,-9770.718434,-1258.350101,-536.266849
2953.538810,-10288.862594,74.020594,0.000000
2953.539147,-9918.759623,0.000000,-459.657299
2953.539485,-8586.388927,370.102971,-689.485948
2953.539822,-10436.903782,-148.041188,689.485948
2953.540159,-11029.068536,0.000000,153.219100
2953.540497,-10140.821405,-444.123565,-306.438199
2953.540834,-10436.903782,-1110.308913,153.219100
2953.541171,-11103.089130,-444.123565,766.095498
2953.541509,-10881.027347,-444.123565,-459.657299
2953.541846,-10214.842000,0.000000,-459.657299
2953.542183,-9992.780217,-518.144159,-1455.581446
2953.542521,-10955.047942,-592.164754,-1378.971896
2953.542858,-11029.068536,-888.247130,-1302.362347
2953.543195,-10066.800811,-666.185348,-919.314598
2953.543533,-9474.636058,-1998.556043,-919.314598
2953.543870,-10140.821405,-1776.494261,-76.609550
2953.544207,-10140.821405,-1480.411884,459.657299
2953.544545,-8364.327145,-740.205942,612.876398
2953.544882,-9770.718434,-444.123565,1378.971896
2953.545219,-10732.986159,-1036.288319,2374.896044
2953.545557,-10214.842000,-222.061783,2145.067394
2953.545894,-9252.574275,0.000000,2911.162892
2953.546231,-10288.862594,814.226536,4519.963438
2953.546569,-10510.924376,296.082377,2681.334243
2953.546906,-9548.656652,1258.350101,1685.410096
2953.547244,-9030.512492,1258.350101,1225.752797
2953.547581,-9474.636058,1850.514855,306.438199
2953.547918,-10436.903782,1776.494261,306.438199
2953.548256,-10362.883188,1850.514855,-1455.581446
2953.548593,-9622.677246,740.205942,-153.219100
2953.548930,-9918.759623,1110.308913,-229.828649
2953.549268,-9104.533087,148.041188,-995.924147
2953.549605,-10362.883188,0.000000,0.000000
2953.549942,-9992.780217,-370.102971,-306.438199
2953.550280,-10140.821405,-1850.514855,-536.266849
2953.550617,-10436.903782,-1258.350101,0.000000
2953.550954,-10881.027347,-1702.473667,306.438199
2953.551292,-10140.821405,-1184.329507,-459.657299
2953.551629,-9992.780217,-1258.350101,-1225.752797
2953.551966,-10362.883188,-1110.308913,-995.924147
2953.552304,-10214.842000,-1258.350101,-1225.752797
2953.552641,-9696.697840,-1702.473667,0.000000
2953.552978,-9474.636058,-1480.411884,0.000000
2953.553316,-10214.842000,-1628.453072,766.095498
2953.553653,-10658.965565,-666.185348,1149.143247
2953.553990,-9548.656652,-1406.391290,919.314598
2953.554328,-10288.862594,-1036.288319,1838.629195
2953.554665,-10362.883188,-370.102971,1762.019645
2953.555002,-10658.965565,888.247130,306.438199
2953.555340,-9992.780217,-666.185348,0.000000
2953.555677,-9844.739029,370.102971,-689.485948
2953.556014,-10288.862594,-296.082377,-229.828649
2953.556352,-9918.759623,740.205942,-995.924147
2953.556689,-9474.636058,518.144159,-1762.019645
2953.557027,-9770.718434,370.102971,-1532.190996
2953.557364,-9474.636058,518.144159,-919.314598
2953.557701,-10066.800811,148.041188,0.000000
2953.558039,-10510.924376,-888.247130,1455.581446
2953.558376,-10066.800811,-592.164754,1225.752797
2953.558713,-10140.821405,-74.020594,2145.067394
2953.559051,-9474.636058,222.061783,2068.457845
2953.559388,-9474.636058,592.164754,2451.505594
2953.559725,-10658.965565,296.082377,1991.848295
2953.560063,-10510.924376,1258.350101,1149.143247
2953.560400,-10066.800811,1924.535449,612.876398
2953.560737,-10436.903782,1332.370696,689.485948
2953.561075,-10288.862594,592.164754,0.000000
2953.561412,-10066.800811,148.041188,0.000000
2953.561749,-9104.533087,444.123565,76.609550
2953.562087,-8586.388927,-296.082377,153.219100
2953.562424,-9252.574275,-296.082377,842.705048
2953.562761,-9548.656652,0.000000,766.095498
2953.563099,-10658.965565,296.082377,0.000000
2953.563436,-10955.047942,296.082377,-689.485948
2953.563773,-11251.130318,-518.144159,-842.705048
2953.564111,-10658.965565,-1480.411884,-612.876398
2953.564448,-9178.553681,-1702.473667,-1149.143247
2953.564785,-8512.368333,-2072.576638,-995.924147
2953.565123,-9252.574275,-1924.535449,-306.438199
2953.565460,-10362.883188,-1406.391290,-842.705048
2953.565797,-11103.089130,-1850.514855,-689.485948
2953.566135,-10510.924376,-1702.473667,-383.047749
2953.566472,-10584.944971,-2368.659014,1302.362347
2953.566810,-10732.986159,-1406.391290,3217.601092
2953.567147,-9252.574275,-296.082377,2911.162892
2953.567484,-9992.780217,370.102971,2374.896044
2953.567822,-10732.986159,370.102971,1838.629195
2953.568159,-11177.109724,74.020594,995.924147
2953.568496,-11547.212695,1332.370696,766.095498
2953.568834,-10140.821405,1110.308913,-612.876398
2953.569171,-9474.636058,1480.411884,-536.266849
2953.569508,-9252.574275,592.164754,-459.657299
2953.569846,-8734.430116,740.205942,-689.485948
2953.570183,-8290.306550,222.061783,76.609550
2953.570520,-9992.780217,444.123565,536.266849
2953.570858,-10807.006753,518.144159,-536.266849
2953.571195,-9992.780217,888.247130,-1149.143247
2953.571532,-9844.739029,-74.020594,-536.266849
2953.571870,-9770.718434,-1332.370696,76.609550
2953.572207,-9474.636058,-1628.453072,919.314598
2953.572544,-9178.553681,-1628.453072,2068.457845
2953.572882,-8808.450710,-2220.617826,1072.533697
2953.573219,-9844.739029,-1258.350101,1455.581446
2953.573556,-10881.027347,-296.082377,919.314598
2953.573894,-10436.903782,-518.144159,153.219100
2953.574231,-9844.739029,-444.123565,0.000000
2953.574568,-10658.965565,0.000000,995.924147
2953.574906,-10881.027347,0.000000,306.438199
2953.575243,-9548.656652,-148.041188,383.047749
2953.575580,-9918.759623,0.000000,689.485948
2953.575918,-10807.006753,-296.082377,1991.848295
2953.576255,-11621.233289,222.061783,306.438199
2953.576593,-11177.109724,0.000000,0.000000
2953.576930,-10288.862594,-1184.329507,153.219100
2953.577267,-10510.924376,-1110.308913,-76.609550
2953.577605,-11325.150913,-740.205942,-383.047749
2953.577942,-9474.636058,-814.226536,-766.095498
2953.578279,-8882.471304,-518.144159,-689.485948
2953.578617,-9992.780217,-518.144159,-536.266849
2953.578954,-10066.800811,518.144159,-1685.410096
2953.579291,-9992.780217,-370.102971,-1149.143247
2953.579629,-10214.842000,-1258.350101,-536.266849
2953.579966,-9844.739029,-1110.308913,0.000000
2953.580303,-9252.574275,-814.226536,766.095498
2953.580641,-7994.224174,-1332.370696,1915.238745
2953.580978,-7846.182985,0.000000,3064.381992
2953.581315,-9844.739029,1036.288319,2757.943793
2953.581653,-10807.006753,2294.638420,1532.190996
2953.581990,-11029.068536,2220.617826,0.000000
2953.582327,-11029.068536,2072.576638,-229.828649
2953.582665,-10732.986159,962.267725,306.438199
2953.583002,-9104.533087,1924.535449,383.047749
2953.583339,-7772.162391,1776.494261,459.657299
2953.583677,-9178.553681,1184.329507,919.314598
2953.584014,-10955.047942,1628.453072,-76.609550
2953.584351,-11399.171507,2220.617826,-1455.581446
2953.584689,-11547.212695,1480.411884,-1455.581446
2953.585026,-11177.109724,74.020594,-1838.629195
2953.585363,-10881.027347,-1332.370696,-1532.190996
2953.585701,-8660.409521,-962.267725,-1072.533697
2953.586038,-7846.182985,-2442.679609,76.609550
2953.586376,-9104.533087,-2442.679609,1532.190996
2953.586713,-10658.965565,-888.247130,229.828649
2953.587050,-11251.130318,-814.226536,-459.657299
2953.587388,-11103.089130,-1628.453072,-536.266849
2953.587725,-10140.821405,-2146.597232,0.000000
2953.588062,-10066.800811,-2960.823768,1455.581446
2953.588400,-9252.574275,-2072.576638,2145.067394
2953.588737,-7846.182985,-1998.556043,2145.067394
2953.589074,-9770.718434,-962.267725,2298.286494
2953.589412,-11177.109724,0.000000,1302.362347
2953.589749,-10807.006753,666.185348,-383.047749
2953.590086,-10732.986159,-74.020594,0.000000
2953.590424,-10658.965565,-370.102971,0.000000
2953.590761,-11029.068536,-1554.432478,0.000000
2953.591098,-9474.636058,-962.267725,306.438199
2953.591436,-7624.121203,-962.267725,536.266849
2953.591773,-9992.780217,74.020594,1378.971896
2953.592110,-11843.295072,1110.308913,0.000000
2953.592448,-10807.006753,740.205942,-1608.800546
2953.592785,-10807.006753,-148.041188,-1225.752797
2953.593122,-10584.944971,-814.226536,-459.657299
2953.593460,-10510.924376,-1036.288319,229.828649
2953.593797,-7994.224174,-666.185348,0.000000
2953.594134,-7624.121203,-1258.350101,1149.143247
2953.594472,-9918.759623,-148.041188,2374.896044
2953.594809,-10436.903782,370.102971,1532.190996
2953.595146,-10362.883188,1184.329507,842.705048
2953.595484,-10436.903782,518.144159,1378.971896
2953.595821,-10807.006753,1110.308913,536.266849
2953.596159,-11177.109724,222.061783,153.219100
2953.596496,-8808.450710,-370.102971,689.485948
2953.596833,-7105.977043,-740.205942,1149.143247
2953.597171,-9252.574275,-148.041188,2145.067394
2953.597508,-10658.965565,518.144159,306.438199
2953.597845,-9992.780217,888.247130,-1455.581446
2953.598183,-10807.006753,74.020594,-689.485948
2953.598520,-11325.150913,-592.164754,-612.876398
2953.598857,-11251.130318,-814.226536,-612.876398
2953.599195,-9326.594869,-1036.288319,-689.485948
2953.599532,-8068.244768,-1850.514855,-306.438199
2953.599869,-10732.986159,-962.267725,306.438199
2953.600207,-10955.047942,-518.144159,-536.266849
2953.600544,-10955.047942,-962.267725,-995.924147
2953.600881,-11251.130318,-1406.391290,-536.266849
2953.601219,-11621.233289,-1998.556043,0.000000
2953.601556,-10066.800811,-1998.556043,0.000000
2953.601893,-8734.430116,-2738.761985,1455.581446
2953.602231,-8734.430116,-1776.494261,2451.505594
2953.602568,-10140.821405,-1036.288319,2604.724693
2953.602905,-10955.047942,1332.370696,1991.848295
2953.603243,-9918.759623,1924.535449,1455.581446
2953.603580,-10584.944971,1628.453072,1838.629195
2953.603917,-11991.336260,1110.308913,842.705048
2953.604255,-11325.150913,1258.350101,76.609550
2953.604592,-8956.491898,592.164754,306.438199
2953.604929,-8216.285956,0.000000,1455.581446
2953.605267,-9252.574275,222.061783,1608.800546
2953.605604,-8734.430116,1776.494261,0.000000
2953.605942,-8734.430116,1628.453072,-766.095498
2953.606279,-10732.986159,1036.288319,-919.314598
2953.606616,-11547.212695,666.185348,-1991.848295
2953.606954,-9844.739029,592.164754,-1455.581446
2953.607291,-8956.491898,-962.267725,-689.485948
2953.607628,-7846.182985,-666.185348,536.266849
2953.607966,-10066.800811,-666.185348,1762.019645
2953.608303,-10214.842000,0.000000,1072.533697
2953.608640,-10214.842000,222.061783,0.000000
2953.608978,-11547.212695,0.000000,0.000000
2953.609315,-11917.315666,-814.226536,-306.438199
2953.609652,-10214.842000,-1258.350101,-612.876398
2953.609990,-8734.430116,-962.267725,689.485948
2953.610327,-7994.224174,-740.205942,1072.533697
2953.610664,-10140.821405,-444.123565,1455.581446
2953.611002,-10658.965565,592.164754,766.095498
2953.611339,-10362.883188,592.164754,-919.314598
2953.611676,-11843.295072,444.123565,-383.047749
2953.612014,-12435.459826,-962.267725,-689.485948
2953.612351,-10214.842000,-1776.494261,-1225.752797
2953.612688,-8290.306550,-3330.926739,0.000000
2953.613026,-8216.285956,-2072.576638,1532.190996
2953.613363,-10140.821405,-1850.514855,766.095498
2953.613700,-10066.800811,-222.061783,-766.095498
2953.614038,-10288.862594,-888.247130,-1685.410096
2953.614375,-11991.336260,-1110.308913,-1149.143247
2953.614712,-11843.295072,-1480.411884,-612.876398
2953.615050,-10066.800811,-1850.514855,-306.438199
2953.615387,-7846.182985,-2442.679609,842.705048
2953.615725,-7550.100608,-1258.350101,2298.286494
2953.616062,-10584.944971,-1110.308913,3294.210641
2953.616399,-9770.718434,888.247130,2451.505594
2953.616737,-10658.965565,1554.432478,1608.800546
2953.617074,-12287.418637,1924.535449,2068.457845
2953.617411,-11547.212695,1184.329507,383.047749
2953.617749,-9844.739029,1258.350101,689.485948
2953.618086,-8586.388927,0.000000,1685.410096
2953.618423,-7920.203579,666.185348,2221.676944
2953.618761,-9770.718434,2146.597232,1378.971896
2953.619098,-9770.718434,2220.617826,0.000000
2953.619435,-10140.821405,1332.370696,-1225.752797
2953.619773,-11473.192101,518.144159,-995.924147
2953.620110,-10436.903782,148.041188,-1608.800546
2953.620447,-9104.533087,-592.164754,-1532.190996
2953.620785,-7031.956449,-2220.617826,-1225.752797
2953.621122,-7920.203579,-1702.473667,919.314598
2953.621459,-9178.553681,-962.267725,0.000000
2953.621797,-10732.986159,0.000000,-229.828649
2953.622134,-11177.109724,-444.123565,-1685.410096
2953.622471,-11621.233289,-666.185348,-1072.533697
2953.622809,-12065.356855,-1776.494261,-842.705048
2953.623146,-9326.594869,-1924.535449,-153.219100
2953.623483,-7994.224174,-3182.885551,1455.581446
2953.623821,-9178.553681,-2738.761985,2987.772442
2953.624158,-9696.697840,-1332.370696,1378.971896
2953.624495,-10436.903782,296.082377,1608.800546
2953.624833,-11917.315666,1184.329507,995.924147
2953.625170,-12287.418637,740.205942,-459.657299
2953.625508,-11991.336260,962.267725,-919.314598
2953.625845,-9474.636058,74.020594,-766.095498
2953.626182,-9030.512492,-1554.432478,612.876398
2953.626520,-9548.656652,-1406.391290,1378.971896
2953.626857,-9178.553681,-148.041188,1072.533697
2953.627194,-10066.800811,1036.288319,76.609550
2953.627532,-10214.842000,1258.350101,-2221.676944
2953.627869,-11325.150913,444.123565,-1302.362347
2953.628206,-11251.130318,0.000000,-689.485948
2953.628544,-9104.533087,-1406.391290,-689.485948
2953.628881,-8364.327145,-666.185348,842.705048
2953.629218,-8364.327145,-296.082377,1455.581446
2953.629556,-9474.636058,74.020594,1685.410096
2953.629893,-9548.656652,222.061783,1838.629195
2953.630230,-9844.739029,222.061783,1532.190996
2953.630568,-11547.212695,444.123565,2298.286494
2953.630905,-11547.212695,-148.041188,995.924147
2953.631242,-9252.574275,148.041188,0.000000
2953.631580,-9104.533087,-296.082377,689.485948
2953.631917,-9326.594869,-296.082377,1532.190996
2953.632254,-8364.327145,888.247130,1225.752797
2953.632592,-9622.677246,1480.411884,842.705048
2953.632929,-11103.089130,1480.411884,-536.266849
2953.633266,-12731.542202,666.185348,-1685.410096
2953.633604,-12287.418637,370.102971,-995.924147
2953.633941,-9844.739029,-1850.514855,-1532.190996
2953.634279,-7994.224174,-1628.453072,-536.266849
2953.634616,-8512.368333,-2146.597232,766.095498
2953.634953,-9992.780217,-1036.288319,0.000000
2953.635291,-10140.821405,-740.205942,-1378.971896
2953.635628,-11177.109724,-222.061783,-2068.457845
2953.635965,-12657.521608,-740.205942,-842.705048
2953.636302,-12213.398043,-888.247130,-1608.800546
2953.636640,-9992.780217,-2294.638420,0.000000
2953.636977,-7550.100608,-2960.823768,1149.143247
2953.637314,-8364.327145,-2220.617826,3217.601092
2953.637652,-9548.656652,-444.123565,3064.381992
2953.637989,-10436.903782,0.000000,1838.629195
2953.638326,-11251.130318,1776.494261,919.314598
2953.638663,-12139.377449,1480.411884,-306.438199
2953.639001,-11621.233289,1406.391290,-459.657299
2953.639338,-8438.347739,740.205942,-689.485948
2953.639675,-7476.080014,-296.082377,1072.533697
2953.640012,-8512.368333,888.247130,1532.190996
2953.640350,-9104.533087,1036.288319,919.314598
2953.640687,-9992.780217,1406.391290,995.924147
2953.641024,-10436.903782,1184.329507,766.095498
2953.641361,-12139.377449,1110.308913,306.438199
2953.641699,-10732.986159,1036.288319,-766.095498
2953.642036,-8586.388927,-518.144159,-1149.143247
2953.642373,-8216.285956,-1036.288319,0.000000
2953.642710,-9252.574275,-740.205942,995.924147
2953.643048,-9770.718434,814.226536,229.828649
2953.643385,-9770.718434,0.000000,-689.485948
2953.643722,-10584.944971,370.102971,-1225.752797
2953.644059,-11473.192101,0.000000,-612.876398
2953.644397,-10881.027347,-740.205942,-306.438199
2953.644734,-8808.450710,-1628.453072,612.876398
2953.645071,-9252.574275,-2442.679609,2451.505594
2953.645408,-10658.965565,-1554.432478,2911.162892
2953.645746,-9992.780217,-444.123565,2068.457845
2953.646083,-9548.656652,0.000000,766.095498
2953.646420,-10955.047942,0.000000,536.266849
2953.646757,-11917.315666,-296.082377,-766.095498
2953.647095,-10658.965565,74.020594,-1991.848295
2953.647432,-8438.347739,-1480.411884,-2145.067394
2953.647769,-8956.491898,-2738.761985,-383.047749
2953.648106,-9104.533087,-2812.782580,-459.657299
2953.648444,-9400.615463,-1850.514855,383.047749
2953.648781,-9622.677246,-1258.350101,-612.876398
2953.649118,-10658.965565,-1110.308913,-459.657299
2953.649455,-11991.336260,-1406.391290,-153.219100
2953.649793,-11473.192101,-1554.432478,-919.314598
2953.650130,-9400.615463,-2220.617826,0.000000
2953.650467,-9474.636058,-1628.453072,2221.676944
2953.650804,-9474.636058,-1184.329507,1378.971896
2953.651142,-9770.718434,74.020594,1225.752797
2953.651479,-10214.842000,-222.061783,1225.752797
2953.651816,-11251.130318,814.226536,919.314598
2953.652153,-12065.356855,1110.308913,689.485948
2953.652491,-10658.965565,1628.453072,1225.752797
2953.652828,-7994.224174,370.102971,766.095498
2953.653165,-8956.491898,666.185348,2528.115143
2953.653502,-9770.718434,592.164754,2374.896044
2953.653840,-9030.512492,1406.391290,1532.190996
2953.654177,-9474.636058,2368.659014,383.047749
2953.654514,-10955.047942,1850.514855,0.000000
2953.654852,-12139.377449,1998.556043,-1378.971896
2953.655189,-9178.553681,592.164754,-2451.505594
2953.655526,-8512.368333,-74.020594,-689.485948
2953.655863,-9030.512492,-1628.453072,306.438199
2953.656201,-9252.574275,-1258.350101,-229.828649
2953.656538,-8808.450710,-888.247130,-383.047749
2953.656875,-8956.491898,-1110.308913,-76.609550
2953.657212,-10955.047942,444.123565,0.000000
2953.657550,-12805.562797,-148.041188,-1149.143247
2953.657887,-10436.903782,-740.205942,-1532.190996
2953.658224,-9400.615463,-2072.576638,-153.219100
2953.658561,-9770.718434,-1850.514855,1762.019645
2953.658899,-9992.780217,-814.226536,2145.067394
2953.659236,-9918.759623,-888.247130,1072.533697
2953.659573,-9770.718434,-740.205942,383.047749
2953.659910,-11029.068536,518.144159,153.219100
2953.660248,-11843.295072,370.102971,0.000000
2953.660585,-10362.883188,-296.082377,0.000000
2953.660922,-8882.471304,-444.123565,689.485948
2953.661259,-9918.759623,222.061783,2221.676944
2953.661597,-10362.883188,444.123565,842.705048
2953.661934,-10140.821405,1036.288319,612.876398
2953.662271,-10584.944971,518.144159,536.266849
2953.662608,-11621.233289,444.123565,0.000000
2953.662946,-11325.150913,666.185348,-1378.971896
2953.663283,-8734.430116,-666.185348,-1302.362347
2953.663620,-8586.388927,-1554.432478,-459.657299
2953.663957,-8956.491898,-1554.432478,-153.219100
2953.664295,-9178.553681,148.041188,612.876398
2953.664632,-9104.533087,-370.102971,766.095498
2953.664969,-9252.574275,222.061783,536.266849
2953.665306,-11251.130318,592.164754,1225.752797
2953.665644,-10955.047942,1036.288319,306.438199
2953.665981,-9252.574275,0.000000,1378.971896
2953.666318,-9770.718434,-1184.329507,2757.943793
2953.666655,-9844.739029,148.041188,2451.505594
2953.666993,-10140.821405,444.123565,2451.505594
2953.667330,-10510.924376,518.144159,1455.581446
2953.667667,-10140.821405,666.185348,-76.609550
2953.668004,-11029.068536,1036.288319,-153.219100
2953.668342,-9992.780217,888.247130,-1685.410096
2953.668679,-8364.327145,-370.102971,-1838.629195
2953.669016,-10066.800811,-1406.391290,-383.047749
2953.669353,-11029.068536,-1776.494261,-689.485948
2953.669691,-9770.718434,-666.185348,-842.705048
2953.670028,-9326.594869,-444.123565,-1225.752797
2953.670365,-10214.842000,-1554.432478,-1072.533697
2953.670703,-11621.233289,-2294.638420,-459.657299
2953.671040,-10955.047942,-2442.679609,-995.924147
2953.671377,-9326.594869,-2886.803174,-536.266849
2953.671714,-9474.636058,-2368.659014,0.000000
2953.672052,-10362.883188,-2072.576638,689.485948
2953.672389,-9104.533087,-1702.473667,-536.266849
2953.672726,-8956.491898,-1554.432478,612.876398
2953.673063,-10066.800811,-296.082377,1685.410096
2953.673401,-11843.295072,-592.164754,1455.581446
2953.673738,-11103.089130,370.102971,1072.533697
2953.674075,-9992.780217,74.020594,842.705048
2953.674412,-10288.862594,0.000000,2068.457845
2953.674750,-9918.759623,296.082377,2221.676944
2953.675087,-9622.677246,1406.391290,1532.190996
2953.675424,-9770.718434,962.267725,689.485948
2953.675761,-9844.739029,2072.576638,0.000000
2953.676099,-11251.130318,1702.473667,76.609550
2953.676436,-10214.842000,1036.288319,-459.657299
2953.676773,-8364.327145,444.123565,-1072.533697
2953.677110,-9770.718434,1036.288319,306.438199
2953.677448,-9844.739029,148.041188,0.000000
2953.677785,-8808.450710,0.000000,-459.657299
2953.678122,-9252.574275,-1110.308913,536.266849
2953.678459,-9474.636058,666.185348,919.314598
2953.678797,-11399.171507,370.102971,1302.362347
2953.679134,-11399.171507,814.226536,153.219100
2953.679471,-8364.327145,0.000000,-459.657299
2953.679808,-10140.821405,-666.185348,1685.410096
2953.680146,-10214.842000,-148.041188,1915.238745
2953.680483,-10140.821405,-592.164754,1149.143247
2953.680820,-9474.636058,-148.041188,1072.533697
2953.681157,-10510.924376,-222.061783,1455.581446
2953.681495,-10807.006753,296.082377,459.657299
2953.681832,-10362.883188,74.020594,689.485948
2953.682169,-10066.800811,-74.020594,0.000000
2953.682506,-10510.924376,0.000000,-306.438199
2953.682844,-10436.903782,-518.144159,-1455.581446
2953.683181,-9474.636058,-592.164754,-1378.971896
2953.683518,-9178.553681,-2072.576638,-919.314598
2953.683855,-10066.800811,-1258.350101,0.000000
2953.684193,-10510.924376,-1480.411884,-306.438199
2953.684530,-10066.800811,-1110.308913,-919.314598
2953.684867,-9770.718434,-1850.514855,-229.828649
2953.685204,-10658.965565,-2072.576638,459.657299
2953.685542,-10584.944971,-888.247130,0.000000
2953.685879,-10214.842000,-962.267725,0.000000
2953.686216,-9770.718434,-740.205942,0.000000
2953.686554,-10732.986159,-444.123565,0.000000
2953.686891,-11399.171507,0.000000,1455.581446
2953.687228,-10140.821405,888.247130,1149.143247
2953.687565,-9770.718434,74.020594,1838.629195
2953.687903,-10288.862594,592.164754,3447.429741
2953.688240,-9770.718434,1184.329507,2068.457845
2953.688577,-9400.615463,1258.350101,2068.457845
2953.688914,-9548.656652,1406.391290,1302.362347
2953.689252,-10288.862594,1406.391290,229.828649
2953.689589,-10214.842000,1554.432478,-766.095498
2953.689926,-8956.491898,962.267725,-995.924147
2953.690263,-8438.347739,1776.494261,-1532.190996
2953.690601,-10288.862594,888.247130,-689.485948
2953.690938,-10214.842000,666.185348,-1149.143247
2953.691275,-9474.636058,-444.123565,-1455.581446
2953.691612,-9548.656652,-1628.453072,-766.095498
2953.691950,-9622.677246,-2664.741391,1072.533697
2953.692287,-10140.821405,-2294.638420,1378.971896
2953.692624,-9918.759623,-1184.329507,1378.971896
2953.692961,-9844.739029,-814.226536,306.438199
2953.693299,-10732.986159,0.000000,306.438199
2953.693636,-11695.253884,-370.102971,-995.924147
2953.693973,-11177.109724,-296.082377,-919.314598
2953.694310,-10658.965565,-666.185348,153.219100
2953.694648,-10510.924376,-1406.391290,1532.190996
2953.694985,-9992.780217,-1184.329507,1378.971896
2953.695322,-9252.574275,-666.185348,1072.533697
2953.695659,-9474.636058,148.041188,995.924147
2953.695997,-10955.047942,-518.144159,1072.533697
2953.696334,-9622.677246,222.061783,0.000000
2953.696671,-10066.800811,888.247130,-689.485948
2953.697008,-10214.842000,0.000000,-612.876398
2953.697346,-9622.677246,74.020594,-766.095498
2953.697683,-9474.636058,-148.041188,-459.657299
2953.698020,-8734.430116,-518.144159,0.000000
2953.698357,-8956.491898,0.000000,306.438199
2953.698695,-10510.924376,-814.226536,612.876398
2953.699032,-10436.903782,-1036.288319,-229.828649
2953.699369,-10658.965565,-518.144159,76.609550
2953.699706,-10066.800811,-222.061783,612.876398
2953.700044,-10214.842000,-444.123565,536.266849
2953.700381,-9918.759623,444.123565,919.314598
2953.700718,-9474.636058,444.123565,919.314598
2953.701055,-9770.718434,296.082377,919.314598
2953.701393,-10807.006753,1480.411884,689.485948
2953.701730,-11029.068536,1110.308913,1072.533697
2953.702067,-10584.944971,1776.494261,766.095498
2953.702405,-10066.800811,814.226536,995.924147
2953.702742,-10955.047942,592.164754,1915.238745
2953.703079,-9770.718434,666.185348,919.314598
2953.703416,-9918.759623,-222.061783,1072.533697
2953.703754,-8956.491898,0.000000,1072.533697
2953.704091,-9252.574275,0.000000,229.828649
2953.704428,-10436.903782,370.102971,0.000000
2953.704765,-10658.965565,-666.185348,-612.876398
2953.705103,-9326.594869,-962.267725,-1838.629195
2953.705440,-9918.759623,-1554.432478,-1455.581446
2953.705777,-9474.636058,-1554.432478,-1072.533697
2953.706114,-9252.574275,-3478.967927,-383.047749
2953.706452,-9474.636058,-3330.926739,229.828649
2953.706789,-9844.739029,-2220.617826,1072.533697
2953.707126,-11029.068536,-1480.411884,919.314598
2953.707463,-10436.903782,-1850.514855,-383.047749
2953.707801,-10436.903782,-2738.761985,383.047749
2953.708138,-11029.068536,-2072.576638,1149.143247
2953.708475,-9770.718434,-888.247130,766.095498
2953.708812,-9178.553681,-888.247130,1608.800546
2953.709150,-9474.636058,-370.102971,1532.190996
2953.709487,-11029.068536,444.123565,1838.629195
2953.709824,-11695.253884,1480.411884,1455.581446
2953.710161,-11029.068536,1110.308913,0.000000
2953.710499,-11029.068536,518.144159,536.266849
2953.710836,-10955.047942,74.020594,-383.047749
2953.711173,-8808.450710,740.205942,-306.438199
2953.711510,-8068.244768,444.123565,1302.362347
2953.711848,-9104.533087,518.144159,536.266849
2953.712185,-9918.759623,1110.308913,-689.485948
2953.712522,-10658.965565,1850.514855,-1302.362347
2953.712859,-9326.594869,0.000000,-1532.190996
2953.713197,-10066.800811,-592.164754,-995.924147
2953.713534,-9696.697840,-1110.308913,0.000000
2953.713871,-8216.285956,-962.267725,153.219100
2953.714208,-7476.080014,-888.247130,919.314598
2953.714546,-9696.697840,74.020594,1685.410096
2953.714883,-10732.986159,518.144159,0.000000
2953.715220,-9992.780217,0.000000,-306.438199
2953.715557,-10214.842000,592.164754,0.000000
2953.715895,-10881.027347,0.000000,306.438199
2953.716232,-11103.089130,592.164754,306.438199
2953.716569,-9474.636058,-370.102971,842.705048
2953.716906,-8586.388927,0.000000,1838.629195
2953.717244,-10658.965565,370.102971,2068.457845
2953.717581,-11399.171507,518.144159,0.000000
2953.717918,-10066.800811,814.226536,-536.266849
2953.718255,-10807.006753,148.041188,-383.047749
2953.718593,-11177.109724,-74.020594,-1149.143247
2953.718930,-10732.986159,-1036.288319,-1072.533697
2953.719267,-9474.636058,-1036.288319,0.000000
2953.719605,-8512.368333,-1776.494261,-459.657299
2953.719942,-9844.739029,-740.205942,766.095498
2953.720279,-10955.047942,-1554.432478,842.705048
2953.720616,-11029.068536,-1110.308913,612.876398
2953.720954,-10658.965565,-1406.391290,-229.828649
2953.721291,-10881.027347,-1480.411884,459.657299
2953.721628,-9844.739029,-1702.473667,536.266849
2953.721965,-7920.203579,-2072.576638,1072.533697
2953.722303,-8216.285956,-1628.453072,2528.115143
2953.722640,-9918.759623,74.020594,2681.334243
2953.722977,-11177.109724,1480.411884,1455.581446
2953.723314,-10510.924376,1406.391290,536.266849
2953.723652,-10214.842000,1036.288319,689.485948
2953.723989,-10362.883188,148.041188,1608.800546
2953.724326,-10214.842000,296.082377,995.924147
2953.724663,-8364.327145,0.000000,995.924147
2953.725001,-8586.388927,0.000000,1455.581446
2953.725338,-10066.800811,888.247130,919.314598
2953.725675,-10510.924376,2294.638420,-766.095498
2953.726012,-10881.027347,1406.391290,-1838.629195
2953.726350,-11399.171507,592.164754,-1762.019645
2953.726687,-11103.089130,-296.082377,-2681.334243
2953.727024,-9770.718434,-1480.411884,-2757.943793
2953.727361,-8290.306550,-2368.659014,-766.095498
2953.727699,-8216.285956,-3108.864956,1072.533697
2953.728036,-9474.636058,-1702.473667,1455.581446
2953.728373,-10807.006753,-962.267725,612.876398
2953.728710,-11177.109724,-666.185348,-76.609550
2953.729048,-11695.253884,-1184.329507,0.000000
2953.729385,-12065.356855,-1480.411884,306.438199
2953.729722,-10214.842000,-1184.329507,0.000000
2953.730059,-8364.327145,-1480.411884,689.485948
2953.730397,-8512.368333,-1110.308913,1838.629195
2953.730734,-9474.636058,-666.185348,1149.143247
2953.731071,-10214.842000,962.267725,76.609550
2953.731408,-10955.047942,0.000000,0.000000
2953.731746,-11547.212695,222.061783,-459.657299
2953.732083,-11325.150913,-74.020594,-383.047749
2953.732420,-9178.553681,296.082377,0.000000
2953.732757,-7698.141797,-1036.288319,1149.143247
2953.733095,-9178.553681,-222.061783,2528.115143
2953.733432,-10732.986159,222.061783,1072.533697
2953.733769,-10140.821405,1036.288319,-459.657299
2953.734106,-10436.903782,962.267725,-1149.143247
2953.734444,-11325.150913,-370.102971,-766.095498
2953.734781,-11917.315666,-444.123565,-612.876398
2953.735118,-9252.574275,-1480.411884,0.000000
2953.735456,-7698.141797,-1554.432478,1532.190996
2953.735793,-8290.306550,-814.226536,2681.334243
2953.736130,-9844.739029,-666.185348,2681.334243
2953.736467,-10214.842000,1776.494261,2451.505594
2953.736805,-10732.986159,2590.720797,1225.752797
2953.737142,-12509.480420,2146.597232,612.876398
2953.737479,-11991.336260,1406.391290,-612.876398
2953.737816,-8882.471304,370.102971,0.000000
2953.738154,-7772.162391,-518.144159,1072.533697
2953.738491,-7846.182985,0.000000,1378.971896
2953.738828,-9326.594869,592.164754,1072.533697
2953.739166,-10288.862594,370.102971,0.000000
2953.739503,-10140.821405,-444.123565,-1532.190996
2953.739840,-10436.903782,222.061783,-689.485948
2953.740178,-11029.068536,-740.205942,-1072.533697
2953.740515,-9178.553681,-814.226536,-1915.238745
2953.740852,-8734.430116,-1850.514855,-1838.629195
2953.741190,-10140.821405,-1628.453072,-536.266849
2953.741527,-10436.903782,-1258.350101,-1072.533697
2953.741864,-10066.800811,-962.267725,-153.219100
2953.742202,-10955.047942,-1184.329507,-689.485948
2953.742539,-11917.315666,-1702.473667,-1072.533697
2953.742876,-11547.212695,-1702.473667,-2068.457845
2953.743214,-9622.677246,-2516.700203,229.828649
2953.743551,-8512.368333,-2960.823768,1685.410096
2953.743888,-9252.574275,-1480.411884,2451.505594
2953.744226,-10214.842000,222.061783,2757.943793
2953.744563,-10510.924376,962.267725,2068.457845
2953.744900,-10955.047942,1406.391290,919.314598
2953.745238,-11991.336260,740.205942,1378.971896
2953.745575,-11769.274478,740.205942,0.000000
2953.745912,-8808.450710,-222.061783,76.609550
2953.746250,-8142.265362,-1110.308913,383.047749
2953.746587,-7624.121203,-444.123565,1608.800546
2953.746924,-9030.512492,444.123565,612.876398
2953.747262,-9252.574275,1406.391290,0.000000
2953.747599,-9474.636058,1480.411884,-1378.971896
2953.747936,-12065.356855,1702.473667,-536.266849
2953.748274,-12139.377449,1036.288319,-1378.971896
2953.748611,-9030.512492,-666.185348,-689.485948
2953.748948,-9030.512492,-1850.514855,1225.752797
2953.749286,-8660.409521,-888.247130,1838.629195
2953.749623,-8438.347739,0.000000,2068.457845
2953.749960,-10362.883188,222.061783,2068.457845
2953.750298,-11769.274478,0.000000,0.000000
2953.750635,-12287.418637,370.102971,-536.266849
2953.750972,-11029.068536,0.000000,-919.314598
2953.751310,-8882.471304,-666.185348,-306.438199
2953.751647,-8290.306550,-1258.350101,919.314598
2953.751984,-8956.491898,-1184.329507,2145.067394
2953.752322,-8882.471304,518.144159,459.657299
2953.752659,-9992.780217,518.144159,1149.143247
2953.752996,-11917.315666,814.226536,-383.047749
2953.753334,-12953.603985,-444.123565,-1225.752797
2953.753671,-10955.047942,-1554.432478,-1378.971896
2953.754008,-7994.224174,-2368.659014,-1302.362347
2953.754346,-7772.162391,-2368.659014,-306.438199
2953.754683,-8068.244768,-1850.514855,-153.219100
2953.755020,-9252.574275,-740.205942,-612.876398
2953.755358,-10362.883188,-666.185348,-1302.362347
2953.755695,-11547.212695,74.020594,-1302.362347
2953.756032,-13175.665768,-740.205942,306.438199
2953.756370,-11103.089130,-1702.473667,383.047749
2953.756707,-8956.491898,-1776.494261,919.314598
2953.757044,-9474.636058,-2664.741391,2987.772442
2953.757382,-10066.800811,-1998.556043,2911.162892
2953.757719,-9474.636058,0.000000,2451.505594
2953.758056,-10658.965565,740.205942,1685.410096
2953.758394,-10807.006753,2146.597232,-306.438199
2953.758731,-11843.295072,1480.411884,-1149.143247
2953.759068,-10807.006753,888.247130,-612.876398
2953.759406,-8586.388927,518.144159,689.485948
2953.759743,-8882.471304,1036.288319,2068.457845
2953.760080,-9474.636058,740.205942,2374.896044
2953.760418,-9474.636058,1850.514855,1532.190996
2953.760755,-9918.759623,1406.391290,995.924147
2953.761092,-10732.986159,1258.350101,-153.219100
2953.761430,-12139.377449,0.000000,-842.705048
2953.761767,-10362.883188,-222.061783,-1608.800546
2953.762104,-8882.471304,-888.247130,-1838.629195
2953.762442,-8142.265362,-1776.494261,-689.485948
2953.762779,-8142.265362,-1998.556043,-306.438199
2953.763116,-8364.327145,-296.082377,-459.657299
2953.763454,-9770.718434,-740.205942,-1149.143247
2953.763791,-11177.109724,-666.185348,-76.609550
2953.764128,-12213.398043,-1480.411884,-153.219100
2953.764466,-11103.089130,-1406.391290,842.705048
2953.764803,-9696.697840,-2590.720797,1991.848295
2953.765140,-9622.677246,-2442.679609,2528.115143
2953.765478,-10214.842000,-1258.350101,2145.067394
2953.765815,-9474.636058,-370.102971,1455.581446
2953.766152,-10140.821405,518.144159,0.000000
2953.766490,-10732.986159,666.185348,-689.485948
2953.766827,-12435.459826,592.164754,-1302.362347
2953.767164,-11399.171507,592.164754,-1838.629195
2953.767502,-8660.409521,-1258.350101,-919.314598
2953.767839,-8364.327145,-1110.308913,1149.143247
2953.768176,-8956.491898,-592.164754,766.095498
2953.768514,-9474.636058,370.102971,919.314598
2953.768851,-10510.924376,444.123565,-383.047749
2953.769188,-10807.006753,74.020594,-689.485948
2953.769526,-11177.109724,0.000000,-919.314598
2953.769863,-10362.883188,-444.123565,-842.705048
2953.770200,-8364.327145,-1184.329507,-766.095498
2953.770538,-8438.347739,-1258.350101,766.095498
2953.770875,-9252.574275,0.000000,536.266849
2953.771212,-8364.327145,962.267725,612.876398
2953.771550,-10362.883188,740.205942,1685.410096
2953.771887,-11621.233289,592.164754,1762.019645
2953.772224,-11621.233289,962.267725,1149.143247
2953.772562,-10658.965565,1406.391290,1685.410096
2953.772899,-9178.553681,0.000000,1225.752797
2953.773236,-9474.636058,592.164754,2221.676944
2953.773574,-9474.636058,888.247130,1455.581446
2953.773911,-9548.656652,1776.494261,766.095498
2953.774248,-10140.821405,1776.494261,-536.266849
2953.774586,-11029.068536,1110.308913,-1149.143247
2953.774923,-11399.171507,74.020594,-1838.629195
2953.775260,-9992.780217,-666.185348,-2451.505594
2953.775598,-8364.327145,-1628.453072,-1378.971896
2953.775935,-8438.347739,-2220.617826,0.000000
2953.776272,-8882.471304,-1924.535449,459.657299
2953.776610,-9696.697840,-1036.288319,536.266849
2953.776947,-10955.047942,-1110.308913,1455.581446
2953.777284,-11991.336260,-888.247130,536.266849
2953.777622,-13101.645173,-1332.370696,-459.657299
2953.777959,-11473.192101,-1628.453072,-919.314598
2953.778296,-8734.430116,-2368.659014,-459.657299
2953.778634,-8882.471304,-3701.029710,1455.581446
2953.778971,-8660.409521,-2664.741391,1685.410096
2953.779308,-9030.512492,-888.247130,1685.410096
2953.779646,-10658.965565,222.061783,1149.143247
2953.779983,-12065.356855,148.041188,383.047749
2953.780320,-12287.418637,518.144159,153.219100
2953.780658,-10066.800811,0.000000,0.000000
2953.780995,-8290.306550,-148.041188,612.876398
2953.781332,-9104.533087,0.000000,1532.190996
2953.781670,-9992.780217,148.041188,1302.362347
2953.782007,-9548.656652,518.144159,612.876398
2953.782344,-10140.821405,814.226536,-536.266849
2953.782682,-10881.027347,740.205942,-919.314598
2953.783019,-10362.883188,814.226536,-1915.238745
2953.783356,-9400.615463,-222.061783,-1455.581446
2953.783694,-8364.327145,-1184.329507,-612.876398
2953.784031,-8808.450710,-1258.350101,-306.438199
2953.784368,-9622.677246,-148.041188,459.657299
2953.784706,-10214.842000,-444.123565,612.876398
2953.785043,-9992.780217,592.164754,306.438199
2953.785380,-10955.047942,148.041188,612.876398
2953.785718,-11473.192101,740.205942,842.705048
2953.786055,-10658.965565,-1110.308913,842.705048
2953.786392,-9548.656652,-1036.288319,536.266849
2953.786730,-9844.739029,-296.082377,1532.190996
2953.787067,-9474.636058,-74.020594,1762.019645
2953.787404,-9252.574275,74.020594,1302.362347
2953.787742,-10140.821405,666.185348,536.266849
2953.788079,-11917.315666,1184.329507,229.828649
2953.788416,-11029.068536,1480.411884,-1149.143247
2953.788754,-10436.903782,-592.164754,-919.314598
2953.789091,-9622.677246,-1554.432478,536.266849
2953.789428,-9918.759623,-1776.494261,459.657299
2953.789766,-9770.718434,-962.267725,-536.266849
2953.790103,-8956.491898,-1332.370696,-766.095498
2953.790440,-9548.656652,-888.247130,-153.219100
2953.790778,-10732.986159,-1406.391290,-995.924147
2953.791115,-10436.903782,-1184.329507,-766.095498
2953.791452,-9844.739029,-1110.308913,0.000000
2953.791790,-9992.780217,-1628.453072,306.438199
2953.792127,-10066.800811,-888.247130,1685.410096
2953.792464,-9548.656652,-370.102971,1149.143247
2953.792802,-9622.677246,-518.144159,2221.676944
2953.793139,-10140.821405,740.205942,2145.067394
2953.793476,-11695.253884,962.267725,1225.752797
2953.793814,-11177.109724,1258.350101,689.485948
2953.794151,-9844.739029,0.000000,306.438199
2953.794488,-9696.697840,296.082377,1915.238745
2953.794826,-9178.553681,1110.308913,1225.752797
2953.795163,-7994.224174,2146.597232,1149.143247
2953.795500,-9622.677246,2368.659014,229.828649
2953.795838,-9992.780217,2072.576638,-383.047749
2953.796175,-11769.274478,1850.514855,-612.876398
2953.796512,-11103.089130,666.185348,-1225.752797
2953.796850,-9400.615463,222.061783,-383.047749
2953.797187,-9770.718434,-1258.350101,0.000000
2953.797524,-9474.636058,-1702.473667,-612.876398
2953.797862,-7476.080014,-1480.411884,-459.657299
2953.798199,-8956.491898,-1332.370696,-306.438199
2953.798536,-9992.780217,-814.226536,-995.924147
2953.798874,-11695.253884,-222.061783,-1838.629195
2953.799211,-10362.883188,-296.082377,-1225.752797
2953.799548,-9548.656652,-1480.411884,-536.266849
2953.799886,-10584.944971,-962.267725,1072.533697
2953.800223,-10584.944971,-1258.350101,459.657299
2953.800560,-9770.718434,-814.226536,1225.752797
2953.800898,-9622.677246,-888.247130,1149.143247
2953.801235,-10510.924376,-888.247130,1762.019645
2953.801572,-11473.192101,-592.164754,995.924147
2953.801910,-10436.903782,-888.247130,229.828649
2953.802247,-10066.800811,-740.205942,306.438199
2953.802584,-9844.739029,222.061783,383.047749
2953.802922,-9992.780217,-444.123565,153.219100
2953.803259,-9548.656652,0.000000,1072.533697
2953.803596,-9178.553681,-814.226536,-383.047749
2953.803934,-10584.944971,-222.061783,0.000000
2953.804271,-11621.233289,-592.164754,-612.876398
2953.804608,-9548.656652,-1332.370696,-1149.143247
2953.804946,-9178.553681,-1850.514855,-459.657299
2953.805283,-9400.615463,-1702.473667,1149.143247
2953.805620,-9622.677246,-444.123565,919.314598
2953.805958,-9400.615463,-444.123565,1072.533697
2953.806295,-10510.924376,296.082377,842.705048
2953.806632,-11029.068536,0.000000,766.095498
2953.806970,-10807.006753,74.020594,1225.752797
2953.807307,-9252.574275,592.164754,2221.676944
2953.807644,-9548.656652,0.000000,1991.848295
2953.807982,-10066.800811,962.267725,1915.238745
2953.808319,-10732.986159,666.185348,919.314598
2953.808656,-9696.697840,888.247130,1149.143247
2953.808994,-9844.739029,888.247130,842.705048
2953.809331,-10955.047942,1628.453072,536.266849
2953.809668,-10214.842000,1924.535449,-1302.362347
2953.810006,-9030.512492,814.226536,-1685.410096
2953.810343,-9178.553681,-222.061783,-842.705048
2953.810680,-10732.986159,-592.164754,-383.047749
2953.811018,-10436.903782,148.041188,-153.219100
2953.811355,-9696.697840,-592.164754,-689.485948
2953.811692,-9696.697840,-592.164754,-459.657299
2953.812030,-10362.883188,-1258.350101,-612.876398
2953.812367,-9918.759623,-888.247130,-766.095498
2953.812704,-9474.636058,-1702.473667,-689.485948
2953.813042,-9474.636058,-1924.535449,-766.095498
2953.813379,-10807.006753,-1850.514855,-229.828649
2953.813716,-10436.903782,-1554.432478,0.000000
2953.814054,-9770.718434,-1110.308913,612.876398
2953.814391,-9770.718434,-1258.350101,1072.533697
2953.814728,-10807.006753,-1628.453072,2068.457845
2953.815066,-10584.944971,-888.247130,2145.067394
2953.815403,-9696.697840,-1036.288319,2604.724693
2953.815740,-9696.697840,148.041188,2528.115143
2953.816078,-11399.171507,-814.226536,2451.505594
2953.816415,-10807.006753,444.123565,842.705048
2953.816752,-9918.759623,1406.391290,-612.876398
2953.817090,-10066.800811,296.082377,-306.438199
2953.817427,-9844.739029,666.185348,-842.705048
2953.817764,-9400.615463,1036.288319,-612.876398
2953.818102,-9918.759623,1184.329507,76.609550
2953.818439,-9326.594869,666.185348,-1225.752797
2953.818776,-10881.027347,74.020594,-383.047749
2953.819114,-10584.944971,-518.144159,-229.828649
2953.819451,-8956.491898,-1184.329507,459.657299
2953.819788,-9252.574275,222.061783,1302.362347
2953.820126,-10510.924376,-740.205942,536.266849
2953.820463,-10214.842000,296.082377,153.219100
2953.820800,-9548.656652,-592.164754,0.000000
2953.821138,-9918.759623,0.000000,919.314598
2953.821475,-10140.821405,-222.061783,459.657299
2953.821812,-9918.759623,370.102971,536.266849
2953.822150,-10288.862594,1406.391290,766.095498
2953.822487,-10584.944971,222.061783,383.047749
2953.822824,-11177.109724,74.020594,229.828649
2953.823162,-9770.718434,-814.226536,842.705048
2953.823499,-9030.512492,-296.082377,995.924147
2953.823836,-9178.553681,0.000000,919.314598
2953.824174,-10436.903782,222.061783,383.047749
2953.824511,-9844.739029,222.061783,-612.876398
2953.824848,-10658.965565,-370.102971,-1532.190996
2953.825186,-10584.944971,-296.082377,-1225.752797
2953.825523,-10732.986159,-666.185348,-1455.581446
2953.825860,-9252.574275,-1554.432478,-612.876398
2953.826198,-8956.491898,-1554.432478,-536.266849
2953.826535,-9918.759623,-1776.494261,459.657299
2953.826872,-10658.965565,-1406.391290,229.828649
2953.827210,-10510.924376,-962.267725,0.000000
2953.827547,-10140.821405,-740.205942,612.876398
2953.827884,-10362.883188,-592.164754,1608.800546
2953.828222,-10955.047942,-444.123565,1225.752797
2953.828559,-9918.759623,0.000000,1532.190996
2953.828896,-10066.800811,370.102971,2451.505594
2953.829234,-9770.718434,1036.288319,2298.286494
2953.829571,-10510.924376,518.144159,1455.581446
2953.829908,-10955.047942,1258.350101,1838.629195
2953.830246,-9622.677246,296.082377,76.609550
2953.830583,-9252.574275,1258.350101,459.657299
2953.830920,-9400.615463,518.144159,153.219100
2953.831258,-8808.450710,74.020594,0.000000
2953.831595,-8734.430116,518.144159,-306.438199
2953.831932,-9252.574275,0.000000,153.219100
2953.832270,-9918.759623,1110.308913,-919.314598
2953.832607,-10658.965565,148.041188,-766.095498
2953.832944,-10066.800811,0.000000,-1915.238745
2953.833282,-9696.697840,-1480.411884,-1608.800546
2953.833619,-10066.800811,-1702.473667,-306.438199
2953.833956,-8956.491898,-1850.514855,306.438199
2953.834294,-8586.388927,-1850.514855,766.095498
2953.834631,-10510.924376,-518.144159,1608.800546
2953.834968,-11251.130318,74.020594,459.657299
2953.835306,-11769.274478,296.082377,306.438199
2953.835643,-11103.089130,0.000000,0.000000
2953.835980,-11473.192101,-814.226536,689.485948
2953.836318,-10584.944971,-444.123565,766.095498
2953.836655,-9474.636058,-518.144159,1149.143247
2953.836992,-9770.718434,-962.267725,1838.629195
2953.837330,-10066.800811,-740.205942,1608.800546
2953.837667,-9918.759623,0.000000,459.657299
2953.838004,-10658.965565,0.000000,-612.876398
2953.838342,-10140.821405,-222.061783,-1149.143247
2953.838677,-10066.800811,-666.185348,-689.485948
2953.839014,-9474.636058,-1406.391290,-612.876398
2953.839351,-8142.265362,-888.247130,0.000000
2953.839689,-8142.265362,-1184.329507,153.219100
2953.840026,-9548.656652,-1036.288319,766.095498
2953.840363,-10732.986159,-1036.288319,229.828649
2953.840700,-11103.089130,-1036.288319,459.657299
2953.841038,-10436.903782,-740.205942,0.000000
2953.841375,-10288.862594,-1480.411884,536.266849
2953.841712,-9696.697840,-962.267725,1378.971896
2953.842050,-8364.327145,-666.185348,612.876398
2953.842387,-9252.574275,0.000000,1991.848295
2953.842724,-11177.109724,518.144159,2068.457845
2953.843061,-11103.089130,1554.432478,536.266849
2953.843399,-11177.109724,1776.494261,0.000000
2953.843736,-11177.109724,1480.411884,689.485948
2953.844073,-11029.068536,888.247130,1225.752797
2953.844411,-9992.780217,0.000000,1072.533697
2953.844748,-9030.512492,518.144159,919.314598
2953.845085,-9178.553681,-74.020594,536.266849
2953.845423,-11029.068536,370.102971,306.438199
2953.845760,-10436.903782,888.247130,-995.924147
2953.846097,-9918.759623,-518.144159,-1915.238745
2953.846434,-9178.553681,0.000000,-2145.067394
2953.846772,-10066.800811,-518.144159,-1762.019645
2953.847109,-9992.780217,-296.082377,-1302.362347
2953.847446,-8808.450710,-1998.556043,-1991.848295
2953.847784,-8956.491898,-1702.473667,-306.438199
2953.848121,-10584.944971,-518.144159,153.219100
2953.848458,-10436.903782,-592.164754,-383.047749
2953.848796,-10436.903782,-1036.288319,-229.828649
2953.849133,-10288.862594,-1406.391290,229.828649
2953.849470,-11769.274478,-1480.411884,1378.971896
2953.849807,-10807.006753,-888.247130,1225.752797
2953.850145,-8882.471304,-1036.288319,1762.019645
2953.850482,-9770.718434,0.000000,2528.115143
2953.850819,-10510.924376,888.247130,1455.581446
2953.851157,-10214.842000,2146.597232,612.876398
2953.851494,-10955.047942,1184.329507,459.657299
2953.851831,-10436.903782,888.247130,-153.219100
2953.852169,-11029.068536,962.267725,0.000000
2953.852506,-9548.656652,1110.308913,76.609550
2953.852843,-7772.162391,-222.061783,383.047749
2953.853180,-8586.388927,0.000000,995.924147
2953.853518,-9622.677246,814.226536,0.000000
2953.853855,-10066.800811,1184.329507,-229.828649
2953.854192,-9918.759623,148.041188,-536.266849
2953.854530,-10510.924376,-1036.288319,76.609550
2953.854867,-10436.903782,-1480.411884,229.828649
2953.855204,-9030.512492,-592.164754,689.485948
2953.855542,-7846.182985,-1480.411884,1149.143247
2953.855879,-9030.512492,-888.247130,1225.752797
2953.856216,-9844.739029,-888.247130,536.266849
2953.856553,-10584.944971,296.082377,766.095498
2953.856891,-10510.924376,0.000000,0.000000
2953.857228,-10881.027347,-444.123565,0.000000
2953.857565,-11769.274478,-666.185348,0.000000
2953.857903,-9178.553681,-1184.329507,153.219100
2953.858240,-8142.265362,-1036.288319,766.095498
2953.858577,-9326.594869,-666.185348,2145.067394
2953.858915,-10288.862594,148.041188,766.095498
2953.859252,-11177.109724,1332.370696,-459.657299
2953.859589,-11695.253884,518.144159,-1915.238745
2953.859926,-11325.150913,-814.226536,-2145.067394
2953.860264,-11769.274478,-1628.453072,-1685.410096
2953.860601,-8956.491898,-1924.535449,-383.047749
2953.860938,-7550.100608,-3182.885551,0.000000
2953.861276,-9178.553681,-1850.514855,536.266849
2953.861613,-9696.697840,-1702.473667,-229.828649
2953.861950,-10658.965565,-592.164754,-536.266849
2953.862288,-11177.109724,-1110.308913,-1532.190996
2953.862625,-11769.274478,-2368.659014,-995.924147
2953.862962,-10584.944971,-2664.741391,-536.266849
2953.863299,-7994.224174,-2516.700203,1378.971896
2953.863637,-7254.018232,-1406.391290,3140.991542
2953.863974,-9474.636058,-296.082377,2757.943793
2953.864311,-11695.253884,814.226536,3064.381992
2953.864649,-11473.192101,1184.329507,1685.410096
2953.864986,-10955.047942,1258.350101,919.314598
2953.865323,-11917.315666,962.267725,1378.971896
2953.865661,-10658.965565,1776.494261,1302.362347
2953.865998,-8142.265362,592.164754,1455.581446
2953.866335,-7846.182985,592.164754,1991.848295
2953.866672,-9548.656652,1998.556043,1302.362347
2953.867010,-10140.821405,2590.720797,0.000000
2953.867347,-10955.047942,2368.659014,-766.095498
2953.867684,-10436.903782,1776.494261,-2451.505594
2953.868022,-11251.130318,296.082377,-1532.190996
2953.868359,-9992.780217,-740.205942,-1378.971896
2953.868696,-7105.977043,-2146.597232,-306.438199
2953.869034,-7179.997637,-2368.659014,1685.410096
2953.869371,-9178.553681,-962.267725,1991.848295
2953.869708,-9992.780217,-444.123565,0.000000
2953.870045,-10436.903782,296.082377,-919.314598
2953.870383,-11029.068536,-962.267725,-1072.533697
2953.870720,-11177.109724,-444.123565,-995.924147
2953.871057,-10584.944971,-740.205942,-153.219100
2953.871395,-8512.368333,-1554.432478,1532.190996
2953.871732,-8438.347739,-1702.473667,2451.505594
2953.872069,-10288.862594,0.000000,2911.162892
2953.872407,-11103.089130,518.144159,1608.800546
2953.872744,-11621.233289,-444.123565,229.828649
2953.873081,-11325.150913,222.061783,-995.924147
2953.873418,-11917.315666,-296.082377,-612.876398
2953.873756,-10955.047942,-518.144159,0.000000
2953.874093,-8290.306550,-1258.350101,-995.924147
2953.874430,-8882.471304,-1110.308913,0.000000
2953.874768,-10140.821405,0.000000,-536.266849
2953.875105,-10807.006753,814.226536,-1455.581446
2953.875442,-10881.027347,444.123565,-1455.581446
2953.875780,-10584.944971,74.020594,-1915.238745
2953.876117,-11769.274478,-1036.288319,-383.047749
2953.876454,-11177.109724,-1184.329507,76.609550
2953.876791,-7772.162391,-1480.411884,536.266849
2953.877129,-8142.265362,-1776.494261,2374.896044
2953.877466,-9992.780217,-1036.288319,2681.334243
2953.877803,-10066.800811,740.205942,1838.629195
2953.878141,-10288.862594,1036.288319,1072.533697
2953.878478,-10658.965565,1036.288319,0.000000
2953.878815,-10881.027347,1406.391290,383.047749
2953.879152,-9770.718434,888.247130,536.266849
2953.879490,-8068.244768,148.041188,919.314598
2953.879827,-8734.430116,370.102971,1532.190996
2953.880164,-10214.842000,1184.329507,1532.190996
2953.880502,-10066.800811,1628.453072,76.609550
2953.880839,-10214.842000,962.267725,-383.047749
2953.881176,-10658.965565,370.102971,-689.485948
2953.881514,-10881.027347,-1480.411884,-919.314598
2953.881851,-9622.677246,-1036.288319,0.000000
2953.882188,-9178.553681,-1702.473667,306.438199
2953.882525,-10066.800811,-1406.391290,-153.219100
2953.882863,-10955.047942,-1776.494261,-689.485948
2953.883200,-10658.965565,-296.082377,-306.438199
2953.883537,-10362.883188,-666.185348,-995.924147
2953.883875,-11473.192101,-1184.329507,-306.438199
2953.884212,-11843.295072,-2294.638420,-612.876398
2953.884549,-10066.800811,-3404.947333,0.000000
2953.884887,-8586.388927,-3330.926739,2451.505594
2953.885224,-9474.636058,-2368.659014,3677.258390
2953.885561,-10140.821405,-1480.411884,3140.991542
2953.885898,-9992.780217,74.020594,1762.019645
2953.886236,-10807.006753,1406.391290,766.095498
2953.886573,-10732.986159,1110.308913,459.657299
2953.886910,-10955.047942,296.082377,-612.876398
2953.887248,-9770.718434,0.000000,-383.047749
2953.887585,-8290.306550,0.000000,0.000000
2953.887922,-8734.430116,370.102971,689.485948
2953.888260,-9548.656652,444.123565,76.609550
2953.888597,-8956.491898,1184.329507,-306.438199
2953.888934,-10066.800811,1258.350101,-1149.143247
2953.889271,-10658.965565,1258.350101,-1762.019645
2953.889609,-10658.965565,444.123565,-1838.629195
2953.889946,-10288.862594,74.020594,-689.485948
2953.890283,-8512.368333,-1036.288319,153.219100
2953.890621,-9104.533087,74.020594,1072.533697
2953.890958,-9770.718434,814.226536,766.095498
2953.891295,-9400.615463,888.247130,842.705048
2953.891633,-10362.883188,148.041188,459.657299
2953.891970,-11473.192101,518.144159,842.705048
2953.892307,-11991.336260,148.041188,689.485948
2953.892644,-11029.068536,-444.123565,1149.143247
2953.892982,-8734.430116,-740.205942,1225.752797
2953.893319,-9030.512492,-888.247130,2681.334243
2953.893656,-9252.574275,74.020594,1838.629195
2953.893994,-9548.656652,814.226536,229.828649
2953.894331,-11325.150913,444.123565,-383.047749
2953.894668,-11473.192101,370.102971,-919.314598
2953.895006,-11251.130318,-148.041188,-1302.362347
2953.895343,-9770.718434,-1480.411884,-383.047749
2953.895680,-7994.224174,-2442.679609,0.000000
2953.896017,-8660.409521,-2812.782580,1225.752797
2953.896355,-9474.636058,-1998.556043,76.609550
2953.896692,-9400.615463,-888.247130,-995.924147
2953.897029,-11473.192101,-2294.638420,0.000000
2953.897367,-11695.253884,-1702.473667,-1072.533697
2953.897704,-11473.192101,-1554.432478,-1225.752797
2953.898041,-9992.780217,-1776.494261,612.876398
2953.898379,-8512.368333,-2664.741391,306.438199
2953.898716,-9992.780217,-2368.659014,2221.676944
2953.899053,-10066.800811,-1184.329507,1915.238745
2953.899390,-9770.718434,74.020594,2298.286494
2953.899728,-11325.150913,222.061783,2145.067394
2953.900065,-11399.171507,814.226536,1072.533697
2953.900402,-10955.047942,1406.391290,153.219100
2953.900740,-10066.800811,592.164754,-383.047749
2953.901077,-8956.491898,148.041188,459.657299
2953.901414,-9992.780217,518.144159,1225.752797
2953.901752,-9474.636058,2664.741391,306.438199
2953.902089,-8512.368333,2368.659014,-995.924147
2953.902426,-9474.636058,1628.453072,-1302.362347
2953.902763,-11251.130318,1406.391290,-1225.752797
2953.903101,-10584.944971,740.205942,-1838.629195
2953.903438,-9400.615463,518.144159,-1532.190996
2953.903775,-9252.574275,-814.226536,-995.924147
2953.904113,-9326.594869,-1110.308913,0.000000
2953.904450,-8734.430116,-222.061783,842.705048
2953.904787,-9178.553681,0.000000,306.438199
2953.905125,-9622.677246,-370.102971,0.000000
2953.905462,-11399.171507,74.020594,-1072.533697
2953.905799,-11769.274478,-1036.288319,-306.438199
2953.906136,-10066.800811,-518.144159,76.609550
2953.906474,-9474.636058,-1036.288319,995.924147
2953.906811,-10436.903782,-814.226536,2528.115143
2953.907148,-9696.697840,222.061783,1302.362347
2953.907486,-9696.697840,148.041188,1302.362347
2953.907823,-10881.027347,592.164754,1685.410096
2953.908160,-12657.521608,-296.082377,536.266849
2953.908498,-11251.130318,0.000000,-612.876398
2953.908835,-10066.800811,-1110.308913,153.219100
2953.909172,-8438.347739,-1702.473667,689.485948
2953.909509,-9104.533087,-1628.453072,1455.581446
2953.909847,-9548.656652,0.000000,919.314598
2953.910184,-8734.430116,-444.123565,-919.314598
2953.910521,-10362.883188,0.000000,-612.876398
2953.910859,-11325.150913,-740.205942,-1302.362347
2953.911196,-10807.006753,-1184.329507,-995.924147
2953.911533,-9178.553681,-1702.473667,-612.876398
2953.911871,-9104.533087,-2664.741391,1072.533697
2953.912208,-9400.615463,-1332.370696,1915.238745
2953.912545,-9326.594869,-1036.288319,2145.067394
2953.912882,-9548.656652,-1184.329507,2451.505594
2953.913220,-10362.883188,0.000000,2145.067394
2953.913557,-11917.315666,666.185348,1149.143247
2953.913894,-11103.089130,518.144159,0.000000
2953.914232,-9178.553681,74.020594,0.000000
2953.914569,-8734.430116,666.185348,1149.143247
2953.914906,-9622.677246,1628.453072,1072.533697
2953.915244,-9622.677246,1998.556043,306.438199
2953.915581,-10362.883188,1480.411884,-766.095498
2953.915918,-11399.171507,1036.288319,-1149.143247
2953.916255,-11547.212695,888.247130,-1378.971896
2953.916593,-10362.883188,74.020594,-1378.971896
2953.916930,-8660.409521,-1554.432478,-459.657299
2953.917267,-8808.450710,-814.226536,-459.657299
2953.917605,-9770.718434,-148.041188,-153.219100
2953.917942,-10214.842000,-148.041188,-459.657299
2953.918279,-10584.944971,-962.267725,-919.314598
2953.918616,-10955.047942,-1406.391290,-383.047749
2953.918954,-10807.006753,-1628.453072,-306.438199
2953.919291,-10214.842000,-666.185348,76.609550
2953.919628,-9030.512492,-2442.679609,0.000000
2953.919966,-9696.697840,-2220.617826,1149.143247
2953.920303,-9696.697840,-1850.514855,919.314598
2953.920640,-10288.862594,-1036.288319,1915.238745
2953.920978,-9474.636058,-814.226536,995.924147
2953.921315,-9696.697840,-740.205942,1225.752797
2953.921652,-11399.171507,666.185348,1225.752797
2953.921989,-10436.903782,370.102971,-229.828649
2953.922327,-9622.677246,296.082377,842.705048
2953.922664,-10658.965565,-592.164754,1991.848295
2953.923001,-9400.615463,740.205942,1225.752797
2953.923339,-9770.718434,1184.329507,1455.581446
2953.923676,-10214.842000,592.164754,1302.362347
2953.924013,-10584.944971,444.123565,0.000000
2953.924351,-11621.233289,592.164754,-995.924147
2953.924688,-9104.533087,666.185348,-1072.533697
2953.925025,-8808.450710,-740.205942,-842.705048
2953.925362,-10066.800811,-1110.308913,0.000000
2953.925700,-9474.636058,814.226536,-229.828649
2953.926037,-9178.553681,666.185348,153.219100
2953.926374,-9548.656652,296.082377,459.657299
2953.926712,-11325.150913,518.144159,-306.438199
2953.927049,-10807.006753,740.205942,0.000000
2953.927386,-9474.636058,-444.123565,689.485948
2953.927724,-9474.636058,-666.185348,1455.581446
2953.928061,-10140.821405,222.061783,1762.019645
2953.928398,-9474.636058,370.102971,383.047749
2953.928735,-8956.491898,0.000000,766.095498
2953.929073,-8882.471304,0.000000,612.876398
2953.929410,-10584.944971,740.205942,383.047749
2953.929747,-10510.924376,592.164754,-766.095498
2953.930085,-9770.718434,518.144159,-1149.143247
2953.930422,-10066.800811,0.000000,-919.314598
2953.930759,-10732.986159,-1184.329507,-612.876398
2953.931097,-9548.656652,-888.247130,-153.219100
2953.931434,-9030.512492,-1554.432478,-459.657299
2953.931771,-9474.636058,-1702.473667,-383.047749
2953.932108,-11325.150913,-1702.473667,-1532.190996
2953.932446,-11251.130318,-1628.453072,-1532.190996
2953.932783,-9696.697840,-2738.761985,-1072.533697
2953.933120,-9844.739029,-2590.720797,-153.219100
2953.933458,-10436.903782,-1258.350101,1378.971896
2953.933795,-9400.615463,-592.164754,536.266849
2953.934132,-10214.842000,-1036.288319,1378.971896
2953.934470,-11695.253884,-1110.308913,842.705048
2953.934807,-11769.274478,222.061783,842.705048
2953.935144,-10955.047942,888.247130,1378.971896
2953.935481,-10584.944971,74.020594,1915.238745
2953.935819,-9696.697840,296.082377,1762.019645
2953.936156,-9844.739029,148.041188,1685.410096
2953.936493,-10066.800811,814.226536,2451.505594
2953.936831,-9474.636058,814.226536,1455.581446
2953.937168,-9474.636058,1924.535449,842.705048
2953.937505,-10066.800811,1480.411884,0.000000
2953.937842,-10436.903782,1998.556043,-995.924147
2953.938180,-9474.636058,1924.535449,-1072.533697
2953.938517,-9252.574275,148.041188,-1149.143247
2953.938854,-9252.574275,0.000000,-766.095498
2953.939192,-8660.409521,-666.185348,-383.047749
2953.939529,-8882.471304,-1480.411884,306.438199
2953.939866,-9548.656652,-1480.411884,459.657299
2953.940203,-10436.903782,-1554.432478,0.000000
2953.940541,-9844.739029,-518.144159,0.000000
2953.940878,-9474.636058,-1406.391290,-612.876398
2953.941215,-10066.800811,-1184.329507,842.705048
2953.941552,-10436.903782,-1110.308913,689.485948
2953.941890,-10288.862594,74.020594,1838.629195
2953.942227,-11547.212695,0.000000,1991.848295
2953.942564,-11769.274478,-296.082377,1532.190996
2953.942902,-11103.089130,444.123565,153.219100
2953.943239,-10362.883188,296.082377,76.609550
2953.943576,-9992.780217,0.000000,459.657299
2953.943913,-9696.697840,-296.082377,-919.314598
2953.944251,-10140.821405,0.000000,-229.828649
2953.944588,-9696.697840,0.000000,0.000000
2953.944925,-9252.574275,0.000000,0.000000
2953.945262,-10436.903782,-444.123565,-153.219100
2953.945600,-11103.089130,-592.164754,-842.705048
2953.945937,-9178.553681,-814.226536,-766.095498
2953.946274,-9400.615463,-1702.473667,0.000000
2953.946612,-9548.656652,-1406.391290,153.219100
2953.946949,-9918.759623,-1332.370696,153.219100
2953.947286,-9696.697840,-1110.308913,0.000000
2953.947623,-8882.471304,-222.061783,0.000000
2953.947961,-9770.718434,-1184.329507,919.314598
2953.948298,-9992.780217,-296.082377,1149.143247
2953.948635,-9252.574275,-444.123565,842.705048
2953.948972,-9992.780217,74.020594,1532.190996
2953.949310,-10807.006753,1554.432478,2451.505594
2953.949647,-10658.965565,222.061783,2068.457845
2953.949984,-10436.903782,1184.329507,2451.505594
2953.950322,-9770.718434,518.144159,1838.629195
2953.950659,-10955.047942,1702.473667,1762.019645
2953.950996,-11325.150913,592.164754,1072.533697
2953.951333,-10288.862594,1776.494261,-306.438199
2953.951671,-9474.636058,1332.370696,-1378.971896
2953.952008,-10288.862594,740.205942,-1762.019645
2953.952345,-10214.842000,0.000000,-1532.190996
2953.952682,-9548.656652,-2368.659014,-1302.362347
2953.953020,-9104.533087,-1184.329507,-459.657299
2953.953357,-9844.739029,-1776.494261,-306.438199
2953.953694,-10436.903782,-962.267725,0.000000
2953.954032,-9548.656652,-1554.432478,-766.095498
2953.954369,-10140.821405,-1924.535449,229.828649
2953.954706,-10214.842000,-814.226536,76.609550
2953.955043,-9992.780217,-1406.391290,-536.266849
2953.955381,-10584.944971,-1850.514855,612.876398
2953.955718,-9548.656652,-1776.494261,0.000000
2953.956055,-10510.924376,-1258.350101,1532.190996
2953.956392,-10066.800811,-518.144159,1225.752797
2953.956730,-9548.656652,-962.267725,1072.533697
2953.957067,-9992.780217,-666.185348,1455.581446
2953.957404,-10362.883188,0.000000,842.705048
2953.957742,-10214.842000,740.205942,1225.752797
2953.958079,-10881.027347,888.247130,1072.533697
2953.958416,-10362.883188,1110.308913,76.609550
2953.958753,-10881.027347,888.247130,-459.657299
2953.959091,-10732.986159,814.226536,-229.828649
2953.959428,-9252.574275,814.226536,-383.047749
2953.959765,-9400.615463,-370.102971,-536.266849
2953.960102,-10288.862594,370.102971,-383.047749
2953.960440,-9622.677246,148.041188,-1532.190996
2953.960777,-9474.636058,0.000000,-1149.143247
2953.961114,-9474.636058,-444.123565,76.609550
2953.961452,-9918.759623,-814.226536,536.266849
2953.961789,-10140.821405,444.123565,1225.752797
2953.962126,-9622.677246,0.000000,153.219100
2953.962463,-9770.718434,222.061783,1149.143247
2953.962801,-10288.862594,-592.164754,1532.190996
2953.963138,-10658.965565,888.247130,1838.629195
2953.963475,-10436.903782,518.144159,612.876398
2953.963812,-9770.718434,-222.061783,459.657299
2953.964150,-9844.739029,0.000000,919.314598
2953.964487,-9400.615463,-592.164754,459.657299
2953.964824,-9104.533087,444.123565,306.438199
2953.965162,-9548.656652,-592.164754,459.657299
2953.965499,-10658.965565,370.102971,-383.047749
2953.965836,-10140.821405,518.144159,-919.314598
2953.966173,-10658.965565,0.000000,-766.095498
2953.966511,-10066.800811,-740.205942,-536.266849
2953.966848,-10881.027347,-1628.453072,-76.609550
2953.967185,-11177.109724,-1554.432478,536.266849
2953.967522,-9770.718434,-2146.597232,-919.314598
2953.967860,-9548.656652,-2072.576638,-306.438199
2953.968197,-10658.965565,-2368.659014,229.828649
2953.968534,-9844.739029,-1776.494261,76.609550
2953.968872,-9918.759623,-1036.288319,153.219100
2953.969209,-9992.780217,-888.247130,0.000000
2953.969546,-10362.883188,-1554.432478,766.095498
2953.969883,-10955.047942,-1258.350101,1378.971896
2953.970221,-9548.656652,-814.226536,1149.143247
2953.970558,-10214.842000,518.144159,2528.115143
2953.970895,-10658.965565,0.000000,2451.505594
2953.971232,-9992.780217,444.123565,1762.019645
2953.971570,-9918.759623,0.000000,919.314598
2953.971907,-9622.677246,1036.288319,1915.238745
2953.972244,-9918.759623,592.164754,536.266849
2953.972582,-9918.759623,444.123565,0.000000
2953.972919,-8734.430116,1184.329507,-459.657299
2953.973256,-8512.368333,1554.432478,-229.828649
2953.973593,-10066.800811,2146.597232,-612.876398
2953.973931,-10214.842000,1480.411884,-1915.238745
2953.974268,-10732.986159,296.082377,-1762.019645
2953.974605,-10362.883188,-296.082377,-1532.190996
2953.974942,-10584.944971,-1036.288319,0.000000
2953.975280,-9400.615463,-1258.350101,612.876398
2953.975617,-8364.327145,-1480.411884,153.219100
2953.975954,-9622.677246,-1184.329507,1149.143247
2953.976292,-10140.821405,-148.041188,-612.876398
2953.976629,-10066.800811,148.041188,-689.485948
2953.976966,-11399.171507,-666.185348,0.000000
2953.977303,-10510.924376,0.000000,76.609550
2953.977641,-10510.924376,-148.041188,-689.485948
2953.977978,-10140.821405,-444.123565,612.876398
2953.978315,-8660.409521,-1036.288319,383.047749
2953.978652,-9770.718434,-518.144159,919.314598
2953.978990,-9844.739029,74.020594,459.657299
2953.979327,-10510.924376,0.000000,0.000000
2953.979664,-11325.150913,-740.205942,229.828649
2953.980002,-10807.006753,-592.164754,-383.047749
2953.980339,-10658.965565,-740.205942,229.828649
2953.980676,-10066.800811,-740.205942,459.657299
2953.981013,-7994.224174,-2072.576638,383.047749
2953.981351,-9770.718434,-740.205942,1072.533697
2953.981688,-10140.821405,-518.144159,-459.657299
2953.982025,-10584.944971,74.020594,-1302.362347
2953.982362,-10732.986159,-666.185348,-1225.752797
2953.982700,-9770.718434,-1332.370696,-919.314598
2953.983037,-9548.656652,-962.267725,383.047749
2953.983374,-8882.471304,-592.164754,1225.752797
2953.983712,-9104.533087,-740.205942,2834.553343
2953.984049,-10955.047942,-148.041188,3140.991542
2953.984386,-11251.130318,1258.350101,2145.067394
2953.984723,-11103.089130,2294.638420,1991.848295
2953.985061,-11177.109724,814.226536,1072.533697
2953.985398,-11251.130318,1258.350101,1302.362347
2953.985735,-10658.965565,444.123565,919.314598
2953.986072,-8808.450710,1332.370696,842.705048
2953.986410,-8586.388927,148.041188,153.219100
2953.986747,-9844.739029,1184.329507,612.876398
2953.987084,-9474.636058,1036.288319,-1608.800546
2953.987422,-9992.780217,888.247130,-1991.848295
2953.987759,-10362.883188,0.000000,-1915.238745
2953.988096,-10214.842000,-888.247130,-2221.676944
2953.988433,-8808.450710,-1258.350101,-2221.676944
2953.988771,-7846.182985,-2220.617826,-1072.533697
2953.989108,-8142.265362,-2072.576638,383.047749
2953.989445,-10732.986159,-1850.514855,1072.533697
2953.989782,-11547.212695,-1184.329507,-536.266849
2953.990120,-10584.944971,-962.267725,0.000000
2953.990457,-11325.150913,-1184.329507,-76.609550
2953.990794,-11991.336260,-1702.473667,689.485948
2953.991132,-11177.109724,-1850.514855,459.657299
2953.991469,-9252.574275,-1776.494261,1378.971896
2953.991806,-9326.594869,-1628.453072,1915.238745
2953.992143,-10955.047942,-666.185348,1762.019645
2953.992481,-10881.027347,296.082377,1532.190996
2953.992818,-11325.150913,222.061783,1149.143247
2953.993155,-11103.089130,962.267725,612.876398
2953.993492,-11325.150913,296.082377,-306.438199
2953.993830,-10436.903782,148.041188,-612.876398
2953.994167,-7920.203579,-370.102971,306.438199
2953.994504,-8586.388927,0.000000,1225.752797
2953.994842,-9844.739029,814.226536,689.485948
2953.995179,-9918.759623,1258.350101,-153.219100
2953.995516,-10140.821405,1110.308913,-919.314598
2953.995853,-9770.718434,0.000000,-919.314598
2953.996191,-10288.862594,-1036.288319,-536.266849
2953.996528,-9474.636058,-1110.308913,1149.143247
2953.996865,-7698.141797,-1702.473667,1225.752797
2953.997202,-7402.059420,74.020594,1532.190996
2953.997540,-9770.718434,-222.061783,1991.848295
2953.997877,-10658.965565,1850.514855,1149.143247
2953.998214,-11029.068536,518.144159,766.095498
2953.998552,-11473.192101,518.144159,766.095498
2953.998889,-11473.192101,888.247130,919.314598
2953.999226,-11029.068536,148.041188,766.095498
2953.999563,-8512.368333,-1184.329507,1455.581446
2953.999901,-8290.306550,-962.267725,2298.286494
2954.000238,-9770.718434,666.185348,2068.457845
2954.000575,-10732.986159,1850.514855,-612.876398
2954.000912,-11325.150913,962.267725,-1608.800546
2954.001250,-11547.212695,592.164754,-1915.238745
2954.001587,-11325.150913,-592.164754,-2068.457845
2954.001924,-9548.656652,-1036.288319,-1225.752797
2954.002262,-8364.327145,-2072.576638,-612.876398
2954.002599,-8512.368333,-2664.741391,459.657299
2954.002936,-9474.636058,-2294.638420,-995.924147
2954.003273,-10658.965565,-888.247130,-459.657299
2954.003611,-11473.192101,-1850.514855,-689.485948
2954.003948,-10436.903782,-1628.453072,-1149.143247
2954.004285,-11325.150913,-2146.597232,-536.266849
2954.004622,-10362.883188,-2294.638420,153.219100
2954.004960,-7550.100608,-2738.761985,1225.752797
2954.005297,-8586.388927,-2368.659014,2604.724693
2954.005634,-10214.842000,0.000000,2374.896044
2954.005972,-10732.986159,1110.308913,536.266849
2954.006309,-10436.903782,444.123565,229.828649
