#time,accel_x,accel_y,accel_z
3032.325691,-9622.677246,-1184.329507,0.000000
3032.326029,-10288.862594,0.000000,1685.410096
3032.326366,-10140.821405,0.000000,1149.143247
3032.326704,-9992.780217,518.144159,229.828649
3032.327042,-10584.944971,-370.102971,-383.047749
3032.327379,-11103.089130,0.000000,-766.095498
3032.327717,-10214.842000,-814.226536,-612.876398
3032.328055,-9252.574275,-666.185348,-995.924147
3032.328393,-9326.594869,-296.082377,-612.876398
3032.328730,-10140.821405,-1036.288319,-995.924147
3032.329068,-10362.883188,-1924.535449,-842.705048
3032.329406,-9918.759623,-1480.411884,-1149.143247
3032.329743,-9770.718434,-2146.597232,-689.485948
3032.330081,-10214.842000,-1332.370696,-919.314598
3032.330419,-10510.924376,-2368.659014,-1608.800546
3032.330757,-9548.656652,-2886.803174,-1072.533697
3032.331094,-9252.574275,-2220.617826,-383.047749
3032.331432,-9770.718434,-2146.597232,-689.485948
3032.331770,-11177.109724,-1554.432478,-995.924147
3032.332107,-10658.965565,-1850.514855,-1302.362347
3032.332445,-9400.615463,-1998.556043,-536.266849
3032.332783,-8956.491898,-1480.411884,1225.752797
3032.333120,-10214.842000,-222.061783,1762.019645
3032.333458,-11399.171507,518.144159,-153.219100
3032.333796,-10807.006753,0.000000,-766.095498
3032.334134,-9844.739029,-592.164754,-153.219100
3032.334471,-9918.759623,-1036.288319,1149.143247
3032.334809,-9622.677246,222.061783,-383.047749
3032.335147,-10140.821405,-148.041188,-1762.019645
3032.335484,-9918.759623,-740.205942,-2911.162892
3032.335822,-8808.450710,-1110.308913,-2374.896044
3032.336160,-10066.800811,-518.144159,-1532.190996
3032.336498,-10510.924376,-1776.494261,-2911.162892
3032.336835,-10732.986159,-2146.597232,-5056.230287
3032.337173,-9918.759623,-2960.823768,-5286.058936
3032.337511,-8290.306550,-3701.029710,-4290.134789
3032.337848,-8438.347739,-4441.235652,-2221.676944
3032.338186,-8438.347739,-4737.318029,-1532.190996
3032.338524,-9252.574275,-3108.864956,-1991.848295
3032.338861,-11029.068536,-2294.638420,-1072.533697
3032.339199,-10807.006753,-2886.803174,-2451.505594
3032.339537,-10658.965565,-3330.926739,-2451.505594
3032.339875,-11177.109724,-4441.235652,-2451.505594
3032.340212,-9918.759623,-5033.400406,-2604.724693
3032.340550,-9474.636058,-5181.441594,-1532.190996
3032.340888,-9178.553681,-5403.503377,-1225.752797
3032.341225,-8512.368333,-4293.194464,-1378.971896
3032.341563,-9918.759623,-2960.823768,-995.924147
3032.341901,-11473.192101,-2368.659014,-1685.410096
3032.342239,-11325.150913,-1258.350101,-3064.381992
3032.342576,-11029.068536,-1776.494261,-3983.696590
3032.342914,-10510.924376,-3478.967927,-3217.601092
3032.343252,-10288.862594,-4367.215058,-2451.505594
3032.343589,-9844.739029,-3997.112087,-1685.410096
3032.343927,-9400.615463,-3775.050304,-1225.752797
3032.344265,-9474.636058,-3404.947333,-2068.457845
3032.344603,-10214.842000,-4515.256246,-2451.505594
3032.344940,-9400.615463,-3849.070898,-1302.362347
3032.345278,-9178.553681,-2664.741391,-612.876398
3032.345616,-10214.842000,-74.020594,995.924147
3032.345953,-10436.903782,148.041188,-383.047749
3032.346291,-11621.233289,-962.267725,-1762.019645
3032.346629,-11399.171507,-1850.514855,-995.924147
3032.346966,-9844.739029,-2886.803174,1149.143247
3032.347304,-9104.533087,-2294.638420,919.314598
3032.347642,-8290.306550,-1406.391290,0.000000
3032.347980,-9474.636058,-1480.411884,-1225.752797
3032.348317,-9770.718434,-1554.432478,-1532.190996
3032.348655,-9030.512492,444.123565,-1915.238745
3032.348993,-9474.636058,2072.576638,-1302.362347
3032.349330,-11103.089130,1480.411884,-1838.629195
3032.349668,-11547.212695,666.185348,-2451.505594
3032.350006,-11917.315666,0.000000,-2834.553343
3032.350344,-8512.368333,-1036.288319,-2451.505594
3032.350681,-7994.224174,-3034.844362,0.000000
3032.351019,-9770.718434,-4811.338623,612.876398
3032.351357,-9474.636058,-3775.050304,-2681.334243
3032.351694,-9400.615463,-3182.885551,-3447.429741
3032.352032,-9918.759623,-3478.967927,-3447.429741
3032.352370,-10955.047942,-3330.926739,-4673.182538
3032.352707,-11325.150913,-2294.638420,-5669.106685
3032.353045,-9400.615463,-3404.947333,-4596.572988
3032.353383,-8512.368333,-2738.761985,-1378.971896
3032.353721,-10066.800811,-3034.844362,-536.266849
3032.354058,-11103.089130,-2590.720797,-1455.581446
3032.354396,-11695.253884,-3182.885551,-995.924147
3032.354734,-10807.006753,-2294.638420,-1455.581446
3032.355071,-9844.739029,-2146.597232,-689.485948
3032.355409,-10732.986159,-1850.514855,459.657299
3032.355747,-10362.883188,-592.164754,-1532.190996
3032.356085,-11029.068536,-518.144159,-3140.991542
3032.356422,-10955.047942,-814.226536,-4366.744339
3032.356760,-9770.718434,-1258.350101,-4060.306139
3032.357098,-9622.677246,-2442.679609,-2604.724693
3032.357435,-8068.244768,-1406.391290,-3370.820191
3032.357773,-8512.368333,-2368.659014,-2451.505594
3032.358111,-9844.739029,-2146.597232,-1762.019645
3032.358448,-9030.512492,-1850.514855,-1838.629195
3032.358786,-9918.759623,-2368.659014,0.000000
3032.359124,-10066.800811,-1258.350101,0.000000
3032.359462,-9252.574275,-1480.411884,-459.657299
3032.359799,-11103.089130,-1480.411884,-383.047749
3032.360137,-9770.718434,-2146.597232,-2681.334243
3032.360475,-9622.677246,-3256.906145,-2528.115143
3032.360812,-9400.615463,-3182.885551,-2604.724693
3032.361150,-7772.162391,-3330.926739,-1762.019645
3032.361488,-9178.553681,-3627.009116,-536.266849
3032.361826,-8734.430116,-2812.782580,-153.219100
3032.362163,-9992.780217,-1480.411884,1378.971896
3032.362501,-11399.171507,-518.144159,1608.800546
3032.362839,-11399.171507,222.061783,842.705048
3032.363176,-12361.439231,-518.144159,-459.657299
3032.363514,-11843.295072,-1776.494261,-2451.505594
3032.363852,-11769.274478,-3478.967927,-2374.896044
3032.364189,-8808.450710,-4959.379811,-3907.087040
3032.364527,-7920.203579,-6143.709319,-3064.381992
3032.364865,-7994.224174,-6809.894666,-2451.505594
3032.365203,-9548.656652,-5255.462188,-2757.943793
3032.365540,-9030.512492,-4589.276840,-3140.991542
3032.365878,-10214.842000,-3330.926739,-3524.039291
3032.366216,-10732.986159,-2738.761985,-2834.553343
3032.366553,-12287.418637,-2442.679609,-3370.820191
3032.366891,-11843.295072,-3849.070898,-3294.210641
3032.367229,-9548.656652,-4811.338623,-2911.162892
3032.367567,-8586.388927,-5477.523971,-995.924147
3032.367904,-9326.594869,-5551.544565,-306.438199
3032.368242,-8956.491898,-5107.421000,-612.876398
3032.368580,-9474.636058,-2960.823768,-1378.971896
3032.368917,-9770.718434,-1332.370696,-1608.800546
3032.369255,-11843.295072,296.082377,-2987.772442
3032.369593,-11473.192101,592.164754,-2911.162892
3032.369930,-10955.047942,222.061783,-2298.286494
3032.370268,-9844.739029,0.000000,-689.485948
3032.370606,-10288.862594,222.061783,459.657299
3032.370944,-9918.759623,0.000000,-689.485948
3032.371281,-9992.780217,-814.226536,-1915.238745
3032.371619,-10584.944971,-1702.473667,-2374.896044
3032.371957,-9992.780217,-2294.638420,-3217.601092
3032.372294,-8808.450710,-2590.720797,-1608.800546
3032.372632,-8216.285956,-2738.761985,-1455.581446
3032.372970,-8364.327145,-1036.288319,-1532.190996
3032.373308,-10436.903782,740.205942,-2834.553343
3032.373645,-11547.212695,148.041188,-3524.039291
3032.373983,-11325.150913,-592.164754,-4519.963438
3032.374321,-10288.862594,-3552.988522,-2987.772442
3032.374658,-9030.512492,-4441.235652,-1225.752797
3032.374996,-8290.306550,-5995.668130,1149.143247
3032.375334,-8364.327145,-4737.318029,2374.896044
3032.375672,-8586.388927,-3775.050304,229.828649
3032.376009,-9918.759623,-2590.720797,-1072.533697
3032.376347,-11843.295072,-1480.411884,-1608.800546
3032.376685,-12731.542202,-1332.370696,-1991.848295
3032.377022,-11325.150913,-1702.473667,-1608.800546
3032.377360,-9918.759623,-1332.370696,-1378.971896
3032.377698,-10214.842000,-1184.329507,-1532.190996
3032.378035,-9992.780217,-1850.514855,-3140.991542
3032.378373,-9770.718434,-3775.050304,-3600.648841
3032.378711,-10658.965565,-5255.462188,-2298.286494
3032.379049,-10066.800811,-4663.297435,-995.924147
3032.379386,-9918.759623,-3034.844362,-1149.143247
3032.379724,-9918.759623,-1628.453072,-2987.772442
3032.380061,-9696.697840,-888.247130,-4673.182538
3032.380399,-9548.656652,-2146.597232,-4903.011187
3032.380736,-10066.800811,-2368.659014,-1915.238745
3032.381073,-9918.759623,-2590.720797,-153.219100
3032.381411,-9474.636058,-2368.659014,536.266849
3032.381748,-10510.924376,-1850.514855,766.095498
3032.382086,-10140.821405,-1776.494261,-383.047749
3032.382423,-8956.491898,-1628.453072,0.000000
3032.382760,-8290.306550,-518.144159,-612.876398
3032.383098,-9474.636058,-518.144159,536.266849
3032.383435,-10436.903782,666.185348,0.000000
3032.383773,-10881.027347,740.205942,-306.438199
3032.384110,-10955.047942,1776.494261,0.000000
3032.384448,-11399.171507,1850.514855,229.828649
3032.384785,-10807.006753,1036.288319,0.000000
3032.385122,-9770.718434,-222.061783,-536.266849
3032.385460,-8808.450710,-1258.350101,689.485948
3032.385797,-8660.409521,-1406.391290,153.219100
3032.386135,-11251.130318,-592.164754,-919.314598
3032.386472,-11251.130318,-296.082377,-4213.525239
3032.386810,-8956.491898,-1776.494261,-5745.716235
3032.387147,-8808.450710,-2664.741391,-2451.505594
3032.387484,-9178.553681,-1776.494261,-306.438199
3032.387822,-9992.780217,-2738.761985,-612.876398
3032.388159,-10066.800811,-3552.988522,-1532.190996
3032.388497,-9474.636058,-4071.132681,-383.047749
3032.388834,-8882.471304,-3923.091493,2374.896044
3032.389172,-9918.759623,-3256.906145,3370.820191
3032.389509,-10955.047942,-2072.576638,2451.505594
3032.389846,-12065.356855,-2738.761985,153.219100
3032.390184,-11843.295072,-2146.597232,0.000000
3032.390521,-10288.862594,-1554.432478,0.000000
3032.390859,-9548.656652,-444.123565,766.095498
3032.391196,-9918.759623,592.164754,0.000000
3032.391533,-10584.944971,-1924.535449,-2528.115143
3032.391871,-11029.068536,-1258.350101,-1838.629195
3032.392208,-8956.491898,-888.247130,536.266849
3032.392546,-9474.636058,-1110.308913,2604.724693
3032.392883,-10510.924376,-740.205942,2528.115143
3032.393221,-10881.027347,296.082377,766.095498
3032.393558,-11325.150913,814.226536,-383.047749
3032.393895,-10955.047942,-814.226536,-1378.971896
3032.394233,-9548.656652,-1776.494261,0.000000
3032.394570,-8512.368333,-814.226536,-306.438199
3032.394908,-8734.430116,444.123565,919.314598
3032.395245,-9252.574275,222.061783,-306.438199
3032.395583,-9622.677246,0.000000,-1072.533697
3032.395920,-10066.800811,0.000000,-536.266849
3032.396257,-10658.965565,740.205942,3370.820191
3032.396595,-9918.759623,2590.720797,3677.258390
3032.396932,-9696.697840,2590.720797,2068.457845
3032.397270,-11547.212695,1110.308913,2298.286494
3032.397607,-11917.315666,1628.453072,1762.019645
3032.397945,-10732.986159,888.247130,1378.971896
3032.398282,-9548.656652,814.226536,1455.581446
3032.398619,-9548.656652,-518.144159,0.000000
3032.398957,-10288.862594,370.102971,-1225.752797
3032.399294,-8734.430116,444.123565,-2681.334243
3032.399632,-8364.327145,74.020594,-1991.848295
3032.399969,-9696.697840,148.041188,-1378.971896
3032.400306,-11399.171507,-888.247130,-2145.067394
3032.400644,-11843.295072,-1110.308913,-1532.190996
3032.400981,-10510.924376,-1628.453072,-1149.143247
3032.401319,-8290.306550,-2220.617826,-229.828649
3032.401656,-8216.285956,-2886.803174,153.219100
3032.401994,-10140.821405,-3478.967927,1378.971896
3032.402331,-11473.192101,-3182.885551,842.705048
3032.402668,-10362.883188,-2072.576638,-229.828649
3032.403006,-11325.150913,-1184.329507,306.438199
3032.403343,-12731.542202,-1702.473667,-689.485948
3032.403681,-9992.780217,-1332.370696,-2298.286494
3032.404018,-8512.368333,-1850.514855,0.000000
3032.404356,-8216.285956,-592.164754,3447.429741
3032.404693,-9548.656652,0.000000,3370.820191
3032.405030,-12583.501014,1036.288319,1838.629195
3032.405368,-12805.562797,296.082377,612.876398
3032.405705,-11843.295072,-518.144159,1455.581446
3032.406043,-9622.677246,1258.350101,2298.286494
3032.406380,-7920.203579,222.061783,2451.505594
3032.406717,-9474.636058,1258.350101,1378.971896
3032.407055,-9030.512492,0.000000,-1225.752797
3032.407392,-10510.924376,74.020594,-689.485948
3032.407730,-10066.800811,518.144159,383.047749
3032.408067,-9474.636058,518.144159,0.000000
3032.408405,-8734.430116,222.061783,-306.438199
3032.408742,-8808.450710,222.061783,-229.828649
3032.409079,-8956.491898,-444.123565,995.924147
3032.409417,-9104.533087,1036.288319,229.828649
3032.409754,-9104.533087,0.000000,842.705048
3032.410092,-11177.109724,-888.247130,1532.190996
3032.410429,-11029.068536,-1332.370696,1378.971896
3032.410767,-10066.800811,-666.185348,2298.286494
3032.411104,-10807.006753,-1702.473667,2374.896044
3032.411441,-9474.636058,-1776.494261,536.266849
3032.411779,-9770.718434,-444.123565,0.000000
3032.412116,-10732.986159,-296.082377,0.000000
3032.412454,-9548.656652,74.020594,-459.657299
3032.412791,-11843.295072,592.164754,383.047749
3032.413129,-12435.459826,592.164754,-1991.848295
3032.413466,-11029.068536,-740.205942,-2528.115143
3032.413803,-10510.924376,-2516.700203,-536.266849
3032.414141,-9252.574275,-3034.844362,766.095498
3032.414478,-8808.450710,-3404.947333,536.266849
3032.414816,-8586.388927,-962.267725,-995.924147
3032.415153,-10214.842000,-2368.659014,-2528.115143
3032.415490,-11399.171507,-1850.514855,-3064.381992
3032.415828,-9474.636058,-2294.638420,-2987.772442
3032.416165,-9696.697840,-1184.329507,842.705048
3032.416503,-9474.636058,-1184.329507,1072.533697
3032.416840,-9622.677246,-962.267725,0.000000
3032.417178,-11769.274478,-888.247130,536.266849
3032.417515,-9770.718434,-148.041188,383.047749
3032.417852,-9918.759623,-518.144159,2834.553343
3032.418190,-10066.800811,814.226536,2298.286494
3032.418527,-8512.368333,1702.473667,1225.752797
3032.418865,-11029.068536,1184.329507,1915.238745
3032.419202,-11473.192101,1480.411884,153.219100
3032.419540,-10288.862594,1628.453072,612.876398
3032.419877,-9918.759623,2368.659014,1762.019645
3032.420214,-8438.347739,2960.823768,1302.362347
3032.420552,-9474.636058,2664.741391,76.609550
3032.420889,-9918.759623,2590.720797,306.438199
3032.421227,-9770.718434,1850.514855,383.047749
3032.421564,-10510.924376,962.267725,919.314598
3032.421901,-9992.780217,1480.411884,153.219100
3032.422239,-10214.842000,-518.144159,-536.266849
3032.422576,-9548.656652,-1850.514855,-536.266849
3032.422914,-7846.182985,-2072.576638,-383.047749
3032.423251,-8364.327145,-2294.638420,383.047749
3032.423589,-8956.491898,-1480.411884,153.219100
3032.423926,-9844.739029,-1776.494261,306.438199
3032.424263,-10510.924376,0.000000,383.047749
3032.424601,-10658.965565,-1480.411884,459.657299
3032.424938,-11473.192101,-518.144159,1685.410096
3032.425276,-11547.212695,-1110.308913,1991.848295
3032.425613,-10140.821405,-1628.453072,1838.629195
3032.425951,-9400.615463,-1776.494261,919.314598
3032.426288,-9770.718434,-1702.473667,1532.190996
3032.426625,-10362.883188,-1702.473667,0.000000
3032.426963,-10510.924376,-2146.597232,-995.924147
3032.427300,-10288.862594,370.102971,-1532.190996
3032.427638,-10807.006753,0.000000,-1378.971896
3032.427975,-11769.274478,-518.144159,-1149.143247
3032.428313,-10436.903782,-1406.391290,-1762.019645
3032.428650,-9030.512492,-666.185348,-536.266849
3032.428987,-9400.615463,-444.123565,1608.800546
3032.429325,-11177.109724,-370.102971,612.876398
3032.429662,-11621.233289,-666.185348,-766.095498
3032.430000,-12213.398043,-1702.473667,-1838.629195
3032.430337,-8882.471304,-1184.329507,-689.485948
3032.430674,-7179.997637,0.000000,1378.971896
3032.431012,-8586.388927,222.061783,1302.362347
3032.431349,-9474.636058,518.144159,-612.876398
3032.431687,-10881.027347,1110.308913,0.000000
3032.432024,-11177.109724,1406.391290,459.657299
3032.432362,-9474.636058,2220.617826,1915.238745
3032.432699,-9844.739029,2220.617826,3294.210641
3032.433036,-9178.553681,1998.556043,1762.019645
3032.433374,-9844.739029,814.226536,919.314598
3032.433711,-10584.944971,1110.308913,919.314598
3032.434049,-8586.388927,1332.370696,-229.828649
3032.434386,-8808.450710,1110.308913,383.047749
3032.434724,-10066.800811,1480.411884,-2528.115143
3032.435061,-9770.718434,0.000000,-3524.039291
3032.435398,-10436.903782,-370.102971,-2298.286494
3032.435736,-9326.594869,-370.102971,-689.485948
3032.436073,-8586.388927,0.000000,0.000000
3032.436411,-10732.986159,-1628.453072,536.266849
3032.436748,-10955.047942,-2146.597232,612.876398
3032.437086,-10436.903782,-3256.906145,1608.800546
3032.437423,-10288.862594,-2146.597232,1532.190996
3032.437760,-9918.759623,-2812.782580,1149.143247
3032.438098,-11769.274478,-1924.535449,0.000000
3032.438435,-10362.883188,-2146.597232,-2604.724693
3032.438773,-10288.862594,-2812.782580,-919.314598
3032.439110,-9104.533087,-1850.514855,1225.752797
3032.439447,-9622.677246,-1480.411884,2068.457845
3032.439785,-11325.150913,-222.061783,2451.505594
3032.440122,-10732.986159,444.123565,1762.019645
3032.440460,-11769.274478,0.000000,2221.676944
3032.440797,-11843.295072,0.000000,2451.505594
3032.441135,-9770.718434,592.164754,1915.238745
3032.441472,-10140.821405,1036.288319,2068.457845
3032.441809,-9844.739029,1110.308913,-612.876398
3032.442147,-8734.430116,518.144159,-1072.533697
3032.442484,-10362.883188,-222.061783,-536.266849
3032.442822,-8808.450710,518.144159,-612.876398
3032.443159,-8512.368333,888.247130,-306.438199
3032.443497,-9918.759623,1776.494261,-536.266849
3032.443834,-8734.430116,740.205942,-1532.190996
3032.444171,-9474.636058,0.000000,536.266849
3032.444509,-10214.842000,1184.329507,2451.505594
3032.444846,-9178.553681,2516.700203,1915.238745
3032.445184,-11325.150913,1924.535449,1149.143247
3032.445521,-11547.212695,74.020594,0.000000
3032.445858,-10214.842000,-1258.350101,0.000000
3032.446196,-9104.533087,-222.061783,995.924147
3032.446533,-7550.100608,370.102971,1225.752797
3032.446871,-9474.636058,1258.350101,1149.143247
3032.447208,-10658.965565,1184.329507,-2145.067394
3032.447546,-11547.212695,296.082377,-1532.190996
3032.447883,-11251.130318,1480.411884,229.828649
3032.448220,-8660.409521,962.267725,842.705048
3032.448558,-10658.965565,814.226536,1991.848295
3032.448895,-11399.171507,-962.267725,-76.609550
3032.449233,-10288.862594,-2294.638420,-995.924147
3032.449570,-9844.739029,-2590.720797,306.438199
3032.449908,-9548.656652,-1628.453072,-383.047749
3032.450245,-9844.739029,-518.144159,-1225.752797
3032.450582,-11177.109724,-1110.308913,-3907.087040
3032.450920,-8956.491898,-2442.679609,-3600.648841
3032.451257,-9326.594869,-2886.803174,-1378.971896
3032.451595,-8364.327145,-2220.617826,919.314598
3032.451932,-8808.450710,-1554.432478,1225.752797
3032.452270,-10584.944971,-222.061783,995.924147
3032.452607,-12065.356855,-888.247130,689.485948
3032.452944,-11695.253884,-1258.350101,1762.019645
3032.453282,-9178.553681,518.144159,2604.724693
3032.453619,-9548.656652,592.164754,2604.724693
3032.453957,-11177.109724,1702.473667,995.924147
3032.454294,-10436.903782,814.226536,-689.485948
3032.454631,-10807.006753,0.000000,0.000000
3032.454969,-8364.327145,1924.535449,612.876398
3032.455306,-8290.306550,2886.803174,1915.238745
3032.455644,-9992.780217,3627.009116,842.705048
3032.455981,-9548.656652,1924.535449,-1608.800546
3032.456319,-10436.903782,1184.329507,-995.924147
3032.456656,-9992.780217,148.041188,689.485948
3032.456993,-9474.636058,0.000000,2298.286494
3032.457331,-9326.594869,1406.391290,0.000000
3032.457668,-8216.285956,-296.082377,-153.219100
3032.458006,-9918.759623,-2072.576638,383.047749
3032.458343,-9474.636058,-2664.741391,0.000000
3032.458681,-7772.162391,-1036.288319,1455.581446
3032.459018,-9178.553681,1110.308913,1455.581446
3032.459355,-10955.047942,222.061783,-766.095498
3032.459693,-11917.315666,-296.082377,-1378.971896
3032.460030,-11843.295072,-1924.535449,0.000000
3032.460368,-9178.553681,-888.247130,3064.381992
3032.460705,-9252.574275,1480.411884,2834.553343
3032.461042,-11325.150913,888.247130,1302.362347
3032.461380,-12139.377449,-1998.556043,-229.828649
3032.461717,-11325.150913,-3775.050304,229.828649
3032.462055,-9104.533087,-1850.514855,1762.019645
3032.462392,-9622.677246,0.000000,2528.115143
3032.462730,-9992.780217,666.185348,-1149.143247
3032.463067,-10658.965565,-1036.288319,-2681.334243
3032.463404,-11029.068536,74.020594,-1838.629195
3032.463742,-9992.780217,-1036.288319,0.000000
3032.464079,-10732.986159,-1332.370696,459.657299
3032.464417,-9622.677246,-1036.288319,-1608.800546
3032.464754,-9030.512492,-1776.494261,-3677.258390
3032.465092,-9104.533087,-2368.659014,-919.314598
3032.465429,-9104.533087,-3034.844362,1685.410096
3032.465766,-8586.388927,-518.144159,1225.752797
3032.466104,-10288.862594,222.061783,306.438199
3032.466441,-11843.295072,814.226536,0.000000
3032.466779,-11473.192101,-444.123565,-383.047749
3032.467116,-9326.594869,-518.144159,612.876398
3032.467454,-7550.100608,2146.597232,2604.724693
3032.467791,-10066.800811,2072.576638,3677.258390
3032.468128,-10510.924376,3108.864956,1072.533697
3032.468466,-10807.006753,2368.659014,-995.924147
3032.468803,-12065.356855,1110.308913,1225.752797
3032.469141,-11177.109724,1998.556043,1608.800546
3032.469478,-9400.615463,2368.659014,229.828649
3032.469815,-8956.491898,2738.761985,-383.047749
3032.470153,-8512.368333,1110.308913,-689.485948
3032.470490,-10436.903782,0.000000,-612.876398
3032.470828,-9326.594869,444.123565,-1149.143247
3032.471165,-9770.718434,296.082377,153.219100
3032.471503,-9548.656652,1110.308913,-612.876398
3032.471840,-9548.656652,-518.144159,-1685.410096
3032.472177,-9252.574275,-1110.308913,-1608.800546
3032.472515,-8882.471304,-2072.576638,-306.438199
3032.472852,-9252.574275,-1480.411884,1532.190996
3032.473190,-10807.006753,-1628.453072,306.438199
3032.473527,-10140.821405,-1924.535449,-1532.190996
3032.473865,-9178.553681,-3330.926739,-1149.143247
3032.474202,-8364.327145,-3182.885551,1608.800546
3032.474539,-8290.306550,-1184.329507,3064.381992
3032.474877,-9992.780217,-444.123565,2757.943793
3032.475214,-11029.068536,-370.102971,1838.629195
3032.475552,-12731.542202,0.000000,2374.896044
3032.475889,-12583.501014,444.123565,2221.676944
3032.476227,-11843.295072,296.082377,2604.724693
3032.476564,-11621.233289,148.041188,1838.629195
3032.476901,-9696.697840,-814.226536,-306.438199
3032.477239,-10140.821405,-2368.659014,-306.438199
3032.477576,-8290.306550,-1110.308913,-612.876398
3032.477913,-8956.491898,-962.267725,0.000000
3032.478251,-10732.986159,518.144159,-306.438199
3032.478588,-10510.924376,370.102971,-2298.286494
3032.478925,-10436.903782,0.000000,-1302.362347
3032.479262,-10732.986159,-222.061783,459.657299
3032.479600,-9696.697840,148.041188,919.314598
3032.479937,-8882.471304,222.061783,842.705048
3032.480274,-9400.615463,222.061783,536.266849
3032.480612,-9326.594869,-444.123565,0.000000
3032.480949,-10732.986159,-296.082377,0.000000
3032.481286,-9918.759623,-1554.432478,842.705048
3032.481623,-9622.677246,-814.226536,383.047749
3032.481961,-8364.327145,814.226536,229.828649
3032.482298,-9474.636058,1184.329507,229.828649
3032.482635,-10214.842000,814.226536,153.219100
3032.482972,-9844.739029,1480.411884,229.828649
3032.483310,-9918.759623,2738.761985,306.438199
3032.483647,-11473.192101,1110.308913,383.047749
3032.483984,-11843.295072,296.082377,-306.438199
3032.484322,-9992.780217,-1554.432478,-459.657299
3032.484659,-8956.491898,-1480.411884,-383.047749
3032.484996,-8660.409521,-962.267725,-995.924147
3032.485333,-9030.512492,-666.185348,-2068.457845
3032.485671,-8808.450710,-1036.288319,-3217.601092
3032.486008,-10214.842000,-1554.432478,-2145.067394
3032.486345,-10732.986159,-1258.350101,-459.657299
3032.486682,-10066.800811,-518.144159,153.219100
3032.487020,-11103.089130,-1332.370696,2068.457845
3032.487357,-11547.212695,-1110.308913,1225.752797
3032.487694,-10066.800811,-740.205942,1532.190996
3032.488032,-11251.130318,-1332.370696,2145.067394
3032.488369,-9770.718434,-1776.494261,1608.800546
3032.488706,-10140.821405,-962.267725,1838.629195
3032.489043,-10214.842000,-1258.350101,1378.971896
3032.489381,-9178.553681,-518.144159,766.095498
3032.489718,-9918.759623,-148.041188,1302.362347
3032.490055,-10140.821405,592.164754,1149.143247
3032.490393,-9622.677246,444.123565,919.314598
3032.490730,-10362.883188,2442.679609,1378.971896
3032.491067,-10362.883188,1258.350101,1762.019645
3032.491404,-10510.924376,444.123565,1532.190996
3032.491742,-10288.862594,1110.308913,1302.362347
3032.492079,-10066.800811,518.144159,842.705048
3032.492416,-10140.821405,0.000000,306.438199
3032.492753,-9474.636058,-962.267725,-842.705048
3032.493091,-9030.512492,-518.144159,-1072.533697
3032.493428,-8438.347739,370.102971,-919.314598
3032.493765,-8660.409521,-296.082377,-1685.410096
3032.494103,-11325.150913,444.123565,-919.314598
3032.494440,-10510.924376,-1110.308913,-536.266849
3032.494777,-10807.006753,0.000000,919.314598
3032.495114,-10362.883188,-370.102971,2451.505594
3032.495452,-10510.924376,444.123565,2987.772442
3032.495789,-10955.047942,148.041188,1685.410096
3032.496126,-9992.780217,-222.061783,612.876398
3032.496463,-10362.883188,-962.267725,1149.143247
3032.496801,-10584.944971,-666.185348,842.705048
3032.497138,-10066.800811,-518.144159,1149.143247
3032.497475,-9770.718434,1406.391290,-536.266849
3032.497813,-11399.171507,296.082377,-2451.505594
3032.498150,-8512.368333,-518.144159,-2604.724693
3032.498487,-8956.491898,-1332.370696,-1072.533697
3032.498824,-9770.718434,-1036.288319,1455.581446
3032.499162,-8956.491898,-962.267725,-459.657299
3032.499499,-10807.006753,-1184.329507,-919.314598
3032.499836,-11621.233289,-1184.329507,-1302.362347
3032.500173,-8438.347739,-1702.473667,-1608.800546
3032.500511,-8882.471304,-1776.494261,-612.876398
3032.500848,-11251.130318,-2368.659014,919.314598
3032.501185,-9548.656652,-1554.432478,-1532.190996
3032.501523,-9696.697840,-1924.535449,-1532.190996
3032.501860,-9326.594869,-1406.391290,0.000000
3032.502197,-9252.574275,-962.267725,0.000000
3032.502534,-10066.800811,0.000000,2145.067394
3032.502872,-10214.842000,370.102971,3294.210641
3032.503209,-11251.130318,888.247130,3140.991542
3032.503546,-12509.480420,1184.329507,2298.286494
3032.503884,-11177.109724,0.000000,0.000000
3032.504221,-10140.821405,222.061783,995.924147
3032.504558,-9252.574275,666.185348,1991.848295
3032.504895,-9474.636058,1184.329507,459.657299
3032.505233,-10436.903782,222.061783,-536.266849
3032.505570,-9622.677246,74.020594,-1838.629195
3032.505907,-9474.636058,-222.061783,-2145.067394
3032.506244,-9474.636058,-296.082377,0.000000
3032.506582,-9252.574275,-370.102971,1225.752797
3032.506919,-9770.718434,-814.226536,842.705048
3032.507256,-10658.965565,-740.205942,76.609550
3032.507594,-9770.718434,-444.123565,-842.705048
3032.507931,-11325.150913,-2220.617826,536.266849
3032.508268,-9844.739029,-2812.782580,0.000000
3032.508605,-8142.265362,-2220.617826,-459.657299
3032.508943,-9252.574275,-1628.453072,1608.800546
3032.509280,-8808.450710,-1110.308913,383.047749
3032.509617,-10510.924376,0.000000,536.266849
3032.509954,-10955.047942,74.020594,0.000000
3032.510292,-9992.780217,-222.061783,1378.971896
3032.510629,-11177.109724,444.123565,3447.429741
3032.510966,-11103.089130,592.164754,2911.162892
3032.511304,-10584.944971,888.247130,1608.800546
3032.511641,-10214.842000,148.041188,536.266849
3032.511978,-9548.656652,-888.247130,383.047749
3032.512315,-9770.718434,740.205942,1685.410096
3032.512653,-10214.842000,1184.329507,383.047749
3032.512990,-9770.718434,1480.411884,-1532.190996
3032.513327,-10436.903782,518.144159,-3370.820191
3032.513665,-10658.965565,0.000000,-3524.039291
3032.514002,-9474.636058,-518.144159,-2374.896044
3032.514339,-8216.285956,-814.226536,-689.485948
3032.514676,-7105.977043,-296.082377,536.266849
3032.515014,-10214.842000,-888.247130,1378.971896
3032.515351,-12435.459826,-666.185348,995.924147
3032.515688,-11325.150913,-1628.453072,1302.362347
3032.516025,-10584.944971,-1036.288319,2604.724693
3032.516363,-10066.800811,-740.205942,2987.772442
3032.516700,-10288.862594,370.102971,1762.019645
3032.517037,-9474.636058,-1924.535449,689.485948
3032.517375,-9770.718434,-1554.432478,0.000000
3032.517712,-9326.594869,-222.061783,0.000000
3032.518049,-9252.574275,1850.514855,-842.705048
3032.518386,-9844.739029,1850.514855,-1149.143247
3032.518724,-11621.233289,814.226536,-2757.943793
3032.519061,-11621.233289,-370.102971,-842.705048
3032.519398,-9770.718434,-74.020594,76.609550
3032.519735,-7920.203579,296.082377,1762.019645
3032.520073,-9548.656652,296.082377,1762.019645
3032.520410,-11917.315666,-666.185348,-306.438199
3032.520747,-12287.418637,-1776.494261,-1378.971896
3032.521085,-10955.047942,-2294.638420,-1149.143247
3032.521422,-8660.409521,-2146.597232,0.000000
3032.521759,-7698.141797,0.000000,-153.219100
3032.522096,-8882.471304,-740.205942,-1608.800546
3032.522434,-10066.800811,-1776.494261,-1685.410096
3032.522771,-10584.944971,-2146.597232,-1378.971896
3032.523108,-9104.533087,-518.144159,76.609550
3032.523445,-9252.574275,-222.061783,1762.019645
3032.523783,-10140.821405,-888.247130,1991.848295
3032.524120,-10140.821405,-1258.350101,1762.019645
3032.524457,-9770.718434,-1480.411884,3447.429741
3032.524795,-9252.574275,-518.144159,4290.134789
3032.525132,-9770.718434,1332.370696,3600.648841
3032.525469,-12435.459826,2220.617826,1302.362347
3032.525806,-13175.665768,592.164754,-1072.533697
3032.526144,-11177.109724,74.020594,-1762.019645
3032.526481,-8438.347739,296.082377,-919.314598
3032.526818,-6735.874072,-296.082377,-306.438199
3032.527156,-8438.347739,-296.082377,-842.705048
3032.527493,-9770.718434,-814.226536,-689.485948
3032.527830,-10955.047942,-1258.350101,-612.876398
3032.528167,-12361.439231,-740.205942,1072.533697
3032.528505,-11473.192101,0.000000,1532.190996
3032.528842,-10955.047942,-592.164754,1149.143247
3032.529179,-10436.903782,-2072.576638,0.000000
3032.529516,-9548.656652,-3034.844362,459.657299
3032.529854,-8734.430116,-3034.844362,1838.629195
3032.530191,-7698.141797,-2368.659014,1455.581446
3032.530528,-10288.862594,-740.205942,383.047749
3032.530866,-10732.986159,592.164754,-1302.362347
3032.531203,-11177.109724,-1184.329507,-1685.410096
3032.531540,-10955.047942,-1554.432478,-459.657299
3032.531877,-7920.203579,0.000000,689.485948
3032.532215,-8586.388927,814.226536,2374.896044
3032.532552,-11177.109724,888.247130,1532.190996
3032.532889,-11843.295072,-222.061783,-76.609550
3032.533226,-11547.212695,-370.102971,612.876398
3032.533564,-9474.636058,518.144159,1149.143247
3032.533901,-9770.718434,1258.350101,1991.848295
3032.534238,-11325.150913,1702.473667,0.000000
3032.534576,-10214.842000,0.000000,-3217.601092
3032.534913,-10510.924376,518.144159,-2145.067394
3032.535250,-10436.903782,592.164754,-1762.019645
3032.535587,-8734.430116,0.000000,-2221.676944
3032.535925,-8142.265362,-962.267725,-2145.067394
3032.536262,-8364.327145,-1554.432478,-766.095498
3032.536599,-9548.656652,-1776.494261,383.047749
3032.536937,-9104.533087,-1184.329507,1149.143247
3032.537274,-8068.244768,74.020594,1991.848295
3032.537611,-10807.006753,0.000000,2451.505594
3032.537948,-13249.686362,-148.041188,1685.410096
3032.538286,-11251.130318,-1184.329507,2068.457845
3032.538623,-9326.594869,0.000000,2145.067394
3032.538960,-8438.347739,1554.432478,1762.019645
3032.539297,-11177.109724,740.205942,229.828649
3032.539635,-11325.150913,888.247130,-1762.019645
3032.539972,-10214.842000,518.144159,-3140.991542
3032.540309,-9326.594869,148.041188,-2145.067394
3032.540647,-9030.512492,370.102971,383.047749
3032.540984,-10362.883188,444.123565,1072.533697
3032.541321,-11177.109724,518.144159,-689.485948
3032.541658,-10658.965565,-1554.432478,-153.219100
3032.541996,-11621.233289,-2812.782580,1608.800546
3032.542333,-10955.047942,-2812.782580,1762.019645
3032.542670,-8882.471304,-2368.659014,1991.848295
3032.543007,-8068.244768,-1480.411884,995.924147
3032.543345,-9252.574275,-1406.391290,-153.219100
3032.543682,-11251.130318,-2072.576638,0.000000
3032.544019,-11177.109724,-1554.432478,-995.924147
3032.544357,-10066.800811,-666.185348,-306.438199
3032.544694,-8882.471304,-666.185348,-1072.533697
3032.545031,-8438.347739,-1036.288319,1455.581446
3032.545368,-10066.800811,-2220.617826,2451.505594
3032.545706,-9918.759623,-740.205942,2451.505594
3032.546043,-9548.656652,962.267725,2834.553343
3032.546380,-10881.027347,1406.391290,2757.943793
3032.546717,-12139.377449,814.226536,1455.581446
3032.547055,-12065.356855,-444.123565,459.657299
3032.547392,-9622.677246,1110.308913,1455.581446
3032.547729,-7698.141797,1036.288319,1149.143247
3032.548067,-9548.656652,2442.679609,1225.752797
3032.548404,-9474.636058,2664.741391,-3064.381992
3032.548741,-11103.089130,296.082377,-3217.601092
3032.549078,-10584.944971,296.082377,-1915.238745
3032.549416,-8068.244768,-222.061783,-1378.971896
3032.549753,-9474.636058,-666.185348,1532.190996
3032.550090,-8734.430116,-592.164754,536.266849
3032.550428,-8290.306550,-1480.411884,229.828649
3032.550765,-10066.800811,-888.247130,1532.190996
3032.551102,-10066.800811,-1036.288319,1608.800546
3032.551439,-10288.862594,592.164754,842.705048
3032.551777,-11399.171507,0.000000,-689.485948
3032.552114,-11769.274478,-740.205942,-1838.629195
3032.552451,-9844.739029,-2368.659014,-995.924147
3032.552788,-7994.224174,-2072.576638,612.876398
3032.553126,-7994.224174,-518.144159,2451.505594
3032.553463,-10658.965565,74.020594,842.705048
3032.553800,-11843.295072,-74.020594,-383.047749
3032.554138,-12509.480420,-1036.288319,-1072.533697
3032.554475,-10584.944971,0.000000,0.000000
3032.554812,-9326.594869,444.123565,0.000000
3032.555149,-9844.739029,0.000000,76.609550
3032.555487,-10066.800811,-1480.411884,-995.924147
3032.555824,-11325.150913,-1554.432478,-1072.533697
3032.556161,-10955.047942,-962.267725,-612.876398
3032.556498,-9770.718434,-1036.288319,-383.047749
3032.556836,-11251.130318,-814.226536,0.000000
3032.557173,-10436.903782,-1776.494261,-1225.752797
3032.557510,-9474.636058,-2294.638420,-612.876398
3032.557848,-8882.471304,-2294.638420,1072.533697
3032.558185,-8660.409521,-1036.288319,1685.410096
3032.558522,-9696.697840,666.185348,919.314598
3032.558859,-11547.212695,1036.288319,766.095498
3032.559197,-10881.027347,370.102971,153.219100
3032.559534,-10214.842000,888.247130,1072.533697
3032.559871,-8586.388927,148.041188,3600.648841
3032.560209,-9104.533087,1850.514855,3753.867940
3032.560546,-10362.883188,2516.700203,2068.457845
3032.560883,-10214.842000,2812.782580,0.000000
3032.561220,-10140.821405,1332.370696,-229.828649
3032.561558,-8956.491898,0.000000,459.657299
3032.561895,-8660.409521,1258.350101,1225.752797
3032.562232,-8734.430116,1480.411884,76.609550
3032.562569,-9992.780217,1332.370696,-995.924147
3032.562907,-10955.047942,222.061783,-1608.800546
3032.563244,-10140.821405,370.102971,-1762.019645
3032.563581,-10214.842000,-222.061783,0.000000
3032.563919,-9548.656652,370.102971,1072.533697
3032.564256,-9844.739029,-1036.288319,0.000000
3032.564593,-11325.150913,-2516.700203,0.000000
3032.564930,-9844.739029,-3552.988522,-229.828649
3032.565268,-9326.594869,-3849.070898,1685.410096
3032.565605,-10140.821405,-2146.597232,2757.943793
3032.565942,-9992.780217,-1924.535449,1608.800546
3032.566279,-11769.274478,-1332.370696,1225.752797
3032.566617,-11547.212695,-814.226536,-153.219100
3032.566954,-9918.759623,-1036.288319,153.219100
3032.567291,-10807.006753,-592.164754,842.705048
3032.567629,-8882.471304,-296.082377,0.000000
3032.567966,-9992.780217,-1036.288319,612.876398
3032.568303,-10955.047942,-1850.514855,76.609550
3032.568640,-9992.780217,-666.185348,536.266849
3032.568978,-9992.780217,-222.061783,0.000000
3032.569315,-9252.574275,-148.041188,-1072.533697
3032.569652,-10066.800811,-296.082377,-995.924147
3032.569989,-9474.636058,-962.267725,-1685.410096
3032.570327,-8586.388927,-1036.288319,-689.485948
3032.570664,-9844.739029,296.082377,0.000000
3032.571001,-9400.615463,1258.350101,-995.924147
3032.571339,-9770.718434,222.061783,-995.924147
3032.571676,-11251.130318,518.144159,153.219100
3032.572013,-8882.471304,518.144159,383.047749
3032.572350,-9770.718434,592.164754,2451.505594
3032.572688,-11769.274478,1480.411884,2374.896044
3032.573025,-10584.944971,1258.350101,459.657299
3032.573362,-11103.089130,2294.638420,995.924147
3032.573700,-8956.491898,962.267725,1072.533697
3032.574037,-8956.491898,1776.494261,1532.190996
3032.574374,-9918.759623,2220.617826,1072.533697
3032.574711,-9844.739029,2590.720797,-919.314598
3032.575049,-10955.047942,1776.494261,-689.485948
3032.575386,-10436.903782,1110.308913,-1302.362347
3032.575723,-9400.615463,1036.288319,306.438199
3032.576060,-8882.471304,592.164754,689.485948
3032.576398,-8586.388927,222.061783,-229.828649
3032.576735,-11029.068536,-1184.329507,76.609550
3032.577072,-10584.944971,-2368.659014,-612.876398
3032.577410,-8956.491898,-1184.329507,-1455.581446
3032.577747,-10214.842000,-2072.576638,306.438199
3032.578084,-9252.574275,-2072.576638,-612.876398
3032.578421,-9622.677246,-2886.803174,229.828649
3032.578759,-10510.924376,-2368.659014,842.705048
3032.579096,-8660.409521,-1480.411884,306.438199
3032.579433,-11177.109724,-2072.576638,995.924147
3032.579771,-11991.336260,-2368.659014,842.705048
3032.580108,-11473.192101,-3182.885551,1225.752797
3032.580445,-11325.150913,-2072.576638,3064.381992
3032.580783,-8808.450710,-518.144159,2451.505594
3032.581120,-9770.718434,740.205942,2145.067394
3032.581457,-11695.253884,222.061783,1072.533697
3032.581795,-11325.150913,0.000000,-383.047749
3032.582132,-10807.006753,370.102971,995.924147
3032.582469,-9844.739029,814.226536,1915.238745
3032.582807,-9548.656652,1406.391290,2298.286494
3032.583144,-10807.006753,2072.576638,306.438199
3032.583482,-9844.739029,1924.535449,-766.095498
3032.583819,-10658.965565,1036.288319,76.609550
3032.584156,-9696.697840,962.267725,0.000000
3032.584494,-8290.306550,592.164754,-153.219100
3032.584831,-9474.636058,296.082377,-1149.143247
3032.585168,-8882.471304,814.226536,-1762.019645
3032.585506,-8660.409521,222.061783,-1302.362347
3032.585843,-8660.409521,962.267725,-612.876398
3032.586180,-8438.347739,1628.453072,153.219100
3032.586518,-10362.883188,1776.494261,0.000000
3032.586855,-11325.150913,518.144159,-306.438199
3032.587192,-9844.739029,-518.144159,0.000000
3032.587530,-9696.697840,148.041188,1608.800546
3032.587867,-9252.574275,-962.267725,2374.896044
3032.588204,-8808.450710,-1184.329507,2068.457845
3032.588542,-10288.862594,-370.102971,2068.457845
3032.588879,-11251.130318,888.247130,919.314598
3032.589216,-11177.109724,1110.308913,-1532.190996
3032.589554,-11917.315666,0.000000,-1838.629195
3032.589891,-10658.965565,-518.144159,-2298.286494
3032.590228,-9252.574275,-1036.288319,-1455.581446
3032.590566,-8290.306550,-1110.308913,-766.095498
3032.590903,-10214.842000,-2368.659014,229.828649
3032.591240,-11843.295072,-1332.370696,-1378.971896
3032.591578,-11473.192101,-2516.700203,-2834.553343
3032.591915,-10436.903782,-2664.741391,-766.095498
3032.592252,-9622.677246,-2072.576638,0.000000
3032.592590,-8438.347739,-3182.885551,76.609550
3032.592927,-9474.636058,-3182.885551,919.314598
3032.593265,-10436.903782,-3330.926739,1378.971896
3032.593602,-11029.068536,-1850.514855,689.485948
3032.593939,-9622.677246,-1110.308913,1072.533697
3032.594277,-10066.800811,-888.247130,3600.648841
3032.594614,-10436.903782,74.020594,2834.553343
3032.594951,-9474.636058,1110.308913,766.095498
3032.595289,-9992.780217,1554.432478,689.485948
3032.595626,-10584.944971,-444.123565,1838.629195
3032.595963,-10807.006753,1184.329507,1915.238745
3032.596301,-9622.677246,3108.864956,689.485948
3032.596638,-8808.450710,3552.988522,383.047749
3032.596975,-9548.656652,1924.535449,536.266849
3032.597313,-9696.697840,2516.700203,-995.924147
3032.597650,-9548.656652,1628.453072,-383.047749
3032.597987,-10732.986159,2590.720797,842.705048
3032.598325,-9696.697840,1702.473667,229.828649
3032.598662,-9918.759623,2146.597232,76.609550
3032.598999,-10140.821405,888.247130,-306.438199
3032.599337,-9474.636058,296.082377,76.609550
3032.599674,-8882.471304,-518.144159,-842.705048
3032.600011,-9622.677246,-1110.308913,536.266849
3032.600349,-9992.780217,-1110.308913,919.314598
3032.600686,-9622.677246,-1184.329507,459.657299
3032.601023,-9770.718434,-222.061783,1149.143247
3032.601361,-11251.130318,-962.267725,2221.676944
3032.601698,-11251.130318,-518.144159,919.314598
3032.602035,-10658.965565,-1776.494261,612.876398
3032.602373,-10362.883188,-2146.597232,842.705048
3032.602710,-9030.512492,-2590.720797,1149.143247
3032.603047,-9918.759623,-2368.659014,1838.629195
3032.603385,-9622.677246,-1036.288319,306.438199
3032.603722,-11103.089130,-888.247130,-459.657299
3032.604060,-12213.398043,0.000000,-1685.410096
3032.604397,-9696.697840,-1702.473667,-2451.505594
3032.604734,-10362.883188,-1628.453072,919.314598
3032.605072,-10658.965565,-962.267725,1225.752797
3032.605409,-10214.842000,-518.144159,-1149.143247
3032.605746,-9918.759623,-444.123565,-612.876398
3032.606084,-9918.759623,-1850.514855,-1302.362347
3032.606421,-10881.027347,-2960.823768,76.609550
3032.606758,-9992.780217,-1850.514855,689.485948
3032.607096,-8290.306550,222.061783,612.876398
3032.607433,-9474.636058,370.102971,229.828649
3032.607770,-10362.883188,1036.288319,-1072.533697
3032.608108,-10288.862594,518.144159,-766.095498
3032.608445,-10214.842000,1258.350101,919.314598
3032.608782,-7624.121203,2516.700203,1302.362347
3032.609120,-9474.636058,2664.741391,2374.896044
3032.609457,-11325.150913,2072.576638,1991.848295
3032.609794,-9918.759623,1924.535449,229.828649
3032.610132,-10066.800811,1776.494261,1455.581446
3032.610469,-9178.553681,3330.926739,689.485948
3032.610806,-9548.656652,2516.700203,536.266849
3032.611144,-10955.047942,1924.535449,-1072.533697
3032.611481,-10288.862594,296.082377,-2145.067394
3032.611818,-9844.739029,518.144159,-995.924147
3032.612156,-9326.594869,1258.350101,-612.876398
3032.612493,-8512.368333,222.061783,-1532.190996
3032.612830,-9992.780217,0.000000,-1991.848295
3032.613168,-9548.656652,-1554.432478,-1608.800546
3032.613505,-10732.986159,-2294.638420,766.095498
3032.613843,-10658.965565,-1480.411884,689.485948
3032.614180,-9844.739029,-1258.350101,153.219100
3032.614517,-11251.130318,-2960.823768,229.828649
3032.614855,-10732.986159,-3552.988522,229.828649
3032.615192,-10066.800811,-4515.256246,1455.581446
3032.615529,-9178.553681,-4071.132681,2451.505594
3032.615867,-7920.203579,-2294.638420,2068.457845
3032.616204,-10807.006753,-1702.473667,2834.553343
3032.616541,-11621.233289,-1850.514855,689.485948
3032.616879,-11177.109724,-2368.659014,1149.143247
3032.617216,-10881.027347,-370.102971,2145.067394
3032.617553,-10436.903782,518.144159,2374.896044
3032.617891,-12065.356855,-444.123565,1762.019645
3032.618228,-9992.780217,-1554.432478,0.000000
3032.618565,-9252.574275,-1258.350101,1072.533697
3032.618903,-9104.533087,0.000000,1455.581446
3032.619240,-9474.636058,518.144159,-995.924147
3032.619577,-10288.862594,74.020594,-1915.238745
3032.619915,-9992.780217,370.102971,-1838.629195
3032.620252,-10362.883188,0.000000,-536.266849
3032.620589,-11325.150913,1258.350101,842.705048
3032.620927,-8216.285956,2072.576638,536.266849
3032.621264,-9326.594869,2442.679609,1149.143247
3032.621601,-11177.109724,2146.597232,229.828649
3032.621939,-10214.842000,222.061783,-536.266849
3032.622276,-10658.965565,0.000000,612.876398
3032.622613,-9030.512492,-148.041188,919.314598
3032.622951,-9252.574275,1480.411884,1302.362347
3032.623288,-9030.512492,2072.576638,-919.314598
3032.623626,-8438.347739,888.247130,-1915.238745
3032.623963,-9696.697840,666.185348,-766.095498
3032.624300,-9326.594869,1258.350101,-1149.143247
3032.624638,-9252.574275,2590.720797,-995.924147
3032.624975,-10584.944971,2146.597232,-689.485948
3032.625312,-10807.006753,74.020594,-1225.752797
3032.625650,-10732.986159,-1998.556043,0.000000
3032.625987,-9400.615463,-1184.329507,995.924147
3032.626324,-8882.471304,-1036.288319,612.876398
3032.626662,-11177.109724,-1332.370696,-229.828649
3032.626999,-11769.274478,-3182.885551,-1915.238745
3032.627336,-10436.903782,-3330.926739,-2757.943793
3032.627674,-9474.636058,-3256.906145,-919.314598
3032.628011,-8586.388927,-2442.679609,0.000000
3032.628348,-9178.553681,-1924.535449,-536.266849
3032.628686,-11103.089130,-1850.514855,-919.314598
3032.629023,-11917.315666,-2738.761985,0.000000
3032.629360,-11473.192101,-2442.679609,1762.019645
3032.629698,-10214.842000,-1258.350101,4366.744339
3032.630035,-11177.109724,-814.226536,4519.963438
3032.630372,-11399.171507,-592.164754,3370.820191
3032.630710,-10288.862594,-1480.411884,2987.772442
3032.631047,-9992.780217,-1406.391290,3447.429741
3032.631384,-9770.718434,592.164754,2145.067394
3032.631722,-8512.368333,2664.741391,-842.705048
3032.632059,-9548.656652,2886.803174,-3217.601092
3032.632396,-9696.697840,2072.576638,-2681.334243
3032.632734,-9474.636058,740.205942,-1455.581446
3032.633071,-8216.285956,592.164754,0.000000
3032.633408,-9030.512492,1628.453072,2451.505594
3032.633746,-10658.965565,1998.556043,2221.676944
3032.634083,-10955.047942,1406.391290,766.095498
3032.634421,-11325.150913,-1406.391290,1762.019645
3032.634758,-8882.471304,-1036.288319,1532.190996
3032.635095,-8586.388927,-296.082377,1149.143247
3032.635433,-9548.656652,1258.350101,0.000000
3032.635770,-9104.533087,962.267725,-2604.724693
3032.636107,-9918.759623,-592.164754,-2987.772442
3032.636445,-9696.697840,148.041188,-1991.848295
3032.636782,-8956.491898,1036.288319,-229.828649
3032.637119,-10807.006753,74.020594,1762.019645
3032.637457,-10584.944971,518.144159,536.266849
3032.637794,-11547.212695,-1036.288319,1225.752797
3032.638131,-12139.377449,-2220.617826,3064.381992
3032.638469,-10732.986159,-1998.556043,2911.162892
3032.638806,-11103.089130,-518.144159,2604.724693
3032.639143,-10955.047942,-148.041188,-306.438199
3032.639481,-10066.800811,-1776.494261,-2068.457845
3032.639818,-10362.883188,-2664.741391,-2068.457845
3032.640155,-8586.388927,-1258.350101,-2451.505594
3032.640493,-9252.574275,-1332.370696,-2068.457845
3032.640830,-9548.656652,-1406.391290,-1915.238745
3032.641167,-9252.574275,-2368.659014,-2451.505594
3032.641505,-10732.986159,-3552.988522,0.000000
3032.641842,-9622.677246,-3182.885551,2145.067394
3032.642179,-9474.636058,-1258.350101,2374.896044
3032.642517,-11473.192101,-1554.432478,1991.848295
3032.642854,-11769.274478,-2146.597232,306.438199
3032.643191,-10362.883188,-2072.576638,689.485948
3032.643529,-7402.059420,-444.123565,1838.629195
3032.643866,-8216.285956,0.000000,1991.848295
3032.644204,-10658.965565,1850.514855,766.095498
3032.644541,-10510.924376,2442.679609,-1685.410096
3032.644878,-10584.944971,2516.700203,-1762.019645
3032.645216,-11251.130318,2220.617826,0.000000
3032.645553,-10288.862594,2368.659014,1225.752797
3032.645890,-9104.533087,3256.906145,689.485948
3032.646228,-9548.656652,2368.659014,306.438199
3032.646565,-10510.924376,814.226536,459.657299
3032.646902,-10140.821405,-666.185348,842.705048
3032.647240,-9178.553681,0.000000,919.314598
3032.647577,-9474.636058,1776.494261,229.828649
3032.647914,-9770.718434,1702.473667,-1838.629195
3032.648252,-9622.677246,740.205942,-2757.943793
3032.648589,-10510.924376,0.000000,-1991.848295
3032.648926,-8438.347739,592.164754,-2145.067394
3032.649264,-9474.636058,-370.102971,-842.705048
3032.649601,-11695.253884,-1480.411884,0.000000
3032.649938,-10807.006753,-2590.720797,-689.485948
3032.650276,-9474.636058,-3552.988522,459.657299
3032.650613,-9030.512492,-2442.679609,2374.896044
3032.650950,-9400.615463,-2072.576638,2911.162892
3032.651288,-11473.192101,-962.267725,2451.505594
3032.651625,-11843.295072,-1110.308913,919.314598
3032.651962,-10658.965565,-1184.329507,1225.752797
3032.652300,-10140.821405,-296.082377,1915.238745
3032.652637,-10066.800811,444.123565,1838.629195
3032.652974,-10214.842000,148.041188,766.095498
3032.653312,-10732.986159,-296.082377,-612.876398
3032.653649,-10436.903782,-1258.350101,-842.705048
3032.653986,-9992.780217,-1628.453072,842.705048
3032.654324,-8586.388927,-1554.432478,1455.581446
3032.654661,-9770.718434,-444.123565,842.705048
3032.654999,-10510.924376,-370.102971,0.000000
3032.655336,-10658.965565,-1702.473667,-383.047749
3032.655673,-10066.800811,-1850.514855,383.047749
3032.656011,-8068.244768,-592.164754,612.876398
3032.656348,-9474.636058,666.185348,1455.581446
3032.656685,-9844.739029,370.102971,76.609550
3032.657023,-10584.944971,-592.164754,-459.657299
3032.657360,-10436.903782,-666.185348,689.485948
3032.657697,-9474.636058,-962.267725,1072.533697
3032.658035,-9252.574275,0.000000,1455.581446
3032.658372,-9770.718434,1184.329507,689.485948
3032.658709,-9696.697840,1184.329507,0.000000
3032.659047,-10807.006753,1628.453072,-383.047749
3032.659384,-9474.636058,2442.679609,0.000000
3032.659721,-10214.842000,1406.391290,-229.828649
3032.660059,-11029.068536,1554.432478,0.000000
3032.660396,-10658.965565,1184.329507,-612.876398
3032.660733,-10658.965565,1184.329507,-306.438199
3032.661071,-9548.656652,296.082377,-459.657299
3032.661408,-10066.800811,-740.205942,-995.924147
3032.661745,-10288.862594,-444.123565,-2757.943793
3032.662083,-9474.636058,-592.164754,-3524.039291
3032.662420,-10140.821405,-1554.432478,-2757.943793
3032.662757,-9030.512492,-2368.659014,-2757.943793
3032.663095,-8512.368333,-3108.864956,-919.314598
3032.663432,-9030.512492,-1702.473667,459.657299
3032.663769,-9326.594869,-1258.350101,1455.581446
3032.664107,-11399.171507,-1702.473667,2374.896044
3032.664444,-12583.501014,-2294.638420,2757.943793
3032.664782,-11769.274478,-2072.576638,2374.896044
3032.665119,-11103.089130,-1702.473667,2374.896044
3032.665456,-8808.450710,-1924.535449,2604.724693
3032.665794,-7920.203579,-2146.597232,1762.019645
3032.666131,-9474.636058,-444.123565,2068.457845
3032.666468,-10066.800811,0.000000,766.095498
3032.666806,-11547.212695,888.247130,-306.438199
3032.667143,-10955.047942,962.267725,-612.876398
3032.667480,-10881.027347,1702.473667,0.000000
3032.667818,-10510.924376,1480.411884,1302.362347
3032.668155,-8808.450710,148.041188,2298.286494
3032.668492,-9030.512492,444.123565,2681.334243
3032.668830,-9770.718434,222.061783,2451.505594
3032.669167,-11843.295072,0.000000,1149.143247
3032.669504,-11621.233289,0.000000,-1991.848295
3032.669842,-9474.636058,-962.267725,-1991.848295
3032.670179,-7846.182985,-518.144159,-459.657299
3032.670516,-7476.080014,-148.041188,-153.219100
3032.670854,-8216.285956,-370.102971,76.609550
3032.671191,-9474.636058,-148.041188,536.266849
3032.671528,-10881.027347,-222.061783,1225.752797
3032.671866,-11769.274478,148.041188,1838.629195
3032.672203,-11621.233289,-518.144159,2757.943793
3032.672540,-10955.047942,-666.185348,1838.629195
3032.672878,-9548.656652,-592.164754,1532.190996
3032.673215,-8290.306550,518.144159,689.485948
3032.673552,-9696.697840,592.164754,229.828649
3032.673890,-11695.253884,444.123565,-1378.971896
3032.674227,-11695.253884,0.000000,-2911.162892
3032.674564,-11177.109724,-148.041188,-2681.334243
3032.674902,-9104.533087,592.164754,-2374.896044
3032.675239,-7105.977043,148.041188,-689.485948
3032.675577,-9326.594869,-666.185348,76.609550
3032.675914,-10140.821405,-1036.288319,536.266849
3032.676251,-12435.459826,-666.185348,766.095498
3032.676589,-14211.954086,-1110.308913,383.047749
3032.676926,-11399.171507,-2146.597232,-459.657299
3032.677263,-9548.656652,-2738.761985,919.314598
3032.677601,-8438.347739,-1924.535449,1455.581446
3032.677938,-7846.182985,-1850.514855,-383.047749
3032.678275,-8290.306550,-1036.288319,-995.924147
3032.678613,-9252.574275,-592.164754,-383.047749
3032.678950,-12435.459826,0.000000,76.609550
3032.679287,-11917.315666,-148.041188,0.000000
3032.679625,-9918.759623,0.000000,536.266849
3032.679962,-10436.903782,2072.576638,2451.505594
3032.680299,-9104.533087,1332.370696,2298.286494
3032.680637,-9474.636058,814.226536,2374.896044
3032.680974,-10066.800811,-518.144159,2298.286494
3032.681311,-9548.656652,296.082377,1149.143247
3032.681649,-10362.883188,1702.473667,1838.629195
3032.681986,-10510.924376,1628.453072,-153.219100
3032.682323,-8956.491898,148.041188,-2298.286494
3032.682661,-9548.656652,370.102971,-1991.848295
3032.682998,-8512.368333,1776.494261,-1991.848295
3032.683335,-9474.636058,962.267725,-1685.410096
3032.683673,-10066.800811,0.000000,-1838.629195
3032.684010,-10510.924376,-1406.391290,-995.924147
3032.684347,-10510.924376,-1480.411884,229.828649
3032.684685,-9622.677246,-1998.556043,919.314598
3032.685022,-9252.574275,-814.226536,2451.505594
3032.685359,-10140.821405,-814.226536,1762.019645
3032.685697,-11251.130318,-1110.308913,1302.362347
3032.686034,-12065.356855,-1554.432478,1302.362347
3032.686371,-10658.965565,-962.267725,842.705048
3032.686709,-10807.006753,-888.247130,919.314598
3032.687046,-9992.780217,-370.102971,536.266849
3032.687384,-8734.430116,0.000000,-229.828649
3032.687721,-9474.636058,-1184.329507,153.219100
3032.688058,-9770.718434,-814.226536,689.485948
3032.688396,-10214.842000,-592.164754,1378.971896
3032.688733,-11547.212695,0.000000,1685.410096
3032.689070,-10288.862594,-888.247130,1762.019645
3032.689408,-9474.636058,74.020594,1991.848295
3032.689745,-9030.512492,0.000000,2451.505594
3032.690082,-10066.800811,-444.123565,229.828649
3032.690420,-10436.903782,-1184.329507,-306.438199
3032.690757,-10140.821405,-888.247130,-995.924147
3032.691094,-9696.697840,-518.144159,153.219100
3032.691432,-8660.409521,-222.061783,-1608.800546
3032.691769,-8586.388927,-1036.288319,-1685.410096
3032.692106,-9918.759623,-1110.308913,-459.657299
3032.692444,-10140.821405,370.102971,612.876398
3032.692781,-9400.615463,740.205942,612.876398
3032.693118,-9474.636058,888.247130,1378.971896
3032.693456,-10807.006753,0.000000,2145.067394
3032.693793,-13027.624579,444.123565,3370.820191
3032.694130,-10955.047942,592.164754,459.657299
3032.694468,-8586.388927,592.164754,536.266849
3032.694805,-9474.636058,0.000000,612.876398
3032.695142,-10362.883188,-962.267725,-76.609550
3032.695480,-9474.636058,-296.082377,-919.314598
3032.695817,-9326.594869,592.164754,-1225.752797
3032.696154,-10066.800811,1776.494261,-1149.143247
3032.696492,-10881.027347,1628.453072,-2681.334243
3032.696829,-10140.821405,592.164754,-3294.210641
3032.697166,-10066.800811,-1184.329507,-1685.410096
3032.697504,-10510.924376,444.123565,-766.095498
3032.697841,-9622.677246,0.000000,-1225.752797
3032.698178,-10066.800811,-1998.556043,76.609550
3032.698516,-9844.739029,-2368.659014,459.657299
3032.698853,-10658.965565,-2220.617826,1225.752797
3032.699190,-10362.883188,-962.267725,1302.362347
3032.699528,-9696.697840,-1332.370696,1149.143247
3032.699865,-10362.883188,-518.144159,612.876398
3032.700202,-9474.636058,296.082377,-1072.533697
3032.700540,-9474.636058,370.102971,536.266849
3032.700877,-9474.636058,-296.082377,2451.505594
3032.701214,-8882.471304,888.247130,2604.724693
3032.701552,-11251.130318,1110.308913,3064.381992
3032.701889,-12065.356855,1036.288319,2528.115143
3032.702227,-10436.903782,148.041188,2757.943793
3032.702564,-10584.944971,222.061783,2451.505594
3032.702901,-8956.491898,1184.329507,1378.971896
3032.703239,-8142.265362,296.082377,1455.581446
3032.703576,-9326.594869,148.041188,306.438199
3032.703913,-9474.636058,-74.020594,-689.485948
3032.704251,-11177.109724,-444.123565,306.438199
3032.704588,-9844.739029,888.247130,153.219100
3032.704925,-8586.388927,370.102971,-536.266849
3032.705263,-10510.924376,666.185348,0.000000
3032.705600,-10288.862594,-1554.432478,-229.828649
3032.705937,-10584.944971,-3404.947333,536.266849
3032.706275,-9696.697840,-2368.659014,1072.533697
3032.706612,-8956.491898,-2442.679609,1838.629195
3032.706949,-11843.295072,-1628.453072,2451.505594
3032.707287,-9992.780217,148.041188,-1072.533697
3032.707624,-10214.842000,-1554.432478,-612.876398
3032.707961,-10362.883188,296.082377,-383.047749
3032.708299,-8734.430116,222.061783,-536.266849
3032.708636,-10362.883188,1406.391290,0.000000
3032.708973,-10658.965565,74.020594,-459.657299
3032.709311,-12805.562797,-1628.453072,-153.219100
3032.709648,-12435.459826,-1184.329507,0.000000
3032.709985,-8586.388927,-1258.350101,0.000000
3032.710323,-7402.059420,-592.164754,689.485948
3032.710660,-9548.656652,-740.205942,0.000000
3032.710997,-9844.739029,-296.082377,-1838.629195
3032.711335,-11029.068536,-592.164754,-1378.971896
3032.711672,-10436.903782,592.164754,-1608.800546
3032.712009,-10436.903782,740.205942,-2451.505594
3032.712347,-11399.171507,1110.308913,-2068.457845
3032.712684,-9548.656652,-592.164754,-2145.067394
3032.713021,-9030.512492,-1332.370696,-536.266849
3032.713359,-9252.574275,-1036.288319,459.657299
3032.713696,-8364.327145,-1924.535449,1302.362347
3032.714033,-10214.842000,-518.144159,2298.286494
3032.714371,-11029.068536,222.061783,1915.238745
3032.714708,-10881.027347,-518.144159,1838.629195
3032.715045,-9770.718434,-370.102971,3064.381992
3032.715383,-9252.574275,1406.391290,3064.381992
3032.715720,-9326.594869,2590.720797,229.828649
3032.716058,-9696.697840,2368.659014,229.828649
3032.716395,-11917.315666,962.267725,1532.190996
3032.716732,-11991.336260,592.164754,842.705048
3032.717070,-9104.533087,0.000000,536.266849
3032.717407,-9400.615463,1036.288319,76.609550
3032.717744,-9400.615463,-296.082377,0.000000
3032.718082,-8734.430116,-888.247130,-689.485948
3032.718419,-9548.656652,-1258.350101,153.219100
3032.718756,-9104.533087,0.000000,1302.362347
3032.719094,-9622.677246,1258.350101,-536.266849
3032.719431,-12213.398043,-592.164754,-1072.533697
3032.719768,-11473.192101,-1480.411884,-919.314598
3032.720106,-9474.636058,-2664.741391,0.000000
3032.720443,-8142.265362,-1924.535449,1838.629195
3032.720780,-8956.491898,-1036.288319,919.314598
3032.721118,-10658.965565,-370.102971,76.609550
3032.721455,-11399.171507,-1850.514855,-1149.143247
3032.721792,-9992.780217,-666.185348,0.000000
3032.722130,-9992.780217,0.000000,1838.629195
3032.722467,-10510.924376,518.144159,2987.772442
3032.722804,-10066.800811,1184.329507,842.705048
3032.723142,-11177.109724,888.247130,-306.438199
3032.723479,-10732.986159,444.123565,1225.752797
3032.723816,-10140.821405,222.061783,2298.286494
3032.724154,-10214.842000,592.164754,2068.457845
3032.724491,-10066.800811,814.226536,536.266849
3032.724828,-9252.574275,1110.308913,-1608.800546
3032.725166,-11251.130318,0.000000,-1532.190996
3032.725503,-9770.718434,-1332.370696,-1225.752797
3032.725840,-7994.224174,592.164754,-1915.238745
3032.726178,-9030.512492,1480.411884,-1455.581446
3032.726515,-9696.697840,1036.288319,-1608.800546
3032.726852,-10362.883188,-962.267725,-1072.533697
3032.727190,-11103.089130,-1554.432478,1378.971896
3032.727527,-8808.450710,-740.205942,2451.505594
3032.727864,-9548.656652,296.082377,3064.381992
3032.728202,-10658.965565,0.000000,2681.334243
3032.728539,-10807.006753,0.000000,459.657299
3032.728876,-11251.130318,-962.267725,153.219100
3032.729214,-8512.368333,-666.185348,153.219100
3032.729551,-8142.265362,-370.102971,76.609550
3032.729889,-9622.677246,814.226536,-536.266849
3032.730226,-9474.636058,-148.041188,-2221.676944
3032.730563,-10362.883188,-518.144159,-1302.362347
3032.730901,-9622.677246,-1480.411884,0.000000
3032.731238,-9696.697840,-592.164754,1762.019645
3032.731575,-9326.594869,888.247130,689.485948
3032.731913,-10436.903782,-814.226536,-153.219100
3032.732250,-12139.377449,-1998.556043,459.657299
3032.732587,-10881.027347,-3775.050304,0.000000
3032.732925,-10288.862594,-2368.659014,1225.752797
3032.733262,-9400.615463,-1332.370696,-459.657299
3032.733599,-8956.491898,-1332.370696,-2145.067394
3032.733937,-11325.150913,-962.267725,-1838.629195
3032.734274,-11251.130318,-1480.411884,-2757.943793
3032.734611,-9030.512492,0.000000,-1455.581446
3032.734949,-9844.739029,0.000000,306.438199
3032.735286,-11769.274478,-444.123565,919.314598
3032.735623,-11843.295072,-1258.350101,1532.190996
3032.735961,-10807.006753,-370.102971,3217.601092
3032.736298,-9104.533087,0.000000,4060.306139
3032.736635,-10510.924376,518.144159,3830.477490
3032.736973,-10807.006753,2072.576638,2374.896044
3032.737310,-11251.130318,0.000000,536.266849
3032.737647,-9622.677246,740.205942,-612.876398
3032.737985,-8068.244768,962.267725,153.219100
3032.738322,-8290.306550,1258.350101,612.876398
3032.738659,-7179.997637,2072.576638,-383.047749
3032.738997,-8660.409521,2220.617826,-1838.629195
3032.739334,-10658.965565,2146.597232,-536.266849
3032.739671,-9104.533087,296.082377,-153.219100
3032.740009,-10732.986159,0.000000,1608.800546
3032.740346,-10807.006753,296.082377,612.876398
3032.740683,-9696.697840,-1332.370696,-306.438199
3032.741021,-10066.800811,-2220.617826,1838.629195
3032.741358,-8068.244768,-2072.576638,1685.410096
3032.741695,-9104.533087,-296.082377,2068.457845
3032.742033,-11177.109724,592.164754,153.219100
3032.742370,-11103.089130,-444.123565,-1991.848295
3032.742707,-12213.398043,-1036.288319,-766.095498
3032.743045,-11029.068536,-1332.370696,842.705048
3032.743382,-9178.553681,-592.164754,842.705048
3032.743720,-9844.739029,-444.123565,1608.800546
3032.744057,-10362.883188,-296.082377,766.095498
3032.744394,-11251.130318,-2442.679609,1149.143247
3032.744732,-11991.336260,-1258.350101,995.924147
3032.745069,-9474.636058,-1332.370696,-612.876398
3032.745406,-10732.986159,-148.041188,-1149.143247
3032.745744,-8586.388927,518.144159,-2911.162892
3032.746081,-8808.450710,-814.226536,-2451.505594
3032.746418,-9474.636058,-666.185348,-1225.752797
3032.746756,-9178.553681,-1036.288319,-766.095498
3032.747093,-11399.171507,-222.061783,0.000000
3032.747430,-11399.171507,592.164754,-1149.143247
3032.747768,-10732.986159,-1850.514855,-1225.752797
3032.748105,-10436.903782,-2368.659014,766.095498
3032.748442,-8216.285956,-1776.494261,1225.752797
3032.748780,-8438.347739,0.000000,2604.724693
3032.749117,-9548.656652,814.226536,689.485948
3032.749454,-10881.027347,888.247130,0.000000
3032.749792,-12583.501014,1480.411884,153.219100
3032.750129,-10732.986159,1628.453072,-689.485948
3032.750466,-9696.697840,1850.514855,229.828649
3032.750804,-9474.636058,2812.782580,995.924147
3032.751141,-9030.512492,2442.679609,689.485948
3032.751478,-9918.759623,1110.308913,1838.629195
3032.751816,-9770.718434,1850.514855,2451.505594
3032.752153,-11325.150913,1184.329507,1915.238745
3032.752490,-11917.315666,888.247130,536.266849
3032.752828,-9252.574275,296.082377,153.219100
3032.753165,-8364.327145,-740.205942,153.219100
3032.753502,-8142.265362,370.102971,1225.752797
3032.753840,-8512.368333,-148.041188,766.095498
3032.754177,-9992.780217,0.000000,-1225.752797
3032.754514,-10288.862594,-1702.473667,-2528.115143
3032.754852,-9844.739029,-2072.576638,-1608.800546
3032.755189,-10436.903782,-2368.659014,-76.609550
3032.755526,-9104.533087,-3849.070898,766.095498
3032.755864,-9622.677246,-2368.659014,1302.362347
3032.756201,-9844.739029,-2516.700203,689.485948
3032.756538,-10584.944971,-2664.741391,766.095498
3032.756876,-10140.821405,-3404.947333,1991.848295
3032.757213,-10658.965565,-2442.679609,3217.601092
3032.757551,-12065.356855,-888.247130,1838.629195
3032.757888,-11399.171507,-1036.288319,0.000000
3032.758225,-10140.821405,-148.041188,306.438199
3032.758563,-10436.903782,-444.123565,1149.143247
3032.758900,-11325.150913,296.082377,459.657299
3032.759237,-10584.944971,148.041188,-1072.533697
3032.759575,-10658.965565,-370.102971,-612.876398
3032.759912,-10732.986159,-148.041188,-383.047749
3032.760249,-9696.697840,-370.102971,-612.876398
3032.760587,-9548.656652,814.226536,-306.438199
3032.760924,-9030.512492,74.020594,-612.876398
3032.761261,-10140.821405,888.247130,0.000000
3032.761599,-11547.212695,592.164754,-612.876398
3032.761936,-10510.924376,222.061783,-459.657299
3032.762273,-8586.388927,888.247130,-76.609550
3032.762611,-9252.574275,-296.082377,536.266849
3032.762948,-9770.718434,74.020594,1378.971896
3032.763285,-8364.327145,0.000000,229.828649
3032.763623,-8512.368333,-296.082377,766.095498
3032.763960,-9178.553681,370.102971,-306.438199
3032.764297,-10140.821405,814.226536,766.095498
3032.764635,-11325.150913,1036.288319,995.924147
3032.764972,-8956.491898,-592.164754,-153.219100
3032.765309,-8068.244768,0.000000,1378.971896
3032.765647,-8290.306550,74.020594,2068.457845
3032.765984,-8734.430116,0.000000,1608.800546
3032.766321,-10658.965565,148.041188,459.657299
3032.766659,-12435.459826,-444.123565,-842.705048
3032.766996,-11029.068536,-1110.308913,-842.705048
3032.767333,-10807.006753,0.000000,-612.876398
3032.767671,-9030.512492,-148.041188,-1225.752797
3032.768008,-10066.800811,-518.144159,-1915.238745
3032.768345,-10140.821405,-962.267725,-2604.724693
3032.768683,-10955.047942,-1628.453072,-1302.362347
3032.769020,-11991.336260,-1628.453072,-1149.143247
3032.769357,-10436.903782,-1184.329507,-1302.362347
3032.769695,-11769.274478,-2220.617826,-76.609550
3032.770032,-9622.677246,-2294.638420,306.438199
3032.770369,-9548.656652,-2960.823768,2374.896044
3032.770707,-10658.965565,-2294.638420,2834.553343
3032.771044,-8808.450710,-1258.350101,2068.457845
3032.771381,-9992.780217,-444.123565,2145.067394
3032.771719,-11029.068536,222.061783,1302.362347
3032.772056,-9400.615463,148.041188,76.609550
3032.772394,-9030.512492,1702.473667,1838.629195
3032.772731,-9474.636058,1998.556043,1149.143247
3032.773068,-9252.574275,2738.761985,-229.828649
3032.773406,-10732.986159,2072.576638,-306.438199
3032.773743,-10362.883188,222.061783,383.047749
3032.774080,-9030.512492,222.061783,1838.629195
3032.774418,-9252.574275,1184.329507,2145.067394
3032.774755,-8734.430116,2072.576638,919.314598
3032.775092,-10066.800811,1036.288319,0.000000
3032.775430,-10436.903782,1184.329507,-919.314598
3032.775767,-9252.574275,148.041188,-995.924147
3032.776104,-10066.800811,888.247130,842.705048
3032.776442,-9992.780217,1332.370696,842.705048
3032.776779,-11621.233289,1036.288319,76.609550
3032.777116,-11621.233289,-296.082377,0.000000
3032.777454,-9696.697840,-740.205942,1149.143247
3032.777791,-10584.944971,-1480.411884,2374.896044
3032.778128,-9474.636058,-444.123565,612.876398
3032.778466,-10140.821405,-1554.432478,306.438199
3032.778803,-10732.986159,-2368.659014,76.609550
3032.779140,-8882.471304,-2812.782580,229.828649
3032.779478,-8808.450710,-666.185348,1991.848295
3032.779815,-9770.718434,74.020594,612.876398
3032.780152,-10214.842000,-740.205942,-919.314598
3032.780490,-11029.068536,-962.267725,-842.705048
3032.780827,-9992.780217,-1184.329507,-689.485948
3032.781164,-9770.718434,-1554.432478,153.219100
3032.781502,-9844.739029,-2516.700203,0.000000
3032.781839,-9474.636058,-1924.535449,-1455.581446
3032.782177,-10881.027347,-2960.823768,-1991.848295
3032.782514,-9770.718434,-2516.700203,-1915.238745
3032.782851,-8290.306550,-1702.473667,-1378.971896
3032.783189,-10362.883188,-592.164754,-1762.019645
3032.783526,-10510.924376,296.082377,-2681.334243
3032.783864,-11029.068536,-148.041188,-2834.553343
3032.784201,-10288.862594,-370.102971,-612.876398
3032.784538,-10066.800811,-888.247130,1532.190996
3032.784876,-11399.171507,148.041188,2757.943793
3032.785213,-10658.965565,888.247130,2528.115143
3032.785550,-10732.986159,0.000000,2451.505594
3032.785888,-10288.862594,148.041188,2987.772442
3032.786225,-9918.759623,222.061783,3294.210641
3032.786563,-10362.883188,1628.453072,2911.162892
3032.786900,-9178.553681,2442.679609,459.657299
3032.787237,-9548.656652,3108.864956,-995.924147
3032.787575,-10288.862594,2368.659014,-1838.629195
3032.787912,-9548.656652,740.205942,-1149.143247
3032.788250,-7846.182985,1110.308913,0.000000
3032.788587,-7179.997637,1184.329507,-459.657299
3032.788924,-9400.615463,1036.288319,-76.609550
3032.789262,-10955.047942,-518.144159,-1455.581446
3032.789599,-9474.636058,-2294.638420,-842.705048
3032.789936,-9104.533087,-2664.741391,1838.629195
3032.790274,-8734.430116,-1480.411884,2834.553343
3032.790611,-9474.636058,-962.267725,1455.581446
3032.790949,-10881.027347,-1998.556043,1072.533697
3032.791286,-11029.068536,-2294.638420,1072.533697
3032.791623,-11769.274478,-1850.514855,1225.752797
3032.791961,-10436.903782,-1036.288319,1838.629195
3032.792298,-9178.553681,-592.164754,536.266849
3032.792635,-11325.150913,-1702.473667,612.876398
3032.792973,-11621.233289,-2294.638420,383.047749
3032.793310,-10140.821405,-2368.659014,1838.629195
3032.793648,-9992.780217,-962.267725,2374.896044
3032.793985,-9918.759623,-740.205942,1838.629195
3032.794322,-11547.212695,592.164754,306.438199
3032.794660,-10732.986159,222.061783,-1149.143247
3032.794997,-10584.944971,-740.205942,766.095498
3032.795335,-9918.759623,-592.164754,1378.971896
3032.795672,-8808.450710,-666.185348,0.000000
3032.796009,-10436.903782,74.020594,-229.828649
3032.796347,-10658.965565,-148.041188,-1378.971896
3032.796684,-9474.636058,148.041188,-2145.067394
3032.797021,-9400.615463,-666.185348,-1149.143247
3032.797359,-9622.677246,-296.082377,-383.047749
3032.797696,-9548.656652,148.041188,-919.314598
3032.798034,-10140.821405,666.185348,-2298.286494
3032.798371,-9770.718434,-1110.308913,-459.657299
3032.798708,-10362.883188,-1036.288319,1838.629195
3032.799046,-8956.491898,74.020594,1455.581446
3032.799383,-10436.903782,1776.494261,1455.581446
3032.799721,-10066.800811,592.164754,1149.143247
3032.800058,-9992.780217,814.226536,842.705048
3032.800395,-9030.512492,814.226536,1378.971896
3032.800733,-9252.574275,1628.453072,1608.800546
3032.801070,-10881.027347,1998.556043,1149.143247
3032.801407,-11399.171507,1998.556043,-1072.533697
3032.801745,-10214.842000,2664.741391,-2987.772442
3032.802082,-10140.821405,-518.144159,-1378.971896
3032.802420,-8734.430116,-888.247130,229.828649
3032.802757,-8364.327145,-296.082377,612.876398
3032.803094,-9992.780217,1184.329507,383.047749
3032.803432,-10807.006753,222.061783,-1225.752797
3032.803769,-11769.274478,-1850.514855,-689.485948
3032.804107,-10732.986159,-2368.659014,-689.485948
3032.804444,-9992.780217,-1036.288319,612.876398
3032.804781,-10288.862594,444.123565,842.705048
3032.805119,-10510.924376,-1184.329507,-383.047749
3032.805456,-10362.883188,-3182.885551,-1455.581446
3032.805793,-9400.615463,-3256.906145,-536.266849
3032.806131,-8216.285956,-2072.576638,2145.067394
3032.806468,-8734.430116,-1480.411884,2451.505594
3032.806806,-10584.944971,-1258.350101,306.438199
3032.807143,-10732.986159,-1480.411884,1072.533697
3032.807480,-10066.800811,-592.164754,1455.581446
3032.807818,-8734.430116,-296.082377,2834.553343
3032.808155,-10584.944971,296.082377,3370.820191
3032.808493,-10881.027347,1554.432478,1149.143247
3032.808830,-10955.047942,148.041188,229.828649
3032.809167,-11621.233289,-1406.391290,1149.143247
3032.809505,-9104.533087,-592.164754,1149.143247
3032.809842,-9400.615463,1184.329507,2298.286494
3032.810179,-10066.800811,1702.473667,-919.314598
3032.810517,-10362.883188,740.205942,-2757.943793
3032.810854,-11547.212695,74.020594,-1762.019645
3032.811192,-9918.759623,592.164754,-1608.800546
3032.811529,-9030.512492,0.000000,-612.876398
3032.811866,-10288.862594,814.226536,919.314598
3032.812204,-11251.130318,-1036.288319,536.266849
3032.812541,-11769.274478,-888.247130,919.314598
3032.812879,-8512.368333,-1406.391290,919.314598
3032.813216,-8956.491898,-1258.350101,1915.238745
3032.813553,-10436.903782,-444.123565,1225.752797
3032.813891,-9844.739029,-518.144159,-536.266849
3032.814228,-8734.430116,-666.185348,-459.657299
3032.814565,-9474.636058,-962.267725,995.924147
3032.814903,-9326.594869,814.226536,1225.752797
3032.815240,-10288.862594,592.164754,0.000000
3032.815578,-10658.965565,592.164754,-536.266849
3032.815915,-9696.697840,-740.205942,-1915.238745
3032.816252,-10362.883188,-1850.514855,0.000000
3032.816590,-8734.430116,-1406.391290,0.000000
3032.816927,-8808.450710,-814.226536,-383.047749
3032.817265,-10214.842000,-296.082377,-2068.457845
3032.817602,-10436.903782,-1332.370696,-2221.676944
3032.817939,-11917.315666,-1850.514855,-229.828649
3032.818277,-9622.677246,-1258.350101,0.000000
3032.818614,-8660.409521,0.000000,536.266849
3032.818951,-11325.150913,0.000000,842.705048
3032.819289,-12139.377449,-1554.432478,-1302.362347
3032.819626,-10881.027347,-1480.411884,-306.438199
3032.819964,-9992.780217,-814.226536,1838.629195
3032.820301,-9178.553681,0.000000,2681.334243
3032.820638,-10436.903782,814.226536,1149.143247
3032.820976,-10955.047942,74.020594,76.609550
3032.821313,-9696.697840,0.000000,229.828649
3032.821651,-8956.491898,1702.473667,689.485948
3032.821988,-9326.594869,1776.494261,1225.752797
3032.822325,-10436.903782,1702.473667,1302.362347
3032.822663,-10140.821405,1480.411884,-459.657299
3032.823000,-9252.574275,740.205942,306.438199
3032.823337,-9252.574275,0.000000,2528.115143
3032.823675,-9474.636058,296.082377,3294.210641
3032.824012,-10066.800811,518.144159,1378.971896
3032.824350,-10955.047942,962.267725,0.000000
3032.824687,-10288.862594,-74.020594,-1915.238745
3032.825024,-8586.388927,-1480.411884,-2068.457845
3032.825362,-7328.038826,-1554.432478,-842.705048
3032.825699,-8438.347739,-370.102971,0.000000
3032.826037,-9844.739029,888.247130,-383.047749
3032.826374,-11621.233289,222.061783,-1225.752797
3032.826711,-12361.439231,-444.123565,-76.609550
3032.827049,-11769.274478,-2146.597232,1915.238745
3032.827386,-11029.068536,-962.267725,2451.505594
3032.827723,-9770.718434,-592.164754,3064.381992
3032.828061,-10362.883188,-888.247130,2221.676944
3032.828398,-10288.862594,-888.247130,536.266849
3032.828736,-10658.965565,-1110.308913,766.095498
3032.829073,-9770.718434,-296.082377,766.095498
3032.829410,-10362.883188,592.164754,536.266849
3032.829748,-10881.027347,962.267725,536.266849
3032.830085,-11399.171507,666.185348,-1532.190996
3032.830422,-9474.636058,0.000000,-1608.800546
3032.830760,-8734.430116,-518.144159,-459.657299
3032.831097,-8734.430116,-666.185348,0.000000
3032.831435,-9474.636058,-1332.370696,612.876398
3032.831772,-10436.903782,-1332.370696,-612.876398
3032.832109,-9104.533087,-1480.411884,-1915.238745
3032.832447,-8660.409521,-1924.535449,0.000000
3032.832784,-10140.821405,-1258.350101,383.047749
3032.833122,-9326.594869,370.102971,-995.924147
3032.833459,-9400.615463,-148.041188,-1762.019645
3032.833796,-9770.718434,-1406.391290,0.000000
3032.834134,-9400.615463,-2072.576638,1378.971896
3032.834471,-9918.759623,0.000000,1991.848295
3032.834808,-10214.842000,2220.617826,1072.533697
3032.835146,-11695.253884,518.144159,536.266849
3032.835483,-11473.192101,0.000000,-689.485948
3032.835821,-8882.471304,370.102971,-612.876398
3032.836158,-9474.636058,592.164754,1608.800546
3032.836495,-10732.986159,740.205942,995.924147
3032.836833,-11843.295072,148.041188,-919.314598
3032.837170,-10658.965565,-370.102971,-1762.019645
3032.837508,-8808.450710,-222.061783,536.266849
3032.837845,-8882.471304,222.061783,1991.848295
3032.838182,-10510.924376,740.205942,1072.533697
3032.838520,-12139.377449,1036.288319,-1149.143247
3032.838857,-12139.377449,-740.205942,-2451.505594
3032.839194,-9474.636058,-1776.494261,-1225.752797
3032.839532,-8512.368333,-1332.370696,1072.533697
3032.839869,-9104.533087,-1406.391290,689.485948
3032.840207,-8734.430116,-1406.391290,-306.438199
3032.840544,-10214.842000,-1184.329507,-229.828649
3032.840881,-9252.574275,-1480.411884,459.657299
3032.841219,-9992.780217,-1406.391290,2681.334243
3032.841556,-10881.027347,296.082377,2834.553343
3032.841894,-10732.986159,0.000000,919.314598
3032.842231,-11177.109724,0.000000,1685.410096
3032.842568,-9326.594869,-592.164754,2451.505594
3032.842906,-8290.306550,-222.061783,2604.724693
3032.843243,-9696.697840,1184.329507,1685.410096
3032.843580,-9252.574275,1776.494261,0.000000
3032.843918,-10436.903782,1776.494261,306.438199
3032.844255,-11399.171507,740.205942,0.000000
3032.844593,-9918.759623,740.205942,-1149.143247
3032.844930,-8734.430116,1480.411884,-383.047749
3032.845267,-8808.450710,814.226536,306.438199
3032.845605,-10362.883188,-296.082377,0.000000
3032.845942,-11325.150913,-296.082377,-383.047749
3032.846280,-10955.047942,-592.164754,-612.876398
3032.846617,-10436.903782,-888.247130,153.219100
3032.846954,-9104.533087,-1036.288319,0.000000
3032.847292,-8956.491898,0.000000,-689.485948
3032.847629,-10807.006753,-666.185348,306.438199
3032.847966,-10288.862594,0.000000,-919.314598
3032.848304,-10214.842000,-518.144159,-842.705048
3032.848641,-11399.171507,0.000000,383.047749
3032.848979,-10214.842000,-74.020594,0.000000
3032.849316,-10140.821405,-1850.514855,536.266849
3032.849653,-9844.739029,-1110.308913,995.924147
3032.849991,-8660.409521,-1628.453072,2068.457845
3032.850328,-9474.636058,-814.226536,2911.162892
3032.850666,-10584.944971,-444.123565,1608.800546
3032.851003,-11029.068536,-370.102971,0.000000
3032.851340,-10510.924376,296.082377,-1072.533697
3032.851678,-9474.636058,222.061783,-1762.019645
3032.852015,-8956.491898,74.020594,-2145.067394
3032.852352,-9474.636058,-888.247130,-1838.629195
3032.852690,-8512.368333,0.000000,-1685.410096
3032.853027,-9326.594869,-296.082377,-153.219100
3032.853365,-10955.047942,0.000000,766.095498
3032.853702,-10658.965565,-740.205942,689.485948
3032.854039,-10955.047942,-592.164754,1149.143247
3032.854377,-11621.233289,-1110.308913,995.924147
3032.854714,-10584.944971,-1480.411884,536.266849
3032.855052,-9400.615463,-740.205942,1455.581446
3032.855389,-8956.491898,-1258.350101,1838.629195
3032.855726,-9696.697840,-444.123565,766.095498
3032.856064,-9622.677246,296.082377,383.047749
3032.856401,-10140.821405,370.102971,306.438199
3032.856738,-10732.986159,1628.453072,229.828649
3032.857076,-10214.842000,518.144159,536.266849
3032.857413,-8956.491898,1036.288319,306.438199
3032.857751,-9030.512492,962.267725,1532.190996
3032.858088,-9696.697840,1184.329507,1302.362347
3032.858425,-9474.636058,1184.329507,459.657299
3032.858763,-9770.718434,-148.041188,229.828649
3032.859100,-10732.986159,148.041188,0.000000
3032.859438,-10214.842000,-370.102971,-995.924147
3032.859775,-9696.697840,-148.041188,-919.314598
3032.860112,-9104.533087,-740.205942,-1302.362347
3032.860450,-8956.491898,-1332.370696,-1455.581446
3032.860787,-8882.471304,-1036.288319,-1302.362347
3032.861124,-9696.697840,-1924.535449,689.485948
3032.861462,-11769.274478,-2146.597232,1762.019645
3032.861799,-11399.171507,-1110.308913,995.924147
3032.862137,-10362.883188,-888.247130,1149.143247
3032.862474,-10140.821405,-1184.329507,2145.067394
3032.862811,-9622.677246,-814.226536,2145.067394
3032.863149,-10140.821405,444.123565,1685.410096
3032.863486,-10955.047942,-74.020594,1915.238745
3032.863824,-11473.192101,-370.102971,2068.457845
3032.864161,-11843.295072,148.041188,919.314598
3032.864498,-10362.883188,518.144159,0.000000
3032.864836,-9252.574275,0.000000,919.314598
3032.865173,-10140.821405,74.020594,612.876398
3032.865510,-8068.244768,296.082377,-76.609550
3032.865848,-8364.327145,518.144159,-689.485948
3032.866185,-9548.656652,888.247130,229.828649
3032.866523,-10140.821405,0.000000,-1072.533697
3032.866860,-10214.842000,148.041188,-306.438199
3032.867197,-9844.739029,0.000000,536.266849
3032.867535,-9548.656652,444.123565,-612.876398
3032.867872,-9104.533087,-592.164754,-1838.629195
3032.868210,-9400.615463,-1480.411884,-1149.143247
3032.868547,-10584.944971,-2294.638420,-153.219100
3032.868884,-9474.636058,-592.164754,0.000000
3032.869222,-9474.636058,148.041188,1072.533697
3032.869559,-9918.759623,0.000000,-229.828649
3032.869896,-10140.821405,-296.082377,-612.876398
3032.870234,-9992.780217,888.247130,-459.657299
3032.870571,-10510.924376,1110.308913,306.438199
3032.870909,-10584.944971,296.082377,689.485948
3032.871246,-11177.109724,0.000000,-383.047749
3032.871583,-11177.109724,-592.164754,153.219100
3032.871921,-9844.739029,-1110.308913,383.047749
3032.872258,-8290.306550,-518.144159,1149.143247
3032.872595,-8512.368333,296.082377,459.657299
3032.872933,-10955.047942,-814.226536,76.609550
3032.873270,-10955.047942,-518.144159,-1608.800546
3032.873608,-10436.903782,-518.144159,-1838.629195
3032.873945,-9474.636058,0.000000,-919.314598
3032.874282,-9030.512492,-296.082377,-612.876398
3032.874620,-10510.924376,-740.205942,-1302.362347
3032.874957,-9992.780217,-1998.556043,-689.485948
3032.875295,-10881.027347,-2516.700203,1455.581446
3032.875632,-10732.986159,-1480.411884,2451.505594
3032.875969,-10732.986159,-888.247130,2221.676944
3032.876307,-10732.986159,-1406.391290,1685.410096
3032.876644,-10214.842000,-1850.514855,1455.581446
3032.876981,-9326.594869,-814.226536,2757.943793
3032.877319,-9178.553681,296.082377,2911.162892
3032.877656,-9326.594869,0.000000,2987.772442
3032.877994,-10214.842000,296.082377,1762.019645
3032.878331,-10510.924376,222.061783,995.924147
3032.878668,-11029.068536,962.267725,2451.505594
3032.879006,-11103.089130,666.185348,2681.334243
3032.879343,-8586.388927,962.267725,1762.019645
3032.879681,-9178.553681,444.123565,1302.362347
3032.880018,-10288.862594,888.247130,919.314598
3032.880355,-9252.574275,444.123565,-689.485948
3032.880693,-10584.944971,444.123565,-766.095498
3032.881030,-9770.718434,1110.308913,-842.705048
3032.881367,-8956.491898,592.164754,-2374.896044
3032.881705,-9844.739029,592.164754,-1455.581446
3032.882042,-9770.718434,-1184.329507,-1302.362347
3032.882379,-10584.944971,-1258.350101,-229.828649
3032.882716,-9326.594869,-888.247130,76.609550
3032.883054,-9770.718434,-370.102971,-229.828649
3032.883391,-11917.315666,-1184.329507,-536.266849
3032.883728,-11325.150913,-2960.823768,-1225.752797
3032.884065,-9474.636058,-2960.823768,0.000000
3032.884403,-9104.533087,-2146.597232,2451.505594
3032.884740,-9178.553681,814.226536,2221.676944
3032.885077,-10140.821405,888.247130,-536.266849
3032.885415,-11843.295072,592.164754,-536.266849
3032.885752,-11399.171507,296.082377,-689.485948
3032.886089,-11695.253884,740.205942,76.609550
3032.886427,-9474.636058,592.164754,-536.266849
3032.886764,-9474.636058,888.247130,-766.095498
3032.887101,-10584.944971,-962.267725,-2145.067394
3032.887439,-10214.842000,-1036.288319,-2528.115143
3032.887776,-9696.697840,-2294.638420,0.000000
3032.888113,-7994.224174,-888.247130,153.219100
3032.888450,-9326.594869,740.205942,0.000000
3032.888788,-11177.109724,962.267725,-1455.581446
3032.889125,-10288.862594,-1258.350101,-2221.676944
3032.889462,-10066.800811,-1998.556043,459.657299
3032.889800,-8512.368333,0.000000,2374.896044
3032.890137,-8512.368333,1924.535449,1532.190996
3032.890474,-10510.924376,814.226536,229.828649
3032.890812,-11547.212695,-1110.308913,-536.266849
3032.891149,-11695.253884,-1480.411884,536.266849
3032.891486,-8882.471304,-962.267725,2681.334243
3032.891824,-7179.997637,444.123565,3677.258390
3032.892161,-9104.533087,1554.432478,2681.334243
3032.892498,-10288.862594,1480.411884,459.657299
3032.892835,-11029.068536,1184.329507,1072.533697
3032.893173,-11029.068536,814.226536,2604.724693
3032.893510,-9844.739029,1924.535449,2757.943793
3032.893847,-10881.027347,2294.638420,536.266849
3032.894185,-10658.965565,1258.350101,-689.485948
3032.894522,-11473.192101,-1480.411884,-76.609550
3032.894859,-9548.656652,-2516.700203,153.219100
3032.895197,-7402.059420,-2516.700203,919.314598
3032.895534,-9326.594869,-888.247130,766.095498
3032.895871,-8660.409521,0.000000,-2451.505594
3032.896209,-10658.965565,-1554.432478,-2451.505594
3032.896546,-12509.480420,-1850.514855,0.000000
3032.896883,-10140.821405,-1480.411884,-153.219100
3032.897221,-9030.512492,0.000000,306.438199
3032.897558,-9696.697840,-370.102971,-536.266849
3032.897895,-10732.986159,-2516.700203,842.705048
3032.898232,-11177.109724,-3552.988522,2145.067394
3032.898570,-9844.739029,-1924.535449,2221.676944
3032.898907,-10510.924376,-962.267725,2757.943793
3032.899244,-10955.047942,0.000000,689.485948
3032.899582,-11695.253884,-814.226536,842.705048
3032.899919,-10955.047942,-666.185348,766.095498
3032.900256,-8586.388927,-370.102971,612.876398
3032.900594,-8660.409521,666.185348,536.266849
3032.900931,-9400.615463,592.164754,-229.828649
3032.901268,-9696.697840,1036.288319,-1762.019645
3032.901606,-11473.192101,444.123565,-995.924147
3032.901943,-10658.965565,0.000000,-1149.143247
3032.902280,-8956.491898,518.144159,-612.876398
3032.902617,-9548.656652,962.267725,-1302.362347
3032.902955,-9400.615463,592.164754,-2604.724693
3032.903292,-10362.883188,-2368.659014,-1762.019645
3032.903629,-10066.800811,-2146.597232,842.705048
3032.903967,-8512.368333,-296.082377,919.314598
3032.904304,-9474.636058,1110.308913,919.314598
3032.904641,-9770.718434,1332.370696,-612.876398
3032.904979,-10732.986159,0.000000,0.000000
3032.905316,-12361.439231,518.144159,1149.143247
3032.905653,-9622.677246,1036.288319,842.705048
3032.905991,-10436.903782,1110.308913,689.485948
3032.906328,-10436.903782,-740.205942,0.000000
3032.906665,-9918.759623,-296.082377,229.828649
3032.907002,-9474.636058,-222.061783,1762.019645
3032.907340,-8068.244768,1184.329507,383.047749
3032.907677,-9474.636058,740.205942,306.438199
3032.908014,-12879.583391,1332.370696,-1455.581446
3032.908352,-11103.089130,296.082377,-2528.115143
3032.908689,-10140.821405,-740.205942,-612.876398
3032.909026,-9104.533087,-518.144159,1608.800546
3032.909364,-9252.574275,-1184.329507,1149.143247
3032.909701,-9696.697840,-888.247130,0.000000
3032.910038,-9696.697840,-962.267725,-1608.800546
3032.910376,-11547.212695,-2442.679609,-612.876398
3032.910713,-11695.253884,-2738.761985,842.705048
3032.911050,-9696.697840,-2146.597232,459.657299
3032.911388,-9770.718434,-1258.350101,612.876398
3032.911725,-8512.368333,-1480.411884,-306.438199
3032.912062,-10362.883188,-2072.576638,1378.971896
3032.912399,-10214.842000,-1480.411884,3753.867940
3032.912737,-9104.533087,-592.164754,2987.772442
3032.913074,-11103.089130,1036.288319,2834.553343
3032.913411,-11473.192101,1406.391290,1838.629195
3032.913749,-11621.233289,222.061783,1608.800546
3032.914086,-10362.883188,888.247130,1915.238745
3032.914423,-8068.244768,592.164754,2221.676944
3032.914761,-9178.553681,1036.288319,1991.848295
3032.915098,-9992.780217,1184.329507,306.438199
3032.915435,-10436.903782,740.205942,-1149.143247
3032.915773,-9696.697840,444.123565,-1685.410096
3032.916110,-9400.615463,-296.082377,-766.095498
3032.916447,-9844.739029,888.247130,766.095498
3032.916784,-8660.409521,1628.453072,-1302.362347
3032.917122,-10214.842000,518.144159,-1838.629195
3032.917459,-11399.171507,-666.185348,-1455.581446
3032.917796,-10066.800811,-1258.350101,459.657299
3032.918134,-10807.006753,-1110.308913,2068.457845
3032.918471,-9992.780217,-1184.329507,0.000000
3032.918808,-9252.574275,-962.267725,-76.609550
3032.919146,-10955.047942,-1554.432478,229.828649
3032.919483,-9918.759623,-1184.329507,842.705048
3032.919820,-9326.594869,-296.082377,383.047749
3032.920158,-10362.883188,-296.082377,-76.609550
3032.920495,-10362.883188,-518.144159,-1149.143247
3032.920832,-10732.986159,-888.247130,0.000000
3032.921169,-9622.677246,-518.144159,1072.533697
3032.921507,-8956.491898,0.000000,0.000000
3032.921844,-9326.594869,814.226536,-459.657299
3032.922181,-10955.047942,-296.082377,-383.047749
3032.922519,-11917.315666,-2146.597232,0.000000
3032.922856,-10436.903782,-1406.391290,0.000000
3032.923193,-8808.450710,-888.247130,536.266849
3032.923531,-10807.006753,296.082377,0.000000
3032.923868,-10214.842000,296.082377,-2681.334243
3032.924205,-9474.636058,-296.082377,-3370.820191
3032.924543,-9252.574275,-1702.473667,-1915.238745
3032.924880,-8808.450710,-814.226536,-306.438199
3032.925217,-10510.924376,-814.226536,766.095498
3032.925555,-10288.862594,-666.185348,459.657299
3032.925892,-10732.986159,-888.247130,766.095498
3032.926229,-10362.883188,-444.123565,2451.505594
3032.926566,-8882.471304,518.144159,3140.991542
3032.926904,-9252.574275,-518.144159,4136.915689
3032.927241,-11843.295072,962.267725,3983.696590
3032.927578,-11547.212695,1332.370696,1072.533697
3032.927916,-11177.109724,1110.308913,383.047749
3032.928253,-8438.347739,740.205942,995.924147
3032.928590,-7624.121203,1406.391290,2068.457845
3032.928928,-8586.388927,1924.535449,229.828649
3032.929265,-9178.553681,1628.453072,-1149.143247
3032.929602,-9622.677246,1184.329507,-536.266849
3032.929940,-10807.006753,518.144159,-1378.971896
3032.930277,-11103.089130,-296.082377,-995.924147
3032.930614,-10066.800811,-814.226536,-1149.143247
3032.930951,-8660.409521,-1924.535449,229.828649
3032.931289,-9178.553681,-2220.617826,383.047749
3032.931626,-9474.636058,-1998.556043,1225.752797
3032.931963,-10584.944971,-1480.411884,842.705048
3032.932301,-11843.295072,-962.267725,-153.219100
3032.932638,-11547.212695,-1110.308913,0.000000
3032.932975,-11325.150913,-962.267725,1685.410096
3032.933313,-11177.109724,-1036.288319,1225.752797
3032.933650,-9548.656652,-592.164754,0.000000
3032.933987,-10732.986159,-1332.370696,0.000000
3032.934325,-10807.006753,-962.267725,995.924147
3032.934662,-10436.903782,-518.144159,306.438199
3032.934999,-11103.089130,-74.020594,1149.143247
3032.935336,-10288.862594,-370.102971,842.705048
3032.935674,-10214.842000,0.000000,153.219100
3032.936011,-9548.656652,1184.329507,153.219100
3032.936348,-8142.265362,0.000000,612.876398
3032.936686,-10288.862594,518.144159,536.266849
3032.937023,-10066.800811,0.000000,-842.705048
3032.937360,-10510.924376,1110.308913,-766.095498
3032.937698,-10066.800811,296.082377,-689.485948
3032.938035,-9400.615463,-1480.411884,-1302.362347
3032.938372,-7920.203579,-1480.411884,-1455.581446
3032.938710,-8068.244768,-2368.659014,0.000000
3032.939047,-8290.306550,-1924.535449,229.828649
3032.939384,-8808.450710,-1332.370696,-612.876398
3032.939722,-8734.430116,1406.391290,0.000000
3032.940059,-11029.068536,1702.473667,612.876398
3032.940396,-11177.109724,888.247130,76.609550
3032.940733,-11547.212695,1036.288319,689.485948
3032.941071,-11325.150913,518.144159,306.438199
3032.941408,-9918.759623,888.247130,1149.143247
3032.941745,-10881.027347,962.267725,995.924147
3032.942083,-10584.944971,-148.041188,1532.190996
3032.942420,-10066.800811,0.000000,1302.362347
3032.942757,-10510.924376,592.164754,995.924147
3032.943095,-10658.965565,1406.391290,306.438199
3032.943432,-10732.986159,888.247130,-1225.752797
3032.943769,-10140.821405,518.144159,-1072.533697
3032.944107,-9696.697840,592.164754,-919.314598
3032.944444,-9844.739029,0.000000,459.657299
3032.944781,-9548.656652,518.144159,-842.705048
3032.945118,-9696.697840,0.000000,-1302.362347
3032.945456,-10288.862594,-1628.453072,0.000000
3032.945793,-9474.636058,-3108.864956,766.095498
3032.946130,-8956.491898,-2072.576638,1532.190996
3032.946468,-7624.121203,-1110.308913,536.266849
3032.946805,-9030.512492,-962.267725,2068.457845
3032.947142,-10658.965565,-1184.329507,2145.067394
3032.947480,-10066.800811,222.061783,2374.896044
3032.947817,-10658.965565,814.226536,3753.867940
3032.948154,-11325.150913,1628.453072,4213.525239
3032.948492,-10955.047942,2516.700203,3600.648841
3032.948829,-11251.130318,1258.350101,3217.601092
3032.949166,-10214.842000,1110.308913,2987.772442
3032.949503,-9400.615463,2072.576638,2528.115143
3032.949841,-11177.109724,1776.494261,2068.457845
3032.950178,-10732.986159,1776.494261,1378.971896
3032.950515,-9252.574275,2590.720797,1532.190996
3032.950853,-8808.450710,2738.761985,3294.210641
3032.951190,-10436.903782,3478.967927,2451.505594
3032.951527,-12435.459826,3182.885551,1149.143247
3032.951865,-12139.377449,2220.617826,76.609550
3032.952202,-9918.759623,592.164754,995.924147
3032.952539,-7994.224174,666.185348,3753.867940
3032.952877,-8586.388927,444.123565,4826.401637
3032.953214,-9030.512492,74.020594,3064.381992
3032.953551,-10288.862594,-592.164754,76.609550
3032.953889,-8808.450710,0.000000,0.000000
3032.954226,-7476.080014,-296.082377,2451.505594
3032.954563,-8512.368333,666.185348,3370.820191
3032.954900,-9844.739029,2886.803174,1915.238745
3032.955238,-11399.171507,2294.638420,-153.219100
3032.955575,-10140.821405,1776.494261,612.876398
3032.955912,-9474.636058,1184.329507,2834.553343
3032.956250,-10214.842000,1406.391290,5132.839837
3032.956587,-10658.965565,1036.288319,4213.525239
3032.956924,-11251.130318,1998.556043,3447.429741
3032.957262,-11843.295072,3552.988522,1378.971896
3032.957599,-10510.924376,2516.700203,0.000000
3032.957936,-10214.842000,1776.494261,153.219100
3032.958274,-10510.924376,1110.308913,536.266849
3032.958611,-10584.944971,1554.432478,1072.533697
3032.958948,-10288.862594,3034.844362,842.705048
3032.959285,-10066.800811,2368.659014,459.657299
3032.959623,-9770.718434,1332.370696,612.876398
3032.959960,-9992.780217,222.061783,459.657299
3032.960297,-9918.759623,592.164754,2451.505594
3032.960635,-9622.677246,888.247130,3524.039291
3032.960972,-8290.306550,1184.329507,3294.210641
3032.961309,-9474.636058,2220.617826,3983.696590
3032.961647,-10732.986159,2294.638420,4673.182538
3032.961984,-11029.068536,2516.700203,3753.867940
3032.962321,-10584.944971,3034.844362,4519.963438
3032.962659,-9918.759623,3182.885551,4290.134789
3032.962996,-8734.430116,2442.679609,4290.134789
3032.963333,-9992.780217,2368.659014,4290.134789
3032.963670,-9622.677246,2812.782580,3447.429741
3032.964008,-9548.656652,3182.885551,2145.067394
3032.964345,-9548.656652,3849.070898,1838.629195
3032.964682,-9252.574275,3182.885551,1149.143247
3032.965020,-9844.739029,2664.741391,1455.581446
3032.965357,-9844.739029,1924.535449,919.314598
3032.965694,-10066.800811,2664.741391,1302.362347
3032.966032,-10362.883188,2590.720797,2681.334243
3032.966369,-10807.006753,1480.411884,2068.457845
3032.966706,-10362.883188,1110.308913,1685.410096
3032.967044,-9622.677246,-222.061783,2068.457845
3032.967381,-10288.862594,74.020594,3294.210641
3032.967718,-11547.212695,-740.205942,1991.848295
3032.968056,-9918.759623,-296.082377,2068.457845
3032.968393,-8586.388927,148.041188,2221.676944
3032.968730,-10214.842000,444.123565,3217.601092
3032.969067,-9918.759623,1554.432478,2374.896044
3032.969405,-10362.883188,1628.453072,2068.457845
3032.969742,-11843.295072,1776.494261,2451.505594
3032.970079,-11843.295072,1924.535449,2068.457845
3032.970417,-11029.068536,1110.308913,2987.772442
3032.970754,-9252.574275,888.247130,3524.039291
3032.971091,-8882.471304,444.123565,4749.792088
3032.971429,-9844.739029,1776.494261,5362.668486
3032.971766,-9770.718434,1480.411884,2987.772442
3032.972103,-9548.656652,3182.885551,2451.505594
3032.972441,-10584.944971,2960.823768,1608.800546
3032.972778,-10732.986159,2886.803174,383.047749
3032.973115,-12213.398043,2738.761985,0.000000
3032.973452,-9474.636058,1850.514855,-459.657299
3032.973790,-7920.203579,1998.556043,612.876398
3032.974127,-8364.327145,518.144159,1915.238745
3032.974464,-9696.697840,740.205942,2451.505594
3032.974802,-8956.491898,1628.453072,2681.334243
3032.975139,-9548.656652,2960.823768,2451.505594
3032.975476,-10066.800811,3182.885551,3600.648841
3032.975814,-11103.089130,2146.597232,2987.772442
3032.976151,-11399.171507,3552.988522,3677.258390
3032.976488,-11177.109724,2294.638420,3753.867940
3032.976826,-10807.006753,2960.823768,3370.820191
3032.977163,-9844.739029,2146.597232,2681.334243
3032.977500,-10510.924376,2516.700203,2834.553343
3032.977837,-9178.553681,1406.391290,1378.971896
3032.978175,-8068.244768,1036.288319,1532.190996
3032.978512,-9770.718434,3404.947333,2298.286494
3032.978849,-9252.574275,3034.844362,766.095498
3032.979187,-10658.965565,2294.638420,306.438199
3032.979524,-10584.944971,1554.432478,536.266849
3032.979861,-11177.109724,1184.329507,1455.581446
3032.980199,-10658.965565,1110.308913,1532.190996
3032.980536,-9696.697840,666.185348,1225.752797
3032.980873,-9622.677246,-370.102971,1225.752797
3032.981211,-9548.656652,-1036.288319,1225.752797
3032.981548,-9474.636058,-740.205942,2757.943793
3032.981885,-9474.636058,592.164754,2298.286494
3032.982223,-9326.594869,814.226536,3600.648841
3032.982560,-10881.027347,1850.514855,3600.648841
3032.982897,-12509.480420,3034.844362,4136.915689
3032.983235,-12139.377449,3256.906145,2528.115143
3032.983572,-11325.150913,2220.617826,2451.505594
3032.983909,-10881.027347,1406.391290,3677.258390
3032.984247,-10214.842000,740.205942,4136.915689
3032.984584,-8734.430116,1628.453072,3140.991542
3032.984921,-8216.285956,1850.514855,4826.401637
3032.985259,-9474.636058,3034.844362,5286.058936
3032.985596,-10066.800811,4219.173869,1762.019645
3032.985933,-9400.615463,5033.400406,919.314598
3032.986271,-10140.821405,4663.297435,2451.505594
3032.986608,-11177.109724,3182.885551,2451.505594
3032.986945,-10955.047942,3478.967927,1685.410096
3032.987283,-10436.903782,4219.173869,383.047749
3032.987620,-8808.450710,444.123565,1685.410096
3032.987957,-8438.347739,-222.061783,3140.991542
3032.988295,-8512.368333,0.000000,3830.477490
3032.988632,-8364.327145,2220.617826,3370.820191
3032.988969,-9400.615463,1924.535449,2145.067394
3032.989307,-11843.295072,2072.576638,1225.752797
3032.989644,-11621.233289,2220.617826,1608.800546
3032.989981,-11251.130318,2664.741391,2681.334243
3032.990319,-9474.636058,3552.988522,3217.601092
3032.990656,-10584.944971,2516.700203,2068.457845
3032.990993,-12287.418637,962.267725,1915.238745
3032.991331,-10807.006753,0.000000,1378.971896
3032.991668,-8882.471304,666.185348,3064.381992
3032.992005,-8660.409521,1184.329507,3524.039291
3032.992343,-10140.821405,1628.453072,2911.162892
3032.992680,-11029.068536,2442.679609,919.314598
3032.993017,-10807.006753,1628.453072,-612.876398
3032.993355,-9992.780217,1480.411884,306.438199
3032.993692,-9770.718434,1702.473667,2068.457845
3032.994029,-9992.780217,2072.576638,2987.772442
3032.994367,-10066.800811,1924.535449,1072.533697
3032.994704,-11029.068536,592.164754,766.095498
3032.995041,-10288.862594,0.000000,1378.971896
3032.995379,-8956.491898,-1184.329507,1991.848295
3032.995716,-8290.306550,-74.020594,2834.553343
3032.996053,-8882.471304,0.000000,2757.943793
3032.996391,-9178.553681,0.000000,3370.820191
3032.996728,-9474.636058,1924.535449,3294.210641
3032.997065,-9844.739029,3404.947333,4060.306139
3032.997403,-10510.924376,4663.297435,3983.696590
3032.997740,-11769.274478,4441.235652,3983.696590
3032.998077,-12287.418637,4145.153275,4596.572988
3032.998415,-11325.150913,3404.947333,3677.258390
3032.998752,-10066.800811,2072.576638,4060.306139
3032.999089,-9104.533087,1776.494261,4519.963438
3032.999427,-8734.430116,1628.453072,3830.477490
3032.999764,-8882.471304,2886.803174,2451.505594
3033.000101,-9474.636058,2886.803174,536.266849
3033.000439,-9918.759623,3997.112087,0.000000
3033.000776,-10955.047942,3849.070898,-842.705048
3033.001113,-10732.986159,3701.029710,-1532.190996
3033.001451,-9992.780217,2442.679609,-995.924147
3033.001788,-9548.656652,888.247130,612.876398
3033.002125,-8956.491898,-222.061783,2145.067394
3033.002463,-8586.388927,-1480.411884,2528.115143
3033.002800,-9548.656652,-814.226536,2528.115143
3033.003137,-10436.903782,-888.247130,1532.190996
3033.003475,-10658.965565,-148.041188,612.876398
3033.003812,-10732.986159,0.000000,919.314598
3033.004149,-9696.697840,592.164754,1455.581446
3033.004487,-10066.800811,1036.288319,2221.676944
3033.004824,-10362.883188,1702.473667,1608.800546
3033.005161,-10807.006753,1702.473667,1685.410096
3033.005499,-11177.109724,1406.391290,2374.896044
3033.005836,-10658.965565,1850.514855,2374.896044
3033.006173,-11029.068536,1258.350101,2604.724693
3033.006511,-10066.800811,1258.350101,2528.115143
3033.006848,-9548.656652,962.267725,2604.724693
3033.007185,-10362.883188,1258.350101,2757.943793
3033.007523,-9474.636058,1924.535449,2834.553343
3033.007860,-9992.780217,1702.473667,2451.505594
3033.008197,-10066.800811,2146.597232,1991.848295
3033.008535,-10140.821405,2738.761985,919.314598
3033.008872,-10584.944971,1924.535449,1302.362347
3033.009209,-9178.553681,1258.350101,1072.533697
3033.009547,-8586.388927,518.144159,2834.553343
3033.009884,-9178.553681,1406.391290,5056.230287
3033.010221,-8290.306550,1480.411884,4443.353888
3033.010559,-9474.636058,2442.679609,5209.449386
3033.010896,-10140.821405,2590.720797,5132.839837
3033.011233,-10362.883188,2664.741391,4673.182538
3033.011571,-11325.150913,4071.132681,4903.011187
3033.011908,-10214.842000,2664.741391,4060.306139
3033.012245,-10140.821405,3330.926739,4213.525239
3033.012583,-9474.636058,2664.741391,4136.915689
3033.012920,-9622.677246,3849.070898,4979.620737
3033.013257,-9474.636058,3997.112087,3830.477490
3033.013595,-11103.089130,4589.276840,2681.334243
3033.013932,-11251.130318,4589.276840,1838.629195
3033.014269,-11103.089130,2590.720797,842.705048
3033.014607,-10140.821405,2812.782580,1149.143247
3033.014944,-9770.718434,1110.308913,2298.286494
3033.015281,-9252.574275,2220.617826,2298.286494
3033.015619,-9622.677246,2294.638420,1072.533697
3033.015956,-9992.780217,1480.411884,536.266849
3033.016293,-9844.739029,1258.350101,1302.362347
3033.016631,-10066.800811,1184.329507,2145.067394
3033.016968,-10362.883188,2368.659014,2528.115143
3033.017305,-11103.089130,3330.926739,306.438199
3033.017643,-10732.986159,1110.308913,-229.828649
3033.017980,-10955.047942,-148.041188,-459.657299
3033.018317,-9474.636058,-1258.350101,1915.238745
3033.018655,-8290.306550,888.247130,4213.525239
3033.018992,-7846.182985,2442.679609,2451.505594
3033.019329,-9622.677246,3034.844362,1685.410096
3033.019667,-10955.047942,2368.659014,2451.505594
3033.020004,-11029.068536,3478.967927,2834.553343
3033.020341,-9474.636058,4885.359217,3447.429741
3033.020679,-10436.903782,4885.359217,3447.429741
3033.021016,-11991.336260,4219.173869,2757.943793
3033.021353,-12583.501014,2664.741391,1685.410096
3033.021691,-10510.924376,2294.638420,842.705048
3033.022028,-7846.182985,518.144159,1455.581446
3033.022365,-8438.347739,666.185348,2757.943793
3033.022703,-9474.636058,1776.494261,919.314598
3033.023040,-8586.388927,1850.514855,-2374.896044
3033.023377,-9252.574275,1776.494261,-919.314598
3033.023715,-10510.924376,666.185348,1915.238745
3033.024052,-9622.677246,3108.864956,2604.724693
3033.024389,-10362.883188,2072.576638,2681.334243
3033.024727,-11103.089130,2072.576638,4136.915689
3033.025064,-11399.171507,518.144159,4519.963438
3033.025401,-11769.274478,0.000000,5286.058936
3033.025739,-10066.800811,148.041188,6052.154434
3033.026076,-9400.615463,-740.205942,4979.620737
3033.026413,-10066.800811,148.041188,4519.963438
3033.026751,-10658.965565,592.164754,3064.381992
3033.027088,-9474.636058,1110.308913,1532.190996
3033.027425,-8734.430116,1628.453072,689.485948
3033.027763,-10510.924376,1628.453072,1532.190996
3033.028100,-10066.800811,2368.659014,1149.143247
3033.028437,-9474.636058,2072.576638,1455.581446
3033.028775,-9548.656652,2294.638420,2834.553343
3033.029112,-10881.027347,2146.597232,2221.676944
3033.029449,-11399.171507,740.205942,2451.505594
3033.029787,-10362.883188,1480.411884,2681.334243
3033.030124,-9918.759623,1036.288319,3140.991542
3033.030461,-11103.089130,888.247130,2681.334243
3033.030799,-9918.759623,296.082377,766.095498
3033.031136,-10288.862594,74.020594,1455.581446
3033.031473,-9400.615463,444.123565,459.657299
3033.031811,-8586.388927,1036.288319,689.485948
3033.032148,-9474.636058,2442.679609,2681.334243
3033.032485,-8586.388927,3108.864956,2451.505594
3033.032823,-10658.965565,4071.132681,2834.553343
3033.033160,-11103.089130,3552.988522,2987.772442
3033.033497,-10955.047942,4663.297435,4903.011187
3033.033835,-10732.986159,3849.070898,3524.039291
3033.034172,-9844.739029,3404.947333,3217.601092
3033.034509,-10658.965565,1332.370696,3140.991542
3033.034847,-10288.862594,1480.411884,2374.896044
3033.035184,-7994.224174,1924.535449,2298.286494
3033.035521,-7846.182985,3775.050304,1302.362347
3033.035859,-8586.388927,3997.112087,536.266849
3033.036196,-10584.944971,3330.926739,306.438199
3033.036533,-12361.439231,4737.318029,0.000000
3033.036871,-9622.677246,3404.947333,-1149.143247
3033.037208,-11103.089130,2516.700203,0.000000
3033.037545,-9474.636058,370.102971,2068.457845
3033.037883,-10510.924376,-962.267725,2528.115143
3033.038220,-9474.636058,-666.185348,3140.991542
3033.038557,-9252.574275,222.061783,3677.258390
3033.038895,-10066.800811,1332.370696,4213.525239
3033.039232,-11621.233289,1480.411884,3064.381992
3033.039569,-11621.233289,1554.432478,2298.286494
3033.039907,-10362.883188,2664.741391,1915.238745
3033.040244,-10214.842000,1702.473667,2834.553343
3033.040581,-10955.047942,1924.535449,3064.381992
3033.040919,-9548.656652,1406.391290,3064.381992
3033.041256,-9178.553681,1184.329507,4213.525239
3033.041593,-10066.800811,1850.514855,4519.963438
3033.041931,-10807.006753,2220.617826,2681.334243
3033.042268,-9844.739029,2368.659014,2528.115143
3033.042605,-9474.636058,1258.350101,3140.991542
3033.042943,-9770.718434,1850.514855,3524.039291
3033.043280,-9992.780217,2368.659014,3217.601092
3033.043617,-9844.739029,2886.803174,2834.553343
3033.043955,-9918.759623,2960.823768,2068.457845
3033.044292,-10807.006753,2294.638420,766.095498
3033.044629,-10658.965565,1258.350101,383.047749
3033.044967,-10066.800811,370.102971,2145.067394
3033.045304,-9326.594869,370.102971,2911.162892
3033.045641,-9030.512492,1628.453072,2681.334243
3033.045979,-9104.533087,2664.741391,2987.772442
3033.046316,-9770.718434,2664.741391,4366.744339
3033.046653,-10214.842000,2146.597232,2911.162892
3033.046991,-10732.986159,2886.803174,2604.724693
3033.047328,-11177.109724,3552.988522,3907.087040
3033.047665,-10955.047942,2886.803174,2145.067394
3033.048003,-10362.883188,1702.473667,2681.334243
3033.048340,-10362.883188,2220.617826,1838.629195
3033.048677,-9104.533087,1406.391290,2221.676944
3033.049015,-9400.615463,222.061783,1838.629195
3033.049352,-8734.430116,740.205942,1838.629195
3033.049689,-8364.327145,444.123565,766.095498
3033.050027,-9178.553681,2146.597232,766.095498
3033.050364,-10362.883188,2442.679609,306.438199
3033.050701,-10658.965565,2294.638420,-1608.800546
3033.051039,-11473.192101,0.000000,-689.485948
3033.051376,-11547.212695,-1036.288319,383.047749
3033.051713,-9696.697840,-1332.370696,1991.848295
3033.052051,-9918.759623,-1406.391290,3140.991542
3033.052388,-10584.944971,-962.267725,2221.676944
3033.052725,-10955.047942,-1110.308913,842.705048
3033.053063,-10214.842000,-1110.308913,842.705048
3033.053400,-9178.553681,-444.123565,2068.457845
3033.053737,-9030.512492,518.144159,2987.772442
3033.054075,-10510.924376,1480.411884,3140.991542
3033.054412,-12879.583391,1554.432478,1991.848295
3033.054749,-11917.315666,2368.659014,919.314598
3033.055087,-11251.130318,2220.617826,1608.800546
3033.055424,-9992.780217,1776.494261,2757.943793
3033.055761,-8808.450710,740.205942,2145.067394
3033.056099,-9918.759623,1110.308913,3753.867940
3033.056436,-9548.656652,962.267725,2145.067394
3033.056773,-9252.574275,1776.494261,1225.752797
3033.057111,-9548.656652,1554.432478,1302.362347
3033.057448,-9474.636058,2072.576638,919.314598
3033.057785,-9844.739029,2368.659014,1532.190996
3033.058123,-9696.697840,2664.741391,766.095498
3033.058460,-9918.759623,2590.720797,-919.314598
3033.058797,-10140.821405,1258.350101,-229.828649
3033.059135,-9770.718434,-444.123565,459.657299
3033.059472,-8882.471304,0.000000,1455.581446
3033.059809,-8660.409521,-740.205942,2451.505594
3033.060147,-9770.718434,444.123565,1149.143247
3033.060484,-9474.636058,444.123565,0.000000
3033.060821,-10288.862594,0.000000,459.657299
3033.061159,-10436.903782,0.000000,2068.457845
3033.061496,-10955.047942,814.226536,2528.115143
3033.061833,-10658.965565,2738.761985,1225.752797
3033.062171,-10658.965565,2072.576638,306.438199
3033.062508,-11769.274478,148.041188,383.047749
3033.062845,-11473.192101,-962.267725,536.266849
3033.063183,-11103.089130,-592.164754,1072.533697
3033.063520,-9326.594869,444.123565,153.219100
3033.063857,-10066.800811,0.000000,-919.314598
3033.064195,-9622.677246,-1036.288319,-2834.553343
3033.064532,-9770.718434,-2664.741391,-2374.896044
3033.064869,-8808.450710,-1184.329507,-766.095498
3033.065207,-8364.327145,-962.267725,-536.266849
3033.065544,-10881.027347,-888.247130,76.609550
3033.065881,-11103.089130,-888.247130,-1378.971896
3033.066219,-11029.068536,-1628.453072,-536.266849
3033.066556,-10214.842000,-2664.741391,153.219100
3033.066893,-8808.450710,-3034.844362,689.485948
3033.067231,-8956.491898,-1924.535449,1532.190996
3033.067568,-9548.656652,-2516.700203,1225.752797
3033.067905,-9252.574275,-2072.576638,2145.067394
3033.068243,-9622.677246,-962.267725,766.095498
3033.068580,-9844.739029,888.247130,0.000000
3033.068917,-9770.718434,1776.494261,919.314598
3033.069255,-11991.336260,2368.659014,536.266849
3033.069592,-9918.759623,1702.473667,-612.876398
3033.069929,-10658.965565,1480.411884,306.438199
3033.070267,-10362.883188,1628.453072,612.876398
3033.070604,-10214.842000,1184.329507,-306.438199
3033.070941,-10732.986159,-740.205942,-153.219100
3033.071279,-9400.615463,74.020594,-76.609550
3033.071616,-10510.924376,-148.041188,766.095498
3033.071953,-11769.274478,666.185348,-459.657299
3033.072291,-8956.491898,0.000000,-1762.019645
3033.072628,-10807.006753,-444.123565,-612.876398
3033.072965,-10510.924376,0.000000,-306.438199
3033.073303,-8734.430116,-1184.329507,-1455.581446
3033.073640,-10807.006753,-1628.453072,76.609550
3033.073977,-10066.800811,-2664.741391,-689.485948
3033.074315,-10288.862594,-2146.597232,383.047749
3033.074652,-8290.306550,-1628.453072,0.000000
3033.074989,-8438.347739,-3923.091493,1455.581446
3033.075327,-10214.842000,-2220.617826,1991.848295
3033.075664,-9104.533087,-666.185348,306.438199
3033.076001,-9326.594869,592.164754,1378.971896
3033.076339,-10732.986159,-740.205942,1378.971896
3033.076676,-10732.986159,296.082377,153.219100
3033.077013,-10732.986159,592.164754,995.924147
3033.077351,-9992.780217,0.000000,1991.848295
3033.077688,-9770.718434,-1036.288319,2528.115143
3033.078025,-11399.171507,-1258.350101,1532.190996
3033.078363,-9622.677246,0.000000,0.000000
3033.078700,-10214.842000,0.000000,229.828649
3033.079037,-9770.718434,-296.082377,-459.657299
3033.079375,-9400.615463,592.164754,-1302.362347
3033.079712,-11103.089130,222.061783,-995.924147
3033.080049,-9548.656652,1184.329507,-1378.971896
3033.080387,-9030.512492,74.020594,-689.485948
3033.080724,-10807.006753,0.000000,689.485948
3033.081061,-10658.965565,-1184.329507,1225.752797
3033.081399,-10436.903782,-666.185348,2834.553343
3033.081736,-9474.636058,222.061783,3447.429741
3033.082073,-9252.574275,-444.123565,2451.505594
3033.082411,-10510.924376,0.000000,2528.115143
3033.082748,-8808.450710,0.000000,689.485948
3033.083085,-9104.533087,148.041188,-153.219100
3033.083423,-9770.718434,222.061783,1072.533697
3033.083760,-9548.656652,1406.391290,1532.190996
3033.084097,-10510.924376,2072.576638,-1378.971896
3033.084435,-10658.965565,1776.494261,-3370.820191
3033.084772,-10658.965565,592.164754,-2757.943793
3033.085109,-10436.903782,-814.226536,-1608.800546
3033.085446,-8068.244768,-1184.329507,-919.314598
3033.085784,-8142.265362,-1480.411884,-306.438199
3033.086121,-10362.883188,-1480.411884,-766.095498
3033.086458,-10066.800811,-2368.659014,-2221.676944
3033.086796,-10584.944971,-1924.535449,-1378.971896
3033.087133,-9474.636058,-1850.514855,-612.876398
3033.087470,-10362.883188,-592.164754,-612.876398
3033.087808,-12139.377449,-1554.432478,0.000000
3033.088145,-10288.862594,-1850.514855,-1608.800546
3033.088482,-10214.842000,-1998.556043,-612.876398
3033.088819,-10288.862594,-1184.329507,1072.533697
3033.089157,-9770.718434,-888.247130,1838.629195
3033.089494,-11177.109724,-1258.350101,1532.190996
3033.089831,-10140.821405,-592.164754,0.000000
3033.090169,-10214.842000,-296.082377,536.266849
3033.090506,-10658.965565,-518.144159,1762.019645
3033.090843,-8956.491898,-740.205942,2451.505594
3033.091181,-9918.759623,1702.473667,2068.457845
3033.091518,-9400.615463,1850.514855,612.876398
3033.091855,-9474.636058,370.102971,-76.609550
3033.092192,-9326.594869,222.061783,612.876398
3033.092530,-9770.718434,-444.123565,1225.752797
3033.092867,-11029.068536,296.082377,229.828649
3033.093204,-8660.409521,222.061783,-1149.143247
3033.093542,-7920.203579,-370.102971,-459.657299
3033.093879,-9252.574275,-666.185348,229.828649
3033.094216,-7698.141797,-296.082377,612.876398
3033.094554,-8586.388927,1406.391290,1685.410096
3033.094891,-10658.965565,518.144159,1455.581446
3033.095228,-12213.398043,444.123565,766.095498
3033.095566,-12805.562797,518.144159,919.314598
3033.095903,-10362.883188,296.082377,1685.410096
3033.096240,-9770.718434,74.020594,1915.238745
3033.096577,-9844.739029,0.000000,766.095498
3033.096915,-10362.883188,-814.226536,229.828649
3033.097252,-9474.636058,-740.205942,306.438199
3033.097589,-10288.862594,-518.144159,2068.457845
3033.097927,-11325.150913,1184.329507,2145.067394
3033.098264,-10658.965565,1702.473667,-995.924147
3033.098601,-10732.986159,518.144159,-612.876398
3033.098939,-10658.965565,-740.205942,-1225.752797
3033.099276,-10362.883188,-962.267725,-612.876398
3033.099613,-9400.615463,-1110.308913,689.485948
3033.099950,-9844.739029,-2072.576638,-383.047749
3033.100288,-9548.656652,-2960.823768,-1532.190996
3033.100625,-10732.986159,-3627.009116,-1685.410096
3033.100962,-8068.244768,-2368.659014,-766.095498
3033.101300,-8290.306550,-2738.761985,-689.485948
3033.101637,-9696.697840,-1036.288319,-1149.143247
3033.101974,-9178.553681,-888.247130,-2145.067394
3033.102312,-11473.192101,-1850.514855,-612.876398
3033.102649,-10436.903782,-1554.432478,689.485948
3033.102986,-9548.656652,-1110.308913,1915.238745
3033.103323,-11621.233289,148.041188,2757.943793
3033.103661,-10362.883188,-592.164754,229.828649
3033.103998,-10807.006753,-222.061783,1762.019645
3033.104335,-11399.171507,888.247130,2604.724693
3033.104673,-10066.800811,518.144159,919.314598
3033.105010,-10066.800811,1850.514855,1455.581446
3033.105347,-9622.677246,2294.638420,0.000000
3033.105685,-10584.944971,740.205942,-689.485948
3033.106022,-11547.212695,1850.514855,-1608.800546
3033.106359,-8364.327145,2664.741391,-1608.800546
3033.106696,-9474.636058,2072.576638,-1532.190996
3033.107034,-10732.986159,1406.391290,-2604.724693
3033.107371,-10732.986159,296.082377,-3217.601092
3033.107708,-10140.821405,-2146.597232,-1455.581446
3033.108046,-6957.935855,-2886.803174,0.000000
3033.108383,-7476.080014,-2442.679609,1915.238745
3033.108720,-9030.512492,-296.082377,2374.896044
3033.109058,-8882.471304,-962.267725,0.000000
3033.109395,-11917.315666,-1036.288319,0.000000
3033.109732,-11251.130318,-1184.329507,76.609550
3033.110070,-10436.903782,-888.247130,1685.410096
3033.110407,-9844.739029,0.000000,1302.362347
3033.110744,-8586.388927,-592.164754,0.000000
3033.111081,-10436.903782,-1110.308913,919.314598
3033.111419,-10066.800811,-1480.411884,1455.581446
3033.111756,-9770.718434,-222.061783,1838.629195
3033.112093,-10955.047942,740.205942,1685.410096
3033.112431,-10362.883188,370.102971,0.000000
3033.112768,-11843.295072,74.020594,383.047749
3033.113105,-11547.212695,-962.267725,459.657299
3033.113443,-8882.471304,-444.123565,1225.752797
3033.113780,-9622.677246,0.000000,2604.724693
3033.114117,-11251.130318,666.185348,995.924147
3033.114454,-12435.459826,-1036.288319,-383.047749
3033.114792,-11251.130318,-1702.473667,-1302.362347
3033.115129,-8068.244768,-814.226536,153.219100
3033.115466,-8364.327145,-1332.370696,919.314598
3033.115804,-8364.327145,-296.082377,-612.876398
3033.116141,-9326.594869,-962.267725,-995.924147
3033.116478,-11177.109724,-1480.411884,-383.047749
3033.116816,-8956.491898,-1406.391290,1991.848295
3033.117153,-10584.944971,148.041188,4060.306139
3033.117490,-10288.862594,1998.556043,2911.162892
3033.117827,-9918.759623,1702.473667,-536.266849
3033.118165,-10436.903782,222.061783,153.219100
3033.118502,-9548.656652,74.020594,1378.971896
3033.118839,-9770.718434,-666.185348,2145.067394
3033.119177,-9918.759623,2072.576638,383.047749
3033.119514,-8956.491898,814.226536,-1685.410096
3033.119851,-11325.150913,-222.061783,-1225.752797
3033.120189,-10881.027347,296.082377,-1302.362347
3033.120526,-8364.327145,1184.329507,-1225.752797
3033.120863,-9104.533087,1258.350101,-1149.143247
3033.121200,-10955.047942,0.000000,-2298.286494
3033.121538,-11695.253884,-444.123565,-2834.553343
3033.121875,-10807.006753,-1332.370696,-2298.286494
3033.122212,-9400.615463,-1776.494261,612.876398
3033.122550,-10436.903782,-2146.597232,766.095498
3033.122887,-11029.068536,0.000000,-1762.019645
3033.123224,-11029.068536,-888.247130,-2911.162892
3033.123562,-9326.594869,-2664.741391,-2374.896044
3033.123899,-8586.388927,-3330.926739,612.876398
3033.124236,-9918.759623,-2442.679609,2068.457845
3033.124574,-8808.450710,0.000000,1532.190996
3033.124911,-10362.883188,-666.185348,1072.533697
3033.125248,-11621.233289,-2516.700203,383.047749
3033.125585,-9770.718434,-2294.638420,1991.848295
3033.125923,-9770.718434,-1258.350101,4596.572988
3033.126260,-8586.388927,296.082377,3830.477490
3033.126597,-9030.512492,1110.308913,459.657299
3033.126935,-12361.439231,962.267725,-76.609550
3033.127272,-11843.295072,-592.164754,-766.095498
3033.127609,-9548.656652,-592.164754,0.000000
3033.127947,-8882.471304,1258.350101,0.000000
3033.128284,-8364.327145,1332.370696,-1072.533697
3033.128621,-10732.986159,148.041188,-612.876398
3033.128958,-11399.171507,-148.041188,-306.438199
3033.129296,-10214.842000,0.000000,689.485948
3033.129633,-9474.636058,0.000000,1455.581446
3033.129970,-9770.718434,0.000000,2604.724693
3033.130308,-11843.295072,148.041188,2068.457845
3033.130645,-11177.109724,222.061783,689.485948
3033.130982,-9474.636058,0.000000,1685.410096
3033.131320,-10362.883188,1036.288319,1685.410096
3033.131657,-9844.739029,2146.597232,76.609550
3033.131994,-10510.924376,148.041188,-1302.362347
3033.132331,-10066.800811,-962.267725,153.219100
3033.132669,-7105.977043,-666.185348,1685.410096
3033.133006,-9030.512492,444.123565,2757.943793
3033.133343,-10066.800811,962.267725,842.705048
3033.133681,-10214.842000,-518.144159,-459.657299
3033.134018,-10807.006753,1110.308913,-459.657299
3033.134355,-9844.739029,74.020594,383.047749
3033.134693,-10658.965565,-592.164754,0.000000
3033.135030,-9030.512492,-1184.329507,-689.485948
3033.135367,-9326.594869,-2516.700203,-1455.581446
3033.135704,-9844.739029,-1850.514855,-1685.410096
3033.136042,-8660.409521,-2442.679609,-536.266849
3033.136379,-9622.677246,-1332.370696,-306.438199
3033.136716,-10955.047942,-1332.370696,-2451.505594
3033.137054,-11029.068536,-1110.308913,-1378.971896
3033.137391,-10881.027347,-1184.329507,-1532.190996
3033.137728,-10436.903782,-3330.926739,0.000000
3033.138066,-10140.821405,-3034.844362,2987.772442
3033.138403,-9030.512492,0.000000,2374.896044
3033.138740,-10362.883188,814.226536,2145.067394
3033.139078,-12213.398043,0.000000,-766.095498
3033.139415,-11251.130318,296.082377,-1149.143247
3033.139752,-11695.253884,-814.226536,919.314598
3033.140089,-9992.780217,0.000000,842.705048
3033.140427,-6809.894666,1480.411884,1149.143247
3033.140764,-10436.903782,666.185348,306.438199
3033.141101,-10436.903782,888.247130,-1149.143247
3033.141439,-8734.430116,666.185348,-1608.800546
3033.141776,-9326.594869,1776.494261,1455.581446
3033.142113,-8586.388927,2146.597232,0.000000
3033.142451,-12361.439231,814.226536,-1149.143247
3033.142788,-12287.418637,444.123565,-1532.190996
3033.143125,-9474.636058,-1998.556043,-689.485948
3033.143462,-9178.553681,-740.205942,1991.848295
3033.143800,-7031.956449,592.164754,1072.533697
3033.144137,-8586.388927,222.061783,-536.266849
3033.144474,-11991.336260,-814.226536,-2221.676944
3033.144812,-10881.027347,-666.185348,-1685.410096
3033.145149,-10732.986159,-1184.329507,0.000000
3033.145486,-8068.244768,-370.102971,1225.752797
3033.145824,-8438.347739,592.164754,919.314598
3033.146161,-11325.150913,0.000000,689.485948
3033.146498,-10658.965565,-1184.329507,1149.143247
3033.146835,-10362.883188,-1554.432478,3447.429741
3033.147173,-10658.965565,0.000000,3677.258390
3033.147510,-10807.006753,-148.041188,2604.724693
3033.147847,-11991.336260,-1332.370696,0.000000
3033.148185,-8586.388927,-1332.370696,229.828649
3033.148522,-8512.368333,-1184.329507,1838.629195
3033.148859,-9474.636058,0.000000,1762.019645
3033.149197,-9696.697840,148.041188,-536.266849
