#time,accel_x,accel_y,accel_z
3409.655842,-9548.656652,-1924.535449,612.876398
3409.656180,-9696.697840,-666.185348,0.000000
3409.656517,-9548.656652,-1184.329507,306.438199
3409.656855,-10214.842000,-962.267725,459.657299
3409.657192,-10732.986159,-1924.535449,1072.533697
3409.657530,-11251.130318,-1110.308913,919.314598
3409.657867,-9548.656652,-962.267725,689.485948
3409.658205,-10658.965565,-740.205942,1532.190996
3409.658542,-11399.171507,-1110.308913,1302.362347
3409.658880,-10436.903782,-1258.350101,689.485948
3409.659217,-10436.903782,-222.061783,1685.410096
3409.659555,-10214.842000,-296.082377,842.705048
3409.659892,-9992.780217,444.123565,919.314598
3409.660230,-10732.986159,-518.144159,919.314598
3409.660567,-10881.027347,-592.164754,536.266849
3409.660905,-9770.718434,-296.082377,459.657299
3409.661242,-10066.800811,-1110.308913,306.438199
3409.661580,-9770.718434,-1110.308913,306.438199
3409.661917,-9770.718434,-2516.700203,153.219100
3409.662255,-9844.739029,-1702.473667,229.828649
3409.662592,-9030.512492,-2590.720797,842.705048
3409.662930,-8586.388927,-1850.514855,1225.752797
3409.663267,-9326.594869,-1554.432478,1072.533697
3409.663605,-10510.924376,-2072.576638,1762.019645
3409.663942,-9622.677246,-2368.659014,2374.896044
3409.664280,-8068.244768,-1702.473667,3753.867940
3409.664617,-9474.636058,-1554.432478,5745.716235
3409.664955,-10584.944971,-518.144159,4903.011187
3409.665293,-11547.212695,-1850.514855,5132.839837
3409.665630,-11325.150913,-444.123565,4903.011187
3409.665968,-9992.780217,-518.144159,4443.353888
3409.666305,-10658.965565,-296.082377,4979.620737
3409.666643,-10214.842000,-740.205942,2681.334243
3409.666980,-9474.636058,-1258.350101,919.314598
3409.667318,-9696.697840,-1184.329507,1532.190996
3409.667655,-8882.471304,-1924.535449,1072.533697
3409.667993,-8808.450710,-2294.638420,1149.143247
3409.668330,-10140.821405,-1702.473667,1532.190996
3409.668668,-9918.759623,-1998.556043,536.266849
3409.669005,-10732.986159,-3182.885551,0.000000
3409.669343,-9622.677246,-3923.091493,1302.362347
3409.669680,-8956.491898,-5033.400406,1991.848295
3409.670018,-9844.739029,-4737.318029,2451.505594
3409.670355,-10362.883188,-3775.050304,2068.457845
3409.670693,-10214.842000,-4737.318029,1149.143247
3409.671030,-9992.780217,-4959.379811,995.924147
3409.671368,-9844.739029,-6217.729913,2068.457845
3409.671705,-9178.553681,-4811.338623,3370.820191
3409.672043,-10066.800811,-4737.318029,4443.353888
3409.672380,-11399.171507,-2664.741391,3447.429741
3409.672718,-11177.109724,-1184.329507,1685.410096
3409.673055,-11251.130318,-444.123565,995.924147
3409.673393,-10881.027347,-962.267725,1378.971896
3409.673730,-10510.924376,-1998.556043,1685.410096
3409.674068,-9918.759623,-1850.514855,2757.943793
3409.674405,-10066.800811,-2220.617826,2987.772442
3409.674743,-10362.883188,-2368.659014,2528.115143
3409.675080,-9992.780217,-2146.597232,2298.286494
3409.675418,-9326.594869,-2368.659014,2911.162892
3409.675755,-9030.512492,-1998.556043,3217.601092
3409.676093,-10288.862594,-444.123565,3217.601092
3409.676430,-10955.047942,370.102971,1991.848295
3409.676768,-9992.780217,518.144159,306.438199
3409.677105,-9844.739029,-814.226536,536.266849
3409.677443,-10881.027347,-2368.659014,1838.629195
3409.677780,-8956.491898,-2812.782580,2528.115143
3409.678118,-7254.018232,-2738.761985,3524.039291
3409.678455,-8068.244768,-2812.782580,4826.401637
3409.678793,-10066.800811,-2886.803174,5286.058936
3409.679130,-11621.233289,-2146.597232,5362.668486
3409.679468,-10584.944971,-888.247130,4443.353888
3409.679805,-10214.842000,2220.617826,3830.477490
3409.680143,-11399.171507,2368.659014,2451.505594
3409.680480,-11103.089130,444.123565,459.657299
3409.680818,-9622.677246,-1702.473667,0.000000
3409.681155,-8216.285956,-2294.638420,3217.601092
3409.681493,-9918.759623,-2738.761985,4673.182538
3409.681830,-12435.459826,-2886.803174,3907.087040
3409.682168,-10362.883188,-2886.803174,-766.095498
3409.682505,-8216.285956,-2812.782580,-689.485948
3409.682843,-9030.512492,-2146.597232,1762.019645
3409.683180,-10658.965565,-2590.720797,1532.190996
3409.683518,-10362.883188,-1998.556043,0.000000
3409.683855,-10214.842000,-2516.700203,-459.657299
3409.684193,-12213.398043,-2590.720797,612.876398
3409.684530,-11547.212695,-4145.153275,459.657299
3409.684868,-9400.615463,-4367.215058,612.876398
3409.685205,-7624.121203,-6587.832884,1915.238745
3409.685543,-8438.347739,-5773.606348,3064.381992
3409.685880,-8808.450710,-4293.194464,4826.401637
3409.686218,-11029.068536,-2960.823768,5592.497135
3409.686555,-12065.356855,-1258.350101,2911.162892
3409.686893,-12139.377449,-296.082377,1455.581446
3409.687230,-10955.047942,0.000000,2451.505594
3409.687568,-9548.656652,-1110.308913,3370.820191
3409.687905,-9696.697840,-1924.535449,4060.306139
3409.688243,-9400.615463,-296.082377,2145.067394
3409.688580,-9622.677246,-814.226536,2068.457845
3409.688918,-11325.150913,-1554.432478,2681.334243
3409.689255,-9548.656652,-3404.947333,2911.162892
3409.689593,-8068.244768,-2886.803174,4366.744339
3409.689930,-8882.471304,-1036.288319,4903.011187
3409.690268,-9548.656652,592.164754,2068.457845
3409.690605,-11399.171507,666.185348,-536.266849
3409.690943,-11029.068536,-1036.288319,-459.657299
3409.691280,-11251.130318,-3034.844362,1532.190996
3409.691618,-9104.533087,-1554.432478,3064.381992
3409.691955,-7920.203579,-2738.761985,3370.820191
3409.692293,-8290.306550,-4367.215058,2528.115143
3409.692630,-8068.244768,-6069.688724,3064.381992
3409.692968,-10214.842000,-5995.668130,5209.449386
3409.693305,-11103.089130,-2146.597232,5286.058936
3409.693643,-11177.109724,-222.061783,3064.381992
3409.693980,-12953.603985,296.082377,1608.800546
3409.694318,-11843.295072,-2146.597232,536.266849
3409.694655,-10362.883188,-3404.947333,1072.533697
3409.694993,-7846.182985,-1924.535449,3064.381992
3409.695330,-7994.224174,-2516.700203,2528.115143
3409.695668,-12287.418637,-4737.318029,2451.505594
3409.696005,-10510.924376,-5329.482782,0.000000
3409.696343,-7328.038826,-4589.276840,1149.143247
3409.696680,-8290.306550,-2886.803174,3983.696590
3409.697018,-10807.006753,-2738.761985,3677.258390
3409.697355,-13175.665768,-2960.823768,612.876398
3409.697693,-10066.800811,-1850.514855,-1915.238745
3409.698030,-9178.553681,-2960.823768,2451.505594
3409.698368,-10584.944971,-3108.864956,4903.011187
3409.698705,-11843.295072,-3775.050304,2757.943793
3409.699043,-9252.574275,-4515.256246,-383.047749
3409.699380,-7105.977043,-4145.153275,995.924147
3409.699718,-8734.430116,-4515.256246,5132.839837
3409.700055,-11103.089130,-3552.988522,4596.572988
3409.700393,-8216.285956,-1406.391290,1838.629195
3409.700730,-9400.615463,370.102971,3294.210641
3409.701068,-12361.439231,592.164754,5898.935335
3409.701405,-12287.418637,888.247130,3447.429741
3409.701743,-10955.047942,1110.308913,3830.477490
3409.702080,-10362.883188,222.061783,3830.477490
3409.702418,-11103.089130,0.000000,3064.381992
3409.702756,-9918.759623,-592.164754,1532.190996
3409.703093,-6217.729913,-1332.370696,3447.429741
3409.703431,-7402.059420,-2886.803174,3524.039291
3409.703768,-10362.883188,-2368.659014,1991.848295
3409.704106,-10436.903782,-962.267725,229.828649
3409.704443,-9770.718434,-888.247130,459.657299
3409.704781,-10807.006753,-1850.514855,1302.362347
3409.705118,-10584.944971,-2146.597232,842.705048
3409.705456,-10140.821405,-1776.494261,2374.896044
3409.705793,-10288.862594,-3034.844362,2604.724693
3409.706131,-9770.718434,-3923.091493,1838.629195
3409.706468,-9326.594869,-4737.318029,2374.896044
3409.706806,-9474.636058,-6513.812290,2757.943793
3409.707143,-8512.368333,-5403.503377,3294.210641
3409.707481,-9696.697840,-4293.194464,3600.648841
3409.707818,-11325.150913,-3256.906145,3217.601092
3409.708156,-10362.883188,-2442.679609,1915.238745
3409.708493,-11325.150913,-1332.370696,3830.477490
3409.708831,-12139.377449,-222.061783,3983.696590
3409.709168,-11547.212695,-1184.329507,2451.505594
3409.709506,-11177.109724,-1332.370696,2298.286494
3409.709843,-9770.718434,-1554.432478,2374.896044
3409.710181,-9474.636058,-3108.864956,766.095498
3409.710518,-9770.718434,-3775.050304,842.705048
3409.710856,-8808.450710,-2072.576638,1608.800546
3409.711193,-8364.327145,-2294.638420,842.705048
3409.711531,-10288.862594,-1850.514855,612.876398
3409.711868,-11251.130318,-962.267725,1455.581446
3409.712206,-10140.821405,-444.123565,1149.143247
3409.712543,-10288.862594,-592.164754,1302.362347
3409.712881,-10955.047942,-296.082377,2068.457845
3409.713218,-10658.965565,-1850.514855,2221.676944
3409.713556,-9548.656652,-2738.761985,2528.115143
3409.713893,-7846.182985,-1924.535449,2987.772442
3409.714231,-7920.203579,-1332.370696,3140.991542
3409.714568,-9252.574275,-1480.411884,1838.629195
3409.714906,-9844.739029,-1702.473667,76.609550
3409.715243,-9696.697840,-592.164754,2374.896044
3409.715581,-9770.718434,2886.803174,2145.067394
3409.715918,-10955.047942,2960.823768,306.438199
3409.716256,-12287.418637,2368.659014,-459.657299
3409.716593,-11917.315666,592.164754,-995.924147
3409.716931,-9622.677246,-1924.535449,76.609550
3409.717268,-8956.491898,-1998.556043,2911.162892
3409.717606,-8290.306550,-2368.659014,3294.210641
3409.717943,-9918.759623,-3849.070898,1149.143247
3409.718281,-10658.965565,-2960.823768,-1608.800546
3409.718618,-9104.533087,-2664.741391,-1455.581446
3409.718956,-10140.821405,-2738.761985,995.924147
3409.719293,-10510.924376,-1850.514855,153.219100
3409.719631,-11473.192101,-296.082377,-2068.457845
3409.719968,-12065.356855,-888.247130,-2221.676944
3409.720306,-9992.780217,-2368.659014,-1225.752797
3409.720643,-10362.883188,-3701.029710,1378.971896
3409.720981,-10066.800811,-3478.967927,2451.505594
3409.721318,-8438.347739,-4219.173869,1302.362347
3409.721656,-10807.006753,-2738.761985,1378.971896
3409.721993,-9696.697840,-2368.659014,536.266849
3409.722331,-9474.636058,-2442.679609,2451.505594
3409.722668,-10732.986159,518.144159,3830.477490
3409.723006,-9030.512492,2368.659014,919.314598
3409.723343,-12657.521608,2368.659014,306.438199
3409.723681,-12435.459826,2368.659014,-153.219100
3409.724018,-9770.718434,444.123565,153.219100
3409.724356,-10732.986159,-888.247130,2681.334243
3409.724693,-7772.162391,148.041188,3064.381992
3409.725031,-7105.977043,2072.576638,0.000000
3409.725368,-10214.842000,1110.308913,-1378.971896
3409.725706,-8586.388927,-740.205942,-2528.115143
3409.726043,-9104.533087,-1850.514855,76.609550
3409.726381,-8882.471304,370.102971,1532.190996
3409.726718,-9178.553681,1998.556043,0.000000
3409.727056,-12213.398043,2516.700203,-995.924147
3409.727393,-10214.842000,1036.288319,-3524.039291
3409.727731,-8734.430116,-1924.535449,-1455.581446
3409.728068,-9474.636058,-592.164754,2757.943793
3409.728406,-8142.265362,-518.144159,2757.943793
3409.728743,-11991.336260,-444.123565,2374.896044
3409.729081,-10658.965565,0.000000,-459.657299
3409.729418,-9474.636058,-1332.370696,383.047749
3409.729756,-11695.253884,0.000000,1991.848295
3409.730093,-9474.636058,1184.329507,-1915.238745
3409.730431,-10732.986159,1702.473667,-2374.896044
3409.730768,-11177.109724,370.102971,-2604.724693
3409.731106,-7994.224174,-962.267725,-2145.067394
3409.731443,-11029.068536,-962.267725,919.314598
3409.731781,-10807.006753,-1036.288319,76.609550
3409.732118,-10658.965565,-2220.617826,-995.924147
3409.732456,-11843.295072,-1332.370696,-1838.629195
3409.732793,-8882.471304,-2812.782580,-1685.410096
3409.733131,-8882.471304,-4515.256246,229.828649
3409.733468,-8660.409521,-2738.761985,612.876398
3409.733806,-9918.759623,-1332.370696,-229.828649
3409.734143,-12657.521608,740.205942,-229.828649
3409.734481,-10214.842000,-1554.432478,-1225.752797
3409.734818,-11399.171507,-2664.741391,919.314598
3409.735156,-10955.047942,-1702.473667,2374.896044
3409.735493,-8882.471304,-370.102971,3140.991542
3409.735831,-10881.027347,296.082377,3447.429741
3409.736168,-8438.347739,148.041188,1685.410096
3409.736506,-10140.821405,-1702.473667,2987.772442
3409.736843,-10807.006753,1332.370696,1991.848295
3409.737181,-9104.533087,1776.494261,689.485948
3409.737518,-11917.315666,2590.720797,1149.143247
3409.737856,-8216.285956,2442.679609,-995.924147
3409.738193,-7624.121203,1036.288319,1915.238745
3409.738531,-11177.109724,1554.432478,2681.334243
3409.738868,-9326.594869,1406.391290,536.266849
3409.739206,-12213.398043,1258.350101,153.219100
3409.739543,-10807.006753,592.164754,-689.485948
3409.739881,-7254.018232,-666.185348,0.000000
3409.740218,-10140.821405,-1110.308913,995.924147
3409.740556,-7920.203579,0.000000,-1608.800546
3409.740893,-8808.450710,0.000000,-3140.991542
3409.741231,-11621.233289,-370.102971,-1685.410096
3409.741568,-9622.677246,-2368.659014,-383.047749
3409.741906,-11473.192101,-3404.947333,1991.848295
3409.742243,-9548.656652,-740.205942,1378.971896
3409.742581,-10510.924376,-1480.411884,0.000000
3409.742918,-11917.315666,296.082377,-689.485948
3409.743256,-7846.182985,-2368.659014,-1838.629195
3409.743593,-10140.821405,-2960.823768,2374.896044
3409.743931,-9474.636058,-1480.411884,1915.238745
3409.744268,-9252.574275,0.000000,383.047749
3409.744606,-13175.665768,148.041188,459.657299
3409.744943,-10584.944971,-1110.308913,-2374.896044
3409.745281,-10066.800811,-2886.803174,0.000000
3409.745618,-10214.842000,-370.102971,1225.752797
3409.745956,-7920.203579,962.267725,76.609550
3409.746293,-10362.883188,1406.391290,-612.876398
3409.746631,-10066.800811,-592.164754,-2834.553343
3409.746968,-9918.759623,-1998.556043,-536.266849
3409.747306,-11029.068536,-592.164754,1149.143247
3409.747643,-9178.553681,-666.185348,-459.657299
3409.747981,-10584.944971,814.226536,-2374.896044
3409.748318,-9474.636058,888.247130,-2834.553343
3409.748656,-8364.327145,-1924.535449,536.266849
3409.748993,-9622.677246,-1184.329507,2987.772442
3409.749331,-7994.224174,888.247130,2911.162892
3409.749668,-12731.542202,1850.514855,995.924147
3409.750006,-12731.542202,2516.700203,-383.047749
3409.750343,-9030.512492,740.205942,383.047749
3409.750681,-9252.574275,370.102971,3600.648841
3409.751018,-8808.450710,1924.535449,2757.943793
3409.751356,-9918.759623,1924.535449,995.924147
3409.751693,-10066.800811,2368.659014,-2221.676944
3409.752031,-9326.594869,-592.164754,-919.314598
3409.752368,-10436.903782,0.000000,2068.457845
3409.752706,-9770.718434,74.020594,919.314598
3409.753043,-10658.965565,518.144159,76.609550
3409.753381,-10140.821405,1554.432478,-2451.505594
3409.753718,-7846.182985,0.000000,-2145.067394
3409.754056,-10066.800811,-1776.494261,1532.190996
3409.754393,-10362.883188,-2516.700203,689.485948
3409.754731,-10658.965565,-1480.411884,-229.828649
3409.755068,-11917.315666,-370.102971,-1762.019645
3409.755406,-9400.615463,-2368.659014,-2145.067394
3409.755743,-9104.533087,-3849.070898,1149.143247
3409.756081,-9252.574275,-2220.617826,2221.676944
3409.756418,-9474.636058,-2072.576638,1762.019645
3409.756756,-12583.501014,0.000000,766.095498
3409.757093,-11991.336260,666.185348,1072.533697
3409.757431,-12287.418637,-1406.391290,1149.143247
3409.757768,-9770.718434,-740.205942,2987.772442
3409.758106,-8586.388927,222.061783,3370.820191
3409.758443,-10732.986159,370.102971,1685.410096
3409.758781,-9992.780217,0.000000,459.657299
3409.759118,-9252.574275,-1480.411884,1762.019645
3409.759456,-10732.986159,518.144159,3140.991542
3409.759793,-9770.718434,814.226536,306.438199
3409.760131,-11325.150913,1258.350101,-766.095498
3409.760468,-10214.842000,1332.370696,-2451.505594
3409.760806,-7772.162391,-222.061783,-1685.410096
3409.761143,-8586.388927,-222.061783,1762.019645
3409.761481,-8882.471304,-148.041188,1378.971896
3409.761818,-10066.800811,0.000000,459.657299
3409.762156,-11473.192101,222.061783,-306.438199
3409.762493,-9474.636058,-444.123565,153.219100
3409.762831,-9252.574275,-1184.329507,1838.629195
3409.763168,-8734.430116,0.000000,995.924147
3409.763506,-8586.388927,222.061783,-1608.800546
3409.763843,-11103.089130,1110.308913,-1455.581446
3409.764181,-10214.842000,444.123565,-1378.971896
3409.764518,-10807.006753,-1258.350101,0.000000
3409.764856,-9918.759623,-296.082377,383.047749
3409.765193,-9474.636058,-444.123565,612.876398
3409.765531,-11473.192101,296.082377,459.657299
3409.765868,-9030.512492,-814.226536,-2298.286494
3409.766206,-9474.636058,-2368.659014,842.705048
3409.766543,-10584.944971,-1480.411884,1532.190996
3409.766881,-9992.780217,-1702.473667,-383.047749
3409.767218,-11029.068536,-148.041188,-842.705048
3409.767556,-10362.883188,-592.164754,-2298.286494
3409.767893,-10288.862594,-2146.597232,-1685.410096
3409.768231,-10881.027347,-1110.308913,-766.095498
3409.768568,-9178.553681,-1184.329507,-1915.238745
3409.768906,-11473.192101,-222.061783,-1838.629195
3409.769243,-11103.089130,-1258.350101,-2451.505594
3409.769581,-9030.512492,-2072.576638,-612.876398
3409.769918,-11251.130318,-2812.782580,2911.162892
3409.770256,-9474.636058,-1924.535449,2145.067394
3409.770593,-9548.656652,-444.123565,2068.457845
3409.770931,-11251.130318,888.247130,2374.896044
3409.771268,-10658.965565,-1258.350101,2911.162892
3409.771606,-12065.356855,-518.144159,4060.306139
3409.771943,-9696.697840,1184.329507,3907.087040
3409.772281,-8956.491898,2516.700203,1991.848295
3409.772618,-9992.780217,3775.050304,536.266849
3409.772956,-8956.491898,1998.556043,-229.828649
3409.773293,-10510.924376,740.205942,2145.067394
3409.773631,-8586.388927,1850.514855,2068.457845
3409.773968,-7920.203579,1776.494261,1225.752797
3409.774306,-10510.924376,2294.638420,995.924147
3409.774643,-8734.430116,1406.391290,-1072.533697
3409.774981,-9178.553681,1036.288319,689.485948
3409.775318,-10362.883188,1554.432478,995.924147
3409.775656,-8956.491898,888.247130,-995.924147
3409.775993,-12657.521608,1924.535449,-612.876398
3409.776331,-10584.944971,666.185348,-2528.115143
3409.776668,-9252.574275,-962.267725,-689.485948
3409.777006,-9474.636058,-1332.370696,919.314598
3409.777343,-7402.059420,-1332.370696,229.828649
3409.777681,-10658.965565,-1332.370696,-612.876398
3409.778018,-11103.089130,-1554.432478,-995.924147
3409.778356,-10066.800811,-2146.597232,-459.657299
3409.778693,-11843.295072,-2220.617826,2604.724693
3409.779031,-10362.883188,-296.082377,1225.752797
3409.779368,-10881.027347,444.123565,-153.219100
3409.779706,-11547.212695,888.247130,-1302.362347
3409.780043,-9400.615463,-1184.329507,-1608.800546
3409.780381,-10807.006753,-1924.535449,842.705048
3409.780718,-9474.636058,-370.102971,-306.438199
3409.781056,-9326.594869,-518.144159,-1991.848295
3409.781393,-10362.883188,1036.288319,-2834.553343
3409.781731,-9622.677246,-2220.617826,-2374.896044
3409.782068,-10881.027347,-2960.823768,536.266849
3409.782406,-8586.388927,-666.185348,0.000000
3409.782743,-10140.821405,-592.164754,306.438199
3409.783081,-11769.274478,0.000000,0.000000
3409.783418,-9030.512492,-666.185348,-1762.019645
3409.783756,-10288.862594,0.000000,1302.362347
3409.784093,-10140.821405,-740.205942,1838.629195
3409.784431,-9252.574275,-888.247130,689.485948
3409.784768,-11177.109724,-296.082377,612.876398
3409.785106,-8216.285956,148.041188,306.438199
3409.785443,-9030.512492,-2072.576638,2834.553343
3409.785781,-9770.718434,1036.288319,4366.744339
3409.786118,-9400.615463,2368.659014,2451.505594
3409.786456,-11991.336260,3627.009116,1225.752797
3409.786793,-10214.842000,3330.926739,-383.047749
3409.787131,-10658.965565,888.247130,1225.752797
3409.787468,-11029.068536,1480.411884,1838.629195
3409.787806,-7476.080014,1628.453072,153.219100
3409.788143,-9770.718434,1554.432478,76.609550
3409.788481,-9104.533087,0.000000,-766.095498
3409.788818,-8068.244768,-2368.659014,-459.657299
3409.789156,-9474.636058,-2146.597232,2145.067394
3409.789493,-8290.306550,-518.144159,383.047749
3409.789831,-11177.109724,-888.247130,0.000000
3409.790168,-11547.212695,-148.041188,-2451.505594
3409.790506,-8216.285956,-1702.473667,-2221.676944
3409.790843,-10066.800811,-1258.350101,612.876398
3409.791181,-10066.800811,-1702.473667,919.314598
3409.791518,-11251.130318,-1924.535449,536.266849
3409.791856,-11991.336260,-2294.638420,-612.876398
3409.792193,-9178.553681,-3182.885551,-306.438199
3409.792531,-10140.821405,-1776.494261,2528.115143
3409.792868,-9104.533087,-1036.288319,2451.505594
3409.793206,-9548.656652,-888.247130,76.609550
3409.793543,-11621.233289,0.000000,459.657299
3409.793881,-10732.986159,-74.020594,1225.752797
3409.794218,-11547.212695,0.000000,2757.943793
3409.794556,-10807.006753,1702.473667,2681.334243
3409.794893,-11029.068536,2960.823768,153.219100
3409.795231,-12065.356855,1702.473667,-1225.752797
3409.795568,-9474.636058,1110.308913,-1225.752797
3409.795906,-8660.409521,-1776.494261,1378.971896
3409.796244,-8512.368333,-666.185348,1915.238745
3409.796581,-8660.409521,0.000000,0.000000
3409.796919,-11547.212695,222.061783,-1378.971896
3409.797256,-9474.636058,0.000000,-1149.143247
3409.797594,-7772.162391,0.000000,-536.266849
3409.797931,-9252.574275,1776.494261,1149.143247
3409.798269,-10066.800811,2146.597232,-459.657299
3409.798606,-10658.965565,370.102971,-1762.019645
3409.798944,-10140.821405,-1332.370696,0.000000
3409.799281,-9474.636058,-1850.514855,3524.039291
3409.799619,-8734.430116,-518.144159,3983.696590
3409.799956,-9474.636058,888.247130,2604.724693
3409.800294,-10807.006753,1776.494261,0.000000
3409.800631,-11177.109724,1554.432478,-2221.676944
3409.800969,-10436.903782,962.267725,-919.314598
3409.801306,-10436.903782,-222.061783,-612.876398
3409.801644,-9622.677246,962.267725,-229.828649
3409.801981,-10066.800811,2294.638420,-2987.772442
3409.802319,-11547.212695,888.247130,-3294.210641
3409.802656,-9400.615463,-1702.473667,-1532.190996
3409.802994,-10288.862594,-2146.597232,459.657299
3409.803331,-9918.759623,0.000000,229.828649
3409.803669,-10658.965565,-592.164754,-1378.971896
3409.804006,-11251.130318,-2146.597232,-1378.971896
3409.804344,-9548.656652,-3775.050304,-383.047749
3409.804681,-11251.130318,-4737.318029,2451.505594
3409.805019,-9622.677246,-962.267725,1455.581446
3409.805356,-9326.594869,296.082377,-383.047749
3409.805694,-11843.295072,962.267725,-1608.800546
3409.806031,-9326.594869,-1036.288319,-1838.629195
3409.806369,-8956.491898,-2664.741391,2374.896044
3409.806706,-9770.718434,-370.102971,3677.258390
3409.807044,-10214.842000,74.020594,1378.971896
3409.807381,-11251.130318,1628.453072,919.314598
3409.807719,-9622.677246,518.144159,0.000000
3409.808056,-7994.224174,-592.164754,2987.772442
3409.808393,-10658.965565,814.226536,6435.202183
3409.808731,-10066.800811,2516.700203,3064.381992
3409.809068,-10658.965565,3775.050304,0.000000
3409.809406,-11103.089130,2812.782580,-689.485948
3409.809743,-10436.903782,0.000000,1455.581446
3409.810081,-10584.944971,518.144159,2757.943793
3409.810418,-7402.059420,2516.700203,-995.924147
3409.810755,-7994.224174,1776.494261,-1838.629195
3409.811093,-10066.800811,0.000000,-1838.629195
3409.811430,-9474.636058,-2146.597232,-306.438199
3409.811768,-10436.903782,-1628.453072,2221.676944
3409.812105,-10066.800811,0.000000,1455.581446
3409.812442,-10658.965565,1036.288319,-1608.800546
3409.812780,-11325.150913,518.144159,-3370.820191
3409.813117,-8438.347739,-2368.659014,-1915.238745
3409.813455,-8808.450710,-2960.823768,1762.019645
3409.813792,-9400.615463,-1480.411884,2451.505594
3409.814130,-10436.903782,-370.102971,0.000000
3409.814467,-12435.459826,-518.144159,-1915.238745
3409.814804,-10807.006753,-2220.617826,-1838.629195
3409.815142,-9252.574275,-2516.700203,766.095498
3409.815479,-9622.677246,-1332.370696,1915.238745
3409.815817,-8808.450710,0.000000,76.609550
3409.816154,-12213.398043,1332.370696,-2221.676944
3409.816491,-10288.862594,-666.185348,-3753.867940
3409.816829,-10214.842000,-2738.761985,-1072.533697
3409.817166,-10955.047942,-962.267725,1302.362347
3409.817504,-10066.800811,-296.082377,-383.047749
3409.817841,-10955.047942,-148.041188,-3064.381992
3409.818179,-9104.533087,-740.205942,-3677.258390
3409.818516,-8586.388927,-2220.617826,-306.438199
3409.818853,-9918.759623,-1184.329507,1532.190996
3409.819191,-10288.862594,0.000000,919.314598
3409.819528,-12657.521608,370.102971,-306.438199
3409.819866,-10955.047942,666.185348,-1455.581446
3409.820203,-7846.182985,-1184.329507,383.047749
3409.820540,-9548.656652,0.000000,4749.792088
3409.820878,-9918.759623,740.205942,3600.648841
3409.821215,-11325.150913,1480.411884,2145.067394
3409.821553,-10510.924376,2146.597232,689.485948
3409.821890,-7550.100608,0.000000,2374.896044
3409.822228,-10140.821405,296.082377,4979.620737
3409.822565,-9992.780217,1998.556043,2757.943793
3409.822902,-9548.656652,2886.803174,306.438199
3409.823240,-10436.903782,2590.720797,-1532.190996
3409.823577,-9326.594869,1480.411884,-1455.581446
3409.823915,-9326.594869,518.144159,536.266849
3409.824252,-9326.594869,888.247130,306.438199
3409.824589,-9400.615463,1036.288319,0.000000
3409.824927,-12065.356855,1776.494261,-2451.505594
3409.825264,-9326.594869,-1776.494261,-3140.991542
3409.825602,-9474.636058,-3330.926739,612.876398
3409.825939,-9844.739029,-1702.473667,2911.162892
3409.826277,-9104.533087,-814.226536,1072.533697
3409.826614,-12287.418637,-1332.370696,76.609550
3409.826951,-10584.944971,-2368.659014,-919.314598
3409.827289,-10066.800811,-3627.009116,1762.019645
3409.827626,-11251.130318,-2294.638420,3447.429741
3409.827964,-9104.533087,-740.205942,995.924147
3409.828301,-11991.336260,444.123565,153.219100
3409.828638,-11029.068536,0.000000,-2757.943793
3409.828976,-8512.368333,-2664.741391,-1072.533697
3409.829313,-9622.677246,-1628.453072,2834.553343
3409.829651,-9252.574275,-592.164754,2145.067394
3409.829988,-11843.295072,592.164754,0.000000
3409.830326,-11991.336260,740.205942,-1532.190996
3409.830663,-8882.471304,-1776.494261,-459.657299
3409.831000,-10658.965565,-1036.288319,3294.210641
3409.831338,-10362.883188,-740.205942,2145.067394
3409.831675,-10584.944971,444.123565,-995.924147
3409.832013,-11399.171507,888.247130,-1915.238745
3409.832350,-8586.388927,-592.164754,-3064.381992
3409.832687,-9622.677246,-1258.350101,0.000000
3409.833025,-8364.327145,-740.205942,-612.876398
3409.833362,-8734.430116,0.000000,-2068.457845
3409.833700,-9548.656652,888.247130,-2681.334243
3409.834037,-8364.327145,0.000000,-1149.143247
3409.834375,-10510.924376,-814.226536,2987.772442
3409.834712,-11399.171507,0.000000,2221.676944
3409.835049,-10066.800811,1924.535449,842.705048
3409.835387,-11473.192101,1628.453072,842.705048
3409.835724,-8660.409521,962.267725,766.095498
3409.836062,-9326.594869,-444.123565,2298.286494
3409.836399,-11843.295072,518.144159,2681.334243
3409.836736,-10140.821405,444.123565,-919.314598
3409.837074,-9992.780217,1406.391290,-1915.238745
3409.837411,-8586.388927,1258.350101,-2374.896044
3409.837749,-7698.141797,-814.226536,-919.314598
3409.838086,-10214.842000,-444.123565,0.000000
3409.838424,-10066.800811,-814.226536,-1991.848295
3409.838761,-10881.027347,148.041188,-2145.067394
3409.839098,-9844.739029,-592.164754,-2451.505594
3409.839436,-9326.594869,-2368.659014,-766.095498
3409.839773,-11029.068536,-3182.885551,2451.505594
3409.840111,-9696.697840,-2960.823768,1532.190996
3409.840448,-10066.800811,-2294.638420,76.609550
3409.840785,-10436.903782,-1776.494261,-1378.971896
3409.841123,-8364.327145,-3108.864956,-383.047749
3409.841460,-10140.821405,-2516.700203,2451.505594
3409.841798,-9992.780217,-1406.391290,2221.676944
3409.842135,-12065.356855,-518.144159,2221.676944
3409.842473,-12361.439231,888.247130,766.095498
3409.842810,-8586.388927,0.000000,766.095498
3409.843147,-10140.821405,0.000000,3830.477490
3409.843485,-10955.047942,74.020594,3983.696590
3409.843822,-10881.027347,814.226536,3294.210641
3409.844160,-11917.315666,1998.556043,1225.752797
3409.844497,-9918.759623,1110.308913,306.438199
3409.844834,-10584.944971,-370.102971,2374.896044
3409.845172,-9992.780217,222.061783,2528.115143
3409.845509,-7846.182985,1628.453072,0.000000
3409.845847,-9622.677246,2220.617826,-2298.286494
3409.846184,-10066.800811,888.247130,-2834.553343
3409.846522,-8808.450710,-444.123565,-2145.067394
3409.846859,-9474.636058,-296.082377,153.219100
3409.847196,-8808.450710,592.164754,995.924147
3409.847534,-10362.883188,74.020594,-766.095498
3409.847871,-9622.677246,-1036.288319,-1302.362347
3409.848209,-9104.533087,-2442.679609,612.876398
3409.848546,-9400.615463,-2960.823768,2604.724693
3409.848883,-9474.636058,-1628.453072,1915.238745
3409.849221,-10732.986159,-888.247130,995.924147
3409.849558,-11251.130318,592.164754,-612.876398
3409.849896,-9326.594869,-370.102971,-842.705048
3409.850233,-10362.883188,-592.164754,306.438199
3409.850571,-10436.903782,74.020594,-459.657299
3409.850908,-11029.068536,814.226536,-1838.629195
3409.851245,-11695.253884,740.205942,-3064.381992
3409.851583,-8438.347739,-1036.288319,-3983.696590
3409.851920,-9696.697840,-1628.453072,-536.266849
3409.852258,-9696.697840,-888.247130,-612.876398
3409.852595,-10584.944971,-1406.391290,-306.438199
3409.852932,-11991.336260,-740.205942,-919.314598
3409.853270,-11103.089130,-1184.329507,-1302.362347
3409.853607,-11029.068536,-2368.659014,536.266849
3409.853945,-10510.924376,-1702.473667,1072.533697
3409.854282,-9252.574275,-1554.432478,-766.095498
3409.854620,-10288.862594,0.000000,-1608.800546
3409.854957,-8660.409521,-592.164754,-1532.190996
3409.855294,-10066.800811,-2516.700203,0.000000
3409.855632,-9548.656652,-1702.473667,1225.752797
3409.855969,-9252.574275,-1184.329507,1762.019645
3409.856307,-11029.068536,592.164754,2681.334243
3409.856644,-9548.656652,444.123565,1378.971896
3409.856981,-8734.430116,-148.041188,2604.724693
3409.857319,-9622.677246,296.082377,4213.525239
3409.857656,-9178.553681,1332.370696,3524.039291
3409.857994,-11695.253884,2146.597232,2221.676944
3409.858331,-10732.986159,2368.659014,0.000000
3409.858669,-9770.718434,370.102971,766.095498
3409.859006,-10288.862594,666.185348,2068.457845
3409.859343,-8068.244768,1258.350101,153.219100
3409.859681,-9918.759623,740.205942,-536.266849
3409.860018,-9252.574275,740.205942,-1762.019645
3409.860356,-9178.553681,-1110.308913,-919.314598
3409.860693,-10881.027347,-1480.411884,919.314598
3409.861030,-9992.780217,-1184.329507,1608.800546
3409.861368,-10807.006753,-370.102971,76.609550
3409.861705,-10955.047942,1110.308913,-1225.752797
3409.862043,-9992.780217,-592.164754,-306.438199
3409.862380,-10510.924376,-1480.411884,536.266849
3409.862718,-10510.924376,-1480.411884,612.876398
3409.863055,-9844.739029,-1110.308913,536.266849
3409.863392,-10955.047942,-1554.432478,-459.657299
3409.863730,-9400.615463,-2294.638420,-383.047749
3409.864067,-9474.636058,-2664.741391,1915.238745
3409.864405,-9548.656652,-962.267725,2681.334243
3409.864742,-9992.780217,-592.164754,919.314598
3409.865079,-11695.253884,1406.391290,306.438199
3409.865417,-9992.780217,-666.185348,-919.314598
3409.865754,-10807.006753,-1776.494261,766.095498
3409.866092,-10584.944971,-518.144159,842.705048
3409.866429,-9178.553681,-740.205942,-459.657299
3409.866767,-9696.697840,0.000000,-2604.724693
3409.867104,-8586.388927,-592.164754,-4060.306139
3409.867441,-9992.780217,-1850.514855,-1378.971896
3409.867779,-11251.130318,-1406.391290,76.609550
3409.868116,-9252.574275,-1258.350101,-1225.752797
3409.868454,-9992.780217,-1332.370696,-153.219100
3409.868791,-9548.656652,222.061783,-842.705048
3409.869128,-8882.471304,-1554.432478,-689.485948
3409.869466,-10658.965565,-444.123565,1225.752797
3409.869803,-9400.615463,0.000000,1608.800546
3409.870141,-11843.295072,296.082377,1378.971896
3409.870478,-12361.439231,1850.514855,0.000000
3409.870816,-9474.636058,814.226536,-612.876398
3409.871153,-10658.965565,-296.082377,689.485948
3409.871490,-9326.594869,740.205942,1072.533697
3409.871828,-9252.574275,1110.308913,842.705048
3409.872165,-10214.842000,962.267725,0.000000
3409.872503,-7846.182985,222.061783,-1072.533697
3409.872840,-10732.986159,1184.329507,1838.629195
3409.873177,-10510.924376,1776.494261,0.000000
3409.873515,-9844.739029,962.267725,-383.047749
3409.873852,-11843.295072,814.226536,-689.485948
3409.874190,-8734.430116,-592.164754,-2068.457845
3409.874527,-8438.347739,-2146.597232,-306.438199
3409.874865,-9030.512492,-2294.638420,766.095498
3409.875202,-8068.244768,-2368.659014,153.219100
3409.875539,-11029.068536,-592.164754,-459.657299
3409.875877,-9622.677246,-370.102971,-1225.752797
3409.876214,-9918.759623,-1258.350101,-459.657299
3409.876552,-11695.253884,-1554.432478,612.876398
3409.876889,-8882.471304,-1702.473667,1225.752797
3409.877226,-10955.047942,-1332.370696,3217.601092
3409.877564,-10584.944971,-518.144159,3294.210641
3409.877901,-9696.697840,-2146.597232,2145.067394
3409.878239,-11621.233289,-222.061783,3753.867940
3409.878576,-10214.842000,592.164754,3677.258390
3409.878914,-11621.233289,370.102971,1378.971896
3409.879251,-11547.212695,2072.576638,-76.609550
3409.879588,-9474.636058,-296.082377,-459.657299
3409.879926,-10955.047942,814.226536,536.266849
3409.880263,-8882.471304,1554.432478,76.609550
3409.880601,-9400.615463,1036.288319,0.000000
3409.880938,-11029.068536,74.020594,536.266849
3409.881275,-9474.636058,-592.164754,-153.219100
3409.881613,-9844.739029,-370.102971,1685.410096
3409.881950,-8882.471304,-814.226536,919.314598
3409.882288,-10362.883188,-1332.370696,1072.533697
3409.882625,-12361.439231,-148.041188,0.000000
3409.882963,-9770.718434,592.164754,-2528.115143
3409.883300,-8734.430116,-518.144159,-1302.362347
3409.883637,-9104.533087,-666.185348,-919.314598
3409.883975,-6957.935855,-1110.308913,-2681.334243
3409.884312,-9918.759623,0.000000,-2374.896044
3409.884650,-8438.347739,-74.020594,-1225.752797
3409.884987,-10436.903782,-2294.638420,919.314598
3409.885324,-11473.192101,-518.144159,1149.143247
3409.885662,-9326.594869,888.247130,-76.609550
3409.885999,-11843.295072,370.102971,919.314598
3409.886337,-10732.986159,-222.061783,0.000000
3409.886674,-10214.842000,-1184.329507,612.876398
3409.887012,-10066.800811,0.000000,919.314598
3409.887349,-8956.491898,592.164754,-1149.143247
3409.887686,-10732.986159,296.082377,-2221.676944
3409.888024,-11399.171507,-592.164754,-3830.477490
3409.888361,-9696.697840,-2146.597232,-2298.286494
3409.888699,-9474.636058,-148.041188,-995.924147
3409.889036,-8512.368333,148.041188,-1838.629195
3409.889373,-10288.862594,-296.082377,-1378.971896
3409.889711,-10436.903782,-1258.350101,-1225.752797
3409.890048,-10140.821405,-1776.494261,1302.362347
3409.890386,-11177.109724,-1110.308913,3217.601092
3409.890723,-10140.821405,-888.247130,2451.505594
3409.891061,-10510.924376,444.123565,1455.581446
3409.891398,-10436.903782,-518.144159,1378.971896
3409.891735,-9400.615463,-814.226536,2681.334243
3409.892073,-10955.047942,-1628.453072,4443.353888
3409.892410,-8586.388927,740.205942,3524.039291
3409.892748,-9400.615463,1258.350101,1762.019645
3409.893085,-10881.027347,2072.576638,0.000000
3409.893422,-9104.533087,1554.432478,-383.047749
3409.893760,-10140.821405,1036.288319,2451.505594
3409.894097,-10955.047942,2220.617826,2604.724693
3409.894435,-10362.883188,888.247130,0.000000
3409.894772,-10436.903782,1406.391290,-1685.410096
3409.895110,-8142.265362,-370.102971,-1149.143247
3409.895447,-9770.718434,-2146.597232,2528.115143
3409.895784,-9548.656652,-222.061783,1608.800546
3409.896122,-9178.553681,0.000000,-1149.143247
3409.896459,-11399.171507,-888.247130,153.219100
3409.896797,-9030.512492,-1332.370696,-1302.362347
3409.897134,-9400.615463,-2220.617826,1685.410096
3409.897471,-11325.150913,0.000000,2911.162892
3409.897809,-9770.718434,0.000000,153.219100
3409.898146,-12139.377449,74.020594,-1302.362347
3409.898484,-9400.615463,-888.247130,-1915.238745
3409.898821,-8586.388927,-2368.659014,995.924147
3409.899159,-11325.150913,-1184.329507,3140.991542
3409.899496,-9474.636058,74.020594,612.876398
3409.899833,-10732.986159,1110.308913,0.000000
3409.900171,-11547.212695,370.102971,0.000000
3409.900508,-9992.780217,-1036.288319,536.266849
3409.900846,-10955.047942,-592.164754,766.095498
3409.901183,-8660.409521,1406.391290,0.000000
3409.901520,-9992.780217,1702.473667,-1378.971896
3409.901858,-10510.924376,592.164754,-1455.581446
3409.902195,-8438.347739,-1184.329507,-1455.581446
3409.902533,-9696.697840,-962.267725,1072.533697
3409.902870,-9474.636058,0.000000,-612.876398
3409.903208,-10362.883188,-592.164754,-2681.334243
3409.903545,-9844.739029,-1332.370696,-2681.334243
3409.903882,-6809.894666,-2960.823768,-1915.238745
3409.904220,-8586.388927,-1480.411884,1225.752797
3409.904557,-9474.636058,296.082377,153.219100
3409.904895,-11251.130318,1554.432478,-766.095498
3409.905232,-12731.542202,518.144159,-1225.752797
3409.905569,-10510.924376,-888.247130,-229.828649
3409.905907,-9030.512492,-1850.514855,3447.429741
3409.906244,-11177.109724,-370.102971,5362.668486
3409.906582,-11029.068536,962.267725,2604.724693
3409.906919,-11843.295072,1924.535449,-536.266849
3409.907257,-10066.800811,814.226536,-1072.533697
3409.907594,-9992.780217,-1036.288319,995.924147
3409.907931,-9918.759623,222.061783,2374.896044
3409.908269,-9770.718434,1924.535449,919.314598
3409.908606,-11917.315666,1184.329507,-689.485948
3409.908944,-10066.800811,1258.350101,-2298.286494
3409.909281,-8734.430116,-1406.391290,-612.876398
3409.909619,-9844.739029,-1702.473667,1685.410096
3409.909956,-8142.265362,74.020594,1915.238745
3409.910294,-9696.697840,-1184.329507,383.047749
3409.910631,-10288.862594,-1628.453072,-612.876398
3409.910969,-8290.306550,-3256.906145,-1072.533697
3409.911306,-9696.697840,-2738.761985,2911.162892
3409.911644,-9178.553681,-962.267725,1149.143247
3409.911981,-10658.965565,-370.102971,306.438199
3409.912319,-11473.192101,666.185348,0.000000
3409.912656,-7772.162391,-1480.411884,0.000000
3409.912994,-9844.739029,-1258.350101,4366.744339
3409.913331,-11029.068536,0.000000,3753.867940
3409.913669,-11103.089130,1924.535449,2221.676944
3409.914006,-12805.562797,2368.659014,536.266849
3409.914344,-9622.677246,518.144159,-612.876398
3409.914681,-9400.615463,-1406.391290,2451.505594
3409.915019,-9030.512492,1406.391290,2681.334243
3409.915356,-9400.615463,2294.638420,919.314598
3409.915694,-12657.521608,3034.844362,-383.047749
3409.916031,-11843.295072,1776.494261,-3064.381992
3409.916369,-10288.862594,0.000000,-1225.752797
3409.916706,-10140.821405,370.102971,76.609550
3409.917044,-7624.121203,666.185348,-1608.800546
3409.917381,-10288.862594,0.000000,-1608.800546
3409.917719,-8216.285956,-1036.288319,-2298.286494
3409.918056,-7624.121203,-3182.885551,0.000000
3409.918394,-11547.212695,-2146.597232,2451.505594
3409.918731,-11103.089130,-148.041188,1149.143247
3409.919069,-12583.501014,-444.123565,-766.095498
3409.919406,-10362.883188,-814.226536,-1838.629195
3409.919744,-7105.977043,-2960.823768,0.000000
3409.920081,-9030.512492,-888.247130,3447.429741
3409.920419,-9622.677246,-444.123565,2604.724693
3409.920756,-11843.295072,740.205942,-153.219100
3409.921094,-12065.356855,1332.370696,-2528.115143
3409.921431,-9474.636058,-444.123565,-1608.800546
3409.921769,-9326.594869,-1332.370696,842.705048
3409.922106,-9474.636058,-74.020594,0.000000
3409.922444,-9252.574275,2368.659014,-1455.581446
3409.922781,-11177.109724,1332.370696,-1302.362347
3409.923119,-10510.924376,-666.185348,-995.924147
3409.923456,-10584.944971,-1998.556043,919.314598
3409.923794,-10732.986159,-296.082377,2221.676944
3409.924131,-10881.027347,-296.082377,306.438199
3409.924469,-10807.006753,-592.164754,-1455.581446
3409.924806,-7476.080014,-1258.350101,-1149.143247
3409.925144,-8438.347739,-2738.761985,2145.067394
3409.925481,-11029.068536,-1036.288319,2604.724693
3409.925819,-10658.965565,74.020594,-306.438199
3409.926156,-12139.377449,888.247130,-995.924147
3409.926494,-10066.800811,-666.185348,-1302.362347
3409.926831,-8290.306550,-2516.700203,919.314598
3409.927169,-8364.327145,148.041188,3983.696590
3409.927506,-9326.594869,888.247130,3294.210641
3409.927844,-11029.068536,2220.617826,2145.067394
3409.928181,-10658.965565,2368.659014,383.047749
3409.928519,-9844.739029,-962.267725,2298.286494
3409.928856,-11843.295072,0.000000,4596.572988
3409.929194,-9622.677246,1258.350101,1762.019645
3409.929531,-10066.800811,2368.659014,-306.438199
3409.929869,-9622.677246,962.267725,-1225.752797
3409.930206,-8068.244768,-518.144159,-919.314598
3409.930544,-8586.388927,-444.123565,229.828649
3409.930881,-10362.883188,222.061783,536.266849
3409.931219,-12287.418637,0.000000,-1149.143247
3409.931556,-11769.274478,-592.164754,-2911.162892
3409.931894,-8290.306550,-2664.741391,-1378.971896
3409.932231,-8068.244768,-3627.009116,2068.457845
3409.932569,-7550.100608,-518.144159,2451.505594
3409.932906,-10288.862594,-296.082377,612.876398
3409.933244,-12361.439231,0.000000,-1378.971896
3409.933581,-10436.903782,-1850.514855,-1838.629195
3409.933919,-11325.150913,-2368.659014,1149.143247
3409.934256,-10436.903782,-1332.370696,2451.505594
3409.934594,-9474.636058,-1110.308913,1685.410096
3409.934931,-10066.800811,1406.391290,1149.143247
3409.935269,-9178.553681,-962.267725,459.657299
3409.935606,-10066.800811,-444.123565,1991.848295
3409.935944,-11251.130318,74.020594,2145.067394
3409.936281,-10658.965565,370.102971,689.485948
3409.936619,-11769.274478,1924.535449,-612.876398
3409.936956,-10436.903782,1110.308913,-1991.848295
3409.937294,-8438.347739,296.082377,-1532.190996
3409.937631,-8438.347739,962.267725,-1302.362347
3409.937969,-9252.574275,1406.391290,-1302.362347
3409.938306,-11325.150913,1628.453072,-1762.019645
3409.938644,-10658.965565,0.000000,-2604.724693
3409.938981,-9326.594869,-2072.576638,-459.657299
3409.939319,-8808.450710,-2072.576638,1378.971896
3409.939656,-7179.997637,-148.041188,689.485948
3409.939994,-9326.594869,518.144159,459.657299
3409.940331,-10510.924376,888.247130,-383.047749
3409.940669,-9400.615463,-592.164754,-229.828649
3409.941006,-11473.192101,-444.123565,3140.991542
3409.941344,-10436.903782,1184.329507,2374.896044
3409.941681,-11325.150913,222.061783,383.047749
3409.942019,-11991.336260,888.247130,76.609550
3409.942356,-8068.244768,-444.123565,-1685.410096
3409.942694,-8512.368333,-1184.329507,1532.190996
3409.943031,-9918.759623,-518.144159,2068.457845
3409.943369,-10436.903782,0.000000,306.438199
3409.943706,-11843.295072,2220.617826,-459.657299
3409.944044,-10881.027347,0.000000,-689.485948
3409.944381,-11103.089130,-1554.432478,536.266849
3409.944719,-10658.965565,-2294.638420,1072.533697
3409.945056,-9030.512492,-1036.288319,1149.143247
3409.945394,-9992.780217,-962.267725,229.828649
3409.945731,-8882.471304,-1998.556043,-1838.629195
3409.946069,-9326.594869,-3330.926739,-383.047749
3409.946406,-10881.027347,-3034.844362,1225.752797
3409.946744,-10214.842000,-1184.329507,995.924147
3409.947081,-11325.150913,-296.082377,153.219100
3409.947419,-9844.739029,-666.185348,-1072.533697
3409.947756,-8586.388927,-2516.700203,306.438199
3409.948094,-9770.718434,-1850.514855,2834.553343
3409.948431,-8956.491898,0.000000,2528.115143
3409.948769,-11399.171507,444.123565,3600.648841
3409.949106,-11547.212695,1184.329507,1915.238745
3409.949444,-9474.636058,814.226536,612.876398
3409.949781,-10732.986159,888.247130,1838.629195
3409.950119,-9474.636058,1776.494261,1072.533697
3409.950456,-10584.944971,2072.576638,76.609550
3409.950794,-10288.862594,2738.761985,-995.924147
3409.951131,-8808.450710,888.247130,-1149.143247
3409.951469,-9326.594869,1850.514855,229.828649
3409.951806,-8660.409521,1406.391290,-1149.143247
3409.952144,-9770.718434,222.061783,-766.095498
3409.952481,-10584.944971,1184.329507,-995.924147
3409.952819,-8956.491898,-296.082377,-766.095498
3409.953156,-10362.883188,-888.247130,766.095498
3409.953494,-9622.677246,518.144159,-153.219100
3409.953831,-10881.027347,814.226536,-1302.362347
3409.954169,-11917.315666,-222.061783,-3447.429741
3409.954506,-7846.182985,-2664.741391,-2451.505594
3409.954844,-8586.388927,-3552.988522,842.705048
3409.955181,-8660.409521,-2146.597232,2374.896044
3409.955519,-9622.677246,-962.267725,689.485948
3409.955856,-12879.583391,-1480.411884,0.000000
3409.956194,-9474.636058,-518.144159,-1608.800546
3409.956531,-10732.986159,-1554.432478,1685.410096
3409.956869,-11547.212695,-592.164754,2298.286494
3409.957206,-8734.430116,-444.123565,766.095498
3409.957544,-11843.295072,-666.185348,459.657299
3409.957881,-10066.800811,-518.144159,-383.047749
3409.958219,-10140.821405,-2368.659014,383.047749
3409.958556,-10732.986159,-296.082377,842.705048
3409.958894,-10658.965565,-296.082377,0.000000
3409.959231,-10510.924376,296.082377,-1838.629195
3409.959569,-8882.471304,222.061783,-3294.210641
3409.959906,-8216.285956,-1110.308913,-1915.238745
3409.960244,-10807.006753,-1776.494261,229.828649
3409.960581,-9548.656652,-666.185348,-306.438199
3409.960919,-10955.047942,-74.020594,1072.533697
3409.961256,-11029.068536,222.061783,1225.752797
3409.961594,-7846.182985,-148.041188,1685.410096
3409.961931,-9992.780217,-1184.329507,3064.381992
3409.962269,-9178.553681,0.000000,2757.943793
3409.962606,-10288.862594,444.123565,3217.601092
3409.962944,-11103.089130,1258.350101,2604.724693
3409.963281,-8660.409521,1480.411884,1455.581446
3409.963619,-10288.862594,1110.308913,1762.019645
3409.963956,-9178.553681,2072.576638,536.266849
3409.964294,-7920.203579,2368.659014,-919.314598
3409.964631,-9622.677246,2590.720797,153.219100
3409.964969,-8882.471304,1036.288319,-383.047749
3409.965306,-9844.739029,-444.123565,995.924147
3409.965644,-11547.212695,2072.576638,1149.143247
3409.965981,-11325.150913,1110.308913,-842.705048
3409.966319,-12657.521608,666.185348,-1532.190996
3409.966656,-10140.821405,-962.267725,-3677.258390
3409.966994,-8068.244768,-3108.864956,-1455.581446
3409.967331,-8142.265362,-1998.556043,1762.019645
3409.967669,-7698.141797,-1702.473667,1225.752797
3409.968006,-12805.562797,-888.247130,153.219100
3409.968344,-13841.851115,-1924.535449,-2145.067394
3409.968681,-11325.150913,-3330.926739,-1072.533697
3409.969019,-9918.759623,-2590.720797,1685.410096
3409.969356,-9104.533087,-1998.556043,2681.334243
3409.969694,-9844.739029,-2146.597232,1915.238745
3409.970031,-10436.903782,-2442.679609,306.438199
3409.970369,-8956.491898,-2590.720797,1378.971896
3409.970706,-10881.027347,-1998.556043,2757.943793
3409.971044,-10807.006753,-740.205942,689.485948
3409.971381,-10066.800811,-888.247130,0.000000
3409.971719,-10214.842000,370.102971,-1455.581446
3409.972056,-7476.080014,-1036.288319,0.000000
3409.972394,-9326.594869,518.144159,2298.286494
3409.972731,-10807.006753,1998.556043,689.485948
3409.973069,-11695.253884,962.267725,-1915.238745
3409.973406,-11991.336260,222.061783,-2374.896044
3409.973744,-9474.636058,-1406.391290,-306.438199
3409.974081,-8216.285956,-1184.329507,1608.800546
3409.974419,-7846.182985,814.226536,0.000000
3409.974756,-9474.636058,1480.411884,-1378.971896
3409.975094,-11251.130318,2960.823768,-2757.943793
3409.975431,-10658.965565,444.123565,-2221.676944
3409.975769,-10807.006753,222.061783,1149.143247
3409.976106,-9770.718434,2294.638420,1378.971896
3409.976444,-9474.636058,1406.391290,383.047749
3409.976781,-10732.986159,962.267725,-842.705048
3409.977119,-7698.141797,444.123565,-383.047749
3409.977456,-9400.615463,-962.267725,2681.334243
3409.977794,-11251.130318,74.020594,2757.943793
3409.978131,-9844.739029,1184.329507,1225.752797
3409.978469,-11843.295072,1332.370696,306.438199
3409.978806,-10362.883188,222.061783,-689.485948
3409.979144,-7698.141797,-1332.370696,-612.876398
3409.979481,-10066.800811,-814.226536,2221.676944
3409.979819,-9474.636058,-888.247130,-383.047749
3409.980156,-10584.944971,-740.205942,-3064.381992
3409.980494,-9548.656652,-1480.411884,-2834.553343
3409.980831,-8364.327145,-3330.926739,-536.266849
3409.981169,-10732.986159,-2738.761985,2451.505594
3409.981506,-11399.171507,-1554.432478,842.705048
3409.981844,-11251.130318,-1998.556043,-689.485948
3409.982181,-11251.130318,-2146.597232,-383.047749
3409.982519,-8734.430116,-2368.659014,1991.848295
3409.982856,-9844.739029,-2886.803174,2757.943793
3409.983194,-10288.862594,-2368.659014,2451.505594
3409.983531,-10362.883188,-962.267725,1762.019645
3409.983869,-11991.336260,0.000000,1838.629195
3409.984206,-10140.821405,-444.123565,1608.800546
3409.984544,-9770.718434,-296.082377,2604.724693
3409.984881,-10881.027347,1258.350101,2451.505594
3409.985219,-10881.027347,1998.556043,1149.143247
3409.985556,-10881.027347,2368.659014,0.000000
3409.985894,-7698.141797,1628.453072,-766.095498
3409.986231,-8660.409521,222.061783,1838.629195
3409.986569,-11251.130318,1480.411884,2451.505594
3409.986906,-9474.636058,1406.391290,-383.047749
3409.987244,-10214.842000,1184.329507,-689.485948
3409.987581,-9326.594869,1480.411884,-1762.019645
3409.987919,-7105.977043,74.020594,-2221.676944
3409.988256,-9844.739029,370.102971,-612.876398
3409.988594,-9178.553681,74.020594,-1225.752797
3409.988931,-10288.862594,814.226536,-2145.067394
3409.989269,-10214.842000,148.041188,-3217.601092
3409.989606,-7994.224174,-2294.638420,-2451.505594
3409.989944,-8956.491898,-1332.370696,1302.362347
3409.990281,-10214.842000,-962.267725,612.876398
3409.990619,-10362.883188,-1184.329507,-689.485948
3409.990956,-10732.986159,-222.061783,-766.095498
3409.991294,-10362.883188,-1924.535449,153.219100
3409.991631,-11991.336260,-1850.514855,383.047749
3409.991969,-10955.047942,-296.082377,153.219100
3409.992306,-10732.986159,-148.041188,-919.314598
3409.992644,-10436.903782,-1406.391290,-1762.019645
3409.992981,-9326.594869,-2368.659014,76.609550
3409.993319,-10066.800811,-2294.638420,2068.457845
3409.993656,-10140.821405,-444.123565,919.314598
3409.993994,-10436.903782,-592.164754,-766.095498
3409.994331,-13397.727550,-222.061783,-1072.533697
3409.994669,-9696.697840,-2812.782580,-2068.457845
3409.995006,-8364.327145,-2960.823768,1225.752797
3409.995344,-9770.718434,-1850.514855,2911.162892
3409.995681,-10214.842000,-1628.453072,1302.362347
3409.996019,-10288.862594,-740.205942,-1072.533697
3409.996356,-8586.388927,-1110.308913,0.000000
3409.996694,-9770.718434,-1554.432478,3140.991542
3409.997031,-10732.986159,518.144159,2374.896044
3409.997369,-10584.944971,1110.308913,459.657299
3409.997706,-10436.903782,1406.391290,-229.828649
3409.998044,-8586.388927,148.041188,0.000000
3409.998381,-8586.388927,-148.041188,2681.334243
3409.998719,-9844.739029,1924.535449,5286.058936
3409.999056,-8956.491898,2072.576638,2757.943793
3409.999394,-11251.130318,2960.823768,995.924147
3409.999731,-10288.862594,2442.679609,-766.095498
3410.000069,-8956.491898,222.061783,1762.019645
3410.000406,-10955.047942,1332.370696,4060.306139
3410.000744,-9548.656652,2590.720797,995.924147
3410.001081,-11547.212695,2368.659014,-1532.190996
3410.001419,-10066.800811,2294.638420,-3370.820191
3410.001756,-6587.832884,-148.041188,-3753.867940
3410.002094,-9622.677246,-1480.411884,229.828649
3410.002431,-9696.697840,-1110.308913,-536.266849
3410.002769,-10066.800811,-1480.411884,-2221.676944
3410.003106,-10807.006753,-518.144159,-2604.724693
3410.003444,-8512.368333,-2960.823768,-1685.410096
3410.003781,-10362.883188,-2442.679609,1991.848295
3410.004119,-11325.150913,-1850.514855,1455.581446
3410.004456,-10436.903782,-2220.617826,229.828649
3410.004794,-11843.295072,-2294.638420,612.876398
3410.005131,-9844.739029,-2146.597232,76.609550
3410.005469,-11251.130318,-3701.029710,2604.724693
3410.005806,-10658.965565,-1924.535449,2987.772442
3410.006144,-9622.677246,-370.102971,919.314598
3410.006481,-11399.171507,370.102971,-1915.238745
3410.006819,-9548.656652,-148.041188,-3217.601092
3410.007156,-9696.697840,-2220.617826,-842.705048
3410.007494,-11029.068536,-1110.308913,1608.800546
3410.007831,-10140.821405,222.061783,536.266849
3410.008169,-11103.089130,1850.514855,-766.095498
3410.008506,-9474.636058,1184.329507,-1991.848295
3410.008844,-8142.265362,-1850.514855,-995.924147
3410.009181,-9474.636058,-1036.288319,1149.143247
3410.009519,-8808.450710,740.205942,-76.609550
3410.009856,-10140.821405,370.102971,-1302.362347
3410.010194,-11103.089130,0.000000,-2145.067394
3410.010531,-8586.388927,-962.267725,-1225.752797
3410.010869,-8586.388927,-370.102971,2604.724693
3410.011206,-9030.512492,444.123565,3140.991542
3410.011543,-10658.965565,2442.679609,1915.238745
3410.011881,-11029.068536,3478.967927,-919.314598
3410.012218,-9918.759623,1850.514855,-766.095498
3410.012555,-11473.192101,592.164754,2068.457845
3410.012892,-10658.965565,1924.535449,2298.286494
3410.013230,-10807.006753,2368.659014,1685.410096
3410.013567,-10955.047942,2886.803174,-842.705048
3410.013904,-7994.224174,1554.432478,-2221.676944
3410.014242,-8364.327145,-1036.288319,76.609550
3410.014579,-10066.800811,-370.102971,2145.067394
3410.014916,-10066.800811,962.267725,689.485948
3410.015254,-12139.377449,0.000000,-995.924147
3410.015591,-9474.636058,-444.123565,-2451.505594
3410.015928,-8068.244768,-3256.906145,-1072.533697
3410.016265,-8808.450710,-2368.659014,1991.848295
3410.016603,-7920.203579,-2590.720797,842.705048
3410.016940,-11473.192101,-2368.659014,0.000000
3410.017277,-11769.274478,-3404.947333,-842.705048
3410.017615,-10362.883188,-4367.215058,76.609550
3410.017952,-9918.759623,-3404.947333,1838.629195
3410.018289,-9178.553681,-2664.741391,919.314598
3410.018626,-9770.718434,-1702.473667,842.705048
3410.018964,-10510.924376,-2220.617826,536.266849
3410.019301,-9400.615463,-2146.597232,1915.238745
3410.019638,-11621.233289,-1184.329507,4596.572988
3410.019976,-12509.480420,444.123565,4519.963438
3410.020313,-12657.521608,1110.308913,2451.505594
3410.020650,-11251.130318,666.185348,76.609550
3410.020987,-8882.471304,-222.061783,2221.676944
3410.021325,-9622.677246,-518.144159,3907.087040
3410.021662,-10214.842000,1776.494261,2221.676944
3410.021999,-10881.027347,3034.844362,-1072.533697
3410.022337,-11547.212695,3701.029710,-3907.087040
3410.022674,-10288.862594,1332.370696,-2911.162892
3410.023011,-9030.512492,740.205942,-1302.362347
3410.023348,-7105.977043,1702.473667,-995.924147
3410.023686,-7402.059420,1332.370696,-766.095498
3410.024023,-9918.759623,962.267725,-766.095498
3410.024360,-9474.636058,-666.185348,-1149.143247
3410.024698,-9252.574275,-1628.453072,0.000000
3410.025035,-9548.656652,-222.061783,1608.800546
3410.025372,-9696.697840,-518.144159,459.657299
3410.025709,-10214.842000,962.267725,-2374.896044
3410.026047,-7920.203579,0.000000,-4136.915689
3410.026384,-7698.141797,-888.247130,-612.876398
3410.026721,-9326.594869,-888.247130,919.314598
3410.027059,-10955.047942,-518.144159,689.485948
3410.027396,-11251.130318,1702.473667,-383.047749
3410.027733,-10807.006753,148.041188,-995.924147
3410.028070,-10584.944971,-1332.370696,0.000000
3410.028408,-11177.109724,-518.144159,1072.533697
3410.028745,-11325.150913,296.082377,0.000000
3410.029082,-11769.274478,0.000000,-1915.238745
3410.029420,-10732.986159,-370.102971,-2604.724693
3410.029757,-10140.821405,-2368.659014,-995.924147
3410.030094,-10066.800811,-3552.988522,383.047749
3410.030432,-8808.450710,-2812.782580,1302.362347
3410.030769,-11029.068536,-1628.453072,229.828649
3410.031106,-11843.295072,-222.061783,-612.876398
3410.031443,-10140.821405,-1924.535449,-383.047749
3410.031781,-10362.883188,-2294.638420,1149.143247
3410.032118,-9326.594869,-1702.473667,2068.457845
3410.032455,-9400.615463,-888.247130,2068.457845
3410.032793,-10362.883188,-74.020594,3217.601092
3410.033130,-9474.636058,-2442.679609,3217.601092
3410.033467,-9770.718434,-1184.329507,3524.039291
3410.033804,-10066.800811,444.123565,4290.134789
3410.034142,-10436.903782,1332.370696,4596.572988
3410.034479,-10658.965565,2368.659014,1991.848295
3410.034816,-9178.553681,2886.803174,0.000000
3410.035154,-8956.491898,3330.926739,842.705048
3410.035491,-9474.636058,2516.700203,612.876398
3410.035828,-10214.842000,2146.597232,0.000000
3410.036165,-10510.924376,3997.112087,-2834.553343
3410.036503,-9844.739029,1406.391290,-1532.190996
3410.036840,-9548.656652,-296.082377,76.609550
3410.037177,-9104.533087,-444.123565,1302.362347
3410.037515,-9326.594869,222.061783,1225.752797
3410.037852,-10658.965565,370.102971,612.876398
3410.038189,-11325.150913,-148.041188,-995.924147
3410.038526,-9992.780217,-2146.597232,-1838.629195
3410.038864,-11029.068536,-1184.329507,-306.438199
3410.039201,-8882.471304,-888.247130,-842.705048
3410.039538,-10436.903782,-1628.453072,-1302.362347
3410.039876,-9474.636058,-1184.329507,-1608.800546
3410.040213,-8586.388927,-3182.885551,-766.095498
3410.040550,-10140.821405,-2146.597232,1455.581446
3410.040887,-10732.986159,-1480.411884,612.876398
3410.041225,-11621.233289,-1776.494261,-306.438199
3410.041562,-11843.295072,-1110.308913,76.609550
3410.041899,-9030.512492,-2072.576638,0.000000
3410.042237,-9326.594869,-1480.411884,2068.457845
3410.042574,-9474.636058,-740.205942,2374.896044
3410.042911,-10436.903782,0.000000,229.828649
3410.043249,-11325.150913,1480.411884,-2298.286494
3410.043586,-10658.965565,-296.082377,-3140.991542
3410.043923,-11103.089130,-1850.514855,-1455.581446
3410.044260,-8808.450710,-1036.288319,-2451.505594
3410.044598,-6735.874072,0.000000,-1991.848295
3410.044935,-9474.636058,-592.164754,-1225.752797
3410.045272,-9400.615463,-1110.308913,-842.705048
3410.045610,-10436.903782,-1406.391290,1455.581446
3410.045947,-11399.171507,1036.288319,3907.087040
3410.046284,-10214.842000,1036.288319,2221.676944
3410.046621,-11251.130318,1924.535449,383.047749
3410.046959,-9992.780217,1110.308913,536.266849
3410.047296,-9474.636058,0.000000,1072.533697
3410.047633,-10066.800811,962.267725,2528.115143
3410.047971,-9030.512492,1554.432478,919.314598
3410.048308,-10732.986159,1776.494261,459.657299
3410.048645,-10288.862594,1554.432478,1378.971896
3410.048982,-9474.636058,444.123565,1991.848295
3410.049320,-10436.903782,1924.535449,3140.991542
3410.049657,-9992.780217,2590.720797,612.876398
3410.049994,-11103.089130,1628.453072,-919.314598
3410.050332,-10658.965565,1036.288319,-2374.896044
3410.050669,-7920.203579,-1110.308913,-689.485948
3410.051006,-9252.574275,-444.123565,1838.629195
3410.051343,-9252.574275,-1184.329507,612.876398
3410.051681,-10955.047942,-814.226536,-1608.800546
3410.052018,-10362.883188,-1258.350101,-2757.943793
3410.052355,-8586.388927,-2812.782580,-1302.362347
3410.052693,-10214.842000,-3923.091493,842.705048
3410.053030,-9844.739029,-2368.659014,1149.143247
3410.053367,-9030.512492,-1554.432478,-995.924147
3410.053704,-11251.130318,-1776.494261,0.000000
3410.054042,-9474.636058,-2516.700203,383.047749
3410.054379,-10066.800811,-1924.535449,2604.724693
3410.054716,-12953.603985,-296.082377,4673.182538
3410.055054,-11991.336260,-518.144159,1455.581446
3410.055391,-11325.150913,-814.226536,76.609550
3410.055728,-8808.450710,-814.226536,76.609550
3410.056066,-8586.388927,-518.144159,2145.067394
3410.056403,-11177.109724,1110.308913,2528.115143
3410.056740,-12139.377449,1110.308913,-383.047749
3410.057077,-10658.965565,2072.576638,-2451.505594
3410.057415,-9622.677246,888.247130,-306.438199
3410.057752,-9252.574275,-296.082377,1532.190996
3410.058089,-9400.615463,-444.123565,995.924147
3410.058427,-9770.718434,814.226536,0.000000
3410.058764,-9992.780217,592.164754,-1225.752797
3410.059101,-8438.347739,-666.185348,-1762.019645
3410.059438,-8734.430116,-1184.329507,0.000000
3410.059776,-9252.574275,-814.226536,766.095498
3410.060113,-10436.903782,148.041188,766.095498
3410.060450,-10955.047942,1184.329507,-842.705048
3410.060788,-9474.636058,444.123565,-2221.676944
3410.061125,-9104.533087,-296.082377,-919.314598
3410.061462,-8808.450710,-1184.329507,536.266849
3410.061799,-8586.388927,370.102971,1838.629195
3410.062137,-11399.171507,296.082377,1149.143247
3410.062474,-11621.233289,296.082377,229.828649
3410.062811,-10807.006753,-592.164754,-766.095498
3410.063149,-10362.883188,-444.123565,1149.143247
3410.063486,-10140.821405,1110.308913,2068.457845
3410.063823,-10732.986159,1184.329507,1072.533697
3410.064160,-11103.089130,1702.473667,-1455.581446
3410.064498,-9844.739029,-518.144159,-2911.162892
3410.064835,-9622.677246,-2146.597232,-919.314598
3410.065172,-9474.636058,-1406.391290,612.876398
3410.065510,-10214.842000,-1480.411884,76.609550
3410.065847,-9474.636058,-518.144159,-2221.676944
3410.066184,-9104.533087,-1258.350101,-1302.362347
3410.066521,-11177.109724,-2294.638420,1225.752797
3410.066859,-10881.027347,-1554.432478,1225.752797
3410.067196,-10732.986159,-1184.329507,2068.457845
3410.067533,-11621.233289,-370.102971,1532.190996
3410.067871,-8734.430116,-1702.473667,76.609550
3410.068208,-8512.368333,-2368.659014,1991.848295
3410.068545,-9548.656652,-1480.411884,3370.820191
3410.068882,-9104.533087,296.082377,2451.505594
3410.069220,-10955.047942,1258.350101,1302.362347
3410.069557,-10732.986159,1480.411884,0.000000
3410.069894,-9622.677246,-518.144159,0.000000
3410.070232,-10362.883188,666.185348,2604.724693
3410.070569,-9252.574275,1702.473667,2604.724693
3410.070906,-10955.047942,1702.473667,2145.067394
3410.071244,-10955.047942,1776.494261,153.219100
3410.071581,-9326.594869,370.102971,-153.219100
3410.071918,-9918.759623,962.267725,1991.848295
3410.072255,-10066.800811,1184.329507,1302.362347
3410.072593,-11103.089130,222.061783,-383.047749
3410.072930,-11029.068536,666.185348,-2145.067394
3410.073267,-7994.224174,-1406.391290,-3140.991542
3410.073605,-8438.347739,-1554.432478,-536.266849
3410.073942,-8956.491898,-1036.288319,-153.219100
3410.074279,-9918.759623,74.020594,-919.314598
3410.074616,-11177.109724,-888.247130,-2451.505594
3410.074954,-9622.677246,-1554.432478,-2298.286494
3410.075291,-10140.821405,-2442.679609,2451.505594
3410.075628,-10140.821405,-1332.370696,3064.381992
3410.075966,-10362.883188,-1702.473667,1838.629195
3410.076303,-11325.150913,-592.164754,612.876398
3410.076640,-9326.594869,-1480.411884,-995.924147
3410.076977,-8882.471304,-2368.659014,612.876398
3410.077315,-9992.780217,-1702.473667,2068.457845
3410.077652,-10658.965565,518.144159,-689.485948
3410.077989,-11991.336260,666.185348,-2298.286494
3410.078327,-10658.965565,1628.453072,-1838.629195
3410.078664,-7772.162391,74.020594,-1149.143247
3410.079001,-9918.759623,-666.185348,1608.800546
3410.079338,-10214.842000,518.144159,229.828649
3410.079676,-10732.986159,222.061783,-1685.410096
3410.080013,-10436.903782,-518.144159,-1532.190996
3410.080350,-8660.409521,-2368.659014,0.000000
3410.080688,-8734.430116,-1554.432478,1072.533697
3410.081025,-9474.636058,-666.185348,1608.800546
3410.081362,-10881.027347,74.020594,995.924147
3410.081699,-11251.130318,1776.494261,-536.266849
3410.082037,-9326.594869,222.061783,-612.876398
3410.082374,-9992.780217,-444.123565,1455.581446
3410.082711,-9474.636058,-148.041188,2298.286494
3410.083049,-9622.677246,1110.308913,2221.676944
3410.083386,-9844.739029,1110.308913,1762.019645
3410.083723,-8808.450710,0.000000,1608.800546
3410.084061,-9844.739029,-370.102971,3524.039291
3410.084398,-10362.883188,814.226536,2374.896044
3410.084735,-11547.212695,1036.288319,995.924147
3410.085072,-11695.253884,2294.638420,-1455.581446
3410.085410,-9030.512492,0.000000,-2145.067394
3410.085747,-7920.203579,-1702.473667,-689.485948
3410.086084,-7994.224174,296.082377,1149.143247
3410.086422,-9474.636058,444.123565,612.876398
3410.086759,-12731.542202,370.102971,-1149.143247
3410.087096,-11251.130318,-444.123565,-2451.505594
3410.087433,-9992.780217,-2664.741391,-229.828649
3410.087771,-9622.677246,-2072.576638,1838.629195
3410.088108,-9474.636058,-1850.514855,995.924147
3410.088445,-10436.903782,-1110.308913,-1072.533697
3410.088783,-9844.739029,-1258.350101,-1685.410096
3410.089120,-10362.883188,-3552.988522,229.828649
3410.089457,-10584.944971,-1258.350101,2145.067394
3410.089794,-10066.800811,-1184.329507,1915.238745
3410.090132,-11769.274478,222.061783,2298.286494
3410.090469,-9992.780217,814.226536,-536.266849
3410.090806,-8290.306550,-1406.391290,766.095498
3410.091144,-9844.739029,-666.185348,3370.820191
3410.091481,-10732.986159,444.123565,2681.334243
3410.091818,-13175.665768,666.185348,612.876398
3410.092155,-10288.862594,1776.494261,-1378.971896
3410.092493,-7920.203579,-444.123565,-306.438199
3410.092830,-9622.677246,-666.185348,2528.115143
3410.093167,-9178.553681,148.041188,536.266849
3410.093505,-11029.068536,1184.329507,-612.876398
3410.093842,-11251.130318,2368.659014,-2221.676944
3410.094179,-8290.306550,444.123565,-3140.991542
3410.094516,-8956.491898,-1554.432478,-306.438199
3410.094854,-8956.491898,0.000000,229.828649
3410.095191,-9696.697840,-740.205942,-766.095498
3410.095528,-9474.636058,222.061783,-2068.457845
3410.095866,-7105.977043,-2072.576638,-612.876398
3410.096203,-9400.615463,-2368.659014,2757.943793
3410.096540,-11473.192101,-888.247130,3217.601092
3410.096877,-12879.583391,296.082377,1991.848295
3410.097215,-13767.830521,1184.329507,842.705048
3410.097552,-9622.677246,370.102971,-1991.848295
3410.097889,-7698.141797,-962.267725,-459.657299
3410.098227,-8512.368333,-444.123565,1378.971896
3410.098564,-8586.388927,-74.020594,0.000000
3410.098901,-11473.192101,666.185348,-1378.971896
3410.099239,-11917.315666,1184.329507,-2987.772442
3410.099576,-10510.924376,-592.164754,-1915.238745
3410.099913,-10140.821405,-296.082377,995.924147
3410.100250,-9844.739029,222.061783,459.657299
3410.100588,-10510.924376,740.205942,0.000000
3410.100925,-10510.924376,0.000000,-1762.019645
3410.101262,-8660.409521,-2294.638420,-1762.019645
3410.101600,-8734.430116,-2664.741391,612.876398
3410.101937,-10066.800811,-2072.576638,1991.848295
3410.102274,-11103.089130,-1480.411884,306.438199
3410.102611,-9030.512492,-1258.350101,-1378.971896
3410.102949,-6291.750507,-1554.432478,-1149.143247
3410.103286,-7254.018232,-2368.659014,2068.457845
3410.103623,-9918.759623,-1258.350101,3524.039291
3410.103961,-12435.459826,370.102971,2987.772442
3410.104298,-13175.665768,1702.473667,1685.410096
3410.104635,-11029.068536,1036.288319,1915.238745
3410.104972,-10436.903782,0.000000,2834.553343
3410.105310,-8882.471304,0.000000,3447.429741
3410.105647,-8512.368333,888.247130,2757.943793
3410.105984,-9548.656652,1628.453072,1838.629195
3410.106322,-10732.986159,2072.576638,-229.828649
3410.106659,-10436.903782,518.144159,-919.314598
3410.106996,-11695.253884,-222.061783,766.095498
3410.107333,-10658.965565,1998.556043,919.314598
3410.107671,-10807.006753,1776.494261,0.000000
3410.108008,-10214.842000,1036.288319,-1378.971896
3410.108345,-8512.368333,-814.226536,-1838.629195
3410.108683,-9104.533087,-1628.453072,383.047749
3410.109020,-9400.615463,-1776.494261,2145.067394
3410.109357,-10807.006753,-1480.411884,2451.505594
3410.109694,-11843.295072,-1850.514855,0.000000
3410.110032,-10214.842000,-2738.761985,-766.095498
3410.110369,-8068.244768,-2220.617826,0.000000
3410.110706,-9030.512492,-1332.370696,536.266849
3410.111044,-10584.944971,-222.061783,0.000000
3410.111381,-11103.089130,-444.123565,-1302.362347
3410.111718,-10066.800811,-222.061783,-1608.800546
3410.112056,-9252.574275,-962.267725,-459.657299
3410.112393,-9252.574275,0.000000,0.000000
3410.112731,-10584.944971,-222.061783,-612.876398
3410.113068,-11325.150913,-888.247130,-1149.143247
3410.113405,-9030.512492,0.000000,-1915.238745
3410.113743,-9178.553681,-962.267725,383.047749
3410.114080,-11177.109724,0.000000,1149.143247
3410.114418,-11103.089130,0.000000,-1302.362347
3410.114755,-11177.109724,296.082377,-2374.896044
3410.115092,-8882.471304,1184.329507,-2528.115143
3410.115430,-8734.430116,-1628.453072,-919.314598
3410.115767,-9696.697840,-1036.288319,612.876398
3410.116104,-9474.636058,518.144159,-1532.190996
3410.116442,-11695.253884,222.061783,-1225.752797
3410.116779,-10584.944971,592.164754,-536.266849
3410.117116,-8660.409521,-370.102971,1378.971896
3410.117454,-9326.594869,-814.226536,1915.238745
3410.117791,-9474.636058,-296.082377,2068.457845
3410.118128,-11103.089130,222.061783,3217.601092
3410.118466,-9918.759623,222.061783,1915.238745
3410.118803,-9622.677246,0.000000,3830.477490
3410.119140,-10436.903782,1554.432478,3370.820191
3410.119478,-10807.006753,1998.556043,2298.286494
3410.119815,-11621.233289,1554.432478,229.828649
3410.120153,-9696.697840,888.247130,-1302.362347
3410.120490,-7772.162391,74.020594,153.219100
3410.120827,-9030.512492,-814.226536,1225.752797
3410.121165,-9178.553681,-1184.329507,536.266849
3410.121502,-8956.491898,-148.041188,0.000000
3410.121839,-9474.636058,444.123565,-1455.581446
3410.122177,-9104.533087,0.000000,-1225.752797
3410.122514,-11325.150913,-1406.391290,0.000000
3410.122851,-10732.986159,-1702.473667,153.219100
3410.123189,-10288.862594,-1332.370696,-306.438199
3410.123526,-10436.903782,-888.247130,459.657299
3410.123863,-9252.574275,-2146.597232,383.047749
3410.124201,-8808.450710,-2812.782580,459.657299
3410.124538,-9326.594869,-1998.556043,76.609550
3410.124875,-11991.336260,-1628.453072,689.485948
3410.125213,-12731.542202,-592.164754,0.000000
3410.125550,-10066.800811,-370.102971,-1149.143247
3410.125888,-10362.883188,-370.102971,76.609550
3410.126225,-10066.800811,-370.102971,2451.505594
3410.126562,-10584.944971,0.000000,3064.381992
3410.126900,-11547.212695,0.000000,2298.286494
3410.127237,-10066.800811,666.185348,1149.143247
3410.127574,-9992.780217,-222.061783,536.266849
3410.127912,-11325.150913,74.020594,0.000000
3410.128249,-9400.615463,222.061783,-1455.581446
3410.128586,-8808.450710,74.020594,-2374.896044
3410.128924,-9030.512492,962.267725,-2451.505594
3410.129261,-8068.244768,0.000000,-2221.676944
3410.129598,-9326.594869,-814.226536,-689.485948
3410.129936,-9400.615463,-814.226536,-459.657299
3410.130273,-10436.903782,0.000000,-153.219100
3410.130610,-10510.924376,148.041188,459.657299
3410.130948,-9622.677246,-1184.329507,-153.219100
3410.131285,-9326.594869,-1924.535449,536.266849
3410.131623,-8956.491898,-1110.308913,1455.581446
3410.131960,-9918.759623,-1850.514855,1838.629195
3410.132297,-10436.903782,222.061783,306.438199
3410.132635,-8512.368333,-592.164754,-766.095498
3410.132972,-10732.986159,-518.144159,1378.971896
3410.133309,-10881.027347,-592.164754,383.047749
3410.133647,-11177.109724,222.061783,1149.143247
3410.133984,-10955.047942,1480.411884,1378.971896
3410.134321,-9178.553681,814.226536,0.000000
3410.134659,-10658.965565,370.102971,919.314598
3410.134996,-11251.130318,444.123565,0.000000
3410.135333,-10807.006753,222.061783,536.266849
3410.135671,-11843.295072,518.144159,0.000000
3410.136008,-10066.800811,148.041188,-1685.410096
3410.136345,-9474.636058,-962.267725,-1149.143247
3410.136683,-9474.636058,-1332.370696,-1685.410096
3410.137020,-7698.141797,-962.267725,-1838.629195
3410.137357,-10288.862594,-1702.473667,-995.924147
3410.137695,-10214.842000,-814.226536,-306.438199
3410.138032,-9104.533087,-1110.308913,459.657299
3410.138370,-11103.089130,-592.164754,1838.629195
3410.138707,-10510.924376,0.000000,1225.752797
3410.139044,-9548.656652,-888.247130,1225.752797
3410.139382,-9030.512492,370.102971,2145.067394
3410.139719,-8734.430116,-2072.576638,2145.067394
3410.140056,-10140.821405,-592.164754,2681.334243
3410.140394,-9178.553681,74.020594,995.924147
3410.140731,-9622.677246,740.205942,0.000000
3410.141068,-9474.636058,1554.432478,229.828649
3410.141406,-9400.615463,222.061783,1225.752797
3410.141743,-10140.821405,1776.494261,2604.724693
3410.142080,-11103.089130,2664.741391,1685.410096
3410.142418,-12805.562797,3034.844362,76.609550
3410.142755,-12509.480420,888.247130,-1915.238745
3410.143092,-9548.656652,-518.144159,-995.924147
3410.143430,-10288.862594,-740.205942,1302.362347
3410.143767,-9326.594869,-740.205942,0.000000
3410.144105,-7994.224174,-1110.308913,-842.705048
3410.144442,-10510.924376,-1776.494261,-76.609550
3410.144779,-10584.944971,-1850.514855,1072.533697
3410.145117,-11769.274478,-1480.411884,229.828649
3410.145454,-11177.109724,-1406.391290,1225.752797
3410.145791,-9770.718434,-1036.288319,76.609550
3410.146129,-9770.718434,-592.164754,-536.266849
3410.146466,-8512.368333,-1406.391290,612.876398
3410.146803,-8956.491898,-2812.782580,2221.676944
3410.147141,-9918.759623,-1406.391290,2451.505594
3410.147478,-10436.903782,74.020594,0.000000
3410.147815,-11029.068536,-222.061783,-1532.190996
3410.148153,-8734.430116,-1628.453072,-995.924147
3410.148490,-9326.594869,-2368.659014,1455.581446
3410.148827,-9548.656652,0.000000,1838.629195
3410.149165,-10436.903782,740.205942,0.000000
3410.149502,-11325.150913,1702.473667,-766.095498
3410.149840,-10214.842000,888.247130,-1838.629195
3410.150177,-10584.944971,-592.164754,-383.047749
3410.150514,-10584.944971,444.123565,-383.047749
3410.150852,-8808.450710,518.144159,-2451.505594
3410.151189,-10066.800811,592.164754,-2374.896044
3410.151526,-10955.047942,-148.041188,-2757.943793
3410.151864,-9326.594869,-296.082377,-1532.190996
3410.152201,-9770.718434,-1184.329507,766.095498
3410.152538,-9992.780217,0.000000,1762.019645
3410.152876,-10436.903782,1036.288319,1838.629195
3410.153213,-11547.212695,444.123565,1838.629195
3410.153550,-9252.574275,-370.102971,1685.410096
3410.153888,-8734.430116,-518.144159,3447.429741
3410.154225,-9992.780217,1480.411884,3217.601092
3410.154562,-10066.800811,740.205942,612.876398
3410.154900,-9548.656652,1998.556043,-1608.800546
3410.155237,-8586.388927,0.000000,-2221.676944
3410.155575,-9326.594869,-1110.308913,536.266849
3410.155912,-9400.615463,-518.144159,2374.896044
3410.156249,-9030.512492,888.247130,1149.143247
3410.156587,-9696.697840,444.123565,0.000000
3410.156924,-9918.759623,222.061783,-383.047749
3410.157261,-10140.821405,-888.247130,1608.800546
3410.157599,-11399.171507,-370.102971,766.095498
3410.157936,-10362.883188,-444.123565,-1608.800546
3410.158273,-11177.109724,0.000000,-1455.581446
3410.158611,-10066.800811,-1776.494261,-2374.896044
3410.158948,-8142.265362,-3108.864956,76.609550
3410.159285,-9918.759623,-1924.535449,2145.067394
3410.159623,-11325.150913,-1702.473667,842.705048
3410.159960,-12509.480420,-592.164754,-153.219100
3410.160297,-12509.480420,0.000000,-76.609550
3410.160635,-9622.677246,-740.205942,919.314598
3410.160972,-10436.903782,-1702.473667,4060.306139
3410.161309,-10732.986159,0.000000,3983.696590
3410.161647,-11177.109724,666.185348,995.924147
3410.161984,-11251.130318,962.267725,459.657299
3410.162322,-8290.306550,-962.267725,0.000000
3410.162659,-8808.450710,-1258.350101,1838.629195
3410.162996,-10140.821405,518.144159,1225.752797
3410.163334,-10510.924376,962.267725,-1149.143247
3410.163671,-10436.903782,1480.411884,-2757.943793
3410.164008,-7994.224174,0.000000,-2528.115143
3410.164346,-8364.327145,148.041188,0.000000
3410.164683,-9104.533087,148.041188,459.657299
3410.165020,-9474.636058,0.000000,-1915.238745
3410.165358,-10362.883188,0.000000,-689.485948
3410.165695,-8882.471304,-888.247130,-766.095498
3410.166032,-9252.574275,-2146.597232,1072.533697
3410.166370,-10955.047942,-888.247130,1608.800546
3410.166707,-9770.718434,296.082377,-459.657299
3410.167044,-11843.295072,296.082377,-1838.629195
3410.167382,-10362.883188,-444.123565,-766.095498
3410.167719,-8512.368333,-518.144159,1225.752797
3410.168057,-10881.027347,0.000000,2911.162892
3410.168394,-10732.986159,962.267725,1302.362347
3410.168731,-11547.212695,222.061783,229.828649
3410.169069,-10362.883188,-666.185348,0.000000
3410.169406,-9178.553681,-1258.350101,689.485948
3410.169743,-9770.718434,-222.061783,1915.238745
3410.170081,-10510.924376,1776.494261,1149.143247
3410.170418,-11695.253884,1184.329507,-2145.067394
3410.170755,-11251.130318,296.082377,-2528.115143
3410.171093,-9992.780217,-1702.473667,-383.047749
3410.171430,-10436.903782,-1554.432478,1149.143247
3410.171767,-9104.533087,-444.123565,0.000000
3410.172105,-9548.656652,370.102971,-1149.143247
3410.172442,-10362.883188,-1554.432478,-2451.505594
3410.172779,-8216.285956,-3182.885551,-536.266849
3410.173117,-9992.780217,-2146.597232,2604.724693
3410.173454,-10732.986159,0.000000,2374.896044
3410.173792,-11325.150913,0.000000,-536.266849
3410.174129,-10955.047942,-666.185348,-1532.190996
3410.174466,-8142.265362,-1480.411884,76.609550
3410.174804,-8734.430116,-814.226536,3983.696590
3410.175141,-11177.109724,518.144159,4136.915689
3410.175478,-11621.233289,2442.679609,1378.971896
3410.175816,-11325.150913,2368.659014,-919.314598
3410.176153,-9918.759623,1184.329507,383.047749
3410.176490,-9252.574275,-444.123565,2451.505594
3410.176828,-9548.656652,1332.370696,3064.381992
3410.177165,-10066.800811,1628.453072,689.485948
3410.177502,-11029.068536,2294.638420,-383.047749
3410.177840,-9400.615463,1184.329507,-1072.533697
3410.178177,-9918.759623,-740.205942,459.657299
3410.178514,-9252.574275,-518.144159,1149.143247
3410.178852,-9474.636058,-296.082377,1225.752797
3410.179189,-9992.780217,-444.123565,-995.924147
3410.179527,-9030.512492,-1184.329507,-306.438199
3410.179864,-9104.533087,-2442.679609,1072.533697
3410.180201,-10436.903782,-1554.432478,1991.848295
3410.180539,-10362.883188,-370.102971,-612.876398
3410.180876,-11769.274478,-962.267725,-766.095498
3410.181213,-8882.471304,-2368.659014,-1685.410096
3410.181551,-7254.018232,-2664.741391,383.047749
3410.181888,-9548.656652,-1998.556043,3064.381992
3410.182225,-11325.150913,-1184.329507,1685.410096
3410.182563,-11917.315666,222.061783,153.219100
3410.182900,-11843.295072,592.164754,-229.828649
3410.183237,-10436.903782,-222.061783,612.876398
3410.183575,-9918.759623,-370.102971,1302.362347
3410.183912,-10658.965565,74.020594,1149.143247
3410.184249,-10955.047942,222.061783,-842.705048
3410.184587,-10140.821405,74.020594,-2681.334243
3410.184924,-9104.533087,74.020594,-2604.724693
3410.185261,-10214.842000,-1036.288319,-229.828649
3410.185599,-10510.924376,148.041188,-1225.752797
3410.185936,-10881.027347,592.164754,-1991.848295
3410.186274,-10658.965565,518.144159,-1762.019645
3410.186611,-8586.388927,-666.185348,-766.095498
3410.186948,-8808.450710,-2368.659014,1532.190996
3410.187286,-9104.533087,-962.267725,1915.238745
3410.187623,-9548.656652,-148.041188,919.314598
3410.187960,-10732.986159,-296.082377,459.657299
3410.188298,-9918.759623,-518.144159,-459.657299
3410.188635,-8734.430116,-1480.411884,919.314598
3410.188972,-8438.347739,444.123565,1915.238745
3410.189310,-8956.491898,1776.494261,1762.019645
3410.189647,-10658.965565,2442.679609,995.924147
3410.189984,-10584.944971,1480.411884,76.609550
3410.190322,-10066.800811,296.082377,153.219100
3410.190659,-10955.047942,148.041188,3140.991542
3410.190996,-10658.965565,1628.453072,2681.334243
3410.191334,-11103.089130,2368.659014,1302.362347
3410.191671,-10288.862594,1924.535449,-536.266849
3410.192009,-9992.780217,-370.102971,0.000000
3410.192346,-9696.697840,-740.205942,0.000000
3410.192683,-9474.636058,1332.370696,-536.266849
3410.193021,-10955.047942,1110.308913,-2221.676944
3410.193358,-11103.089130,-296.082377,-4060.306139
3410.193695,-9844.739029,-2516.700203,-2528.115143
3410.194033,-8068.244768,-2442.679609,2145.067394
3410.194370,-8364.327145,-1110.308913,4366.744339
3410.194707,-11621.233289,-592.164754,3370.820191
3410.195045,-12805.562797,0.000000,-689.485948
3410.195382,-10881.027347,-1924.535449,-2221.676944
3410.195719,-9252.574275,-3404.947333,1838.629195
3410.196057,-8956.491898,-1850.514855,3217.601092
3410.196394,-9474.636058,-1258.350101,2298.286494
3410.196731,-9474.636058,444.123565,-306.438199
3410.197069,-9326.594869,-666.185348,-1149.143247
3410.197406,-9474.636058,-1036.288319,842.705048
3410.197744,-10288.862594,0.000000,1838.629195
3410.198081,-11103.089130,888.247130,919.314598
3410.198418,-11473.192101,2072.576638,-1532.190996
3410.198756,-11399.171507,1406.391290,-766.095498
3410.199093,-9252.574275,0.000000,-689.485948
3410.199430,-7698.141797,-962.267725,766.095498
3410.199768,-9770.718434,0.000000,995.924147
3410.200105,-11473.192101,-222.061783,-995.924147
3410.200442,-11325.150913,0.000000,-2145.067394
3410.200780,-9326.594869,-888.247130,-1838.629195
3410.201117,-8586.388927,-888.247130,76.609550
3410.201454,-9696.697840,370.102971,-536.266849
3410.201792,-11769.274478,296.082377,-1225.752797
3410.202129,-9696.697840,518.144159,-1915.238745
3410.202466,-7476.080014,-1332.370696,76.609550
3410.202804,-9770.718434,-1554.432478,2681.334243
3410.203141,-10584.944971,0.000000,1838.629195
3410.203479,-11177.109724,444.123565,995.924147
3410.203816,-11103.089130,740.205942,306.438199
3410.204153,-8882.471304,0.000000,76.609550
3410.204491,-9400.615463,-148.041188,2528.115143
3410.204828,-10658.965565,296.082377,2374.896044
3410.205165,-11473.192101,740.205942,-306.438199
3410.205503,-11917.315666,666.185348,-1532.190996
3410.205840,-9696.697840,444.123565,-229.828649
3410.206177,-8586.388927,-518.144159,1225.752797
3410.206515,-9622.677246,-1184.329507,1762.019645
3410.206852,-10214.842000,-592.164754,459.657299
3410.207189,-10881.027347,0.000000,-1838.629195
3410.207527,-9770.718434,-666.185348,-3140.991542
3410.207864,-9104.533087,-3034.844362,-1608.800546
3410.208201,-9622.677246,-2664.741391,919.314598
3410.208539,-10362.883188,-1850.514855,1225.752797
3410.208876,-10732.986159,-962.267725,1149.143247
3410.209213,-9622.677246,-296.082377,766.095498
3410.209551,-9252.574275,-2072.576638,1378.971896
3410.209888,-10140.821405,-1850.514855,3753.867940
3410.210226,-10214.842000,-592.164754,3140.991542
3410.210563,-11695.253884,-222.061783,2298.286494
3410.210900,-11029.068536,74.020594,612.876398
3410.211238,-9770.718434,0.000000,229.828649
3410.211575,-9770.718434,74.020594,1532.190996
3410.211912,-9622.677246,888.247130,842.705048
3410.212250,-10288.862594,1110.308913,-306.438199
3410.212587,-10955.047942,2442.679609,-1225.752797
3410.212924,-9696.697840,444.123565,-1685.410096
3410.213262,-9622.677246,-222.061783,-766.095498
3410.213599,-10362.883188,296.082377,1225.752797
3410.213936,-9992.780217,148.041188,536.266849
3410.214273,-9992.780217,1036.288319,-153.219100
3410.214611,-9252.574275,-814.226536,-689.485948
3410.214948,-9622.677246,-2442.679609,306.438199
3410.215285,-9178.553681,-2294.638420,76.609550
3410.215623,-9474.636058,-592.164754,229.828649
3410.215960,-10436.903782,-296.082377,-919.314598
3410.216297,-9178.553681,-1184.329507,-1915.238745
3410.216634,-9178.553681,-2146.597232,-383.047749
3410.216972,-8216.285956,-1258.350101,306.438199
3410.217309,-9326.594869,-296.082377,1455.581446
3410.217646,-12805.562797,1850.514855,1225.752797
3410.217984,-12065.356855,1702.473667,-459.657299
3410.218321,-12139.377449,74.020594,0.000000
3410.218658,-11029.068536,-962.267725,1302.362347
3410.218995,-9252.574275,0.000000,612.876398
3410.219333,-10140.821405,74.020594,0.000000
3410.219670,-9992.780217,-296.082377,-919.314598
3410.220007,-9104.533087,-814.226536,-1149.143247
3410.220345,-10362.883188,-666.185348,-383.047749
3410.220682,-10955.047942,518.144159,0.000000
3410.221019,-11325.150913,666.185348,-2374.896044
3410.221356,-11029.068536,222.061783,-2528.115143
3410.221694,-9326.594869,-1110.308913,-1378.971896
3410.222031,-8882.471304,-2368.659014,1455.581446
3410.222368,-8290.306550,-1110.308913,1685.410096
3410.222706,-9252.574275,-962.267725,1149.143247
3410.223043,-11547.212695,148.041188,459.657299
3410.223380,-9918.759623,-2072.576638,0.000000
3410.223717,-10436.903782,-1850.514855,2374.896044
3410.224055,-8808.450710,-370.102971,2298.286494
3410.224392,-8512.368333,1258.350101,1838.629195
3410.224729,-10140.821405,1628.453072,1149.143247
3410.225066,-9622.677246,1850.514855,229.828649
3410.225404,-11473.192101,296.082377,2068.457845
3410.225741,-9474.636058,1258.350101,1072.533697
3410.226078,-10140.821405,1554.432478,766.095498
3410.226416,-12139.377449,1406.391290,1302.362347
3410.226753,-9844.739029,814.226536,-919.314598
3410.227090,-9030.512492,0.000000,153.219100
3410.227427,-9474.636058,148.041188,2221.676944
3410.227765,-10436.903782,-296.082377,766.095498
3410.228102,-12213.398043,592.164754,-1072.533697
3410.228439,-10955.047942,0.000000,-1608.800546
3410.228777,-9400.615463,-888.247130,-383.047749
3410.229114,-9104.533087,-1924.535449,766.095498
3410.229451,-8512.368333,-1036.288319,536.266849
3410.229788,-10658.965565,-740.205942,-689.485948
3410.230126,-10732.986159,-740.205942,-919.314598
3410.230463,-9770.718434,-1998.556043,-229.828649
3410.230800,-10214.842000,-2664.741391,1915.238745
3410.231138,-10288.862594,-1702.473667,1762.019645
3410.231475,-10140.821405,-1480.411884,919.314598
3410.231812,-9844.739029,-1184.329507,1838.629195
3410.232149,-9622.677246,-1184.329507,2298.286494
3410.232487,-10362.883188,296.082377,2528.115143
3410.232824,-11473.192101,814.226536,1302.362347
3410.233161,-11547.212695,814.226536,-1149.143247
3410.233498,-10436.903782,444.123565,-2221.676944
3410.233836,-8290.306550,0.000000,-1302.362347
3410.234173,-8660.409521,-370.102971,0.000000
3410.234510,-9474.636058,-222.061783,-842.705048
3410.234848,-11103.089130,222.061783,-2068.457845
3410.235185,-10658.965565,-518.144159,-2451.505594
3410.235522,-9622.677246,-1406.391290,-766.095498
3410.235859,-8438.347739,-1628.453072,612.876398
3410.236197,-9474.636058,-370.102971,1915.238745
3410.236534,-10658.965565,0.000000,689.485948
3410.236871,-10510.924376,222.061783,-1378.971896
3410.237209,-9474.636058,296.082377,-612.876398
3410.237546,-10066.800811,-296.082377,0.000000
3410.237883,-10066.800811,0.000000,0.000000
3410.238220,-10288.862594,0.000000,-536.266849
3410.238558,-10066.800811,-740.205942,-1225.752797
3410.238895,-8956.491898,74.020594,383.047749
3410.239232,-9178.553681,-444.123565,2528.115143
3410.239570,-9844.739029,74.020594,2145.067394
3410.239907,-10955.047942,1924.535449,1685.410096
3410.240244,-13323.706956,1184.329507,459.657299
3410.240581,-11695.253884,1184.329507,229.828649
3410.240919,-9548.656652,-1184.329507,612.876398
3410.241256,-9104.533087,-1110.308913,2451.505594
3410.241593,-8808.450710,-148.041188,1378.971896
3410.241931,-10214.842000,-74.020594,0.000000
3410.242268,-10214.842000,-592.164754,-2681.334243
3410.242605,-8660.409521,-1924.535449,-2145.067394
3410.242942,-9696.697840,-1480.411884,-459.657299
3410.243280,-10362.883188,-1628.453072,0.000000
3410.243617,-10807.006753,-1480.411884,-383.047749
3410.243954,-8290.306550,-1258.350101,0.000000
3410.244291,-8216.285956,-1258.350101,2528.115143
3410.244629,-9770.718434,-2072.576638,4213.525239
3410.244966,-11621.233289,-592.164754,3600.648841
3410.245303,-12139.377449,-888.247130,1838.629195
3410.245641,-11843.295072,814.226536,383.047749
3410.245978,-9474.636058,222.061783,919.314598
3410.246315,-9770.718434,-222.061783,2298.286494
3410.246652,-8438.347739,1110.308913,1149.143247
3410.246990,-10214.842000,1850.514855,-612.876398
3410.247327,-11399.171507,1998.556043,-1149.143247
3410.247664,-10362.883188,1406.391290,-459.657299
3410.248002,-10584.944971,0.000000,919.314598
3410.248339,-9770.718434,444.123565,1302.362347
3410.248676,-8660.409521,1998.556043,995.924147
3410.249013,-10584.944971,1406.391290,-612.876398
3410.249351,-9918.759623,0.000000,-2145.067394
3410.249688,-8216.285956,-1998.556043,-1991.848295
3410.250025,-8808.450710,-2368.659014,229.828649
3410.250363,-10510.924376,-1406.391290,0.000000
3410.250700,-11177.109724,0.000000,-1991.848295
3410.251037,-8956.491898,-370.102971,-2451.505594
3410.251374,-8734.430116,-740.205942,-689.485948
3410.251712,-9474.636058,-1184.329507,-383.047749
3410.252049,-10066.800811,-444.123565,1149.143247
3410.252386,-11177.109724,-814.226536,689.485948
3410.252724,-11177.109724,-666.185348,76.609550
3410.253061,-10066.800811,-1258.350101,536.266849
3410.253398,-9696.697840,-1184.329507,2221.676944
3410.253735,-9474.636058,-444.123565,2221.676944
3410.254073,-10510.924376,-296.082377,919.314598
3410.254410,-11029.068536,74.020594,-1225.752797
3410.254747,-10510.924376,0.000000,-919.314598
3410.255084,-10140.821405,-888.247130,0.000000
3410.255422,-10658.965565,666.185348,0.000000
3410.255759,-10881.027347,592.164754,-383.047749
3410.256096,-10807.006753,148.041188,-612.876398
3410.256434,-9992.780217,-1628.453072,-383.047749
3410.256771,-8808.450710,-2368.659014,842.705048
3410.257108,-8660.409521,-1406.391290,1532.190996
3410.257445,-9548.656652,-592.164754,459.657299
3410.257783,-10881.027347,0.000000,-153.219100
3410.258120,-11029.068536,-1332.370696,-383.047749
3410.258457,-9474.636058,-1258.350101,995.924147
3410.258795,-8808.450710,-666.185348,2681.334243
3410.259132,-9770.718434,518.144159,2451.505594
3410.259469,-10732.986159,962.267725,842.705048
3410.259806,-9178.553681,888.247130,-76.609550
3410.260144,-8586.388927,222.061783,1762.019645
3410.260481,-9474.636058,-370.102971,3753.867940
3410.260818,-10658.965565,666.185348,2681.334243
3410.261156,-11029.068536,1258.350101,76.609550
3410.261493,-10807.006753,2220.617826,-689.485948
3410.261830,-9770.718434,962.267725,76.609550
3410.262167,-9548.656652,-740.205942,153.219100
3410.262505,-9030.512492,592.164754,842.705048
3410.262842,-10955.047942,814.226536,-612.876398
3410.263179,-10881.027347,814.226536,-2298.286494
3410.263516,-9548.656652,-962.267725,-2068.457845
3410.263854,-9474.636058,-1628.453072,383.047749
3410.264191,-9252.574275,-1850.514855,383.047749
3410.264528,-10066.800811,-962.267725,76.609550
3410.264866,-11399.171507,-1332.370696,-1225.752797
3410.265203,-9696.697840,-3330.926739,0.000000
3410.265540,-9696.697840,-2516.700203,1685.410096
3410.265877,-10436.903782,-1184.329507,2374.896044
3410.266215,-12509.480420,-518.144159,1455.581446
3410.266552,-11843.295072,-148.041188,-995.924147
3410.266889,-8808.450710,-962.267725,-842.705048
3410.267227,-7846.182985,-2072.576638,1685.410096
3410.267564,-9178.553681,-1628.453072,3447.429741
3410.267901,-10658.965565,-370.102971,1838.629195
3410.268238,-11991.336260,888.247130,-383.047749
3410.268576,-10807.006753,1184.329507,-1302.362347
3410.268913,-9770.718434,-592.164754,383.047749
3410.269250,-9474.636058,0.000000,1915.238745
3410.269588,-9474.636058,666.185348,842.705048
3410.269925,-11547.212695,1332.370696,0.000000
3410.270262,-10066.800811,1628.453072,-2834.553343
3410.270599,-9030.512492,-370.102971,-2374.896044
3410.270937,-10066.800811,-592.164754,-612.876398
3410.271274,-8882.471304,-962.267725,-1378.971896
3410.271611,-9696.697840,0.000000,-1455.581446
3410.271949,-9548.656652,74.020594,-919.314598
3410.272286,-8438.347739,-1184.329507,-383.047749
3410.272623,-8882.471304,-518.144159,1991.848295
3410.272960,-10584.944971,1184.329507,2451.505594
3410.273298,-11843.295072,2072.576638,536.266849
3410.273635,-10584.944971,1184.329507,-1072.533697
3410.273972,-9400.615463,296.082377,919.314598
3410.274309,-9474.636058,296.082377,1838.629195
3410.274647,-10066.800811,1036.288319,1378.971896
3410.274984,-11251.130318,2294.638420,-229.828649
3410.275321,-11991.336260,592.164754,-1302.362347
3410.275659,-9622.677246,370.102971,-1915.238745
3410.275996,-7328.038826,222.061783,-612.876398
3410.276333,-9252.574275,0.000000,1838.629195
3410.276670,-10658.965565,740.205942,1455.581446
3410.277008,-13027.624579,888.247130,-1532.190996
3410.277345,-11177.109724,1406.391290,-1685.410096
3410.277682,-8882.471304,518.144159,-1302.362347
3410.278020,-9326.594869,-1110.308913,-459.657299
3410.278357,-9548.656652,-1406.391290,-1532.190996
3410.278694,-10436.903782,-1036.288319,-2374.896044
3410.279031,-9030.512492,-888.247130,-3447.429741
3410.279369,-8290.306550,-962.267725,-2528.115143
3410.279706,-9104.533087,-888.247130,-306.438199
3410.280043,-11177.109724,-148.041188,536.266849
3410.280381,-12361.439231,592.164754,1072.533697
3410.280718,-10288.862594,1258.350101,383.047749
3410.281055,-9992.780217,2220.617826,1532.190996
3410.281392,-10807.006753,518.144159,1455.581446
3410.281730,-10510.924376,444.123565,1225.752797
3410.282067,-9548.656652,1924.535449,0.000000
3410.282404,-9770.718434,2442.679609,-842.705048
3410.282742,-10362.883188,3108.864956,-2221.676944
3410.283079,-9474.636058,1628.453072,-4366.744339
3410.283416,-9326.594869,1998.556043,-3370.820191
3410.283753,-10066.800811,2368.659014,-1991.848295
3410.284091,-9400.615463,3404.947333,-2604.724693
3410.284428,-10066.800811,4219.173869,-2604.724693
3410.284765,-10881.027347,2590.720797,-3907.087040
3410.285102,-8882.471304,1924.535449,-4290.134789
3410.285440,-9622.677246,-370.102971,-1072.533697
3410.285777,-10436.903782,-444.123565,76.609550
3410.286114,-8142.265362,0.000000,-1532.190996
3410.286452,-9178.553681,296.082377,-1915.238745
3410.286789,-9548.656652,888.247130,-2221.676944
3410.287126,-9326.594869,592.164754,-3064.381992
3410.287463,-11621.233289,666.185348,-1915.238745
3410.287801,-11547.212695,222.061783,-2451.505594
3410.288138,-9622.677246,2368.659014,-2298.286494
3410.288475,-9474.636058,2812.782580,-1302.362347
3410.288813,-9252.574275,2738.761985,-1455.581446
3410.289150,-9474.636058,1406.391290,-2068.457845
3410.289487,-11695.253884,666.185348,-689.485948
3410.289824,-11843.295072,666.185348,229.828649
3410.290162,-10584.944971,1850.514855,-1149.143247
3410.290499,-11325.150913,2368.659014,-1149.143247
3410.290836,-10732.986159,1776.494261,-2911.162892
3410.291174,-9770.718434,1776.494261,-2911.162892
3410.291511,-9400.615463,2146.597232,-1915.238745
3410.291848,-10288.862594,1480.411884,-919.314598
3410.292185,-9622.677246,1776.494261,-2604.724693
3410.292523,-9844.739029,1480.411884,-4366.744339
3410.292860,-9918.759623,1258.350101,-3370.820191
3410.293197,-8882.471304,1184.329507,-2451.505594
3410.293534,-9252.574275,740.205942,-1149.143247
3410.293872,-8660.409521,222.061783,0.000000
3410.294209,-9770.718434,740.205942,842.705048
3410.294546,-11325.150913,1258.350101,995.924147
3410.294884,-10955.047942,3256.906145,0.000000
3410.295221,-9326.594869,4071.132681,-229.828649
3410.295558,-10362.883188,3997.112087,-1302.362347
3410.295895,-10066.800811,3404.947333,-2681.334243
3410.296233,-8142.265362,3849.070898,-2681.334243
3410.296570,-9178.553681,2220.617826,-459.657299
3410.296907,-10658.965565,2812.782580,-1608.800546
3410.297245,-11325.150913,3256.906145,-3294.210641
3410.297582,-10140.821405,3404.947333,-3830.477490
3410.297919,-9400.615463,1924.535449,-2604.724693
3410.298256,-10214.842000,1332.370696,-1838.629195
3410.298594,-8882.471304,2294.638420,-3140.991542
3410.298931,-8882.471304,1628.453072,-3294.210641
3410.299268,-10584.944971,1184.329507,-1991.848295
3410.299606,-11843.295072,0.000000,-2757.943793
3410.299943,-9918.759623,1258.350101,-3370.820191
3410.300280,-8734.430116,370.102971,-2451.505594
3410.300617,-9696.697840,-370.102971,-842.705048
3410.300955,-11103.089130,-814.226536,-2221.676944
3410.301292,-9400.615463,-74.020594,-3907.087040
3410.301629,-8734.430116,1332.370696,-2298.286494
3410.301967,-10510.924376,74.020594,153.219100
3410.302304,-13101.645173,0.000000,-612.876398
3410.302641,-10807.006753,666.185348,-1225.752797
3410.302978,-8216.285956,2960.823768,-306.438199
3410.303316,-9622.677246,2960.823768,229.828649
3410.303653,-12805.562797,888.247130,0.000000
3410.303990,-11695.253884,1110.308913,-1532.190996
3410.304327,-7920.203579,2590.720797,-1991.848295
3410.304665,-9104.533087,2590.720797,-612.876398
3410.305002,-10807.006753,2590.720797,-2221.676944
3410.305339,-11843.295072,0.000000,-2145.067394
3410.305677,-8956.491898,2294.638420,-2757.943793
3410.306014,-8068.244768,3108.864956,-1991.848295
3410.306351,-11251.130318,3849.070898,-1915.238745
3410.306688,-10288.862594,1998.556043,-4060.306139
3410.307026,-8586.388927,0.000000,-3524.039291
3410.307363,-7698.141797,962.267725,-995.924147
3410.307700,-7772.162391,1776.494261,153.219100
3410.308038,-10510.924376,2886.803174,-306.438199
3410.308375,-11547.212695,1702.473667,-2451.505594
3410.308712,-9326.594869,1332.370696,-1991.848295
3410.309049,-10140.821405,962.267725,995.924147
3410.309387,-11473.192101,3404.947333,2451.505594
3410.309724,-11547.212695,3404.947333,-1838.629195
3410.310061,-10732.986159,3627.009116,-5132.839837
3410.310399,-8068.244768,2516.700203,-4443.353888
3410.310736,-7624.121203,740.205942,-766.095498
3410.311073,-9622.677246,2294.638420,842.705048
3410.311410,-11473.192101,2220.617826,-2757.943793
3410.311748,-11769.274478,3108.864956,-5286.058936
3410.312085,-10881.027347,1480.411884,-4903.011187
3410.312422,-9400.615463,518.144159,-1991.848295
3410.312759,-8660.409521,148.041188,-1455.581446
3410.313097,-10214.842000,74.020594,-995.924147
3410.313434,-10955.047942,296.082377,-1991.848295
3410.313771,-9844.739029,222.061783,-2604.724693
3410.314109,-9770.718434,1110.308913,-2451.505594
3410.314446,-9400.615463,444.123565,-2834.553343
3410.314783,-10436.903782,0.000000,-3677.258390
3410.315121,-9622.677246,-296.082377,-3524.039291
3410.315458,-8734.430116,-1036.288319,-536.266849
3410.315795,-8956.491898,-148.041188,1149.143247
3410.316132,-11547.212695,1702.473667,229.828649
3410.316470,-12731.542202,3034.844362,-766.095498
3410.316807,-11621.233289,3849.070898,-2068.457845
3410.317144,-10362.883188,3256.906145,-766.095498
3410.317482,-9474.636058,3330.926739,-842.705048
3410.317819,-7772.162391,3182.885551,-1225.752797
3410.318156,-8956.491898,3182.885551,-919.314598
3410.318494,-10881.027347,2664.741391,-612.876398
3410.318831,-11251.130318,2590.720797,-1302.362347
3410.319168,-10584.944971,3478.967927,-1532.190996
3410.319506,-9474.636058,3923.091493,-2528.115143
3410.319843,-9844.739029,3923.091493,-3140.991542
3410.320180,-10584.944971,3182.885551,-3983.696590
3410.320518,-8290.306550,2738.761985,-5056.230287
3410.320855,-7402.059420,2590.720797,-3830.477490
3410.321192,-9326.594869,2220.617826,-2451.505594
3410.321529,-9918.759623,888.247130,-2681.334243
3410.321867,-9548.656652,222.061783,-1532.190996
3410.322204,-8290.306550,0.000000,536.266849
3410.322541,-9400.615463,296.082377,2298.286494
3410.322879,-11917.315666,2072.576638,612.876398
3410.323216,-12361.439231,2960.823768,-2145.067394
3410.323553,-10732.986159,3701.029710,-2528.115143
3410.323891,-9252.574275,1776.494261,-2681.334243
3410.324228,-9474.636058,1924.535449,-1378.971896
3410.324565,-8956.491898,1110.308913,-2068.457845
3410.324903,-8956.491898,1480.411884,-3447.429741
3410.325240,-10066.800811,592.164754,-2451.505594
3410.325577,-11473.192101,1258.350101,-2145.067394
3410.325914,-11621.233289,1628.453072,-1455.581446
3410.326252,-11843.295072,1480.411884,-689.485948
3410.326589,-10807.006753,1998.556043,-1838.629195
3410.326926,-9918.759623,1702.473667,-2451.505594
3410.327264,-9622.677246,962.267725,-842.705048
3410.327601,-8956.491898,-148.041188,-995.924147
3410.327938,-9622.677246,-888.247130,-1302.362347
3410.328276,-10955.047942,0.000000,-2145.067394
3410.328613,-10140.821405,296.082377,-2145.067394
3410.328950,-9548.656652,0.000000,-1378.971896
3410.329288,-9104.533087,444.123565,-1455.581446
3410.329625,-9474.636058,1406.391290,-1608.800546
3410.329962,-10436.903782,2590.720797,-1149.143247
3410.330300,-10584.944971,3552.988522,-1915.238745
3410.330637,-9770.718434,3404.947333,-1838.629195
3410.330974,-9474.636058,2590.720797,-995.924147
3410.331311,-8734.430116,2590.720797,229.828649
3410.331649,-9030.512492,2590.720797,-153.219100
3410.331986,-9844.739029,2442.679609,-689.485948
3410.332323,-10436.903782,3108.864956,-2145.067394
3410.332661,-11103.089130,4071.132681,-2604.724693
3410.332998,-11251.130318,3923.091493,-3447.429741
3410.333335,-10436.903782,2960.823768,-4519.963438
3410.333673,-8956.491898,1850.514855,-3907.087040
3410.334010,-8142.265362,1258.350101,-2221.676944
3410.334347,-7772.162391,148.041188,-1149.143247
3410.334685,-9474.636058,962.267725,-842.705048
3410.335022,-10881.027347,592.164754,-612.876398
3410.335359,-11251.130318,370.102971,-919.314598
3410.335697,-10658.965565,0.000000,-612.876398
3410.336034,-10807.006753,222.061783,459.657299
3410.336371,-10140.821405,-518.144159,0.000000
3410.336708,-9770.718434,-370.102971,-689.485948
3410.337046,-9992.780217,74.020594,-1225.752797
3410.337383,-9548.656652,740.205942,-1149.143247
3410.337720,-9844.739029,814.226536,-1608.800546
3410.338058,-10288.862594,444.123565,-1225.752797
3410.338395,-9474.636058,1184.329507,-1915.238745
3410.338732,-10066.800811,1184.329507,-2221.676944
3410.339070,-10658.965565,2294.638420,-1685.410096
3410.339407,-10732.986159,2294.638420,-2757.943793
3410.339744,-10807.006753,2738.761985,-3064.381992
3410.340082,-9844.739029,2294.638420,-4136.915689
3410.340419,-9252.574275,1998.556043,-3600.648841
3410.340756,-9400.615463,1480.411884,-3294.210641
3410.341093,-9178.553681,1406.391290,-3370.820191
3410.341431,-9474.636058,2812.782580,-3294.210641
3410.341768,-10362.883188,3330.926739,-3524.039291
3410.342105,-10362.883188,2146.597232,-3600.648841
3410.342443,-9622.677246,2664.741391,-2681.334243
3410.342780,-10214.842000,2738.761985,-2681.334243
3410.343117,-9474.636058,2590.720797,-1991.848295
3410.343455,-9104.533087,1924.535449,-2451.505594
3410.343792,-9770.718434,2368.659014,-766.095498
3410.344129,-10732.986159,1998.556043,-919.314598
3410.344467,-10140.821405,3552.988522,-1608.800546
3410.344804,-10584.944971,4441.235652,-2757.943793
3410.345141,-9992.780217,4515.256246,-2911.162892
3410.345479,-9622.677246,3701.029710,-2757.943793
3410.345816,-9252.574275,2812.782580,-1225.752797
3410.346153,-9918.759623,3478.967927,229.828649
3410.346490,-10658.965565,3552.988522,-459.657299
3410.346828,-11029.068536,3256.906145,-2221.676944
3410.347165,-10066.800811,3330.926739,-3294.210641
3410.347502,-9622.677246,1850.514855,-1991.848295
3410.347840,-9770.718434,1332.370696,-612.876398
3410.348177,-9844.739029,2294.638420,-2681.334243
3410.348514,-9992.780217,2812.782580,-4290.134789
3410.348852,-9252.574275,1480.411884,-4443.353888
3410.349189,-9030.512492,0.000000,-2145.067394
3410.349526,-9548.656652,-518.144159,-383.047749
3410.349864,-9770.718434,0.000000,1072.533697
3410.350201,-9918.759623,1184.329507,229.828649
3410.350538,-11695.253884,370.102971,0.000000
3410.350875,-11177.109724,222.061783,-153.219100
3410.351213,-9918.759623,888.247130,-383.047749
3410.351550,-9548.656652,2368.659014,-306.438199
3410.351887,-9844.739029,1184.329507,0.000000
3410.352225,-10436.903782,370.102971,-919.314598
3410.352562,-9178.553681,888.247130,76.609550
3410.352899,-9400.615463,1702.473667,1225.752797
3410.353237,-11917.315666,3182.885551,612.876398
3410.353574,-13175.665768,3552.988522,-3294.210641
3410.353911,-10066.800811,3256.906145,-4903.011187
3410.354249,-7402.059420,2220.617826,-3753.867940
3410.354586,-7328.038826,666.185348,-536.266849
3410.354923,-10362.883188,1184.329507,-919.314598
3410.355261,-10140.821405,1480.411884,-3217.601092
3410.355598,-9918.759623,2294.638420,-4136.915689
3410.355935,-9474.636058,1258.350101,-4903.011187
3410.356272,-9622.677246,444.123565,-4136.915689
3410.356610,-9474.636058,518.144159,-2911.162892
3410.356947,-9252.574275,814.226536,-2451.505594
3410.357284,-10214.842000,1332.370696,-1532.190996
3410.357622,-11029.068536,1924.535449,-2528.115143
3410.357959,-9918.759623,1406.391290,-2834.553343
3410.358296,-9474.636058,888.247130,-2911.162892
3410.358634,-10214.842000,518.144159,-995.924147
3410.358971,-9992.780217,518.144159,-1378.971896
3410.359308,-10214.842000,1406.391290,-612.876398
3410.359646,-10584.944971,2590.720797,-1991.848295
3410.359983,-11473.192101,2146.597232,-3294.210641
3410.360320,-12213.398043,2220.617826,-3294.210641
3410.360657,-10732.986159,1110.308913,-1838.629195
3410.360995,-9474.636058,1998.556043,-459.657299
3410.361332,-9844.739029,2738.761985,-2298.286494
3410.361669,-9622.677246,2368.659014,-4136.915689
3410.362007,-8956.491898,1554.432478,-3677.258390
3410.362344,-9474.636058,-518.144159,-2145.067394
3410.362681,-10066.800811,0.000000,-1225.752797
3410.363019,-9770.718434,1036.288319,-1915.238745
3410.363356,-10214.842000,1776.494261,-1838.629195
3410.363693,-10584.944971,888.247130,-1762.019645
3410.364031,-9918.759623,888.247130,-1225.752797
3410.364368,-10584.944971,2886.803174,0.000000
3410.364705,-9918.759623,3182.885551,-306.438199
3410.365043,-10436.903782,2960.823768,-2374.896044
3410.365380,-10214.842000,814.226536,-2298.286494
3410.365717,-8438.347739,888.247130,0.000000
3410.366054,-7994.224174,1406.391290,2374.896044
3410.366392,-9844.739029,2886.803174,2374.896044
3410.366729,-12287.418637,3330.926739,919.314598
3410.367066,-12731.542202,3923.091493,-2221.676944
3410.367404,-10658.965565,4885.359217,-2221.676944
3410.367741,-8956.491898,5625.565159,-1838.629195
3410.368078,-10658.965565,4959.379811,-1838.629195
3410.368416,-11769.274478,3182.885551,-3370.820191
3410.368753,-8734.430116,2516.700203,-5209.449386
3410.369090,-6513.812290,2516.700203,-3140.991542
3410.369428,-9326.594869,2146.597232,0.000000
3410.369765,-13027.624579,1628.453072,-1915.238745
3410.370102,-10955.047942,1184.329507,-6128.763984
3410.370440,-8068.244768,1628.453072,-4443.353888
3410.370777,-7920.203579,1332.370696,-1608.800546
3410.371114,-11177.109724,1110.308913,-383.047749
3410.371451,-10510.924376,1924.535449,-3753.867940
3410.371789,-8956.491898,1406.391290,-3983.696590
3410.372126,-9548.656652,222.061783,-612.876398
3410.372463,-11325.150913,296.082377,-306.438199
3410.372801,-10288.862594,1110.308913,-2145.067394
3410.373138,-8586.388927,888.247130,-2451.505594
3410.373475,-9252.574275,1184.329507,-2298.286494
3410.373813,-10881.027347,1184.329507,-1915.238745
3410.374150,-11103.089130,2072.576638,-1532.190996
3410.374487,-10732.986159,2442.679609,-306.438199
3410.374825,-12139.377449,2664.741391,-2451.505594
3410.375162,-10510.924376,2812.782580,-2987.772442
3410.375499,-9992.780217,2738.761985,-1991.848295
3410.375836,-9548.656652,1036.288319,-1685.410096
3410.376174,-8734.430116,296.082377,-2604.724693
3410.376511,-9622.677246,148.041188,-1532.190996
3410.376848,-10584.944971,1110.308913,-2604.724693
3410.377186,-10066.800811,1258.350101,-4060.306139
3410.377523,-10066.800811,1332.370696,-3524.039291
3410.377860,-9622.677246,962.267725,-2374.896044
3410.378198,-10732.986159,1036.288319,-383.047749
3410.378535,-9252.574275,1036.288319,0.000000
3410.378872,-9474.636058,2294.638420,229.828649
3410.379210,-10510.924376,2072.576638,-229.828649
3410.379547,-10732.986159,1406.391290,-1608.800546
3410.379884,-9844.739029,2442.679609,-689.485948
3410.380222,-9770.718434,222.061783,-612.876398
3410.380559,-9252.574275,518.144159,-766.095498
3410.380896,-9178.553681,1776.494261,-919.314598
3410.381233,-10066.800811,2590.720797,-1685.410096
3410.381571,-10140.821405,2812.782580,-2757.943793
3410.381908,-10955.047942,2146.597232,-2451.505594
3410.382245,-10584.944971,2590.720797,-1149.143247
3410.382583,-9992.780217,1110.308913,-306.438199
3410.382920,-10584.944971,1924.535449,-459.657299
3410.383257,-8586.388927,1702.473667,-3370.820191
3410.383595,-8364.327145,1110.308913,-3983.696590
3410.383932,-9252.574275,-962.267725,-2528.115143
3410.384269,-9326.594869,-962.267725,-2451.505594
3410.384607,-9992.780217,-1036.288319,-1915.238745
3410.384944,-11399.171507,-148.041188,-1915.238745
3410.385281,-11029.068536,-888.247130,-1072.533697
3410.385618,-9696.697840,962.267725,-1072.533697
3410.385956,-9696.697840,-370.102971,306.438199
3410.386293,-9622.677246,-740.205942,2451.505594
3410.386630,-10584.944971,-148.041188,2604.724693
3410.386968,-11843.295072,814.226536,383.047749
3410.387305,-11177.109724,740.205942,-766.095498
3410.387642,-9992.780217,1258.350101,-536.266849
3410.387980,-9770.718434,148.041188,0.000000
3410.388317,-10362.883188,296.082377,1225.752797
3410.388654,-10807.006753,2368.659014,-766.095498
3410.388992,-10140.821405,2072.576638,-1915.238745
3410.389329,-9622.677246,2664.741391,-1302.362347
3410.389666,-10288.862594,1480.411884,-1225.752797
3410.390004,-10658.965565,1258.350101,1149.143247
3410.390341,-10584.944971,1998.556043,766.095498
3410.390678,-9696.697840,1332.370696,-1149.143247
3410.391015,-8142.265362,444.123565,-1685.410096
3410.391353,-8216.285956,-1110.308913,-842.705048
3410.391690,-8216.285956,-814.226536,-306.438199
3410.392027,-10362.883188,-148.041188,766.095498
3410.392365,-10288.862594,1554.432478,-2374.896044
3410.392702,-9252.574275,444.123565,-3677.258390
3410.393039,-9992.780217,0.000000,-919.314598
3410.393377,-8364.327145,-222.061783,1225.752797
3410.393714,-10510.924376,-148.041188,4136.915689
3410.394051,-11325.150913,1554.432478,2757.943793
3410.394389,-11695.253884,592.164754,0.000000
3410.394726,-11399.171507,592.164754,153.219100
3410.395063,-8956.491898,444.123565,229.828649
3410.395400,-10362.883188,-148.041188,2451.505594
3410.395738,-11177.109724,888.247130,229.828649
3410.396075,-11399.171507,888.247130,-3294.210641
3410.396412,-10658.965565,-148.041188,-2757.943793
3410.396750,-8586.388927,-1110.308913,-1149.143247
3410.397087,-9178.553681,-888.247130,1991.848295
3410.397424,-11621.233289,0.000000,1608.800546
3410.397762,-10510.924376,0.000000,-459.657299
3410.398099,-10140.821405,-962.267725,-1149.143247
3410.398436,-8660.409521,-2442.679609,-536.266849
3410.398774,-7698.141797,-2146.597232,1149.143247
3410.399111,-9696.697840,-2072.576638,2298.286494
3410.399448,-10807.006753,-444.123565,-383.047749
3410.399786,-11695.253884,-740.205942,-1608.800546
3410.400123,-9696.697840,-2368.659014,-766.095498
3410.400460,-7179.997637,-1850.514855,995.924147
3410.400797,-9548.656652,-1258.350101,4136.915689
3410.401135,-10510.924376,1332.370696,3294.210641
3410.401472,-11325.150913,1554.432478,766.095498
3410.401809,-11769.274478,1332.370696,0.000000
3410.402147,-9992.780217,444.123565,459.657299
3410.402484,-10732.986159,74.020594,2451.505594
3410.402821,-10362.883188,2294.638420,1608.800546
3410.403159,-9474.636058,1406.391290,-536.266849
3410.403496,-10658.965565,666.185348,-1225.752797
3410.403833,-9030.512492,-666.185348,-383.047749
3410.404171,-10658.965565,444.123565,1915.238745
3410.404508,-11547.212695,1406.391290,459.657299
3410.404845,-11103.089130,1110.308913,-2987.772442
3410.405182,-9992.780217,-518.144159,-3064.381992
3410.405520,-8290.306550,-1332.370696,-2221.676944
3410.405857,-7920.203579,-2146.597232,612.876398
3410.406194,-10807.006753,-1110.308913,1302.362347
3410.406532,-10362.883188,-814.226536,-612.876398
3410.406869,-10658.965565,-1702.473667,-1608.800546
3410.407206,-8586.388927,-2294.638420,229.828649
3410.407544,-8660.409521,-2442.679609,2834.553343
3410.407881,-10807.006753,-1998.556043,3753.867940
3410.408218,-11177.109724,222.061783,1685.410096
3410.408556,-11547.212695,518.144159,0.000000
3410.408893,-10732.986159,0.000000,0.000000
3410.409230,-9252.574275,-740.205942,383.047749
3410.409568,-10436.903782,-814.226536,2374.896044
3410.409905,-9770.718434,296.082377,1225.752797
3410.410242,-9030.512492,222.061783,-995.924147
3410.410579,-9548.656652,148.041188,-612.876398
3410.410917,-9696.697840,-444.123565,0.000000
3410.411254,-11251.130318,-148.041188,1378.971896
3410.411591,-13027.624579,1332.370696,919.314598
3410.411929,-11917.315666,1184.329507,-612.876398
3410.412266,-9844.739029,0.000000,-306.438199
3410.412603,-7698.141797,-1628.453072,229.828649
3410.412941,-8216.285956,-1406.391290,1762.019645
3410.413278,-10066.800811,-1036.288319,995.924147
3410.413615,-10140.821405,-888.247130,-306.438199
3410.413953,-9548.656652,-1258.350101,-1072.533697
3410.414290,-9030.512492,-888.247130,-612.876398
3410.414627,-9474.636058,-296.082377,919.314598
3410.414964,-10066.800811,1184.329507,1838.629195
3410.415302,-9844.739029,1480.411884,0.000000
3410.415639,-11325.150913,-370.102971,689.485948
3410.415976,-9918.759623,0.000000,842.705048
3410.416314,-7994.224174,-222.061783,2681.334243
3410.416651,-10658.965565,148.041188,2987.772442
3410.416988,-10807.006753,666.185348,-536.266849
3410.417326,-10510.924376,1110.308913,-3064.381992
3410.417663,-8068.244768,592.164754,-1915.238745
3410.418000,-8956.491898,-1332.370696,536.266849
3410.418337,-11473.192101,0.000000,1378.971896
3410.418675,-11843.295072,1332.370696,-919.314598
3410.419012,-11769.274478,444.123565,-3217.601092
3410.419349,-9992.780217,-1702.473667,-3600.648841
3410.419687,-7476.080014,-2368.659014,-766.095498
3410.420024,-9104.533087,-2590.720797,2298.286494
3410.420361,-9770.718434,-1480.411884,1149.143247
3410.420699,-11547.212695,0.000000,-612.876398
3410.421036,-11473.192101,-666.185348,-2451.505594
3410.421373,-9252.574275,-1850.514855,-1302.362347
3410.421710,-10066.800811,-2442.679609,2374.896044
3410.422048,-11399.171507,-1776.494261,3524.039291
3410.422385,-10140.821405,-444.123565,1302.362347
3410.422722,-10214.842000,-592.164754,612.876398
3410.423060,-7698.141797,-1036.288319,995.924147
3410.423397,-8438.347739,-518.144159,2068.457845
3410.423734,-11547.212695,1406.391290,3140.991542
3410.424072,-12435.459826,1332.370696,1455.581446
3410.424409,-12139.377449,1776.494261,76.609550
3410.424746,-10140.821405,0.000000,-995.924147
3410.425083,-9030.512492,-1332.370696,1225.752797
3410.425421,-9178.553681,-1480.411884,1838.629195
3410.425758,-7920.203579,444.123565,0.000000
3410.426095,-9252.574275,888.247130,-1302.362347
3410.426433,-9918.759623,-222.061783,-2911.162892
3410.426770,-9918.759623,-1628.453072,-1455.581446
3410.427107,-10288.862594,296.082377,1072.533697
3410.427445,-11621.233289,666.185348,1762.019645
3410.427782,-12065.356855,1258.350101,536.266849
3410.428119,-9178.553681,-148.041188,-1608.800546
3410.428456,-7698.141797,-2590.720797,306.438199
3410.428794,-9252.574275,-2146.597232,2757.943793
3410.429131,-9844.739029,-1110.308913,2374.896044
3410.429468,-11029.068536,0.000000,536.266849
3410.429806,-11325.150913,-296.082377,306.438199
3410.430143,-9474.636058,666.185348,-842.705048
3410.430480,-10066.800811,518.144159,919.314598
3410.430818,-10066.800811,444.123565,1532.190996
3410.431155,-10881.027347,740.205942,153.219100
3410.431492,-10658.965565,444.123565,-2068.457845
3410.431829,-8586.388927,-1850.514855,-1378.971896
3410.432167,-8586.388927,-2812.782580,919.314598
3410.432504,-9252.574275,-888.247130,1532.190996
3410.432841,-11399.171507,-518.144159,153.219100
3410.433179,-11177.109724,-222.061783,-2221.676944
3410.433516,-8364.327145,-1702.473667,-3064.381992
3410.433853,-9400.615463,-2072.576638,1072.533697
3410.434191,-9178.553681,-962.267725,383.047749
3410.434528,-9770.718434,-1258.350101,-459.657299
3410.434865,-10436.903782,-962.267725,-612.876398
3410.435202,-9548.656652,-1776.494261,-306.438199
3410.435540,-9770.718434,-1332.370696,766.095498
3410.435877,-9622.677246,-1036.288319,1608.800546
3410.436214,-9622.677246,0.000000,2068.457845
3410.436552,-11473.192101,740.205942,1685.410096
3410.436889,-11547.212695,1702.473667,1225.752797
3410.437226,-11029.068536,518.144159,1302.362347
3410.437564,-11473.192101,1480.411884,1149.143247
3410.437901,-10584.944971,1036.288319,459.657299
3410.438238,-10066.800811,1776.494261,1225.752797
3410.438575,-9326.594869,444.123565,1378.971896
3410.438913,-8882.471304,370.102971,306.438199
3410.439250,-10140.821405,740.205942,153.219100
3410.439587,-10658.965565,1110.308913,-1455.581446
3410.439925,-10807.006753,222.061783,-2145.067394
3410.440262,-9474.636058,-296.082377,-2298.286494
3410.440599,-7846.182985,-1554.432478,-919.314598
3410.440937,-8808.450710,-2220.617826,842.705048
3410.441274,-8660.409521,-1184.329507,536.266849
3410.441611,-10066.800811,-814.226536,0.000000
3410.441948,-10658.965565,-740.205942,612.876398
3410.442286,-10140.821405,-1998.556043,612.876398
3410.442623,-10658.965565,-1628.453072,2145.067394
3410.442960,-9918.759623,0.000000,1149.143247
3410.443298,-10288.862594,0.000000,-459.657299
3410.443635,-11621.233289,-1554.432478,-153.219100
3410.443972,-8734.430116,-1998.556043,-306.438199
3410.444310,-8734.430116,-740.205942,2298.286494
3410.444647,-11473.192101,444.123565,3370.820191
3410.444984,-11547.212695,1628.453072,0.000000
3410.445321,-12065.356855,-222.061783,-536.266849
3410.445659,-10288.862594,0.000000,766.095498
3410.445996,-9548.656652,-518.144159,1762.019645
3410.446333,-11103.089130,148.041188,2528.115143
3410.446671,-9770.718434,74.020594,-306.438199
3410.447008,-10288.862594,0.000000,-2298.286494
3410.447345,-9252.574275,-814.226536,-1915.238745
3410.447683,-8438.347739,-1850.514855,-76.609550
3410.448020,-9104.533087,-1406.391290,536.266849
3410.448357,-9178.553681,-740.205942,-306.438199
3410.448694,-10510.924376,222.061783,-383.047749
3410.449032,-11399.171507,222.061783,-306.438199
3410.449369,-9474.636058,-740.205942,1532.190996
3410.449706,-9844.739029,-1036.288319,3677.258390
3410.450044,-10140.821405,592.164754,2451.505594
3410.450381,-9400.615463,296.082377,1302.362347
3410.450718,-9992.780217,-148.041188,919.314598
3410.451056,-8882.471304,-444.123565,0.000000
3410.451393,-11399.171507,444.123565,766.095498
3410.451730,-11177.109724,1702.473667,-229.828649
3410.452067,-9992.780217,1110.308913,-306.438199
3410.452405,-9844.739029,1110.308913,-995.924147
3410.452742,-8660.409521,666.185348,-612.876398
3410.453079,-10214.842000,-296.082377,1149.143247
3410.453417,-11251.130318,814.226536,0.000000
3410.453754,-9918.759623,-296.082377,-2298.286494
3410.454091,-9918.759623,-962.267725,-1991.848295
3410.454429,-7698.141797,-1776.494261,-1225.752797
3410.454766,-7994.224174,-2664.741391,-306.438199
3410.455103,-9326.594869,-740.205942,0.000000
3410.455440,-11843.295072,-592.164754,-1532.190996
3410.455778,-12509.480420,-1480.411884,-1532.190996
3410.456115,-10362.883188,-1776.494261,-1608.800546
3410.456452,-9252.574275,-3034.844362,2298.286494
3410.456790,-8808.450710,-2146.597232,2604.724693
3410.457127,-8512.368333,-1258.350101,1455.581446
3410.457464,-10658.965565,-518.144159,229.828649
3410.457802,-9918.759623,-1184.329507,-306.438199
3410.458139,-10510.924376,-370.102971,1838.629195
3410.458476,-12213.398043,296.082377,2987.772442
3410.458813,-11621.233289,1332.370696,1838.629195
3410.459151,-11843.295072,962.267725,612.876398
3410.459488,-9770.718434,-1184.329507,306.438199
3410.459825,-7846.182985,74.020594,1608.800546
3410.460163,-9548.656652,814.226536,2145.067394
3410.460500,-10362.883188,1406.391290,229.828649
3410.460837,-11621.233289,666.185348,-1685.410096
3410.461175,-11547.212695,-666.185348,-2145.067394
3410.461512,-7846.182985,-592.164754,-919.314598
3410.461849,-7772.162391,-1924.535449,1455.581446
3410.462186,-8512.368333,444.123565,1072.533697
3410.462524,-9104.533087,-296.082377,-766.095498
3410.462861,-10881.027347,148.041188,-1302.362347
3410.463198,-9770.718434,-1258.350101,-459.657299
3410.463536,-10140.821405,-1332.370696,1915.238745
3410.463873,-10214.842000,-370.102971,1455.581446
3410.464210,-10140.821405,296.082377,0.000000
3410.464548,-9548.656652,-888.247130,536.266849
3410.464885,-8290.306550,-1258.350101,383.047749
3410.465222,-9992.780217,-1702.473667,3524.039291
3410.465559,-11547.212695,1332.370696,1378.971896
3410.465897,-11399.171507,740.205942,0.000000
3410.466234,-12287.418637,740.205942,-612.876398
3410.466571,-10066.800811,-148.041188,-689.485948
3410.466909,-9622.677246,-666.185348,612.876398
3410.467246,-9548.656652,-296.082377,306.438199
3410.467583,-9474.636058,-444.123565,-1762.019645
3410.467921,-10955.047942,-1554.432478,-1685.410096
3410.468258,-10436.903782,-1258.350101,-383.047749
3410.468595,-8512.368333,-1406.391290,-153.219100
3410.468932,-11029.068536,-2368.659014,383.047749
3410.469270,-10214.842000,-1258.350101,-1302.362347
3410.469607,-8364.327145,-2146.597232,-3294.210641
3410.469944,-7846.182985,-2294.638420,-842.705048
3410.470282,-7772.162391,-2590.720797,459.657299
3410.470619,-10436.903782,-1776.494261,1608.800546
3410.470956,-11547.212695,222.061783,536.266849
3410.471294,-11029.068536,-666.185348,0.000000
3410.471631,-10807.006753,444.123565,2604.724693
3410.471968,-10436.903782,-962.267725,3830.477490
3410.472305,-11029.068536,74.020594,4596.572988
3410.472643,-10066.800811,1406.391290,1915.238745
3410.472980,-10140.821405,2368.659014,-612.876398
3410.473317,-10436.903782,1332.370696,-1455.581446
3410.473655,-9252.574275,888.247130,-536.266849
3410.473992,-10288.862594,1998.556043,842.705048
3410.474329,-11917.315666,2812.782580,-306.438199
3410.474667,-11177.109724,3256.906145,-1991.848295
3410.475004,-10732.986159,1850.514855,-1762.019645
3410.475341,-9844.739029,-296.082377,-153.219100
3410.475678,-7105.977043,-740.205942,1762.019645
3410.476016,-9326.594869,-296.082377,2451.505594
3410.476353,-9844.739029,-1110.308913,919.314598
3410.476690,-9178.553681,-1332.370696,-1608.800546
