#time,accel_x,accel_y,accel_z
2916.759513,-8438.347739,-2146.597232,-3753.867940
2916.759851,-10140.821405,-1332.370696,-2911.162892
2916.760189,-10955.047942,-1258.350101,-2374.896044
2916.760527,-10732.986159,-888.247130,-1915.238745
2916.760865,-10362.883188,-1258.350101,-995.924147
2916.761203,-10362.883188,-1924.535449,229.828649
2916.761541,-9474.636058,-2516.700203,919.314598
2916.761878,-8586.388927,-2368.659014,1991.848295
2916.762216,-7476.080014,-1554.432478,1225.752797
2916.762554,-8660.409521,-296.082377,1838.629195
2916.762892,-10584.944971,1110.308913,306.438199
2916.763230,-11843.295072,2294.638420,-919.314598
2916.763568,-11621.233289,2738.761985,-1838.629195
2916.763906,-11029.068536,2368.659014,-2145.067394
2916.764243,-10584.944971,1850.514855,-1302.362347
2916.764581,-9696.697840,148.041188,-1608.800546
2916.764919,-9326.594869,-1258.350101,-1149.143247
2916.765257,-9548.656652,-1702.473667,-1532.190996
2916.765595,-9844.739029,-2146.597232,-766.095498
2916.765933,-10807.006753,-1776.494261,-1838.629195
2916.766271,-10807.006753,-1850.514855,-3064.381992
2916.766608,-10658.965565,-1776.494261,-3753.867940
2916.766946,-10214.842000,-2146.597232,-3907.087040
2916.767284,-10288.862594,-3034.844362,-4596.572988
2916.767622,-9548.656652,-4219.173869,-4443.353888
2916.767960,-8882.471304,-4959.379811,-3217.601092
2916.768298,-8216.285956,-4811.338623,-2528.115143
2916.768636,-8882.471304,-5329.482782,-1149.143247
2916.768973,-9474.636058,-4515.256246,-612.876398
2916.769311,-10436.903782,-3701.029710,-689.485948
2916.769649,-11325.150913,-3034.844362,-536.266849
2916.769987,-11695.253884,-3256.906145,-1915.238745
2916.770325,-10955.047942,-4071.132681,-3447.429741
2916.770663,-9918.759623,-4367.215058,-3600.648841
2916.771001,-8586.388927,-4959.379811,-2528.115143
2916.771338,-7698.141797,-3701.029710,-1762.019645
2916.771676,-8364.327145,-2590.720797,-1762.019645
2916.772014,-9992.780217,-1924.535449,-1762.019645
2916.772352,-11843.295072,-1184.329507,-3217.601092
2916.772690,-13101.645173,-1258.350101,-3600.648841
2916.773028,-12657.521608,-3108.864956,-3447.429741
2916.773366,-10066.800811,-4293.194464,-3217.601092
2916.773703,-9474.636058,-3997.112087,-1532.190996
2916.774041,-8512.368333,-4737.318029,-536.266849
2916.774379,-7994.224174,-3923.091493,-1225.752797
2916.774717,-9252.574275,-4663.297435,-1302.362347
2916.775055,-9918.759623,-2886.803174,-995.924147
2916.775393,-9992.780217,-2590.720797,153.219100
2916.775731,-10584.944971,-1184.329507,459.657299
2916.776069,-10510.924376,-518.144159,153.219100
2916.776406,-10881.027347,-2072.576638,-76.609550
2916.776744,-10510.924376,-3701.029710,0.000000
2916.777082,-9400.615463,-3552.988522,0.000000
2916.777420,-8882.471304,-3701.029710,76.609550
2916.777758,-7772.162391,-3478.967927,-919.314598
2916.778096,-8660.409521,-4145.153275,-2145.067394
2916.778434,-9918.759623,-2886.803174,-1991.848295
2916.778771,-9548.656652,-296.082377,-2451.505594
2916.779109,-9178.553681,-592.164754,-2834.553343
2916.779447,-10955.047942,-814.226536,-2374.896044
2916.779785,-13323.706956,-2368.659014,-1149.143247
2916.780123,-12435.459826,-1924.535449,-3294.210641
2916.780461,-9474.636058,-3256.906145,-2757.943793
2916.780799,-8956.491898,-4737.318029,-536.266849
2916.781136,-9400.615463,-5033.400406,-1915.238745
2916.781474,-9622.677246,-3404.947333,-3983.696590
2916.781813,-8882.471304,-3256.906145,-4290.134789
2916.782150,-10066.800811,-2664.741391,-2374.896044
2916.782488,-11769.274478,-666.185348,-2987.772442
2916.782826,-12583.501014,222.061783,-3447.429741
2916.783163,-10214.842000,74.020594,-1915.238745
2916.783501,-9030.512492,-592.164754,306.438199
2916.783838,-9770.718434,0.000000,1762.019645
2916.784176,-10288.862594,-962.267725,-229.828649
2916.784514,-9918.759623,-1628.453072,-383.047749
2916.784851,-9252.574275,-1184.329507,0.000000
2916.785189,-9252.574275,-518.144159,-919.314598
2916.785527,-9178.553681,1036.288319,-1225.752797
2916.785864,-9770.718434,1406.391290,-1455.581446
2916.786202,-9696.697840,1702.473667,-2911.162892
2916.786539,-10658.965565,1406.391290,-3447.429741
2916.786877,-9548.656652,814.226536,-2221.676944
2916.787215,-9104.533087,0.000000,-383.047749
2916.787552,-10066.800811,888.247130,-306.438199
2916.787890,-9326.594869,-518.144159,-1608.800546
2916.788228,-9252.574275,-888.247130,0.000000
2916.788565,-9326.594869,-2146.597232,1838.629195
2916.788903,-9770.718434,-1702.473667,842.705048
2916.789241,-11547.212695,-74.020594,689.485948
2916.789578,-11399.171507,0.000000,-689.485948
2916.789916,-10214.842000,-740.205942,-1225.752797
2916.790253,-9992.780217,-962.267725,-919.314598
2916.790591,-8956.491898,-962.267725,76.609550
2916.790929,-9178.553681,-370.102971,1072.533697
2916.791266,-10362.883188,-1258.350101,766.095498
2916.791604,-11029.068536,-1924.535449,383.047749
2916.791942,-10658.965565,-1702.473667,612.876398
2916.792279,-10436.903782,-2294.638420,1685.410096
2916.792617,-10436.903782,-1554.432478,1532.190996
2916.792955,-9992.780217,-1628.453072,-689.485948
2916.793292,-9400.615463,-1628.453072,-1302.362347
2916.793630,-8808.450710,-2294.638420,-383.047749
2916.793967,-9770.718434,-2590.720797,-689.485948
2916.794305,-10436.903782,-2368.659014,-1838.629195
2916.794643,-10140.821405,-2960.823768,-1685.410096
2916.794980,-8956.491898,-2146.597232,-1762.019645
2916.795318,-8364.327145,-2590.720797,76.609550
2916.795656,-10732.986159,-2516.700203,1685.410096
2916.795993,-11103.089130,-3034.844362,306.438199
2916.796331,-11029.068536,-2072.576638,1225.752797
2916.796668,-10214.842000,-888.247130,689.485948
2916.797006,-9696.697840,0.000000,153.219100
2916.797344,-10214.842000,0.000000,1072.533697
2916.797681,-10362.883188,0.000000,766.095498
2916.798019,-10066.800811,-74.020594,1149.143247
2916.798357,-10881.027347,666.185348,1302.362347
2916.798694,-9992.780217,592.164754,919.314598
2916.799032,-10807.006753,74.020594,842.705048
2916.799370,-9622.677246,370.102971,-306.438199
2916.799707,-9030.512492,0.000000,229.828649
2916.800045,-9400.615463,518.144159,459.657299
2916.800382,-8216.285956,222.061783,-919.314598
2916.800720,-9622.677246,-148.041188,-1302.362347
2916.801058,-10140.821405,814.226536,-2145.067394
2916.801395,-9844.739029,0.000000,-1225.752797
2916.801733,-11177.109724,-148.041188,-383.047749
2916.802071,-8956.491898,-1332.370696,-612.876398
2916.802408,-9178.553681,-1850.514855,-383.047749
2916.802746,-9770.718434,-1924.535449,-229.828649
2916.803083,-9326.594869,-3552.988522,-612.876398
2916.803421,-11103.089130,-2590.720797,383.047749
2916.803759,-9548.656652,-1776.494261,0.000000
2916.804096,-10140.821405,-888.247130,1225.752797
2916.804434,-11029.068536,518.144159,1072.533697
2916.804772,-10510.924376,-592.164754,459.657299
2916.805109,-11695.253884,740.205942,1225.752797
2916.805447,-11325.150913,222.061783,536.266849
2916.805785,-10436.903782,74.020594,1455.581446
2916.806122,-11325.150913,222.061783,536.266849
2916.806460,-10214.842000,-1776.494261,459.657299
2916.806797,-10140.821405,-666.185348,0.000000
2916.807135,-8438.347739,-666.185348,0.000000
2916.807473,-8882.471304,-592.164754,919.314598
2916.807810,-10140.821405,592.164754,229.828649
2916.808148,-10140.821405,1406.391290,-995.924147
2916.808486,-11325.150913,888.247130,229.828649
2916.808823,-10288.862594,1258.350101,0.000000
2916.809161,-9474.636058,148.041188,383.047749
2916.809498,-10807.006753,-592.164754,536.266849
2916.809836,-8956.491898,-888.247130,306.438199
2916.810174,-9844.739029,-2590.720797,1532.190996
2916.810511,-8364.327145,-1332.370696,1991.848295
2916.810849,-7846.182985,-592.164754,2145.067394
2916.811187,-10658.965565,666.185348,2681.334243
2916.811524,-9474.636058,2072.576638,153.219100
2916.811862,-10362.883188,2220.617826,1608.800546
2916.812200,-11473.192101,3923.091493,1915.238745
2916.812537,-10658.965565,2812.782580,689.485948
2916.812875,-12583.501014,2368.659014,689.485948
2916.813212,-10436.903782,-148.041188,-842.705048
2916.813550,-9548.656652,-1924.535449,995.924147
2916.813888,-9030.512492,-1184.329507,1608.800546
2916.814225,-7402.059420,-1184.329507,0.000000
2916.814563,-9696.697840,-1332.370696,459.657299
2916.814901,-9474.636058,296.082377,-2987.772442
2916.815238,-9548.656652,-222.061783,-1378.971896
2916.815576,-11917.315666,1628.453072,-1149.143247
2916.815914,-10214.842000,0.000000,-2298.286494
2916.816251,-11547.212695,-1702.473667,-1838.629195
2916.816589,-10288.862594,-3034.844362,-1455.581446
2916.816926,-8438.347739,-4885.359217,-306.438199
2916.817264,-9474.636058,-5329.482782,2221.676944
2916.817602,-7994.224174,-4737.318029,153.219100
2916.817939,-9400.615463,-4293.194464,842.705048
2916.818277,-11399.171507,-2072.576638,842.705048
2916.818615,-9474.636058,-518.144159,-306.438199
2916.818952,-12361.439231,1184.329507,1455.581446
2916.819290,-11325.150913,2442.679609,919.314598
2916.819627,-11029.068536,592.164754,153.219100
2916.819965,-12065.356855,592.164754,1072.533697
2916.820303,-9992.780217,-1776.494261,919.314598
2916.820640,-10584.944971,-1924.535449,2221.676944
2916.820978,-9104.533087,-888.247130,766.095498
2916.821316,-8290.306550,-1850.514855,536.266849
2916.821653,-9474.636058,592.164754,459.657299
2916.821991,-8660.409521,518.144159,0.000000
2916.822329,-10732.986159,2294.638420,536.266849
2916.822666,-10881.027347,3034.844362,-919.314598
2916.823004,-11621.233289,1776.494261,-1072.533697
2916.823341,-11769.274478,74.020594,-1685.410096
2916.823679,-8142.265362,-2146.597232,-1378.971896
2916.824017,-7994.224174,-2590.720797,1915.238745
2916.824354,-7476.080014,-3404.947333,1915.238745
2916.824692,-7254.018232,-3552.988522,1838.629195
2916.825030,-10140.821405,-1628.453072,1685.410096
2916.825367,-10140.821405,-370.102971,76.609550
2916.825705,-10881.027347,1406.391290,766.095498
2916.826042,-11177.109724,2812.782580,-153.219100
2916.826380,-10584.944971,1776.494261,842.705048
2916.826718,-11251.130318,1480.411884,995.924147
2916.827055,-10436.903782,-666.185348,0.000000
2916.827393,-10658.965565,-2220.617826,995.924147
2916.827731,-10436.903782,-2146.597232,1149.143247
2916.828068,-7994.224174,-2960.823768,689.485948
2916.828406,-9326.594869,-2368.659014,153.219100
2916.828744,-8882.471304,-740.205942,-1378.971896
2916.829081,-9770.718434,-444.123565,-919.314598
2916.829419,-11917.315666,1998.556043,-1149.143247
2916.829756,-10584.944971,1850.514855,-2451.505594
2916.830094,-13323.706956,296.082377,-612.876398
2916.830432,-10732.986159,-740.205942,-2145.067394
2916.830769,-8734.430116,-3849.070898,76.609550
2916.831107,-9474.636058,-3404.947333,2834.553343
2916.831445,-7476.080014,-4219.173869,2068.457845
2916.831782,-9474.636058,-2738.761985,2528.115143
2916.832120,-9918.759623,-1850.514855,1149.143247
2916.832458,-9622.677246,296.082377,919.314598
2916.832795,-12361.439231,3627.009116,612.876398
2916.833133,-10955.047942,4293.194464,0.000000
2916.833470,-11177.109724,3478.967927,-459.657299
2916.833808,-11251.130318,2960.823768,-459.657299
2916.834146,-9622.677246,1110.308913,459.657299
2916.834483,-10732.986159,-518.144159,1838.629195
2916.834821,-8216.285956,-1184.329507,1608.800546
2916.835159,-7624.121203,-740.205942,2451.505594
2916.835496,-9178.553681,-222.061783,1762.019645
2916.835834,-7994.224174,1110.308913,995.924147
2916.836171,-11399.171507,2960.823768,919.314598
2916.836509,-11325.150913,4737.318029,-1302.362347
2916.836847,-11843.295072,2960.823768,-2911.162892
2916.837184,-11991.336260,1184.329507,-3677.258390
2916.837522,-8216.285956,-1998.556043,-3524.039291
2916.837860,-8364.327145,-4071.132681,919.314598
2916.838197,-7476.080014,-3775.050304,1915.238745
2916.838535,-7846.182985,-4811.338623,1072.533697
2916.838873,-10732.986159,-3923.091493,842.705048
2916.839210,-9326.594869,-3034.844362,0.000000
2916.839548,-11695.253884,-148.041188,2374.896044
2916.839885,-12361.439231,2886.803174,1608.800546
2916.840223,-11843.295072,1924.535449,-536.266849
2916.840561,-13767.830521,1184.329507,153.219100
2916.840898,-10881.027347,-1110.308913,0.000000
2916.841236,-9474.636058,-2516.700203,2221.676944
2916.841574,-9548.656652,-2886.803174,2298.286494
2916.841911,-8808.450710,-3775.050304,1378.971896
2916.842249,-9474.636058,-2664.741391,229.828649
2916.842586,-8882.471304,-1554.432478,-1225.752797
2916.842924,-9548.656652,296.082377,-153.219100
2916.843262,-11473.192101,3108.864956,-612.876398
2916.843599,-10584.944971,3404.947333,-2221.676944
2916.843937,-12657.521608,1702.473667,-1608.800546
2916.844275,-10510.924376,0.000000,-1915.238745
2916.844612,-8808.450710,-2368.659014,383.047749
2916.844950,-8364.327145,-2664.741391,2068.457845
2916.845288,-7254.018232,-3330.926739,1608.800546
2916.845625,-8660.409521,-3775.050304,1455.581446
2916.845963,-8512.368333,-2368.659014,383.047749
2916.846300,-8364.327145,-740.205942,1685.410096
2916.846638,-10584.944971,3404.947333,1915.238745
2916.846976,-10658.965565,5107.421000,-76.609550
2916.847313,-13027.624579,4367.215058,-229.828649
2916.847651,-11843.295072,3404.947333,-1762.019645
2916.847989,-9992.780217,444.123565,306.438199
2916.848326,-9770.718434,74.020594,2451.505594
2916.848664,-7994.224174,-1554.432478,1608.800546
2916.849002,-9178.553681,-2368.659014,2068.457845
2916.849339,-9474.636058,-1480.411884,459.657299
2916.849677,-8882.471304,-74.020594,0.000000
2916.850014,-11621.233289,1998.556043,1302.362347
2916.850352,-11103.089130,3701.029710,-1532.190996
2916.850690,-12213.398043,2960.823768,-1838.629195
2916.851027,-12213.398043,1184.329507,-3600.648841
2916.851365,-9178.553681,-1480.411884,-2528.115143
2916.851703,-9326.594869,-2886.803174,536.266849
2916.852040,-7994.224174,-3849.070898,1149.143247
2916.852378,-7550.100608,-4811.338623,229.828649
2916.852715,-9696.697840,-4885.359217,229.828649
2916.853053,-9104.533087,-3552.988522,1455.581446
2916.853391,-10807.006753,-1258.350101,2221.676944
2916.853728,-11029.068536,2220.617826,229.828649
2916.854066,-11029.068536,2072.576638,-306.438199
2916.854404,-13175.665768,2146.597232,0.000000
2916.854741,-11177.109724,-370.102971,0.000000
2916.855079,-10732.986159,-592.164754,2374.896044
2916.855417,-9474.636058,-962.267725,2451.505594
2916.855754,-9252.574275,-1258.350101,2068.457845
2916.856092,-10658.965565,-1406.391290,1532.190996
2916.856429,-8438.347739,-370.102971,229.828649
2916.856767,-9104.533087,740.205942,2911.162892
2916.857105,-10584.944971,4219.173869,1149.143247
2916.857442,-11325.150913,4219.173869,-689.485948
2916.857780,-13101.645173,4515.256246,-1838.629195
2916.858118,-10807.006753,2664.741391,-4443.353888
2916.858455,-10288.862594,296.082377,-1685.410096
2916.858793,-8808.450710,-148.041188,0.000000
2916.859130,-6439.791695,-2590.720797,306.438199
2916.859468,-8216.285956,-2516.700203,1838.629195
2916.859806,-8142.265362,-2368.659014,536.266849
2916.860143,-8882.471304,-444.123565,2068.457845
2916.860481,-11325.150913,2146.597232,2145.067394
2916.860819,-10807.006753,3256.906145,-459.657299
2916.861156,-11843.295072,3775.050304,-689.485948
2916.861494,-11325.150913,2072.576638,-1302.362347
2916.861832,-9622.677246,74.020594,76.609550
2916.862169,-9918.759623,-1554.432478,842.705048
2916.862507,-7031.956449,-1924.535449,612.876398
2916.862844,-9622.677246,-3404.947333,2221.676944
2916.863182,-9844.739029,-3404.947333,1532.190996
2916.863520,-8882.471304,-2590.720797,459.657299
2916.863857,-11177.109724,518.144159,612.876398
2916.864195,-9918.759623,2368.659014,-1991.848295
2916.864533,-11917.315666,2146.597232,-1991.848295
2916.864870,-12879.583391,1184.329507,-2757.943793
2916.865208,-10436.903782,-444.123565,-3294.210641
2916.865546,-11473.192101,-2738.761985,-766.095498
2916.865883,-8586.388927,-3997.112087,-306.438199
2916.866221,-7994.224174,-5477.523971,842.705048
2916.866558,-9622.677246,-5107.421000,2451.505594
2916.866896,-8068.244768,-4367.215058,1378.971896
2916.867234,-9918.759623,-1554.432478,2221.676944
2916.867571,-10955.047942,1480.411884,459.657299
2916.867909,-10807.006753,2368.659014,-383.047749
2916.868247,-12287.418637,3552.988522,229.828649
2916.868584,-11103.089130,1184.329507,689.485948
2916.868922,-10288.862594,592.164754,1378.971896
2916.869259,-8734.430116,296.082377,2221.676944
2916.869597,-9104.533087,-888.247130,2604.724693
2916.869935,-10362.883188,-1554.432478,2451.505594
2916.870272,-8068.244768,-1110.308913,1149.143247
2916.870610,-8216.285956,666.185348,2451.505594
2916.870948,-9326.594869,2960.823768,1762.019645
2916.871285,-9844.739029,5329.482782,-383.047749
2916.871623,-13397.727550,5107.421000,-1915.238745
2916.871961,-12139.377449,4219.173869,-4443.353888
2916.872298,-10584.944971,962.267725,-2911.162892
2916.872636,-9696.697840,-222.061783,-153.219100
2916.872973,-6513.812290,-3108.864956,689.485948
2916.873311,-8438.347739,-4293.194464,1838.629195
2916.873649,-7476.080014,-3997.112087,766.095498
2916.873986,-8586.388927,-3108.864956,1302.362347
2916.874324,-11103.089130,814.226536,1378.971896
2916.874662,-10881.027347,1850.514855,-306.438199
2916.874999,-12583.501014,3034.844362,-1378.971896
2916.875337,-11917.315666,2368.659014,-2374.896044
2916.875674,-11325.150913,444.123565,0.000000
2916.876012,-11177.109724,-1258.350101,536.266849
2916.876350,-8660.409521,-2516.700203,536.266849
2916.876687,-9474.636058,-4071.132681,2298.286494
2916.877025,-9696.697840,-3849.070898,2145.067394
2916.877363,-8660.409521,-3478.967927,2911.162892
2916.877700,-10658.965565,-296.082377,1762.019645
2916.878038,-9474.636058,1924.535449,-995.924147
2916.878376,-11769.274478,3256.906145,-1762.019645
2916.878713,-12435.459826,2812.782580,-1762.019645
2916.879051,-10881.027347,666.185348,-2221.676944
2916.879388,-10732.986159,-370.102971,-76.609550
2916.879726,-9030.512492,-1850.514855,-1455.581446
2916.880063,-8364.327145,-3849.070898,229.828649
2916.880401,-9104.533087,-4737.318029,1838.629195
2916.880738,-6291.750507,-4219.173869,2068.457845
2916.881076,-9104.533087,-1554.432478,3600.648841
2916.881413,-9326.594869,1850.514855,1072.533697
2916.881750,-11621.233289,3552.988522,689.485948
2916.882088,-13915.871710,4367.215058,306.438199
2916.882425,-11547.212695,3775.050304,-919.314598
2916.882763,-11843.295072,2146.597232,1225.752797
2916.883100,-9770.718434,1110.308913,1991.848295
2916.883438,-7920.203579,-1998.556043,1915.238745
2916.883775,-9104.533087,-2664.741391,3064.381992
2916.884113,-7920.203579,-2664.741391,2987.772442
2916.884450,-9474.636058,-888.247130,3064.381992
2916.884787,-10214.842000,1480.411884,1225.752797
2916.885125,-9770.718434,4367.215058,-1149.143247
2916.885462,-13175.665768,4515.256246,-1302.362347
2916.885800,-11547.212695,3701.029710,-3140.991542
2916.886137,-10658.965565,1332.370696,-3217.601092
2916.886475,-10732.986159,-592.164754,-842.705048
2916.886812,-8290.306550,-2590.720797,-1455.581446
2916.887149,-8660.409521,-4811.338623,76.609550
2916.887487,-7698.141797,-6069.688724,383.047749
2916.887824,-7624.121203,-5625.565159,2145.067394
2916.888162,-9548.656652,-2590.720797,2451.505594
2916.888499,-9918.759623,0.000000,536.266849
2916.888837,-12509.480420,2220.617826,-612.876398
2916.889174,-12583.501014,2294.638420,-2221.676944
2916.889511,-11769.274478,1332.370696,-1225.752797
2916.889849,-11177.109724,370.102971,459.657299
2916.890186,-8734.430116,-1776.494261,383.047749
2916.890524,-9252.574275,-3330.926739,1838.629195
2916.890861,-9252.574275,-3552.988522,2068.457845
2916.891199,-9252.574275,-2812.782580,2604.724693
2916.891536,-9474.636058,-370.102971,1532.190996
2916.891874,-8956.491898,1776.494261,-306.438199
2916.892211,-11251.130318,3997.112087,76.609550
2916.892548,-11695.253884,4959.379811,-1608.800546
2916.892886,-11695.253884,3701.029710,-2221.676944
2916.893223,-12435.459826,2590.720797,-1991.848295
2916.893561,-9400.615463,592.164754,-2374.896044
2916.893898,-9400.615463,-1480.411884,-383.047749
2916.894236,-8142.265362,-2960.823768,459.657299
2916.894573,-6217.729913,-5033.400406,2145.067394
2916.894910,-7698.141797,-2664.741391,3830.477490
2916.895248,-8734.430116,222.061783,3677.258390
2916.895585,-11251.130318,3108.864956,1532.190996
2916.895923,-13249.686362,4071.132681,-1532.190996
2916.896260,-12287.418637,4071.132681,-1762.019645
2916.896598,-12139.377449,2442.679609,-459.657299
2916.896935,-9696.697840,1406.391290,76.609550
2916.897273,-8438.347739,-2146.597232,919.314598
2916.897610,-8734.430116,-3404.947333,1685.410096
2916.897947,-7254.018232,-3997.112087,2145.067394
2916.898285,-9548.656652,-3256.906145,3907.087040
2916.898622,-9548.656652,-962.267725,2145.067394
2916.898960,-10362.883188,1036.288319,536.266849
2916.899297,-12361.439231,3552.988522,-842.705048
2916.899635,-10658.965565,3034.844362,-3217.601092
2916.899972,-12139.377449,2146.597232,-1991.848295
2916.900309,-11547.212695,222.061783,-2911.162892
2916.900647,-9252.574275,-2220.617826,-1762.019645
2916.900984,-9770.718434,-4367.215058,229.828649
2916.901322,-7920.203579,-5625.565159,76.609550
2916.901659,-8142.265362,-5181.441594,2528.115143
2916.901997,-9474.636058,-3478.967927,2911.162892
2916.902334,-9400.615463,-370.102971,766.095498
2916.902671,-11843.295072,1702.473667,0.000000
2916.903009,-11843.295072,3034.844362,-1762.019645
2916.903346,-11843.295072,1406.391290,-612.876398
2916.903684,-11325.150913,1110.308913,536.266849
2916.904021,-8956.491898,-296.082377,459.657299
2916.904359,-9844.739029,-1184.329507,2374.896044
2916.904696,-8364.327145,-2738.761985,2145.067394
2916.905034,-7846.182985,-2886.803174,2911.162892
2916.905371,-9400.615463,-814.226536,3447.429741
2916.905708,-8216.285956,888.247130,766.095498
2916.906046,-10658.965565,2072.576638,0.000000
2916.906383,-11325.150913,3849.070898,-1915.238745
2916.906721,-11399.171507,4293.194464,-2221.676944
2916.907058,-12435.459826,3256.906145,-3294.210641
2916.907396,-9548.656652,1702.473667,-3983.696590
2916.907733,-9622.677246,-1554.432478,-919.314598
2916.908070,-8808.450710,-3849.070898,0.000000
2916.908408,-6883.915261,-5329.482782,1149.143247
2916.908745,-8586.388927,-3849.070898,2911.162892
2916.909083,-8586.388927,-2072.576638,1991.848295
2916.909420,-10732.986159,296.082377,1149.143247
2916.909758,-12657.521608,2442.679609,-1532.190996
2916.910095,-11769.274478,1924.535449,-2221.676944
2916.910432,-12065.356855,1332.370696,-1378.971896
2916.910770,-10510.924376,444.123565,-842.705048
2916.911107,-9844.739029,-1554.432478,689.485948
2916.911445,-9474.636058,-3627.009116,1072.533697
2916.911782,-7920.203579,-4071.132681,2068.457845
2916.912120,-10140.821405,-3997.112087,5286.058936
2916.912457,-9770.718434,-1702.473667,2911.162892
2916.912795,-10658.965565,0.000000,689.485948
2916.913132,-12361.439231,1702.473667,-612.876398
2916.913469,-9918.759623,2442.679609,-1838.629195
2916.913807,-11251.130318,2294.638420,0.000000
2916.914144,-10955.047942,1776.494261,-1302.362347
2916.914482,-9252.574275,-962.267725,-2987.772442
2916.914819,-10140.821405,-2960.823768,-1455.581446
2916.915157,-7994.224174,-3552.988522,229.828649
2916.915494,-8438.347739,-4589.276840,3064.381992
2916.915831,-8068.244768,-2886.803174,3064.381992
2916.916169,-8586.388927,-814.226536,1225.752797
2916.916506,-11843.295072,1554.432478,1149.143247
2916.916844,-10732.986159,2516.700203,-536.266849
2916.917181,-11695.253884,2738.761985,459.657299
2916.917519,-11991.336260,3478.967927,306.438199
2916.917856,-10066.800811,1924.535449,0.000000
2916.918193,-10732.986159,-370.102971,383.047749
2916.918531,-8512.368333,-1554.432478,1378.971896
2916.918868,-7994.224174,-2368.659014,3753.867940
2916.919206,-8734.430116,-1480.411884,3830.477490
2916.919543,-9030.512492,222.061783,1762.019645
2916.919881,-12139.377449,2516.700203,612.876398
2916.920218,-11695.253884,3182.885551,-2145.067394
2916.920556,-10807.006753,3182.885551,-1302.362347
2916.920893,-10881.027347,2368.659014,-2221.676944
2916.921230,-8808.450710,444.123565,-2911.162892
2916.921568,-9992.780217,-1702.473667,-1685.410096
2916.921905,-9474.636058,-3552.988522,-995.924147
2916.922243,-7624.121203,-4219.173869,-459.657299
2916.922580,-8956.491898,-3552.988522,536.266849
2916.922918,-8808.450710,-2368.659014,612.876398
2916.923255,-10658.965565,-1850.514855,306.438199
2916.923592,-11399.171507,592.164754,-383.047749
2916.923930,-11177.109724,888.247130,-766.095498
2916.924267,-12805.562797,1110.308913,306.438199
2916.924605,-10584.944971,370.102971,-1302.362347
2916.924942,-10510.924376,-1924.535449,842.705048
2916.925280,-10436.903782,-2294.638420,1225.752797
2916.925617,-7846.182985,-3849.070898,1455.581446
2916.925954,-10066.800811,-2442.679609,3677.258390
2916.926292,-9104.533087,-1184.329507,1608.800546
2916.926629,-10732.986159,518.144159,1455.581446
2916.926967,-12139.377449,2442.679609,-153.219100
2916.927304,-10214.842000,2442.679609,-766.095498
2916.927642,-11695.253884,2368.659014,0.000000
2916.927979,-10362.883188,1998.556043,-1991.848295
2916.928317,-8882.471304,0.000000,-1532.190996
2916.928654,-9622.677246,-2146.597232,153.219100
2916.928991,-7698.141797,-3478.967927,153.219100
2916.929329,-8512.368333,-3701.029710,1685.410096
2916.929666,-8290.306550,-1850.514855,1608.800546
2916.930004,-8660.409521,-1554.432478,1225.752797
2916.930341,-11325.150913,-74.020594,1378.971896
2916.930679,-9918.759623,1110.308913,153.219100
2916.931016,-11399.171507,1924.535449,0.000000
2916.931353,-11695.253884,2072.576638,-689.485948
2916.931691,-10584.944971,222.061783,-919.314598
2916.932028,-11843.295072,-1554.432478,306.438199
2916.932366,-8956.491898,-2368.659014,229.828649
2916.932703,-8290.306550,-3478.967927,2451.505594
2916.933041,-9622.677246,-1998.556043,3140.991542
2916.933378,-9326.594869,-1628.453072,1225.752797
2916.933715,-12361.439231,518.144159,995.924147
2916.934053,-11621.233289,1554.432478,-1532.190996
2916.934390,-11029.068536,1628.453072,-1225.752797
2916.934728,-11251.130318,1924.535449,-1302.362347
2916.935065,-8660.409521,740.205942,-2451.505594
2916.935403,-9696.697840,-1628.453072,-1225.752797
2916.935740,-9844.739029,-2812.782580,-1991.848295
2916.936078,-8364.327145,-3997.112087,-766.095498
2916.936415,-9844.739029,-3182.885551,459.657299
2916.936752,-8142.265362,-3478.967927,0.000000
2916.937090,-9252.574275,-2368.659014,0.000000
2916.937427,-9992.780217,-1332.370696,76.609550
2916.937765,-9252.574275,148.041188,536.266849
2916.938102,-11029.068536,1406.391290,0.000000
2916.938440,-10732.986159,1776.494261,-689.485948
2916.938777,-11695.253884,-222.061783,0.000000
2916.939114,-10658.965565,-814.226536,459.657299
2916.939452,-8660.409521,-888.247130,2374.896044
2916.939789,-10066.800811,-1480.411884,3447.429741
2916.940127,-8586.388927,-296.082377,2528.115143
2916.940464,-9844.739029,222.061783,1991.848295
2916.940802,-10955.047942,2368.659014,459.657299
2916.941139,-9992.780217,3182.885551,76.609550
2916.941477,-11695.253884,3034.844362,306.438199
2916.941814,-10658.965565,3627.009116,-2068.457845
2916.942151,-10436.903782,1184.329507,-2145.067394
2916.942489,-10732.986159,1184.329507,-1225.752797
2916.942826,-8586.388927,-1480.411884,-995.924147
2916.943164,-8882.471304,-1850.514855,1455.581446
2916.943501,-8216.285956,-1702.473667,229.828649
2916.943839,-9252.574275,-1850.514855,995.924147
2916.944176,-10584.944971,-666.185348,536.266849
2916.944513,-9252.574275,-222.061783,-689.485948
2916.944851,-11399.171507,666.185348,995.924147
2916.945188,-10214.842000,2146.597232,-1608.800546
2916.945526,-10658.965565,-370.102971,-306.438199
2916.945863,-11399.171507,-666.185348,459.657299
2916.946201,-9104.533087,-1480.411884,689.485948
2916.946538,-10066.800811,-2146.597232,2911.162892
2916.946875,-9844.739029,-1924.535449,1455.581446
2916.947213,-9400.615463,-2220.617826,2298.286494
2916.947550,-11547.212695,-962.267725,2145.067394
2916.947888,-9622.677246,222.061783,229.828649
2916.948225,-11103.089130,1628.453072,-306.438199
2916.948563,-11843.295072,2368.659014,-1455.581446
2916.948900,-9400.615463,1554.432478,-3140.991542
2916.949238,-11029.068536,-888.247130,-1532.190996
2916.949575,-9326.594869,-1036.288319,-1455.581446
2916.949912,-7994.224174,-2590.720797,0.000000
2916.950250,-10288.862594,-2368.659014,1302.362347
2916.950587,-8586.388927,-2664.741391,-153.219100
2916.950925,-10140.821405,-2664.741391,612.876398
2916.951262,-9696.697840,-1332.370696,766.095498
2916.951600,-9474.636058,-1036.288319,919.314598
2916.951937,-11325.150913,1036.288319,842.705048
2916.952274,-9844.739029,370.102971,-1455.581446
2916.952612,-10955.047942,0.000000,76.609550
2916.952949,-9918.759623,-592.164754,0.000000
2916.953287,-8956.491898,-1554.432478,1915.238745
2916.953624,-10510.924376,-814.226536,2681.334243
2916.953962,-8512.368333,-666.185348,2068.457845
2916.954299,-10881.027347,0.000000,2681.334243
2916.954636,-11547.212695,-370.102971,1608.800546
2916.954974,-9770.718434,666.185348,-383.047749
2916.955311,-11547.212695,1924.535449,-689.485948
2916.955649,-9770.718434,1628.453072,-1838.629195
2916.955986,-9252.574275,-296.082377,-2374.896044
2916.956324,-9400.615463,-444.123565,-2068.457845
2916.956661,-7994.224174,-2294.638420,-1532.190996
2916.956999,-10214.842000,-1998.556043,0.000000
2916.957336,-9770.718434,-1850.514855,76.609550
2916.957673,-10214.842000,-2220.617826,306.438199
2916.958011,-11177.109724,-2516.700203,459.657299
2916.958348,-10066.800811,-2146.597232,689.485948
2916.958686,-11325.150913,-1332.370696,1149.143247
2916.959023,-10584.944971,0.000000,-766.095498
2916.959361,-9918.759623,-148.041188,-689.485948
2916.959698,-11473.192101,-296.082377,-1302.362347
2916.960035,-9474.636058,-666.185348,-536.266849
2916.960373,-10955.047942,-1554.432478,1838.629195
2916.960710,-10584.944971,0.000000,1991.848295
2916.961048,-9622.677246,-962.267725,1762.019645
2916.961385,-11769.274478,148.041188,2681.334243
2916.961723,-9548.656652,222.061783,842.705048
2916.962060,-10881.027347,1406.391290,1991.848295
2916.962397,-10881.027347,2812.782580,-536.266849
2916.962735,-9104.533087,1406.391290,-1149.143247
2916.963072,-10584.944971,1480.411884,-229.828649
2916.963410,-8068.244768,740.205942,-1762.019645
2916.963747,-8586.388927,592.164754,-229.828649
2916.964085,-9918.759623,74.020594,-229.828649
2916.964422,-8364.327145,-444.123565,-612.876398
2916.964760,-9622.677246,-1776.494261,153.219100
2916.965097,-8438.347739,-962.267725,76.609550
2916.965434,-8956.491898,-1258.350101,1685.410096
2916.965772,-10584.944971,814.226536,536.266849
2916.966109,-8586.388927,814.226536,-842.705048
2916.966447,-11103.089130,888.247130,612.876398
2916.966784,-10214.842000,1332.370696,0.000000
2916.967122,-10807.006753,0.000000,1149.143247
2916.967459,-12139.377449,0.000000,1991.848295
2916.967796,-10362.883188,888.247130,1838.629195
2916.968134,-11769.274478,-222.061783,1991.848295
2916.968471,-11103.089130,-222.061783,766.095498
2916.968809,-9178.553681,-962.267725,459.657299
2916.969146,-11029.068536,-592.164754,1608.800546
2916.969484,-9178.553681,1110.308913,-459.657299
2916.969821,-10658.965565,148.041188,0.000000
2916.970158,-11177.109724,518.144159,-1072.533697
2916.970496,-9252.574275,-592.164754,-1302.362347
2916.970833,-11029.068536,222.061783,536.266849
2916.971171,-9178.553681,-222.061783,-689.485948
2916.971508,-9770.718434,-1924.535449,-536.266849
2916.971846,-10140.821405,-2368.659014,-842.705048
2916.972183,-8808.450710,-3849.070898,0.000000
2916.972521,-9770.718434,-2886.803174,1072.533697
2916.972858,-8586.388927,-1628.453072,-306.438199
2916.973195,-8512.368333,-592.164754,229.828649
2916.973533,-10732.986159,0.000000,-76.609550
2916.973870,-9104.533087,592.164754,-76.609550
2916.974208,-11473.192101,518.144159,2604.724693
2916.974545,-10955.047942,1110.308913,2068.457845
2916.974883,-11177.109724,1258.350101,2145.067394
2916.975220,-12657.521608,814.226536,1991.848295
2916.975557,-9622.677246,148.041188,1302.362347
2916.975895,-9696.697840,-740.205942,2298.286494
2916.976232,-9474.636058,814.226536,995.924147
2916.976570,-8290.306550,1258.350101,229.828649
2916.976907,-11029.068536,2220.617826,-919.314598
2916.977245,-9474.636058,2146.597232,-2528.115143
2916.977582,-9844.739029,1406.391290,-1608.800546
2916.977919,-10140.821405,2072.576638,-1378.971896
2916.978257,-9326.594869,222.061783,-1915.238745
2916.978594,-10584.944971,-888.247130,-306.438199
2916.978932,-9030.512492,-2960.823768,-383.047749
2916.979269,-8882.471304,-4145.153275,2068.457845
2916.979607,-9400.615463,-3256.906145,1532.190996
2916.979944,-8364.327145,-3330.926739,842.705048
2916.980282,-10584.944971,-2368.659014,995.924147
2916.980619,-9400.615463,-1702.473667,-1225.752797
2916.980956,-9918.759623,-1480.411884,842.705048
2916.981294,-11177.109724,0.000000,536.266849
2916.981631,-9844.739029,296.082377,153.219100
2916.981969,-11991.336260,-296.082377,689.485948
2916.982306,-11399.171507,-1480.411884,-229.828649
2916.982644,-10510.924376,-2516.700203,1532.190996
2916.982981,-10807.006753,-2294.638420,1991.848295
2916.983318,-8660.409521,-1702.473667,612.876398
2916.983656,-9992.780217,-370.102971,-153.219100
2916.983993,-10362.883188,296.082377,-1149.143247
2916.984331,-9474.636058,592.164754,-995.924147
2916.984668,-11029.068536,666.185348,0.000000
2916.985006,-10288.862594,1998.556043,-536.266849
2916.985343,-11547.212695,444.123565,0.000000
2916.985681,-10955.047942,0.000000,-612.876398
2916.986018,-9030.512492,-1924.535449,-689.485948
2916.986355,-9844.739029,-2072.576638,1608.800546
2916.986693,-7624.121203,-1184.329507,919.314598
2916.987030,-8364.327145,-1406.391290,1455.581446
2916.987368,-9252.574275,370.102971,383.047749
2916.987705,-8586.388927,888.247130,0.000000
2916.988043,-11473.192101,2146.597232,1838.629195
2916.988380,-10584.944971,3552.988522,689.485948
2916.988718,-11325.150913,2590.720797,1302.362347
2916.989055,-12509.480420,2442.679609,1532.190996
2916.989392,-9400.615463,296.082377,1149.143247
2916.989730,-9622.677246,-222.061783,2987.772442
2916.990067,-8364.327145,-518.144159,2528.115143
2916.990405,-8216.285956,222.061783,1991.848295
2916.990742,-10140.821405,1258.350101,459.657299
2916.991080,-9400.615463,1924.535449,-1378.971896
2916.991417,-10807.006753,1480.411884,-536.266849
2916.991755,-11177.109724,2960.823768,-766.095498
2916.992092,-10066.800811,1184.329507,-1302.362347
2916.992429,-11843.295072,222.061783,-1762.019645
2916.992767,-9844.739029,-1332.370696,-1072.533697
2916.993104,-9992.780217,-3034.844362,842.705048
2916.993442,-9474.636058,-2738.761985,536.266849
2916.993779,-8142.265362,-3256.906145,383.047749
2916.994117,-11029.068536,-2590.720797,766.095498
2916.994454,-9030.512492,-1554.432478,-1225.752797
2916.994791,-9844.739029,-1036.288319,459.657299
2916.995129,-10955.047942,1406.391290,612.876398
2916.995466,-10436.903782,518.144159,-229.828649
2916.995804,-13027.624579,-296.082377,459.657299
2916.996141,-10732.986159,-444.123565,0.000000
2916.996479,-9918.759623,-2072.576638,2987.772442
2916.996816,-9992.780217,-1258.350101,2451.505594
2916.997154,-7920.203579,-1332.370696,919.314598
2916.997491,-10066.800811,-370.102971,1072.533697
2916.997828,-9548.656652,1332.370696,-995.924147
2916.998166,-9622.677246,1776.494261,-842.705048
2916.998503,-11843.295072,3404.947333,0.000000
2916.998841,-10140.821405,2516.700203,-1532.190996
2916.999178,-11399.171507,1924.535449,-1532.190996
2916.999516,-10436.903782,592.164754,-1608.800546
2916.999853,-8734.430116,-1554.432478,0.000000
2917.000191,-9548.656652,-2220.617826,1149.143247
2917.000528,-7920.203579,-2590.720797,229.828649
2917.000865,-8512.368333,-2368.659014,1302.362347
2917.001203,-8586.388927,-1258.350101,1302.362347
2917.001540,-8512.368333,74.020594,1302.362347
2917.001878,-11769.274478,1554.432478,1225.752797
2917.002215,-10584.944971,2960.823768,-842.705048
2917.002553,-11695.253884,1998.556043,-612.876398
2917.002890,-12435.459826,148.041188,0.000000
2917.003228,-9252.574275,-2072.576638,1302.362347
2917.003565,-9770.718434,-2664.741391,1838.629195
2917.003902,-8438.347739,-2072.576638,2221.676944
2917.004240,-8734.430116,-3330.926739,1378.971896
2917.004577,-10510.924376,-1628.453072,612.876398
2917.004915,-9918.759623,-962.267725,0.000000
2917.005252,-11251.130318,1406.391290,689.485948
2917.005590,-10955.047942,2220.617826,-995.924147
2917.005927,-10807.006753,1036.288319,-1072.533697
2917.006264,-11843.295072,148.041188,-1378.971896
2917.006602,-10362.883188,-1702.473667,-2068.457845
2917.006939,-9844.739029,-3552.988522,0.000000
2917.007277,-8586.388927,-3775.050304,0.000000
2917.007614,-8660.409521,-4515.256246,459.657299
2917.007952,-10436.903782,-2960.823768,-153.219100
2917.008289,-8882.471304,-1480.411884,-1302.362347
2917.008627,-10214.842000,0.000000,919.314598
2917.008964,-10807.006753,2072.576638,153.219100
2917.009301,-10881.027347,1998.556043,0.000000
2917.009639,-12953.603985,1554.432478,842.705048
2917.009976,-11029.068536,148.041188,1072.533697
2917.010314,-10362.883188,-370.102971,2451.505594
2917.010651,-9844.739029,296.082377,2757.943793
2917.010989,-7254.018232,-666.185348,1532.190996
2917.011326,-9474.636058,-1332.370696,1302.362347
2917.011664,-7846.182985,888.247130,0.000000
2917.012001,-7846.182985,1628.453072,612.876398
2917.012338,-10362.883188,4515.256246,0.000000
2917.012676,-10066.800811,4737.318029,-2451.505594
2917.013013,-12509.480420,3775.050304,-1838.629195
2917.013351,-10955.047942,2368.659014,-2451.505594
2917.013688,-9622.677246,370.102971,-383.047749
2917.014026,-10362.883188,-962.267725,842.705048
2917.014363,-8290.306550,-2516.700203,0.000000
2917.014701,-8586.388927,-3182.885551,1302.362347
2917.015038,-8808.450710,-1702.473667,459.657299
2917.015375,-8586.388927,-1184.329507,1302.362347
2917.015713,-11029.068536,1702.473667,612.876398
2917.016050,-10510.924376,2590.720797,-2145.067394
2917.016388,-12361.439231,2368.659014,-1149.143247
2917.016725,-13323.706956,888.247130,-536.266849
2917.017063,-9474.636058,-296.082377,689.485948
2917.017400,-9474.636058,-1702.473667,2451.505594
2917.017737,-8660.409521,-2368.659014,2451.505594
2917.018075,-9474.636058,-3404.947333,2604.724693
2917.018412,-10436.903782,-2368.659014,2068.457845
2917.018750,-8808.450710,-1258.350101,766.095498
2917.019087,-11177.109724,1332.370696,1149.143247
2917.019425,-11325.150913,3404.947333,-1378.971896
2917.019762,-11325.150913,1998.556043,-2221.676944
2917.020100,-11547.212695,1406.391290,-2221.676944
2917.020437,-9326.594869,-592.164754,-1225.752797
2917.020774,-10288.862594,-1702.473667,919.314598
2917.021112,-9474.636058,-2146.597232,306.438199
2917.021449,-8734.430116,-4515.256246,612.876398
2917.021787,-9474.636058,-3627.009116,1302.362347
2917.022124,-7550.100608,-2442.679609,1378.971896
2917.022462,-9696.697840,74.020594,2911.162892
2917.022799,-9992.780217,2220.617826,536.266849
2917.023137,-10955.047942,3182.885551,-995.924147
2917.023474,-13175.665768,2886.803174,-995.924147
2917.023811,-11029.068536,1776.494261,-76.609550
2917.024149,-10140.821405,-444.123565,689.485948
2917.024486,-9252.574275,-296.082377,1608.800546
2917.024824,-7624.121203,-2146.597232,2221.676944
2917.025161,-8808.450710,-2072.576638,2068.457845
2917.025499,-8808.450710,-2368.659014,2145.067394
2917.025836,-8808.450710,592.164754,2145.067394
2917.026174,-10807.006753,3478.967927,1149.143247
2917.026511,-11769.274478,3627.009116,-306.438199
2917.026848,-12879.583391,2590.720797,-2451.505594
2917.027186,-10955.047942,592.164754,-3600.648841
2917.027523,-9474.636058,-1924.535449,-1302.362347
2917.027861,-9548.656652,-2442.679609,0.000000
2917.028198,-7920.203579,-3478.967927,-306.438199
2917.028536,-9252.574275,-4959.379811,229.828649
2917.028873,-9178.553681,-4441.235652,306.438199
2917.029210,-9622.677246,-3775.050304,919.314598
2917.029548,-11769.274478,-222.061783,1149.143247
2917.029885,-10436.903782,1554.432478,-1072.533697
2917.030223,-12435.459826,1702.473667,-1685.410096
2917.030560,-12065.356855,962.267725,-1455.581446
2917.030898,-11103.089130,-666.185348,-1225.752797
2917.031235,-10436.903782,-1702.473667,1838.629195
2917.031573,-7772.162391,-3182.885551,1532.190996
2917.031910,-9178.553681,-3330.926739,3064.381992
2917.032247,-9992.780217,-2812.782580,2681.334243
2917.032585,-8290.306550,-1406.391290,1838.629195
2917.032922,-10214.842000,1406.391290,1532.190996
2917.033260,-9992.780217,4441.235652,-842.705048
2917.033597,-11251.130318,3997.112087,-1838.629195
2917.033935,-11769.274478,2812.782580,-1915.238745
2917.034272,-9326.594869,1480.411884,-1838.629195
2917.034610,-9992.780217,-370.102971,-766.095498
2917.034947,-8586.388927,-592.164754,-995.924147
2917.035284,-8364.327145,-2368.659014,0.000000
2917.035622,-10066.800811,-3034.844362,1302.362347
2917.035959,-7402.059420,-2812.782580,1149.143247
2917.036297,-8808.450710,-296.082377,2451.505594
2917.036634,-10584.944971,2590.720797,1149.143247
2917.036972,-10955.047942,3849.070898,-1302.362347
2917.037309,-13175.665768,3256.906145,-1378.971896
2917.037646,-10732.986159,2812.782580,-1378.971896
2917.037984,-10658.965565,444.123565,1149.143247
2917.038321,-10584.944971,-74.020594,1762.019645
2917.038659,-8512.368333,-2664.741391,1762.019645
2917.038996,-9696.697840,-2960.823768,2451.505594
2917.039334,-8660.409521,-2664.741391,2298.286494
2917.039671,-8956.491898,-1480.411884,2451.505594
2917.040009,-10066.800811,2368.659014,1072.533697
2917.040346,-10214.842000,3552.988522,-1302.362347
2917.040683,-12583.501014,4515.256246,-2221.676944
2917.041021,-11621.233289,2294.638420,-3753.867940
2917.041358,-10066.800811,0.000000,-1915.238745
2917.041696,-10066.800811,-1036.288319,-995.924147
2917.042033,-8068.244768,-3034.844362,153.219100
2917.042371,-8956.491898,-4589.276840,612.876398
2917.042708,-8068.244768,-5329.482782,919.314598
2917.043046,-9474.636058,-4145.153275,2451.505594
2917.043383,-10807.006753,-1776.494261,2145.067394
2917.043720,-9770.718434,1702.473667,612.876398
2917.044058,-12435.459826,2368.659014,0.000000
2917.044395,-12287.418637,2960.823768,-1378.971896
2917.044733,-10881.027347,592.164754,-459.657299
2917.045070,-11547.212695,740.205942,1149.143247
2917.045408,-9326.594869,-1258.350101,1532.190996
2917.045745,-10140.821405,-2072.576638,2528.115143
2917.046083,-8956.491898,-2886.803174,2604.724693
2917.046420,-8068.244768,-2516.700203,3524.039291
2917.046757,-9474.636058,0.000000,4136.915689
2917.047095,-9104.533087,3108.864956,1225.752797
2917.047432,-11769.274478,4589.276840,-76.609550
2917.047770,-12583.501014,4737.318029,-2911.162892
2917.048107,-10584.944971,3552.988522,-4366.744339
2917.048445,-11325.150913,1850.514855,-2298.286494
2917.048782,-8216.285956,-814.226536,-2298.286494
2917.049119,-7550.100608,-3775.050304,-306.438199
2917.049457,-7772.162391,-3627.009116,-153.219100
2917.049794,-6957.935855,-5033.400406,1302.362347
2917.050132,-9696.697840,-3330.926739,3907.087040
2917.050469,-10288.862594,-296.082377,1302.362347
2917.050807,-11769.274478,1702.473667,306.438199
2917.051144,-13323.706956,2072.576638,-1378.971896
2917.051482,-10288.862594,814.226536,-2911.162892
2917.051819,-10288.862594,-592.164754,-995.924147
2917.052156,-9474.636058,-1924.535449,0.000000
2917.052494,-8216.285956,-3849.070898,153.219100
2917.052831,-9622.677246,-4441.235652,612.876398
2917.053169,-8290.306550,-4441.235652,766.095498
2917.053506,-9400.615463,-3627.009116,2834.553343
2917.053844,-10140.821405,-888.247130,2298.286494
2917.054181,-9696.697840,1258.350101,1072.533697
2917.054519,-13101.645173,2960.823768,0.000000
2917.054856,-12361.439231,2886.803174,-2068.457845
2917.055193,-11917.315666,814.226536,-1072.533697
2917.055531,-10881.027347,-296.082377,-766.095498
2917.055868,-9030.512492,-2442.679609,0.000000
2917.056206,-9696.697840,-3478.967927,536.266849
2917.056543,-8216.285956,-4367.215058,-536.266849
2917.056881,-8216.285956,-4663.297435,1455.581446
2917.057218,-9030.512492,-1924.535449,2221.676944
2917.057556,-8956.491898,962.267725,1225.752797
2917.057893,-11843.295072,3034.844362,306.438199
2917.058230,-11917.315666,3627.009116,-2145.067394
2917.058568,-11103.089130,2294.638420,-919.314598
2917.058905,-11547.212695,1702.473667,306.438199
2917.059243,-9178.553681,0.000000,1072.533697
2917.059580,-9548.656652,-2146.597232,2681.334243
2917.059918,-8512.368333,-1850.514855,2451.505594
2917.060255,-7994.224174,-2368.659014,3830.477490
2917.060592,-9474.636058,74.020594,4136.915689
2917.060930,-9030.512492,2960.823768,1685.410096
2917.061267,-10881.027347,5033.400406,-612.876398
2917.061605,-11917.315666,6069.688724,-2681.334243
2917.061942,-11621.233289,4811.338623,-1455.581446
2917.062280,-12287.418637,2220.617826,-1991.848295
2917.062617,-8364.327145,444.123565,-2451.505594
2917.062955,-8956.491898,-2516.700203,-612.876398
2917.063292,-9178.553681,-3330.926739,459.657299
2917.063629,-7105.977043,-4145.153275,1225.752797
2917.063967,-9696.697840,-3404.947333,2451.505594
2917.064304,-9918.759623,-1628.453072,766.095498
2917.064642,-11325.150913,222.061783,0.000000
2917.064979,-13323.706956,2664.741391,-995.924147
2917.065317,-10510.924376,1924.535449,-2374.896044
2917.065654,-11621.233289,148.041188,-1072.533697
2917.065992,-10140.821405,-666.185348,-995.924147
2917.066329,-9474.636058,-2442.679609,919.314598
2917.066666,-11029.068536,-3330.926739,1991.848295
2917.067004,-8660.409521,-4663.297435,2145.067394
2917.067341,-9474.636058,-3108.864956,4443.353888
2917.067679,-9696.697840,-296.082377,2911.162892
2917.068016,-9474.636058,1258.350101,1302.362347
2917.068354,-12287.418637,3552.988522,-766.095498
2917.068691,-11177.109724,3404.947333,-2987.772442
2917.069029,-11399.171507,2294.638420,-2298.286494
2917.069366,-9474.636058,1554.432478,-2145.067394
2917.069703,-7994.224174,-962.267725,-919.314598
2917.070041,-9474.636058,-1924.535449,0.000000
2917.070378,-8142.265362,-2664.741391,-229.828649
2917.070716,-8586.388927,-4145.153275,1532.190996
2917.071053,-9548.656652,-1924.535449,2374.896044
2917.071391,-8882.471304,-296.082377,2068.457845
2917.071728,-12139.377449,2442.679609,919.314598
2917.072065,-11769.274478,2812.782580,-1072.533697
2917.072403,-11325.150913,2442.679609,-2145.067394
2917.072740,-11325.150913,1998.556043,-1838.629195
2917.073078,-9030.512492,-592.164754,-995.924147
2917.073415,-9844.739029,-2368.659014,1532.190996
2917.073753,-9252.574275,-3478.967927,1838.629195
2917.074090,-8808.450710,-4219.173869,3830.477490
2917.074428,-9770.718434,-1776.494261,3524.039291
2917.074765,-9030.512492,-518.144159,2145.067394
2917.075102,-11991.336260,1776.494261,1225.752797
2917.075440,-11251.130318,2516.700203,-1685.410096
2917.075777,-10807.006753,2146.597232,-1532.190996
2917.076115,-10955.047942,1702.473667,-2451.505594
2917.076452,-9178.553681,-148.041188,-2298.286494
2917.076790,-10140.821405,-2664.741391,-842.705048
2917.077127,-9326.594869,-3849.070898,-1685.410096
2917.077465,-7994.224174,-4811.338623,229.828649
2917.077802,-9770.718434,-4737.318029,1762.019645
2917.078139,-8068.244768,-3849.070898,1225.752797
2917.078477,-10436.903782,-1924.535449,1532.190996
2917.078814,-11843.295072,370.102971,76.609550
2917.079152,-10658.965565,888.247130,-1225.752797
2917.079489,-12361.439231,1036.288319,-612.876398
2917.079827,-10584.944971,592.164754,-459.657299
2917.080164,-10066.800811,-1554.432478,536.266849
2917.080501,-11029.068536,-1924.535449,1455.581446
2917.080839,-8808.450710,-3182.885551,2145.067394
2917.081176,-9844.739029,-2516.700203,3907.087040
2917.081514,-9030.512492,0.000000,3524.039291
2917.081851,-9326.594869,1406.391290,2298.286494
2917.082189,-11103.089130,3775.050304,383.047749
2917.082526,-9548.656652,3997.112087,-1838.629195
2917.082863,-11621.233289,3997.112087,-1072.533697
2917.083201,-11177.109724,4071.132681,-2221.676944
2917.083538,-9696.697840,1554.432478,-2604.724693
2917.083875,-10214.842000,-518.144159,-2068.457845
2917.084213,-6883.915261,-2886.803174,-536.266849
2917.084550,-7476.080014,-2738.761985,2451.505594
2917.084887,-8216.285956,-2442.679609,2757.943793
2917.085224,-8364.327145,-666.185348,1302.362347
2917.085562,-12065.356855,740.205942,229.828649
2917.085899,-11695.253884,2294.638420,-1378.971896
2917.086236,-11103.089130,2812.782580,-1225.752797
2917.086574,-10807.006753,1998.556043,-1762.019645
2917.086911,-8364.327145,0.000000,-1532.190996
2917.087248,-10066.800811,-1702.473667,-459.657299
2917.087586,-9474.636058,-2812.782580,1149.143247
2917.087923,-9474.636058,-3404.947333,2145.067394
2917.088260,-10436.903782,-2368.659014,2834.553343
2917.088598,-9178.553681,-1184.329507,2681.334243
2917.088935,-11325.150913,222.061783,2528.115143
2917.089272,-11473.192101,1776.494261,1149.143247
2917.089610,-11325.150913,2368.659014,76.609550
2917.089947,-12361.439231,3108.864956,-1455.581446
2917.090284,-10436.903782,1776.494261,-2451.505594
2917.090622,-11251.130318,-1184.329507,-1378.971896
2917.090959,-9030.512492,-2812.782580,-1378.971896
2917.091296,-7476.080014,-4811.338623,306.438199
2917.091634,-8438.347739,-2886.803174,1532.190996
2917.091971,-7550.100608,-2146.597232,306.438199
2917.092308,-10066.800811,-1480.411884,1072.533697
2917.092646,-11103.089130,370.102971,0.000000
2917.092983,-10658.965565,1406.391290,0.000000
2917.093320,-12805.562797,2590.720797,0.000000
2917.093658,-9918.759623,1406.391290,-1378.971896
2917.093995,-9622.677246,-222.061783,383.047749
2917.094332,-9326.594869,-2072.576638,995.924147
2917.094669,-7698.141797,-3034.844362,2068.457845
2917.095007,-9474.636058,-2368.659014,3600.648841
2917.095344,-8364.327145,-888.247130,2757.943793
2917.095681,-9992.780217,518.144159,3294.210641
2917.096019,-11029.068536,2664.741391,1685.410096
2917.096356,-10288.862594,4293.194464,459.657299
2917.096693,-13323.706956,4293.194464,-459.657299
2917.097031,-11399.171507,4515.256246,-2681.334243
2917.097368,-10066.800811,1110.308913,-2374.896044
2917.097705,-10955.047942,-740.205942,-1149.143247
2917.098043,-7698.141797,-3701.029710,-383.047749
2917.098380,-9400.615463,-3849.070898,2068.457845
2917.098717,-8512.368333,-2664.741391,995.924147
2917.099055,-8142.265362,-2146.597232,229.828649
2917.099392,-12435.459826,-1258.350101,1608.800546
2917.099729,-10658.965565,-444.123565,-1149.143247
2917.100067,-11251.130318,1036.288319,-689.485948
2917.100404,-11177.109724,1628.453072,-2221.676944
2917.100741,-9622.677246,-814.226536,-3217.601092
2917.101079,-11029.068536,-2590.720797,-612.876398
2917.101416,-8438.347739,-4663.297435,153.219100
2917.101753,-8142.265362,-4663.297435,2451.505594
2917.102091,-10214.842000,-3404.947333,2528.115143
2917.102428,-9252.574275,-2368.659014,1685.410096
2917.102765,-11325.150913,-1406.391290,1991.848295
2917.103103,-10584.944971,962.267725,766.095498
2917.103440,-9992.780217,2294.638420,612.876398
2917.103777,-11991.336260,3256.906145,-689.485948
2917.104115,-10214.842000,1924.535449,-2451.505594
2917.104452,-10881.027347,666.185348,-2145.067394
2917.104789,-9622.677246,-962.267725,-1608.800546
2917.105126,-8216.285956,-1776.494261,0.000000
2917.105464,-9548.656652,-2294.638420,1302.362347
2917.105801,-7846.182985,-444.123565,76.609550
2917.106138,-9844.739029,-740.205942,766.095498
2917.106476,-10955.047942,222.061783,919.314598
2917.106813,-9474.636058,296.082377,766.095498
2917.107150,-11917.315666,2812.782580,689.485948
2917.107488,-10732.986159,3108.864956,-306.438199
2917.107825,-10881.027347,1184.329507,-612.876398
2917.108162,-10436.903782,0.000000,-306.438199
2917.108500,-7254.018232,-2516.700203,1608.800546
2917.108837,-8660.409521,-1702.473667,3600.648841
2917.109174,-8512.368333,-1332.370696,3294.210641
2917.109512,-9622.677246,0.000000,2604.724693
2917.109849,-11177.109724,1406.391290,1455.581446
2917.110186,-10584.944971,2072.576638,153.219100
2917.110524,-11769.274478,3552.988522,383.047749
2917.110861,-10362.883188,3034.844362,-1838.629195
2917.111198,-10288.862594,1406.391290,-919.314598
2917.111536,-11029.068536,592.164754,-1378.971896
2917.111873,-8438.347739,-1184.329507,-612.876398
2917.112210,-10214.842000,-2368.659014,1608.800546
2917.112548,-9474.636058,-2072.576638,612.876398
2917.112885,-9178.553681,-1702.473667,76.609550
2917.113222,-11251.130318,-1258.350101,-306.438199
2917.113560,-9252.574275,-1036.288319,-995.924147
2917.113897,-10881.027347,148.041188,-383.047749
2917.114234,-10955.047942,1850.514855,-1378.971896
2917.114571,-10066.800811,296.082377,-1991.848295
2917.114909,-11547.212695,-740.205942,-766.095498
2917.115246,-9474.636058,-1554.432478,229.828649
2917.115583,-9918.759623,-3404.947333,2681.334243
2917.115921,-9548.656652,-1628.453072,2911.162892
2917.116258,-9252.574275,-1036.288319,2298.286494
2917.116595,-11473.192101,-148.041188,2374.896044
2917.116933,-9622.677246,888.247130,612.876398
2917.117270,-10140.821405,1554.432478,1225.752797
2917.117607,-11029.068536,3552.988522,-306.438199
2917.117945,-9474.636058,2664.741391,-2145.067394
2917.118282,-11325.150913,1628.453072,-1608.800546
2917.118619,-9030.512492,888.247130,-1608.800546
2917.118957,-8660.409521,-666.185348,612.876398
2917.119294,-10288.862594,-1258.350101,2451.505594
2917.119631,-7920.203579,-2072.576638,1455.581446
2917.119969,-9992.780217,-962.267725,1991.848295
2917.120306,-10362.883188,-1332.370696,306.438199
2917.120643,-9474.636058,-814.226536,229.828649
2917.120981,-10955.047942,-74.020594,0.000000
2917.121318,-9400.615463,592.164754,-1608.800546
2917.121655,-10584.944971,74.020594,-1915.238745
2917.121993,-9918.759623,-1184.329507,-2298.286494
2917.122330,-8734.430116,-3182.885551,-689.485948
2917.122667,-9992.780217,-3108.864956,2145.067394
2917.123005,-9326.594869,-1924.535449,2757.943793
2917.123342,-10732.986159,-2516.700203,2757.943793
2917.123679,-10955.047942,-1554.432478,1378.971896
2917.124016,-9252.574275,-1406.391290,1838.629195
2917.124354,-11991.336260,222.061783,2145.067394
2917.124691,-9696.697840,814.226536,-536.266849
2917.125028,-10732.986159,814.226536,-766.095498
2917.125366,-11325.150913,0.000000,-919.314598
2917.125703,-9474.636058,-888.247130,-1685.410096
2917.126040,-10510.924376,-1554.432478,229.828649
2917.126378,-9178.553681,-962.267725,-229.828649
2917.126715,-9622.677246,-2368.659014,76.609550
2917.127052,-10807.006753,-1332.370696,0.000000
2917.127390,-8586.388927,-1776.494261,-1149.143247
2917.127727,-10436.903782,-592.164754,689.485948
2917.128064,-9252.574275,370.102971,-383.047749
2917.128402,-9326.594869,740.205942,-689.485948
2917.128739,-11399.171507,888.247130,-459.657299
2917.129076,-9474.636058,-74.020594,-153.219100
2917.129414,-10066.800811,-518.144159,1685.410096
2917.129751,-9548.656652,-962.267725,2757.943793
2917.130088,-9104.533087,-592.164754,4136.915689
2917.130426,-11399.171507,0.000000,3217.601092
2917.130763,-9252.574275,518.144159,2757.943793
2917.131100,-10288.862594,1406.391290,2911.162892
2917.131438,-10807.006753,2738.761985,76.609550
2917.131775,-9326.594869,3552.988522,-1762.019645
2917.132112,-12287.418637,2812.782580,-1225.752797
2917.132450,-10140.821405,2664.741391,-2068.457845
2917.132787,-9770.718434,592.164754,-1072.533697
2917.133124,-9548.656652,592.164754,-459.657299
2917.133462,-8290.306550,-962.267725,-689.485948
2917.133799,-11103.089130,-1258.350101,536.266849
2917.134136,-9696.697840,-1036.288319,229.828649
2917.134473,-8956.491898,-1850.514855,689.485948
2917.134811,-11251.130318,-592.164754,229.828649
2917.135148,-9104.533087,-814.226536,-1225.752797
2917.135485,-10807.006753,-370.102971,-383.047749
2917.135823,-10362.883188,518.144159,-995.924147
2917.136160,-9474.636058,-740.205942,-766.095498
2917.136497,-11029.068536,-814.226536,612.876398
2917.136835,-9770.718434,-1406.391290,383.047749
2917.137172,-10955.047942,-1776.494261,2145.067394
2917.137509,-10732.986159,-1406.391290,1532.190996
2917.137847,-9400.615463,-1332.370696,2374.896044
2917.138184,-10658.965565,148.041188,2374.896044
2917.138521,-8734.430116,740.205942,1302.362347
2917.138859,-10584.944971,1406.391290,1532.190996
2917.139196,-11399.171507,1850.514855,0.000000
2917.139533,-9548.656652,1110.308913,-229.828649
2917.139871,-11251.130318,1332.370696,1455.581446
2917.140208,-9548.656652,740.205942,-459.657299
2917.140545,-10140.821405,-296.082377,229.828649
2917.140883,-10955.047942,-592.164754,-76.609550
2917.141220,-7920.203579,-962.267725,-536.266849
2917.141557,-9844.739029,-1480.411884,459.657299
2917.141895,-8808.450710,0.000000,76.609550
2917.142232,-9252.574275,-1110.308913,-153.219100
2917.142569,-11103.089130,1110.308913,229.828649
2917.142907,-9030.512492,518.144159,-1149.143247
2917.143244,-10214.842000,0.000000,306.438199
2917.143581,-9622.677246,74.020594,612.876398
2917.143918,-9844.739029,-1406.391290,2068.457845
2917.144256,-11251.130318,-444.123565,1378.971896
2917.144593,-8882.471304,-1850.514855,229.828649
2917.144930,-10584.944971,-1850.514855,1762.019645
2917.145268,-9548.656652,0.000000,459.657299
2917.145605,-8808.450710,-740.205942,76.609550
2917.145942,-10955.047942,888.247130,536.266849
2917.146280,-9030.512492,888.247130,-1838.629195
2917.146617,-11029.068536,666.185348,-153.219100
2917.146954,-11843.295072,592.164754,-1225.752797
2917.147292,-9474.636058,-296.082377,-995.924147
2917.147629,-12213.398043,-1184.329507,-383.047749
2917.147966,-9622.677246,-2590.720797,-1302.362347
2917.148304,-9548.656652,-3330.926739,-229.828649
2917.148641,-10288.862594,-3108.864956,-919.314598
2917.148978,-7994.224174,-2220.617826,-1532.190996
2917.149316,-10362.883188,-2220.617826,-1149.143247
2917.149653,-10140.821405,-888.247130,-1532.190996
2917.149990,-9622.677246,-1110.308913,-766.095498
2917.150328,-11473.192101,-222.061783,612.876398
2917.150665,-9400.615463,-296.082377,995.924147
2917.151002,-10658.965565,-1258.350101,2221.676944
2917.151340,-10584.944971,-962.267725,2987.772442
2917.151677,-10140.821405,-1332.370696,2987.772442
2917.152014,-11029.068536,-962.267725,3064.381992
2917.152352,-8364.327145,-222.061783,1378.971896
2917.152689,-9252.574275,1036.288319,1608.800546
2917.153026,-9474.636058,2368.659014,-383.047749
2917.153364,-8660.409521,2220.617826,-842.705048
2917.153701,-10658.965565,3330.926739,459.657299
2917.154038,-9696.697840,2812.782580,0.000000
2917.154375,-11251.130318,2072.576638,-459.657299
2917.154713,-11325.150913,1110.308913,-306.438199
2917.155050,-9474.636058,-1258.350101,0.000000
2917.155387,-9474.636058,-1258.350101,1838.629195
2917.155725,-8290.306550,-962.267725,1149.143247
2917.156062,-8068.244768,-592.164754,1072.533697
2917.156399,-10584.944971,148.041188,76.609550
2917.156737,-10288.862594,222.061783,-689.485948
2917.157074,-11325.150913,1332.370696,-459.657299
2917.157411,-10214.842000,1332.370696,-919.314598
2917.157749,-9992.780217,0.000000,-383.047749
2917.158086,-10955.047942,-1036.288319,-229.828649
2917.158423,-9252.574275,-1258.350101,536.266849
2917.158761,-10214.842000,-2664.741391,2068.457845
2917.159098,-9030.512492,-1850.514855,2068.457845
2917.159435,-9400.615463,-1628.453072,2451.505594
2917.159773,-11177.109724,-740.205942,1608.800546
2917.160110,-9474.636058,444.123565,-383.047749
2917.160447,-10510.924376,1036.288319,0.000000
2917.160785,-10510.924376,2368.659014,-612.876398
2917.161122,-9918.759623,1110.308913,-1302.362347
2917.161459,-12213.398043,222.061783,-1225.752797
2917.161797,-10214.842000,-962.267725,-2374.896044
2917.162134,-10214.842000,-2738.761985,0.000000
2917.162471,-9104.533087,-1776.494261,0.000000
2917.162809,-7254.018232,-2738.761985,-689.485948
2917.163146,-9770.718434,-1258.350101,1072.533697
2917.163483,-8956.491898,-1184.329507,0.000000
2917.163820,-10140.821405,222.061783,1072.533697
2917.164158,-12139.377449,1850.514855,459.657299
2917.164495,-10807.006753,2368.659014,612.876398
2917.164832,-12361.439231,444.123565,612.876398
2917.165170,-10436.903782,74.020594,536.266849
2917.165507,-9474.636058,-1924.535449,2987.772442
2917.165844,-10214.842000,-1184.329507,2604.724693
2917.166182,-8290.306550,-444.123565,2221.676944
2917.166519,-10214.842000,0.000000,2221.676944
2917.166856,-9548.656652,1406.391290,689.485948
2917.167194,-8660.409521,2368.659014,306.438199
2917.167531,-11843.295072,3256.906145,766.095498
2917.167868,-10140.821405,4219.173869,-1302.362347
2917.168206,-11695.253884,2146.597232,-1455.581446
2917.168543,-11325.150913,814.226536,-1915.238745
2917.168880,-8956.491898,-2368.659014,-1302.362347
2917.169218,-10214.842000,-3997.112087,229.828649
2917.169555,-7328.038826,-3627.009116,-229.828649
2917.169892,-7179.997637,-4367.215058,229.828649
2917.170230,-9622.677246,-2516.700203,306.438199
2917.170567,-9178.553681,-2146.597232,-536.266849
2917.170904,-11251.130318,74.020594,-536.266849
2917.171242,-10658.965565,1554.432478,-1225.752797
2917.171579,-11103.089130,444.123565,-1608.800546
2917.171916,-11769.274478,-1184.329507,-842.705048
2917.172254,-9918.759623,-3478.967927,689.485948
2917.172591,-10214.842000,-3775.050304,2528.115143
2917.172928,-9474.636058,-3108.864956,2298.286494
2917.173265,-9474.636058,-2886.803174,2987.772442
2917.173603,-10881.027347,-2072.576638,2145.067394
2917.173940,-9622.677246,-296.082377,536.266849
2917.174277,-11103.089130,1924.535449,1302.362347
2917.174615,-11621.233289,2960.823768,-995.924147
2917.174952,-10807.006753,2368.659014,-1072.533697
2917.175289,-11769.274478,2368.659014,-1378.971896
2917.175627,-10140.821405,74.020594,-1149.143247
2917.175964,-10362.883188,-1628.453072,153.219100
2917.176301,-9400.615463,-2072.576638,459.657299
2917.176639,-7402.059420,-2516.700203,1225.752797
2917.176976,-9474.636058,-2516.700203,1455.581446
2917.177313,-7698.141797,-1184.329507,919.314598
2917.177651,-8956.491898,296.082377,1149.143247
2917.177988,-9992.780217,2960.823768,766.095498
2917.178325,-10510.924376,3552.988522,-1302.362347
2917.178663,-12361.439231,2516.700203,-1991.848295
2917.179000,-10436.903782,1184.329507,-1532.190996
2917.179337,-9770.718434,-2220.617826,919.314598
2917.179675,-9400.615463,-518.144159,2068.457845
2917.180012,-7550.100608,-1406.391290,2298.286494
2917.180349,-9918.759623,-1184.329507,2604.724693
2917.180687,-9622.677246,0.000000,689.485948
2917.181024,-9844.739029,1554.432478,536.266849
2917.181361,-11251.130318,4071.132681,1532.190996
2917.181699,-10881.027347,3627.009116,-612.876398
2917.182036,-12953.603985,3108.864956,-229.828649
2917.182373,-11621.233289,1480.411884,-2298.286494
2917.182711,-9326.594869,-740.205942,-1762.019645
2917.183048,-10584.944971,-1702.473667,306.438199
2917.183385,-8956.491898,-3478.967927,0.000000
2917.183722,-9104.533087,-3997.112087,0.000000
2917.184059,-9252.574275,-3256.906145,-766.095498
2917.184396,-8068.244768,-2368.659014,-306.438199
2917.184734,-10510.924376,0.000000,0.000000
2917.185071,-10066.800811,1924.535449,-1762.019645
2917.185408,-11473.192101,888.247130,-1532.190996
2917.185745,-11917.315666,518.144159,-1149.143247
2917.186082,-10584.944971,-2294.638420,0.000000
2917.186419,-11177.109724,-3108.864956,2757.943793
2917.186757,-8438.347739,-2812.782580,2221.676944
2917.187094,-8586.388927,-3182.885551,3370.820191
2917.187431,-10140.821405,-2294.638420,3370.820191
2917.187768,-8142.265362,-740.205942,2528.115143
2917.188105,-9770.718434,1628.453072,2604.724693
2917.188442,-10140.821405,4737.318029,-919.314598
2917.188780,-11473.192101,4515.256246,-1532.190996
2917.189117,-13175.665768,3775.050304,-2068.457845
2917.189454,-10510.924376,1406.391290,-2834.553343
2917.189791,-10288.862594,-370.102971,-1378.971896
2917.190128,-8438.347739,-1258.350101,0.000000
2917.190465,-7476.080014,-3182.885551,1149.143247
2917.190802,-9030.512492,-3701.029710,2298.286494
2917.191140,-7698.141797,-3182.885551,1532.190996
2917.191477,-9400.615463,-444.123565,2145.067394
2917.191814,-10881.027347,2590.720797,383.047749
2917.192151,-11473.192101,2960.823768,-842.705048
2917.192488,-12953.603985,1776.494261,-2451.505594
2917.192825,-10807.006753,-370.102971,-3140.991542
2917.193163,-10066.800811,-2368.659014,-689.485948
2917.193500,-8586.388927,-3701.029710,995.924147
2917.193837,-7920.203579,-4071.132681,2681.334243
2917.194174,-10362.883188,-4515.256246,3447.429741
2917.194511,-9178.553681,-3330.926739,2298.286494
2917.194848,-9696.697840,-3034.844362,3064.381992
2917.195186,-11177.109724,1480.411884,2068.457845
2917.195523,-10436.903782,2664.741391,0.000000
2917.195860,-12731.542202,2664.741391,-1302.362347
2917.196197,-11473.192101,1036.288319,-2451.505594
2917.196534,-10658.965565,-740.205942,-2068.457845
2917.196871,-9918.759623,-1628.453072,-1762.019645
2917.197208,-8438.347739,-3478.967927,-1149.143247
2917.197546,-9474.636058,-4515.256246,76.609550
2917.197883,-8586.388927,-3552.988522,-536.266849
2917.198220,-7994.224174,-2664.741391,1149.143247
2917.198557,-10658.965565,518.144159,1762.019645
2917.198894,-10066.800811,2516.700203,-306.438199
2917.199231,-12657.521608,2294.638420,-1149.143247
2917.199569,-12509.480420,1924.535449,-1608.800546
2917.199906,-10510.924376,0.000000,-536.266849
2917.200243,-10214.842000,-888.247130,766.095498
2917.200580,-8216.285956,-1332.370696,1685.410096
2917.200917,-9400.615463,-2146.597232,3294.210641
2917.201254,-9400.615463,-1554.432478,3064.381992
2917.201592,-7402.059420,-370.102971,3294.210641
2917.201929,-8956.491898,1850.514855,3217.601092
2917.202266,-9992.780217,4441.235652,76.609550
2917.202603,-11251.130318,5699.585753,-1378.971896
2917.202940,-13249.686362,5107.421000,-1608.800546
2917.203277,-10807.006753,2590.720797,-2451.505594
2917.203614,-9548.656652,1332.370696,-1915.238745
2917.203952,-8364.327145,-740.205942,-1762.019645
2917.204289,-8290.306550,-3330.926739,76.609550
2917.204626,-8734.430116,-3849.070898,612.876398
2917.204963,-7402.059420,-2664.741391,1302.362347
2917.205300,-9548.656652,-1332.370696,2298.286494
2917.205637,-11177.109724,1332.370696,76.609550
2917.205975,-11917.315666,1406.391290,-995.924147
2917.206312,-12509.480420,2294.638420,-1302.362347
2917.206649,-11177.109724,0.000000,-1991.848295
2917.206986,-10881.027347,-1702.473667,-1378.971896
2917.207323,-9178.553681,-2516.700203,-689.485948
2917.207660,-9326.594869,-4367.215058,766.095498
2917.207998,-10066.800811,-4219.173869,1762.019645
2917.208335,-7994.224174,-3182.885551,1915.238745
2917.208672,-9548.656652,-1998.556043,3370.820191
2917.209009,-11103.089130,814.226536,2451.505594
2917.209346,-10288.862594,2960.823768,766.095498
2917.209683,-13249.686362,3330.926739,153.219100
2917.210020,-12435.459826,2220.617826,-1378.971896
2917.210358,-11177.109724,0.000000,-1302.362347
2917.210695,-9844.739029,-370.102971,-229.828649
2917.211032,-7550.100608,-2146.597232,-306.438199
2917.211369,-9474.636058,-3256.906145,766.095498
2917.211706,-8438.347739,-3404.947333,0.000000
2917.212043,-7550.100608,-2442.679609,153.219100
2917.212381,-9252.574275,0.000000,1685.410096
2917.212718,-8882.471304,2368.659014,766.095498
2917.213055,-11991.336260,3034.844362,0.000000
2917.213392,-12657.521608,3108.864956,-1302.362347
2917.213729,-10881.027347,814.226536,-1225.752797
2917.214066,-10732.986159,-296.082377,459.657299
2917.214403,-8660.409521,-1776.494261,1455.581446
2917.214741,-9030.512492,-4367.215058,2757.943793
2917.215078,-8956.491898,-3182.885551,2451.505594
2917.215415,-7105.977043,-2294.638420,2528.115143
2917.215752,-10436.903782,666.185348,2911.162892
2917.216089,-10140.821405,2960.823768,229.828649
2917.216426,-11843.295072,3775.050304,-1302.362347
2917.216764,-12879.583391,3404.947333,-1991.848295
2917.217101,-10436.903782,1554.432478,-2987.772442
2917.217438,-10140.821405,-370.102971,-1302.362347
2917.217775,-8956.491898,-2368.659014,-995.924147
2917.218112,-8438.347739,-3775.050304,0.000000
2917.218449,-9992.780217,-4663.297435,383.047749
2917.218787,-8438.347739,-4367.215058,0.000000
2917.219124,-9326.594869,-2516.700203,153.219100
2917.219461,-9696.697840,-518.144159,-1225.752797
2917.219798,-10066.800811,740.205942,-1532.190996
2917.220135,-12065.356855,1702.473667,-1915.238745
2917.220472,-10362.883188,518.144159,-2298.286494
2917.220809,-11325.150913,-1332.370696,-689.485948
2917.221147,-9992.780217,-2146.597232,0.000000
2917.221484,-9326.594869,-4515.256246,1532.190996
2917.221821,-9918.759623,-4145.153275,2987.772442
2917.222158,-8586.388927,-3552.988522,3294.210641
2917.222495,-9030.512492,-1036.288319,3524.039291
2917.222832,-9770.718434,1850.514855,3064.381992
2917.223170,-10140.821405,4367.215058,1455.581446
2917.223507,-12731.542202,4959.379811,0.000000
2917.223844,-11991.336260,4441.235652,-1838.629195
2917.224181,-11843.295072,2738.761985,-612.876398
2917.224518,-10807.006753,2072.576638,-459.657299
2917.224855,-7772.162391,-592.164754,-229.828649
2917.225193,-8808.450710,-1628.453072,612.876398
2917.225530,-8586.388927,-2442.679609,1608.800546
2917.225867,-7476.080014,-2738.761985,2451.505594
2917.226204,-9104.533087,592.164754,1378.971896
2917.226541,-8734.430116,1406.391290,689.485948
2917.226878,-11399.171507,3404.947333,0.000000
2917.227215,-11325.150913,3034.844362,-2298.286494
2917.227553,-10807.006753,1628.453072,-1455.581446
2917.227890,-11029.068536,0.000000,-1608.800546
2917.228227,-8660.409521,-2812.782580,-766.095498
2917.228564,-9844.739029,-4367.215058,1532.190996
2917.228901,-9326.594869,-4589.276840,2374.896044
2917.229238,-7994.224174,-3997.112087,3217.601092
2917.229576,-9474.636058,-1332.370696,3830.477490
2917.229913,-9844.739029,1258.350101,1608.800546
2917.230250,-11843.295072,2590.720797,842.705048
2917.230587,-12805.562797,3330.926739,-919.314598
2917.230924,-11621.233289,2220.617826,-1532.190996
2917.231261,-13175.665768,1406.391290,-612.876398
2917.231599,-9770.718434,-518.144159,-1455.581446
2917.231936,-8660.409521,-3701.029710,-995.924147
2917.232273,-9844.739029,-3404.947333,536.266849
2917.232610,-8142.265362,-4293.194464,689.485948
2917.232947,-10066.800811,-2664.741391,612.876398
2917.233284,-9252.574275,-222.061783,-459.657299
2917.233621,-10066.800811,1702.473667,-995.924147
2917.233959,-12139.377449,2960.823768,-1532.190996
2917.234296,-10214.842000,1998.556043,-2374.896044
2917.234633,-11399.171507,0.000000,0.000000
2917.234970,-10807.006753,0.000000,459.657299
2917.235307,-9474.636058,-1776.494261,1608.800546
2917.235644,-10955.047942,-3701.029710,1762.019645
2917.235982,-7920.203579,-3923.091493,2451.505594
2917.236319,-8364.327145,-2664.741391,3983.696590
2917.236656,-8216.285956,222.061783,3217.601092
2917.236993,-7402.059420,2886.803174,1455.581446
2917.237330,-11769.274478,4885.359217,459.657299
2917.237667,-11991.336260,4885.359217,-2451.505594
2917.238005,-11917.315666,4367.215058,-2451.505594
2917.238342,-11917.315666,3256.906145,-766.095498
2917.238679,-8216.285956,0.000000,-1225.752797
2917.239016,-9548.656652,-2886.803174,689.485948
2917.239353,-8364.327145,-4071.132681,1838.629195
2917.239690,-8216.285956,-4737.318029,2834.553343
2917.240027,-9770.718434,-2220.617826,2145.067394
2917.240365,-8882.471304,0.000000,0.000000
2917.240702,-11843.295072,1036.288319,-995.924147
2917.241039,-11769.274478,1110.308913,-2451.505594
2917.241376,-10584.944971,666.185348,-3140.991542
2917.241713,-11251.130318,518.144159,-3140.991542
2917.242050,-9770.718434,-2664.741391,-1378.971896
2917.242388,-10214.842000,-4441.235652,153.219100
2917.242725,-9548.656652,-5625.565159,919.314598
2917.243062,-8216.285956,-5773.606348,3524.039291
2917.243399,-9696.697840,-4367.215058,3600.648841
2917.243736,-9104.533087,-1184.329507,2374.896044
2917.244073,-10881.027347,888.247130,1915.238745
2917.244411,-11843.295072,3182.885551,229.828649
2917.244748,-10955.047942,2442.679609,-612.876398
2917.245085,-12583.501014,3108.864956,-459.657299
2917.245422,-10658.965565,1110.308913,-842.705048
2917.245759,-10658.965565,-1332.370696,0.000000
2917.246096,-9400.615463,-2516.700203,-306.438199
2917.246433,-7846.182985,-3256.906145,1838.629195
2917.246771,-8660.409521,-2368.659014,3217.601092
2917.247108,-7476.080014,-666.185348,1685.410096
2917.247445,-9326.594869,1406.391290,1072.533697
2917.247782,-11399.171507,3330.926739,-919.314598
2917.248119,-10955.047942,3330.926739,-1225.752797
2917.248456,-13323.706956,3775.050304,-995.924147
2917.248794,-10807.006753,3182.885551,-1762.019645
2917.249131,-9474.636058,296.082377,-842.705048
2917.249468,-9696.697840,-2146.597232,612.876398
2917.249805,-7402.059420,-3552.988522,2221.676944
2917.250142,-8438.347739,-3701.029710,5515.887586
2917.250479,-7698.141797,-74.020594,3830.477490
2917.250817,-9104.533087,1554.432478,2451.505594
2917.251154,-12805.562797,4145.153275,1072.533697
2917.251491,-11547.212695,4293.194464,-1302.362347
2917.251828,-12213.398043,4441.235652,-766.095498
2917.252165,-11251.130318,3330.926739,-1302.362347
2917.252502,-9400.615463,666.185348,-2987.772442
2917.252839,-10510.924376,-1332.370696,-1762.019645
2917.253177,-8882.471304,-3330.926739,-842.705048
2917.253514,-8290.306550,-4663.297435,1302.362347
2917.253851,-8586.388927,-2960.823768,919.314598
2917.254188,-8068.244768,-1554.432478,0.000000
2917.254525,-10955.047942,0.000000,-689.485948
2917.254862,-10807.006753,1110.308913,-2451.505594
2917.255200,-11103.089130,1406.391290,-2068.457845
2917.255537,-12287.418637,1258.350101,-2374.896044
2917.255874,-10288.862594,-518.144159,-2374.896044
2917.256211,-11325.150913,-2590.720797,-842.705048
2917.256548,-9474.636058,-4441.235652,536.266849
2917.256885,-8068.244768,-5921.647536,3217.601092
2917.257223,-9474.636058,-4219.173869,4519.963438
2917.257560,-8290.306550,-1924.535449,3524.039291
2917.257897,-10658.965565,962.267725,3370.820191
2917.258234,-11621.233289,3256.906145,1455.581446
2917.258571,-10807.006753,3775.050304,0.000000
2917.258908,-12731.542202,4219.173869,-612.876398
2917.259245,-10288.862594,2738.761985,-1608.800546
2917.259583,-10362.883188,518.144159,-995.924147
2917.259920,-9548.656652,-1110.308913,-153.219100
2917.260257,-7624.121203,-2738.761985,612.876398
2917.260594,-8364.327145,-2590.720797,2757.943793
2917.260931,-7402.059420,-1184.329507,2374.896044
2917.261268,-9400.615463,0.000000,2374.896044
2917.261606,-10807.006753,2220.617826,153.219100
2917.261943,-10881.027347,2516.700203,-842.705048
2917.262280,-12139.377449,2960.823768,-1149.143247
2917.262617,-10584.944971,2072.576638,-2451.505594
2917.262954,-10510.924376,-518.144159,-1532.190996
2917.263291,-10140.821405,-2442.679609,-1532.190996
2917.263629,-7254.018232,-4145.153275,-76.609550
2917.263966,-8882.471304,-4441.235652,3753.867940
2917.264303,-8808.450710,-3330.926739,3524.039291
2917.264640,-8956.491898,-1554.432478,2451.505594
2917.264977,-12287.418637,814.226536,1608.800546
2917.265314,-10732.986159,2072.576638,0.000000
2917.265651,-12509.480420,2812.782580,536.266849
2917.265989,-11917.315666,2294.638420,-612.876398
2917.266326,-10362.883188,370.102971,-1608.800546
2917.266663,-11843.295072,-1184.329507,-1072.533697
2917.267000,-9178.553681,-3182.885551,-1915.238745
2917.267337,-8660.409521,-4293.194464,76.609550
2917.267674,-7994.224174,-3330.926739,995.924147
2917.268012,-8068.244768,-2664.741391,689.485948
2917.268349,-10584.944971,-518.144159,0.000000
2917.268686,-9918.759623,740.205942,-689.485948
2917.269023,-11547.212695,1554.432478,-1225.752797
2917.269360,-11991.336260,2294.638420,-1991.848295
2917.269697,-10881.027347,148.041188,-995.924147
2917.270035,-11695.253884,-1776.494261,306.438199
2917.270372,-8734.430116,-2960.823768,229.828649
2917.270709,-8068.244768,-3627.009116,2451.505594
2917.271046,-9326.594869,-2886.803174,4136.915689
2917.271383,-7994.224174,-1110.308913,3677.258390
2917.271720,-10510.924376,592.164754,2757.943793
2917.272057,-10658.965565,3034.844362,1225.752797
2917.272395,-10288.862594,4219.173869,0.000000
2917.272732,-12139.377449,5551.544565,-229.828649
2917.273069,-10584.944971,4811.338623,-1685.410096
2917.273406,-11029.068536,2294.638420,-1608.800546
2917.273743,-10214.842000,1258.350101,-1378.971896
2917.274080,-8216.285956,-2220.617826,76.609550
2917.274418,-8290.306550,-2294.638420,2451.505594
2917.274755,-7031.956449,-2072.576638,3447.429741
2917.275092,-9178.553681,0.000000,2451.505594
2917.275429,-10955.047942,1406.391290,76.609550
2917.275766,-10362.883188,1850.514855,-1532.190996
2917.276103,-11843.295072,1776.494261,-2221.676944
2917.276441,-10362.883188,1628.453072,-3447.429741
2917.276778,-10881.027347,-962.267725,-2451.505594
2917.277115,-10140.821405,-1554.432478,-2451.505594
2917.277452,-7254.018232,-4441.235652,-612.876398
2917.277789,-9252.574275,-4367.215058,2451.505594
2917.278126,-8364.327145,-3923.091493,2298.286494
2917.278463,-9474.636058,-3256.906145,3064.381992
2917.278801,-11473.192101,-1184.329507,2528.115143
2917.279138,-10288.862594,74.020594,1608.800546
2917.279475,-11843.295072,1924.535449,1685.410096
2917.279812,-10881.027347,2072.576638,0.000000
2917.280149,-10584.944971,814.226536,-612.876398
2917.280486,-11695.253884,-74.020594,0.000000
2917.280824,-9326.594869,-1776.494261,-536.266849
2917.281161,-9844.739029,-2516.700203,1072.533697
2917.281498,-9474.636058,-2146.597232,1302.362347
2917.281835,-8068.244768,-1406.391290,1302.362347
2917.282172,-10288.862594,-74.020594,1302.362347
2917.282509,-9326.594869,1332.370696,-459.657299
2917.282847,-10955.047942,1036.288319,-689.485948
2917.283184,-11325.150913,1850.514855,-2451.505594
2917.283521,-9770.718434,518.144159,-2298.286494
2917.283858,-11917.315666,0.000000,-383.047749
2917.284195,-9030.512492,-1184.329507,-766.095498
2917.284532,-8068.244768,-2590.720797,1149.143247
2917.284870,-8660.409521,-2516.700203,2298.286494
2917.285207,-7031.956449,-1036.288319,2374.896044
2917.285544,-10881.027347,-1036.288319,2834.553343
2917.285881,-10658.965565,1332.370696,1072.533697
2917.286219,-10658.965565,2886.803174,842.705048
2917.286556,-12657.521608,4589.276840,76.609550
2917.286893,-9474.636058,2886.803174,-1915.238745
2917.287230,-11029.068536,1332.370696,-842.705048
2917.287567,-10214.842000,0.000000,-689.485948
2917.287905,-8512.368333,-2072.576638,-306.438199
2917.288242,-9770.718434,-2368.659014,1149.143247
2917.288579,-8290.306550,-2738.761985,1762.019645
2917.288916,-9992.780217,-1480.411884,995.924147
2917.289254,-10807.006753,-296.082377,-536.266849
2917.289591,-9622.677246,0.000000,-612.876398
2917.289928,-10807.006753,666.185348,-1378.971896
2917.290265,-10140.821405,370.102971,-2528.115143
2917.290602,-11251.130318,-888.247130,-1838.629195
2917.290940,-11251.130318,-2072.576638,-2145.067394
2917.291277,-8586.388927,-3552.988522,-383.047749
2917.291614,-9770.718434,-3552.988522,2068.457845
2917.291951,-8142.265362,-3256.906145,2068.457845
2917.292289,-9548.656652,-3627.009116,2451.505594
2917.292626,-11621.233289,-1332.370696,2681.334243
2917.292963,-9622.677246,-296.082377,1991.848295
2917.293300,-11695.253884,1850.514855,2374.896044
2917.293638,-10140.821405,2220.617826,306.438199
2917.293975,-10436.903782,814.226536,229.828649
2917.294312,-11399.171507,1184.329507,153.219100
2917.294649,-8734.430116,0.000000,383.047749
2917.294986,-10510.924376,296.082377,1532.190996
2917.295324,-9770.718434,0.000000,383.047749
2917.295661,-9474.636058,-370.102971,1149.143247
2917.295998,-10436.903782,0.000000,1072.533697
2917.296335,-8290.306550,1258.350101,612.876398
2917.296673,-10584.944971,1480.411884,995.924147
2917.297010,-10436.903782,2590.720797,-1915.238745
2917.297347,-9844.739029,1406.391290,-1378.971896
2917.297684,-11917.315666,888.247130,-1378.971896
2917.298022,-8290.306550,-592.164754,-1685.410096
2917.298359,-9326.594869,-1776.494261,1455.581446
2917.298696,-9178.553681,-1184.329507,1455.581446
2917.299033,-8068.244768,-1998.556043,1378.971896
2917.299370,-11251.130318,-1480.411884,2145.067394
2917.299708,-9400.615463,-740.205942,766.095498
2917.300045,-10658.965565,0.000000,1455.581446
2917.300382,-11843.295072,1628.453072,536.266849
2917.300719,-9178.553681,1702.473667,-1072.533697
2917.301057,-11621.233289,666.185348,0.000000
2917.301394,-10288.862594,444.123565,0.000000
2917.301731,-10214.842000,-666.185348,0.000000
2917.302068,-11843.295072,-444.123565,919.314598
2917.302405,-9252.574275,-1332.370696,-76.609550
2917.302743,-10955.047942,-2368.659014,459.657299
2917.303080,-9622.677246,-1184.329507,-306.438199
2917.303417,-9252.574275,-1554.432478,-306.438199
2917.303754,-10510.924376,74.020594,-919.314598
2917.304092,-8290.306550,0.000000,-2451.505594
2917.304429,-10362.883188,-370.102971,-1378.971896
2917.304766,-10362.883188,-1184.329507,-1532.190996
2917.305103,-9474.636058,-1332.370696,-919.314598
2917.305441,-11473.192101,-2368.659014,1915.238745
2917.305778,-8882.471304,-1702.473667,1838.629195
2917.306115,-9548.656652,-1480.411884,1991.848295
2917.306452,-11103.089130,-1258.350101,2911.162892
2917.306789,-9474.636058,-814.226536,2451.505594
2917.307127,-11473.192101,518.144159,1762.019645
2917.307464,-9474.636058,2220.617826,536.266849
2917.307801,-9548.656652,2590.720797,-383.047749
2917.308138,-11325.150913,3256.906145,-536.266849
2917.308476,-9474.636058,1554.432478,-766.095498
2917.308813,-10436.903782,1258.350101,459.657299
2917.309150,-9326.594869,1702.473667,1378.971896
2917.309487,-9548.656652,-518.144159,919.314598
2917.309824,-10955.047942,-518.144159,995.924147
2917.310162,-9030.512492,-1258.350101,383.047749
2917.310499,-9770.718434,-1110.308913,153.219100
2917.310836,-8882.471304,296.082377,-766.095498
2917.311173,-8734.430116,-814.226536,-1149.143247
2917.311511,-10362.883188,-592.164754,-1762.019645
2917.311848,-9030.512492,-1036.288319,-2604.724693
2917.312185,-11103.089130,-1480.411884,-459.657299
2917.312522,-10362.883188,-1332.370696,-383.047749
2917.312860,-9400.615463,-2072.576638,-153.219100
2917.313197,-11547.212695,-2516.700203,612.876398
2917.313534,-9696.697840,-3256.906145,536.266849
2917.313871,-10510.924376,-3108.864956,1991.848295
2917.314208,-10510.924376,-1554.432478,1225.752797
2917.314546,-9474.636058,-740.205942,1149.143247
2917.314883,-11695.253884,518.144159,842.705048
2917.315220,-10436.903782,-148.041188,536.266849
2917.315557,-10732.986159,0.000000,919.314598
2917.315895,-10881.027347,0.000000,1072.533697
2917.316232,-9548.656652,296.082377,1072.533697
2917.316569,-11621.233289,-296.082377,306.438199
2917.316906,-9918.759623,-444.123565,-689.485948
2917.317244,-9622.677246,-1628.453072,536.266849
2917.317581,-9844.739029,0.000000,76.609550
2917.317918,-7254.018232,592.164754,-1072.533697
2917.318255,-10436.903782,518.144159,-459.657299
2917.318592,-9474.636058,1110.308913,-2145.067394
2917.318930,-9474.636058,222.061783,-919.314598
2917.319267,-11103.089130,888.247130,612.876398
2917.319604,-8734.430116,518.144159,229.828649
2917.319941,-10584.944971,222.061783,2374.896044
2917.320279,-10214.842000,-370.102971,1149.143247
2917.320616,-9030.512492,-1702.473667,2221.676944
2917.320953,-10362.883188,-222.061783,2987.772442
2917.321290,-8142.265362,74.020594,1455.581446
2917.321627,-10436.903782,2072.576638,1608.800546
2917.321965,-10881.027347,2516.700203,-459.657299
2917.322302,-9918.759623,1924.535449,-689.485948
2917.322639,-11251.130318,2294.638420,0.000000
2917.322976,-9622.677246,2294.638420,-689.485948
2917.323314,-10807.006753,740.205942,-383.047749
2917.323651,-11621.233289,0.000000,-383.047749
2917.323988,-9326.594869,-1776.494261,229.828649
2917.324325,-10807.006753,-1924.535449,1378.971896
2917.324663,-8660.409521,-1628.453072,0.000000
2917.325000,-9548.656652,-1184.329507,-766.095498
2917.325337,-10955.047942,-1258.350101,-1225.752797
2917.325674,-9104.533087,-1036.288319,-2374.896044
2917.326011,-10955.047942,-1184.329507,-995.924147
2917.326349,-10066.800811,-370.102971,-1302.362347
2917.326686,-10362.883188,-962.267725,-1072.533697
2917.327023,-11991.336260,-2072.576638,153.219100
2917.327360,-9252.574275,-3404.947333,459.657299
2917.327698,-10658.965565,-3997.112087,2145.067394
2917.328035,-9400.615463,-3034.844362,2451.505594
2917.328372,-8660.409521,-2220.617826,2757.943793
2917.328709,-10510.924376,0.000000,1838.629195
2917.329047,-8956.491898,444.123565,536.266849
2917.329384,-10732.986159,1184.329507,1762.019645
2917.329721,-10362.883188,2442.679609,766.095498
2917.330058,-10584.944971,1924.535449,459.657299
2917.330395,-12583.501014,2146.597232,0.000000
2917.330733,-9844.739029,296.082377,-919.314598
2917.331070,-9326.594869,-888.247130,459.657299
2917.331407,-9252.574275,-1184.329507,689.485948
2917.331744,-7402.059420,-740.205942,383.047749
2917.332082,-9770.718434,-592.164754,919.314598
2917.332419,-8364.327145,0.000000,-1225.752797
2917.332756,-9400.615463,518.144159,-306.438199
2917.333093,-11399.171507,1850.514855,459.657299
2917.333430,-9400.615463,1850.514855,-1532.190996
2917.333768,-11843.295072,370.102971,0.000000
2917.334105,-10807.006753,-962.267725,-383.047749
2917.334442,-8808.450710,-3108.864956,0.000000
2917.334779,-9770.718434,-3256.906145,1838.629195
2917.335117,-7698.141797,-2220.617826,2451.505594
2917.335454,-9992.780217,-2368.659014,2221.676944
2917.335791,-9474.636058,-814.226536,0.000000
2917.336128,-9030.512492,518.144159,306.438199
2917.336466,-11991.336260,2072.576638,1302.362347
2917.336803,-10881.027347,2368.659014,-689.485948
2917.337140,-11991.336260,1628.453072,-1149.143247
2917.337477,-12509.480420,740.205942,-689.485948
2917.337814,-10066.800811,-2072.576638,-689.485948
2917.338152,-10214.842000,-3108.864956,689.485948
2917.338489,-8290.306550,-2516.700203,383.047749
2917.338826,-9030.512492,-2516.700203,1455.581446
2917.339163,-10214.842000,-1184.329507,-1072.533697
2917.339501,-8660.409521,-962.267725,-1532.190996
2917.339838,-10955.047942,222.061783,0.000000
2917.340175,-10510.924376,1184.329507,-1378.971896
2917.340512,-10807.006753,1258.350101,-919.314598
2917.340850,-12509.480420,148.041188,-229.828649
2917.341187,-9474.636058,-1702.473667,0.000000
2917.341524,-10436.903782,-1924.535449,1608.800546
2917.341861,-9252.574275,-1924.535449,2145.067394
2917.342198,-8216.285956,-2146.597232,3064.381992
2917.342536,-9770.718434,-1480.411884,3217.601092
2917.342873,-7772.162391,592.164754,1991.848295
2917.343210,-9548.656652,2368.659014,2451.505594
2917.343547,-10732.986159,4663.297435,612.876398
2917.343885,-10510.924376,3997.112087,-995.924147
2917.344222,-12657.521608,3552.988522,-1532.190996
2917.344559,-10510.924376,2368.659014,-1455.581446
2917.344896,-9918.759623,-296.082377,229.828649
2917.345233,-8290.306550,-1184.329507,0.000000
2917.345571,-6883.915261,-2960.823768,919.314598
2917.345908,-10066.800811,-1406.391290,1991.848295
2917.346245,-8142.265362,-444.123565,-459.657299
2917.346582,-10140.821405,-444.123565,306.438199
2917.346920,-11843.295072,1850.514855,-459.657299
2917.347257,-10066.800811,1998.556043,-2451.505594
2917.347594,-12583.501014,1406.391290,-1915.238745
2917.347931,-11769.274478,-518.144159,-2374.896044
2917.348269,-10140.821405,-2368.659014,-919.314598
2917.348606,-10288.862594,-2664.741391,229.828649
2917.348943,-7772.162391,-4367.215058,1532.190996
2917.349280,-10436.903782,-4145.153275,3524.039291
2917.349617,-9992.780217,-3256.906145,2528.115143
2917.349955,-9474.636058,-740.205942,2604.724693
2917.350292,-11547.212695,1998.556043,2451.505594
2917.350629,-10140.821405,2590.720797,0.000000
2917.350966,-12361.439231,2072.576638,-1378.971896
2917.351304,-12065.356855,666.185348,-1532.190996
2917.351641,-9474.636058,-518.144159,-612.876398
2917.351978,-9844.739029,-1850.514855,306.438199
2917.352315,-7550.100608,-1924.535449,153.219100
2917.352652,-9252.574275,-2886.803174,1455.581446
2917.352990,-9696.697840,-1258.350101,1762.019645
2917.353327,-8068.244768,-740.205942,689.485948
2917.353664,-10214.842000,1480.411884,995.924147
2917.354001,-9770.718434,2664.741391,-1149.143247
2917.354339,-11399.171507,2368.659014,-2221.676944
2917.354676,-12583.501014,1850.514855,-1608.800546
2917.355013,-10214.842000,370.102971,-1762.019645
2917.355350,-9770.718434,-1258.350101,383.047749
2917.355688,-8068.244768,-1776.494261,1149.143247
2917.356025,-7476.080014,-3256.906145,3064.381992
2917.356362,-8956.491898,-2146.597232,3830.477490
2917.356699,-8734.430116,-1258.350101,3600.648841
2917.357036,-10288.862594,2072.576638,3447.429741
2917.357374,-11399.171507,4663.297435,1149.143247
2917.357711,-12287.418637,3849.070898,-383.047749
2917.358048,-13323.706956,2368.659014,-1838.629195
2917.358385,-10510.924376,814.226536,-2221.676944
2917.358723,-9548.656652,-1110.308913,-995.924147
2917.359060,-8290.306550,-2368.659014,-536.266849
2917.359397,-7328.038826,-3923.091493,383.047749
2917.359734,-9918.759623,-4145.153275,842.705048
2917.360072,-8512.368333,-2220.617826,0.000000
2917.360409,-10214.842000,-814.226536,459.657299
2917.360746,-10881.027347,1184.329507,-612.876398
2917.361083,-10658.965565,1702.473667,-1991.848295
2917.361420,-13101.645173,666.185348,-2298.286494
2917.361758,-11399.171507,-222.061783,-2374.896044
2917.362095,-10807.006753,-3034.844362,0.000000
2917.362432,-9622.677246,-2664.741391,536.266849
2917.362769,-7772.162391,-4293.194464,766.095498
2917.363107,-9622.677246,-4441.235652,1915.238745
2917.363444,-8956.491898,-3108.864956,2298.286494
2917.363781,-9030.512492,-962.267725,3524.039291
2917.364118,-11029.068536,2738.761985,3217.601092
2917.364455,-10584.944971,3997.112087,383.047749
2917.364793,-13027.624579,3182.885551,306.438199
2917.365130,-11547.212695,2664.741391,-689.485948
2917.365467,-10436.903782,148.041188,383.047749
2917.365804,-9770.718434,814.226536,1149.143247
2917.366142,-7402.059420,-1036.288319,-383.047749
2917.366479,-9252.574275,-1776.494261,1378.971896
2917.366816,-8068.244768,-1554.432478,0.000000
2917.367153,-7624.121203,-296.082377,1225.752797
2917.367491,-10066.800811,2072.576638,1532.190996
2917.367828,-8882.471304,3404.947333,-1302.362347
2917.368165,-11621.233289,3034.844362,-1762.019645
2917.368502,-12435.459826,1924.535449,-2374.896044
2917.368839,-10140.821405,740.205942,-1915.238745
2917.369177,-10955.047942,-1110.308913,0.000000
2917.369514,-8512.368333,-2368.659014,1072.533697
2917.369851,-8290.306550,-3997.112087,2145.067394
2917.370188,-9844.739029,-3330.926739,2911.162892
2917.370526,-8438.347739,-2220.617826,2451.505594
2917.370863,-10881.027347,592.164754,2374.896044
2917.371200,-10807.006753,3552.988522,842.705048
2917.371537,-11325.150913,3256.906145,-995.924147
2917.371875,-13249.686362,2516.700203,-995.924147
2917.372212,-10732.986159,0.000000,-919.314598
2917.372549,-10584.944971,-666.185348,536.266849
2917.372886,-9918.759623,-1554.432478,459.657299
2917.373223,-9178.553681,-3330.926739,383.047749
2917.373561,-10066.800811,-4071.132681,229.828649
2917.373898,-7402.059420,-3330.926739,306.438199
2917.374235,-8808.450710,-296.082377,1149.143247
2917.374572,-9770.718434,1036.288319,-536.266849
2917.374910,-10214.842000,2294.638420,-2528.115143
2917.375247,-12361.439231,1258.350101,-3064.381992
2917.375584,-10510.924376,0.000000,-2987.772442
2917.375921,-9622.677246,-1406.391290,-306.438199
2917.376258,-9622.677246,-1702.473667,612.876398
2917.376596,-9326.594869,-3701.029710,2068.457845
2917.376933,-9918.759623,-3997.112087,1762.019645
2917.377270,-8734.430116,-3108.864956,2604.724693
2917.377607,-8512.368333,-1184.329507,4290.134789
2917.377945,-9326.594869,1776.494261,3064.381992
2917.378282,-9992.780217,4515.256246,766.095498
2917.378619,-12731.542202,4515.256246,-842.705048
2917.378956,-13027.624579,3997.112087,-1915.238745
2917.379294,-11473.192101,2442.679609,-1072.533697
2917.379631,-10658.965565,1554.432478,0.000000
2917.379968,-8586.388927,-148.041188,536.266849
2917.380305,-9474.636058,-2960.823768,1685.410096
2917.380642,-8142.265362,-2590.720797,1455.581446
2917.380980,-7476.080014,-2294.638420,2298.286494
2917.381317,-10288.862594,1036.288319,1838.629195
2917.381654,-9474.636058,2368.659014,-1225.752797
2917.381991,-11547.212695,2368.659014,-2374.896044
2917.382329,-10807.006753,1776.494261,-4290.134789
2917.382666,-9326.594869,-740.205942,-3370.820191
2917.383003,-11103.089130,-592.164754,-383.047749
2917.383341,-8438.347739,-3330.926739,-229.828649
2917.383678,-9030.512492,-4737.318029,612.876398
2917.384015,-9770.718434,-5107.421000,1302.362347
2917.384353,-8290.306550,-4219.173869,3064.381992
2917.384690,-9326.594869,-2590.720797,3370.820191
2917.385027,-9400.615463,296.082377,995.924147
2917.385365,-10732.986159,1924.535449,689.485948
2917.385702,-13101.645173,2960.823768,-383.047749
2917.386039,-11843.295072,1406.391290,-766.095498
2917.386377,-12435.459826,74.020594,0.000000
2917.386714,-10066.800811,-518.144159,-383.047749
2917.387051,-8956.491898,-2294.638420,383.047749
2917.387389,-11251.130318,-2812.782580,1455.581446
2917.387726,-8290.306550,-2664.741391,1225.752797
2917.388063,-8956.491898,-1184.329507,1225.752797
2917.388401,-9104.533087,1628.453072,0.000000
2917.388738,-9400.615463,3256.906145,-1838.629195
2917.389075,-12583.501014,3478.967927,-1915.238745
2917.389413,-11473.192101,2368.659014,-2911.162892
2917.389750,-11695.253884,222.061783,-1302.362347
2917.390087,-11029.068536,0.000000,0.000000
2917.390425,-9030.512492,-2516.700203,153.219100
2917.390762,-9400.615463,-3627.009116,2221.676944
2917.391099,-6735.874072,-3108.864956,2757.943793
2917.391437,-7254.018232,-2442.679609,4060.306139
2917.391774,-9474.636058,1406.391290,3064.381992
2917.392111,-8882.471304,2960.823768,766.095498
2917.392449,-11473.192101,4885.359217,-153.219100
2917.392786,-12139.377449,4959.379811,-2068.457845
2917.393123,-12065.356855,3256.906145,-1838.629195
2917.393461,-10732.986159,1628.453072,-1072.533697
2917.393798,-8216.285956,-1924.535449,-766.095498
2917.394135,-9548.656652,-2516.700203,995.924147
2917.394473,-8882.471304,-3330.926739,995.924147
2917.394810,-7994.224174,-3256.906145,1991.848295
2917.395147,-10066.800811,-1036.288319,1608.800546
2917.395485,-8808.450710,1480.411884,0.000000
2917.395822,-11399.171507,2368.659014,-306.438199
2917.396159,-12213.398043,2368.659014,-1762.019645
2917.396497,-11251.130318,592.164754,-3600.648841
2917.396834,-12583.501014,-518.144159,-2451.505594
2917.397171,-10807.006753,-1554.432478,-612.876398
2917.397509,-10066.800811,-4441.235652,766.095498
2917.397846,-9844.739029,-4811.338623,1455.581446
2917.398183,-7698.141797,-5921.647536,2374.896044
2917.398521,-9252.574275,-3849.070898,3753.867940
2917.398858,-8068.244768,-962.267725,2834.553343
2917.399195,-10066.800811,1554.432478,1991.848295
2917.399533,-12435.459826,3775.050304,995.924147
2917.399870,-11473.192101,2812.782580,-459.657299
2917.400207,-12583.501014,2072.576638,153.219100
2917.400545,-10214.842000,222.061783,0.000000
2917.400882,-8956.491898,-1406.391290,1455.581446
2917.401219,-9548.656652,-2368.659014,1302.362347
2917.401557,-7105.977043,-3997.112087,1149.143247
2917.401894,-7698.141797,-2294.638420,3294.210641
2917.402231,-7254.018232,-666.185348,919.314598
2917.402569,-8586.388927,2590.720797,842.705048
2917.402906,-12139.377449,3627.009116,-2451.505594
2917.403243,-11103.089130,2886.803174,-3753.867940
2917.403581,-12287.418637,1850.514855,-2604.724693
2917.403918,-11399.171507,1998.556043,-995.924147
2917.404255,-9770.718434,-518.144159,-766.095498
2917.404593,-9992.780217,-3256.906145,919.314598
2917.404930,-9104.533087,-4441.235652,1762.019645
2917.405267,-9030.512492,-4811.338623,3907.087040
2917.405605,-9844.739029,-1554.432478,2911.162892
2917.405942,-8882.471304,518.144159,1608.800546
2917.406279,-11991.336260,2886.803174,919.314598
2917.406616,-11325.150913,4145.153275,-1225.752797
2917.406954,-11621.233289,2812.782580,-1915.238745
2917.407291,-11843.295072,2294.638420,-1378.971896
2917.407628,-9918.759623,-962.267725,-1915.238745
2917.407966,-10288.862594,-2220.617826,0.000000
2917.408303,-8660.409521,-3108.864956,383.047749
2917.408640,-7476.080014,-4811.338623,2374.896044
2917.408978,-8808.450710,-3552.988522,2528.115143
2917.409315,-7476.080014,-1258.350101,1302.362347
2917.409652,-10288.862594,1184.329507,995.924147
2917.409990,-10881.027347,2072.576638,-2068.457845
2917.410327,-11843.295072,1480.411884,-3217.601092
2917.410664,-13175.665768,962.267725,-2374.896044
2917.411002,-9770.718434,0.000000,-2757.943793
2917.411339,-9474.636058,-1850.514855,-536.266849
2917.411676,-9400.615463,-3552.988522,0.000000
2917.412014,-8068.244768,-5255.462188,1838.629195
2917.412351,-8956.491898,-3627.009116,3064.381992
2917.412688,-8216.285956,-444.123565,4060.306139
2917.413026,-10584.944971,1628.453072,3600.648841
2917.413363,-12065.356855,3552.988522,1608.800546
2917.413700,-11843.295072,4145.153275,76.609550
2917.414038,-13915.871710,4441.235652,0.000000
2917.414375,-11103.089130,3627.009116,-995.924147
2917.414712,-9992.780217,888.247130,-459.657299
2917.415050,-10288.862594,0.000000,-76.609550
2917.415387,-7105.977043,-3108.864956,-229.828649
2917.415724,-8512.368333,-2738.761985,2451.505594
2917.416062,-6883.915261,-592.164754,1685.410096
2917.416399,-7846.182985,444.123565,1302.362347
2917.416736,-11695.253884,3108.864956,-383.047749
2917.417074,-10362.883188,3256.906145,-2834.553343
2917.417411,-12213.398043,1406.391290,-1991.848295
2917.417748,-10288.862594,740.205942,-2604.724693
2917.418086,-8956.491898,-2072.576638,-1991.848295
2917.418423,-10807.006753,-2220.617826,-229.828649
2917.418760,-8364.327145,-4959.379811,0.000000
2917.419098,-8216.285956,-5107.421000,2298.286494
2917.419435,-8660.409521,-3404.947333,2681.334243
2917.419772,-8512.368333,-2072.576638,2681.334243
2917.420110,-11621.233289,444.123565,1838.629195
2917.420447,-11843.295072,2294.638420,-459.657299
2917.420784,-12435.459826,2516.700203,-689.485948
2917.421122,-12361.439231,2664.741391,-1149.143247
2917.421459,-10658.965565,370.102971,-689.485948
2917.421796,-11621.233289,-1924.535449,536.266849
2917.422134,-9474.636058,-2960.823768,612.876398
2917.422471,-7994.224174,-3108.864956,2221.676944
2917.422808,-9622.677246,-2368.659014,2145.067394
2917.423146,-7994.224174,-1110.308913,2145.067394
2917.423483,-10436.903782,518.144159,766.095498
2917.423820,-10140.821405,2812.782580,-919.314598
2917.424158,-10807.006753,2220.617826,-2451.505594
2917.424495,-12879.583391,2590.720797,-2834.553343
2917.424832,-9622.677246,0.000000,-2987.772442
2917.425170,-9770.718434,-888.247130,-1455.581446
2917.425507,-9770.718434,-2072.576638,-766.095498
2917.425844,-7328.038826,-4293.194464,995.924147
2917.426182,-7476.080014,-2590.720797,3217.601092
2917.426519,-6587.832884,-2072.576638,3830.477490
2917.426856,-9992.780217,0.000000,4213.525239
2917.427194,-10955.047942,2516.700203,1762.019645
2917.427531,-11769.274478,2812.782580,459.657299
2917.427868,-12805.562797,4367.215058,-306.438199
2917.428206,-10807.006753,3108.864956,-2911.162892
2917.428543,-10510.924376,888.247130,-1302.362347
2917.428880,-9030.512492,-1184.329507,-1608.800546
2917.429218,-7105.977043,-3404.947333,612.876398
2917.429555,-8882.471304,-2664.741391,2145.067394
2917.429892,-7994.224174,-1776.494261,1532.190996
2917.430230,-9474.636058,-148.041188,1455.581446
2917.430567,-11991.336260,1036.288319,76.609550
2917.430904,-11177.109724,2294.638420,-1225.752797
2917.431242,-12879.583391,1628.453072,-766.095498
2917.431579,-11843.295072,1406.391290,-2221.676944
2917.431916,-9844.739029,-1998.556043,-1685.410096
2917.432254,-11399.171507,-3552.988522,-766.095498
2917.432591,-8290.306550,-4737.318029,0.000000
2917.432928,-8956.491898,-5847.626942,1225.752797
2917.433266,-8216.285956,-4663.297435,2145.067394
2917.433603,-8068.244768,-3478.967927,2221.676944
2917.433940,-11029.068536,-666.185348,1991.848295
2917.434278,-10362.883188,1480.411884,153.219100
2917.434615,-11769.274478,1998.556043,536.266849
2917.434952,-11917.315666,2886.803174,0.000000
2917.435290,-10658.965565,1110.308913,0.000000
2917.435627,-12731.542202,518.144159,1455.581446
2917.435964,-9474.636058,-1332.370696,689.485948
2917.436302,-8882.471304,-2368.659014,2604.724693
2917.436639,-8290.306550,-444.123565,2451.505594
2917.436976,-7105.977043,-444.123565,2374.896044
2917.437314,-9844.739029,1184.329507,1915.238745
2917.437651,-9918.759623,2886.803174,-842.705048
2917.437988,-10807.006753,3627.009116,-1762.019645
2917.438326,-12583.501014,4959.379811,-2834.553343
2917.438663,-10362.883188,2442.679609,-3830.477490
2917.439000,-10732.986159,296.082377,-2145.067394
2917.439338,-9326.594869,-2146.597232,-306.438199
2917.439675,-7550.100608,-3256.906145,1378.971896
2917.440012,-9178.553681,-3108.864956,3294.210641
2917.440350,-7624.121203,-1480.411884,3370.820191
2917.440687,-9696.697840,-740.205942,2298.286494
2917.441024,-11399.171507,1628.453072,1072.533697
2917.441362,-10436.903782,1776.494261,459.657299
2917.441699,-12139.377449,2590.720797,-536.266849
2917.442036,-10214.842000,1998.556043,-1762.019645
2917.442374,-10955.047942,74.020594,-1991.848295
2917.442711,-10214.842000,-1332.370696,-1072.533697
2917.443048,-8734.430116,-3478.967927,459.657299
2917.443386,-9474.636058,-3182.885551,2221.676944
2917.443723,-7994.224174,-2516.700203,1532.190996
2917.444060,-9696.697840,-2294.638420,2221.676944
2917.444398,-10732.986159,-370.102971,689.485948
2917.444735,-10362.883188,-296.082377,229.828649
2917.445072,-11695.253884,2220.617826,-842.705048
2917.445410,-12065.356855,888.247130,-2374.896044
2917.445747,-10955.047942,-592.164754,-2757.943793
2917.446084,-11029.068536,-2294.638420,-2298.286494
2917.446422,-9400.615463,-3701.029710,-383.047749
2917.446759,-9622.677246,-3627.009116,1149.143247
2917.447096,-8956.491898,-2960.823768,1225.752797
2917.447434,-9030.512492,-2220.617826,2298.286494
2917.447771,-10807.006753,-444.123565,2221.676944
2917.448108,-10362.883188,962.267725,2528.115143
2917.448445,-11917.315666,2368.659014,2451.505594
2917.448783,-11917.315666,3552.988522,229.828649
2917.449120,-11177.109724,2368.659014,-612.876398
2917.449457,-11547.212695,1332.370696,-383.047749
2917.449795,-8660.409521,-592.164754,229.828649
2917.450132,-8660.409521,-1998.556043,2068.457845
2917.450469,-7105.977043,-1258.350101,1532.190996
2917.450807,-6291.750507,-518.144159,1302.362347
2917.451144,-9770.718434,888.247130,2068.457845
2917.451481,-9326.594869,2220.617826,-612.876398
2917.451819,-10658.965565,2294.638420,-919.314598
2917.452156,-11769.274478,3330.926739,-1762.019645
2917.452493,-9474.636058,1332.370696,-3524.039291
2917.452831,-11029.068536,-740.205942,-2221.676944
2917.453168,-8956.491898,-2368.659014,-1455.581446
2917.453505,-8660.409521,-3849.070898,-383.047749
2917.453843,-9622.677246,-2664.741391,1378.971896
2917.454180,-8882.471304,-2812.782580,1149.143247
2917.454517,-10807.006753,-2368.659014,1149.143247
2917.454855,-10362.883188,-814.226536,229.828649
2917.455192,-10436.903782,888.247130,2221.676944
2917.455529,-13027.624579,1480.411884,612.876398
2917.455867,-11177.109724,1036.288319,-766.095498
2917.456204,-12583.501014,740.205942,0.000000
2917.456541,-11843.295072,-666.185348,-76.609550
2917.456879,-9696.697840,-2220.617826,995.924147
2917.457216,-9918.759623,-2812.782580,2298.286494
2917.457553,-7994.224174,-2072.576638,2221.676944
2917.457891,-9474.636058,-1554.432478,1378.971896
2917.458228,-10140.821405,-222.061783,919.314598
2917.458565,-8882.471304,370.102971,76.609550
2917.458903,-11251.130318,1924.535449,-153.219100
2917.459240,-9548.656652,2220.617826,-2604.724693
2917.459577,-10066.800811,518.144159,-2834.553343
2917.459915,-10584.944971,-148.041188,-1378.971896
2917.460252,-8364.327145,-2220.617826,-842.705048
2917.460589,-9474.636058,-1924.535449,1532.190996
2917.460927,-8216.285956,-1480.411884,1685.410096
2917.461264,-8364.327145,-1480.411884,2451.505594
2917.461601,-10362.883188,370.102971,2145.067394
2917.461939,-8660.409521,592.164754,1838.629195
2917.462276,-11251.130318,2960.823768,1532.190996
2917.462613,-10807.006753,4145.153275,-766.095498
2917.462951,-11251.130318,3330.926739,-1072.533697
2917.463288,-12361.439231,2368.659014,-842.705048
2917.463625,-9252.574275,1036.288319,-689.485948
2917.463963,-9770.718434,-74.020594,1302.362347
2917.464300,-9326.594869,-296.082377,1915.238745
2917.464637,-7846.182985,-1332.370696,1378.971896
2917.464975,-10955.047942,444.123565,1608.800546
2917.465312,-9992.780217,-444.123565,306.438199
2917.465649,-11029.068536,740.205942,-383.047749
2917.465987,-10584.944971,592.164754,-1532.190996
2917.466324,-9252.574275,1332.370696,-2145.067394
2917.466661,-11473.192101,-74.020594,-1762.019645
2917.466999,-10140.821405,-1628.453072,-2298.286494
2917.467336,-10140.821405,-3478.967927,-995.924147
2917.467673,-10066.800811,-3256.906145,0.000000
2917.468011,-7550.100608,-4145.153275,0.000000
2917.468348,-10140.821405,-4145.153275,766.095498
2917.468685,-9326.594869,-2960.823768,766.095498
2917.469023,-9474.636058,-2960.823768,1225.752797
2917.469360,-11029.068536,296.082377,919.314598
2917.469697,-9992.780217,296.082377,76.609550
2917.470035,-12435.459826,0.000000,1455.581446
2917.470372,-11029.068536,-444.123565,153.219100
2917.470709,-9918.759623,-1332.370696,1838.629195
2917.471047,-11325.150913,-148.041188,3524.039291
2917.471384,-9178.553681,-888.247130,1991.848295
2917.471721,-10584.944971,-370.102971,2221.676944
2917.472059,-10066.800811,-296.082377,1225.752797
2917.472396,-9178.553681,-222.061783,1532.190996
2917.472733,-10658.965565,1850.514855,1302.362347
2917.473071,-9252.574275,2072.576638,-766.095498
2917.473408,-11103.089130,2072.576638,-1302.362347
2917.473745,-11177.109724,1924.535449,-2145.067394
2917.474083,-8956.491898,-444.123565,-1532.190996
2917.474420,-9770.718434,-518.144159,842.705048
2917.474757,-7920.203579,-814.226536,306.438199
2917.475095,-9030.512492,-1480.411884,995.924147
2917.475432,-10140.821405,-1554.432478,919.314598
2917.475769,-8882.471304,-1332.370696,1762.019645
2917.476107,-10658.965565,-296.082377,1991.848295
2917.476444,-9030.512492,888.247130,0.000000
2917.476781,-9548.656652,666.185348,-383.047749
2917.477119,-11251.130318,1036.288319,-689.485948
2917.477456,-9326.594869,444.123565,-1072.533697
2917.477793,-11399.171507,-370.102971,306.438199
2917.478131,-9992.780217,444.123565,0.000000
2917.478468,-9696.697840,-1776.494261,0.000000
2917.478805,-10955.047942,-888.247130,383.047749
2917.479143,-8660.409521,-1258.350101,-229.828649
2917.479480,-11029.068536,-1110.308913,689.485948
2917.479817,-9770.718434,74.020594,-459.657299
2917.480155,-9696.697840,-370.102971,-1608.800546
2917.480492,-11917.315666,518.144159,-842.705048
2917.480829,-10510.924376,-888.247130,-1838.629195
2917.481167,-10510.924376,-1110.308913,-766.095498
2917.481504,-10732.986159,-1702.473667,0.000000
2917.481841,-9474.636058,-1702.473667,536.266849
2917.482179,-10584.944971,-2220.617826,536.266849
2917.482516,-9474.636058,-1776.494261,153.219100
2917.482853,-9696.697840,-2072.576638,1072.533697
2917.483191,-10066.800811,-444.123565,919.314598
2917.483528,-8808.450710,370.102971,612.876398
2917.483865,-11325.150913,518.144159,1915.238745
2917.484202,-11029.068536,1332.370696,1149.143247
2917.484539,-9844.739029,740.205942,1915.238745
2917.484877,-11325.150913,1480.411884,2987.772442
2917.485214,-8660.409521,888.247130,1455.581446
2917.485551,-10362.883188,370.102971,2221.676944
2917.485888,-9548.656652,0.000000,1149.143247
2917.486226,-8216.285956,0.000000,766.095498
2917.486563,-9474.636058,1184.329507,1378.971896
2917.486900,-8364.327145,1628.453072,-1302.362347
2917.487237,-9770.718434,1406.391290,-1149.143247
2917.487575,-11251.130318,2960.823768,-1302.362347
2917.487912,-9992.780217,962.267725,-1762.019645
2917.488249,-11621.233289,962.267725,0.000000
2917.488586,-9474.636058,-592.164754,-536.266849
2917.488924,-10881.027347,-1480.411884,76.609550
2917.489261,-10881.027347,-1332.370696,536.266849
2917.489598,-9770.718434,-2960.823768,1149.143247
2917.489935,-10732.986159,-1480.411884,1225.752797
2917.490272,-8734.430116,-1110.308913,-76.609550
2917.490610,-9696.697840,-148.041188,459.657299
2917.490947,-11325.150913,444.123565,-459.657299
2917.491284,-10140.821405,0.000000,-766.095498
2917.491621,-11251.130318,296.082377,76.609550
2917.491959,-9918.759623,0.000000,0.000000
2917.492296,-10362.883188,-296.082377,766.095498
2917.492633,-11695.253884,-1258.350101,1149.143247
2917.492970,-9104.533087,-2368.659014,919.314598
2917.493308,-9548.656652,-2442.679609,1455.581446
2917.493645,-8438.347739,-1406.391290,689.485948
2917.493982,-8290.306550,-1702.473667,459.657299
2917.494319,-10214.842000,0.000000,-459.657299
2917.494657,-9252.574275,0.000000,-842.705048
2917.494994,-11029.068536,1184.329507,-612.876398
2917.495331,-10436.903782,1184.329507,-1302.362347
2917.495668,-10584.944971,-148.041188,-1302.362347
2917.496005,-11103.089130,-592.164754,-1225.752797
2917.496343,-9474.636058,-2072.576638,0.000000
2917.496680,-10288.862594,-2738.761985,1685.410096
2917.497017,-8586.388927,-2146.597232,1608.800546
2917.497354,-8068.244768,-1036.288319,2681.334243
2917.497692,-11177.109724,518.144159,2221.676944
2917.498029,-9548.656652,1258.350101,536.266849
2917.498366,-11843.295072,1702.473667,1991.848295
2917.498703,-12583.501014,3182.885551,689.485948
2917.499041,-10362.883188,2220.617826,0.000000
2917.499378,-11843.295072,1776.494261,536.266849
2917.499715,-9474.636058,-518.144159,-919.314598
2917.500052,-8660.409521,-1702.473667,612.876398
2917.500390,-9030.512492,-1554.432478,536.266849
2917.500727,-6809.894666,-1258.350101,0.000000
2917.501064,-9252.574275,-666.185348,76.609550
2917.501401,-9622.677246,-370.102971,-919.314598
2917.501739,-9622.677246,814.226536,-1532.190996
2917.502076,-11991.336260,1332.370696,-383.047749
2917.502413,-9770.718434,370.102971,-1685.410096
2917.502750,-10881.027347,-1406.391290,-1378.971896
2917.503087,-10732.986159,-1776.494261,-229.828649
2917.503425,-9252.574275,-3330.926739,229.828649
2917.503762,-10288.862594,-3552.988522,536.266849
2917.504099,-7476.080014,-3404.947333,612.876398
2917.504436,-9178.553681,-2738.761985,1838.629195
2917.504774,-10584.944971,-962.267725,766.095498
2917.505111,-9400.615463,666.185348,536.266849
2917.505448,-12435.459826,1554.432478,1991.848295
2917.505785,-11547.212695,2220.617826,1302.362347
2917.506123,-11843.295072,1702.473667,1072.533697
2917.506460,-12435.459826,888.247130,1991.848295
2917.506797,-9992.780217,-1628.453072,1762.019645
2917.507134,-10140.821405,-1332.370696,1838.629195
2917.507472,-8512.368333,-1628.453072,1915.238745
2917.507809,-7846.182985,-1332.370696,1532.190996
2917.508146,-9474.636058,0.000000,536.266849
2917.508483,-8290.306550,518.144159,-383.047749
2917.508820,-10436.903782,2812.782580,-612.876398
2917.509158,-10807.006753,3627.009116,-2757.943793
2917.509495,-11177.109724,2664.741391,-3064.381992
2917.509832,-11843.295072,1184.329507,-2451.505594
2917.510169,-9548.656652,-962.267725,-1225.752797
2917.510507,-9622.677246,-2294.638420,995.924147
2917.510844,-8438.347739,-2072.576638,1455.581446
2917.511181,-7846.182985,-2368.659014,2451.505594
2917.511518,-10362.883188,-1480.411884,1608.800546
2917.511856,-9104.533087,0.000000,842.705048
2917.512193,-10510.924376,814.226536,1378.971896
2917.512530,-10955.047942,3775.050304,536.266849
2917.512867,-9696.697840,2738.761985,-1608.800546
2917.513205,-12435.459826,2368.659014,-1072.533697
2917.513542,-10807.006753,444.123565,-842.705048
2917.513879,-10658.965565,-1480.411884,536.266849
2917.514216,-10066.800811,-1258.350101,1149.143247
2917.514553,-7624.121203,-2368.659014,1072.533697
2917.514891,-10140.821405,-1628.453072,1225.752797
2917.515228,-8808.450710,-1110.308913,-153.219100
2917.515565,-9918.759623,-814.226536,842.705048
2917.515902,-11251.130318,1776.494261,-383.047749
2917.516240,-10436.903782,1850.514855,-2145.067394
2917.516577,-12731.542202,814.226536,-1762.019645
2917.516914,-11547.212695,-1406.391290,-2604.724693
2917.517251,-10066.800811,-3108.864956,0.000000
2917.517589,-10436.903782,-2368.659014,1072.533697
2917.517926,-7698.141797,-3108.864956,919.314598
2917.518263,-9548.656652,-3256.906145,2374.896044
2917.518600,-8956.491898,-2442.679609,1532.190996
2917.518938,-8142.265362,-1258.350101,2911.162892
2917.519275,-11695.253884,1406.391290,3677.258390
2917.519612,-10214.842000,2886.803174,459.657299
2917.519949,-12583.501014,2886.803174,689.485948
2917.520286,-12731.542202,2146.597232,76.609550
2917.520624,-9548.656652,740.205942,306.438199
2917.520961,-10584.944971,-592.164754,1762.019645
2917.521298,-7550.100608,-1776.494261,612.876398
2917.521635,-7179.997637,-2220.617826,1302.362347
2917.521973,-9178.553681,-962.267725,1302.362347
2917.522310,-7624.121203,-148.041188,919.314598
2917.522647,-10584.944971,1776.494261,919.314598
2917.522984,-11177.109724,3849.070898,-1685.410096
2917.523322,-12731.542202,2960.823768,-2911.162892
2917.523659,-13471.748144,1554.432478,-2834.553343
2917.523996,-9326.594869,-1924.535449,-1685.410096
2917.524333,-9474.636058,-2960.823768,306.438199
2917.524671,-8586.388927,-3182.885551,229.828649
2917.525008,-7920.203579,-4145.153275,612.876398
2917.525345,-9696.697840,-3330.926739,995.924147
2917.525682,-7994.224174,-2368.659014,919.314598
2917.526019,-10288.862594,0.000000,1991.848295
2917.526357,-11325.150913,1998.556043,536.266849
2917.526694,-11251.130318,2072.576638,-766.095498
2917.527031,-13175.665768,1702.473667,-766.095498
2917.527368,-11177.109724,370.102971,-919.314598
2917.527706,-10436.903782,-1332.370696,383.047749
2917.528043,-10288.862594,-2368.659014,1225.752797
2917.528380,-7402.059420,-3256.906145,306.438199
2917.528717,-9178.553681,-2516.700203,1072.533697
2917.529055,-7994.224174,-1554.432478,383.047749
2917.529392,-8660.409521,-296.082377,1378.971896
2917.529729,-10732.986159,2590.720797,-153.219100
2917.530066,-10658.965565,2960.823768,-2374.896044
2917.530404,-12805.562797,2442.679609,-2834.553343
2917.530741,-11843.295072,814.226536,-2604.724693
2917.531078,-10510.924376,-1702.473667,0.000000
2917.531415,-9326.594869,-814.226536,153.219100
2917.531752,-7846.182985,-2294.638420,1072.533697
2917.532090,-9548.656652,-2960.823768,2145.067394
2917.532427,-7994.224174,-2146.597232,1225.752797
2917.532764,-8438.347739,-666.185348,3370.820191
2917.533101,-10658.965565,2072.576638,3677.258390
2917.533439,-9918.759623,3256.906145,0.000000
2917.533776,-13323.706956,3923.091493,-766.095498
2917.534113,-12657.521608,2664.741391,-919.314598
2917.534450,-10214.842000,518.144159,0.000000
2917.534788,-10066.800811,-592.164754,1225.752797
2917.535125,-7402.059420,-1702.473667,1072.533697
2917.535462,-7994.224174,-3552.988522,2298.286494
2917.535799,-8364.327145,-2590.720797,1455.581446
2917.536137,-7846.182985,-740.205942,1762.019645
2917.536474,-10436.903782,1628.453072,1608.800546
2917.536811,-9770.718434,3182.885551,-1685.410096
2917.537148,-12065.356855,2220.617826,-2604.724693
2917.537485,-12953.603985,1480.411884,-3064.381992
2917.537823,-9992.780217,-1406.391290,-2528.115143
2917.538160,-10214.842000,-2516.700203,-689.485948
2917.538497,-8586.388927,-3330.926739,-995.924147
2917.538834,-8586.388927,-4441.235652,76.609550
2917.539172,-9770.718434,-4145.153275,919.314598
2917.539509,-7994.224174,-3404.947333,2145.067394
2917.539846,-10584.944971,-962.267725,3447.429741
2917.540183,-10658.965565,2072.576638,919.314598
2917.540521,-11917.315666,2294.638420,1072.533697
2917.540858,-14434.015869,1702.473667,229.828649
2917.541195,-11695.253884,0.000000,153.219100
2917.541532,-10881.027347,-222.061783,1685.410096
2917.541870,-9474.636058,-814.226536,1915.238745
2917.542207,-8586.388927,-2442.679609,766.095498
2917.542544,-9326.594869,-1628.453072,995.924147
2917.542881,-7550.100608,-1554.432478,1302.362347
2917.543218,-8882.471304,-222.061783,2374.896044
2917.543556,-9030.512492,2516.700203,0.000000
2917.543893,-9844.739029,3256.906145,-1762.019645
2917.544230,-12805.562797,3552.988522,-1991.848295
2917.544567,-11547.212695,1332.370696,-2911.162892
2917.544905,-10807.006753,74.020594,-1149.143247
2917.545242,-9178.553681,-740.205942,0.000000
2917.545579,-7846.182985,-2960.823768,229.828649
2917.545916,-10066.800811,-4071.132681,1762.019645
2917.546254,-7772.162391,-2664.741391,1532.190996
2917.546591,-8364.327145,-1258.350101,2987.772442
2917.546928,-10140.821405,1406.391290,1608.800546
2917.547265,-9326.594869,2960.823768,-689.485948
2917.547603,-13767.830521,2960.823768,-612.876398
2917.547940,-12435.459826,2590.720797,-1532.190996
2917.548277,-10732.986159,296.082377,-689.485948
2917.548614,-11251.130318,222.061783,459.657299
2917.548951,-9030.512492,-2590.720797,229.828649
2917.549289,-9696.697840,-3256.906145,1455.581446
2917.549626,-8142.265362,-3330.926739,1608.800546
2917.549963,-7031.956449,-2368.659014,2604.724693
2917.550300,-10214.842000,0.000000,1991.848295
2917.550638,-9844.739029,1628.453072,-1072.533697
2917.550975,-11917.315666,1850.514855,-2451.505594
2917.551312,-12287.418637,1258.350101,-3370.820191
2917.551649,-10584.944971,-444.123565,-1991.848295
2917.551987,-10732.986159,-1924.535449,-919.314598
2917.552324,-8808.450710,-3552.988522,-1302.362347
2917.552661,-9252.574275,-5033.400406,76.609550
2917.552998,-9474.636058,-4293.194464,536.266849
2917.553336,-7550.100608,-3849.070898,2374.896044
2917.553673,-9326.594869,-1702.473667,2681.334243
2917.554010,-9178.553681,1184.329507,1149.143247
2917.554347,-11251.130318,2812.782580,153.219100
2917.554684,-13693.809927,3108.864956,459.657299
2917.555022,-12213.398043,1776.494261,-459.657299
2917.555359,-12361.439231,1110.308913,1072.533697
2917.555696,-10362.883188,888.247130,1302.362347
2917.556033,-9030.512492,-1184.329507,1685.410096
2917.556371,-9178.553681,-1702.473667,1991.848295
2917.556708,-6217.729913,-1406.391290,1762.019645
2917.557045,-7846.182985,444.123565,2834.553343
2917.557382,-9104.533087,3552.988522,1302.362347
2917.557720,-9992.780217,4219.173869,-919.314598
2917.558057,-12805.562797,5033.400406,-2681.334243
2917.558394,-12435.459826,3478.967927,-2834.553343
2917.558731,-11917.315666,1406.391290,-995.924147
2917.559069,-10066.800811,-370.102971,-1532.190996
2917.559406,-7476.080014,-2664.741391,-612.876398
2917.559743,-8734.430116,-4219.173869,153.219100
2917.560080,-7254.018232,-4589.276840,919.314598
2917.560417,-7476.080014,-3034.844362,2221.676944
2917.560755,-9474.636058,-296.082377,1915.238745
2917.561092,-8734.430116,1480.411884,0.000000
2917.561429,-12731.542202,2590.720797,-689.485948
2917.561766,-12953.603985,3034.844362,-1302.362347
2917.562104,-12583.501014,296.082377,-306.438199
2917.562441,-12361.439231,444.123565,689.485948
2917.562778,-9696.697840,-1628.453072,766.095498
2917.563115,-10066.800811,-3478.967927,2145.067394
2917.563453,-8956.491898,-3849.070898,1838.629195
2917.563790,-7698.141797,-3404.947333,2221.676944
2917.564127,-9178.553681,74.020594,1072.533697
2917.564464,-8438.347739,1850.514855,-229.828649
2917.564802,-12953.603985,2590.720797,-766.095498
2917.565139,-12065.356855,3478.967927,-2681.334243
2917.565476,-11325.150913,740.205942,-3064.381992
2917.565813,-12065.356855,370.102971,-842.705048
2917.566151,-9252.574275,-888.247130,-1302.362347
2917.566488,-9622.677246,-3923.091493,229.828649
2917.566825,-8956.491898,-4293.194464,76.609550
2917.567162,-5699.585753,-5181.441594,2451.505594
2917.567499,-8290.306550,-2738.761985,4673.182538
2917.567837,-7550.100608,222.061783,2298.286494
2917.568174,-10584.944971,2294.638420,1455.581446
2917.568511,-13545.768739,3552.988522,-612.876398
2917.568848,-11843.295072,2886.803174,-1838.629195
2917.569186,-12805.562797,2072.576638,-612.876398
2917.569523,-10584.944971,222.061783,306.438199
2917.569860,-8142.265362,-1184.329507,0.000000
2917.570197,-8882.471304,-3034.844362,1302.362347
2917.570535,-6661.853478,-3775.050304,2911.162892
2917.570872,-7698.141797,-2960.823768,2834.553343
2917.571209,-8882.471304,814.226536,1608.800546
2917.571546,-9918.759623,3108.864956,-995.924147
2917.571884,-12953.603985,3256.906145,-1685.410096
2917.572221,-12879.583391,2960.823768,-2528.115143
2917.572558,-12287.418637,740.205942,-1991.848295
2917.572895,-10881.027347,-148.041188,-2068.457845
2917.573232,-9474.636058,-3034.844362,-1915.238745
2917.573570,-10436.903782,-4737.318029,-76.609550
2917.573907,-8068.244768,-5329.482782,0.000000
2917.574244,-7476.080014,-4811.338623,1455.581446
2917.574581,-7994.224174,-2516.700203,1149.143247
2917.574919,-8734.430116,0.000000,-459.657299
2917.575256,-11769.274478,888.247130,612.876398
2917.575593,-12953.603985,2220.617826,-995.924147
2917.575930,-12139.377449,1258.350101,0.000000
2917.576268,-12435.459826,222.061783,995.924147
2917.576605,-9992.780217,-1184.329507,1685.410096
2917.576942,-9918.759623,-2516.700203,1608.800546
2917.577279,-8882.471304,-3330.926739,2528.115143
