#time,accel_x,accel_y,accel_z
3202.259458,-9918.759623,-1628.453072,2298.286494
3202.259796,-9696.697840,-2072.576638,2451.505594
3202.260134,-9474.636058,-1554.432478,2374.896044
3202.260472,-10140.821405,-1998.556043,2145.067394
3202.260810,-10510.924376,-2220.617826,2221.676944
3202.261148,-11251.130318,-2664.741391,2834.553343
3202.261486,-10807.006753,-592.164754,2068.457845
3202.261824,-9400.615463,-518.144159,76.609550
3202.262162,-9918.759623,-740.205942,536.266849
3202.262500,-9992.780217,-1036.288319,0.000000
3202.262838,-9696.697840,-370.102971,-1302.362347
3202.263176,-9548.656652,0.000000,-1072.533697
3202.263514,-10362.883188,-592.164754,-76.609550
3202.263852,-10140.821405,-1036.288319,0.000000
3202.264190,-10807.006753,-1776.494261,612.876398
3202.264527,-10288.862594,-1480.411884,1991.848295
3202.264865,-10658.965565,-1628.453072,2834.553343
3202.265203,-10584.944971,-592.164754,3830.477490
3202.265541,-9918.759623,-740.205942,3370.820191
3202.265879,-10214.842000,-370.102971,3677.258390
3202.266217,-10436.903782,-222.061783,4596.572988
3202.266555,-9844.739029,148.041188,4443.353888
3202.266893,-9770.718434,518.144159,4443.353888
3202.267231,-9992.780217,444.123565,4596.572988
3202.267569,-10362.883188,-666.185348,4519.963438
3202.267907,-10510.924376,-1258.350101,4979.620737
3202.268245,-9178.553681,-1406.391290,4213.525239
3202.268583,-8290.306550,-370.102971,3447.429741
3202.268921,-8808.450710,-1406.391290,1838.629195
3202.269259,-9918.759623,-1332.370696,1149.143247
3202.269596,-9548.656652,-1924.535449,459.657299
3202.269934,-8882.471304,-1332.370696,-153.219100
3202.270272,-9474.636058,-1480.411884,229.828649
3202.270610,-10362.883188,-3627.009116,0.000000
3202.270948,-9622.677246,-5107.421000,0.000000
3202.271286,-10066.800811,-4737.318029,1302.362347
3202.271624,-9770.718434,-4811.338623,1915.238745
3202.271962,-10288.862594,-4219.173869,1685.410096
3202.272300,-11843.295072,-4811.338623,689.485948
3202.272638,-11103.089130,-3701.029710,-995.924147
3202.272976,-10436.903782,-4145.153275,-76.609550
3202.273314,-10584.944971,-3552.988522,0.000000
3202.273652,-9474.636058,-3923.091493,0.000000
3202.273990,-10807.006753,-3404.947333,766.095498
3202.274328,-10881.027347,-3552.988522,1532.190996
3202.274665,-10881.027347,-3256.906145,2145.067394
3202.275003,-11843.295072,-2220.617826,2145.067394
3202.275341,-10658.965565,-1998.556043,-76.609550
3202.275679,-9918.759623,-518.144159,-1991.848295
3202.276017,-9622.677246,-1332.370696,-3140.991542
3202.276355,-8734.430116,-2146.597232,-2451.505594
3202.276693,-8586.388927,-2368.659014,-1991.848295
3202.277031,-8438.347739,-1776.494261,-1149.143247
3202.277369,-9326.594869,-444.123565,-1149.143247
3202.277707,-10881.027347,-1110.308913,-1072.533697
3202.278045,-10510.924376,-740.205942,-1149.143247
3202.278383,-9400.615463,-1258.350101,-995.924147
3202.278721,-9252.574275,370.102971,995.924147
3202.279059,-8956.491898,444.123565,1838.629195
3202.279397,-10214.842000,814.226536,2834.553343
3202.279734,-10510.924376,296.082377,2221.676944
3202.280072,-10955.047942,1036.288319,2068.457845
3202.280410,-10881.027347,1554.432478,2374.896044
3202.280748,-10140.821405,2294.638420,1072.533697
3202.281086,-10362.883188,1554.432478,1072.533697
3202.281424,-8882.471304,2072.576638,383.047749
3202.281762,-8956.491898,1998.556043,766.095498
3202.282100,-10807.006753,2590.720797,1378.971896
3202.282438,-10288.862594,2368.659014,0.000000
3202.282776,-10510.924376,2516.700203,0.000000
3202.283114,-10066.800811,2294.638420,-383.047749
3202.283452,-9400.615463,2220.617826,-612.876398
3202.283790,-9770.718434,1406.391290,0.000000
3202.284128,-10436.903782,0.000000,229.828649
3202.284466,-9918.759623,-148.041188,459.657299
3202.284804,-10066.800811,-1998.556043,1762.019645
3202.285141,-10436.903782,-888.247130,2451.505594
3202.285479,-10510.924376,-740.205942,1225.752797
3202.285816,-11029.068536,592.164754,-842.705048
3202.286154,-9844.739029,962.267725,-2221.676944
3202.286491,-8956.491898,0.000000,-2068.457845
3202.286829,-9400.615463,148.041188,0.000000
3202.287166,-9622.677246,-370.102971,0.000000
3202.287503,-10584.944971,444.123565,1302.362347
3202.287841,-10955.047942,-592.164754,2528.115143
3202.288178,-10288.862594,592.164754,3064.381992
3202.288516,-9844.739029,1036.288319,1838.629195
3202.288853,-10214.842000,2220.617826,1685.410096
3202.289191,-10214.842000,1998.556043,1455.581446
3202.289528,-10658.965565,1480.411884,1762.019645
3202.289865,-10732.986159,1702.473667,1915.238745
3202.290203,-10584.944971,962.267725,536.266849
3202.290540,-10214.842000,1554.432478,-766.095498
3202.290878,-9400.615463,1332.370696,-2681.334243
3202.291215,-9400.615463,444.123565,-2757.943793
3202.291552,-8068.244768,-370.102971,-2681.334243
3202.291890,-7846.182985,-666.185348,-2145.067394
3202.292227,-9252.574275,-1850.514855,76.609550
3202.292565,-9844.739029,-1332.370696,-306.438199
3202.292902,-10584.944971,-1110.308913,536.266849
3202.293240,-10881.027347,-518.144159,-459.657299
3202.293577,-9474.636058,-814.226536,-536.266849
3202.293914,-10288.862594,-444.123565,0.000000
3202.294252,-10362.883188,-1776.494261,0.000000
3202.294589,-10066.800811,-2516.700203,1225.752797
3202.294927,-10658.965565,-3923.091493,2221.676944
3202.295264,-10140.821405,-3627.009116,2145.067394
3202.295602,-10362.883188,-1924.535449,1685.410096
3202.295939,-10955.047942,-2146.597232,-306.438199
3202.296276,-9770.718434,-1258.350101,-2145.067394
3202.296614,-9030.512492,-1924.535449,-1532.190996
3202.296951,-10288.862594,-370.102971,-459.657299
3202.297289,-10807.006753,-1628.453072,-1685.410096
3202.297626,-11843.295072,-2146.597232,-536.266849
3202.297964,-11103.089130,-2960.823768,0.000000
3202.298301,-9770.718434,-3108.864956,1302.362347
3202.298638,-9326.594869,-2738.761985,1455.581446
3202.298976,-9844.739029,-2886.803174,612.876398
3202.299313,-9918.759623,-2590.720797,153.219100
3202.299651,-10288.862594,-3182.885551,1455.581446
3202.299988,-10288.862594,-2664.741391,2451.505594
3202.300325,-10362.883188,-2072.576638,2757.943793
3202.300663,-10732.986159,-222.061783,1072.533697
3202.301000,-9770.718434,-444.123565,459.657299
3202.301338,-9252.574275,666.185348,459.657299
3202.301675,-8956.491898,296.082377,1608.800546
3202.302013,-10140.821405,0.000000,2987.772442
3202.302350,-9918.759623,1036.288319,2987.772442
3202.302687,-10362.883188,1332.370696,2528.115143
3202.303025,-10584.944971,1406.391290,2987.772442
3202.303362,-9548.656652,1776.494261,1762.019645
3202.303700,-9030.512492,1776.494261,842.705048
3202.304037,-9252.574275,4071.132681,-383.047749
3202.304375,-9400.615463,3108.864956,-995.924147
3202.304712,-10140.821405,1998.556043,-536.266849
3202.305049,-10066.800811,888.247130,-229.828649
3202.305387,-9992.780217,814.226536,-306.438199
3202.305724,-10584.944971,1480.411884,-766.095498
3202.306062,-9992.780217,222.061783,-2681.334243
3202.306399,-9178.553681,-370.102971,-2834.553343
3202.306736,-8660.409521,-814.226536,-2221.676944
3202.307074,-9104.533087,-518.144159,-1685.410096
3202.307411,-10362.883188,-222.061783,-1532.190996
3202.307749,-11695.253884,-444.123565,-919.314598
3202.308086,-11177.109724,-1110.308913,0.000000
3202.308424,-10436.903782,-592.164754,76.609550
3202.308761,-9918.759623,222.061783,842.705048
3202.309098,-10436.903782,296.082377,689.485948
3202.309436,-10658.965565,0.000000,995.924147
3202.309773,-10881.027347,-592.164754,1455.581446
3202.310111,-11177.109724,-962.267725,2374.896044
3202.310448,-11325.150913,-296.082377,1991.848295
3202.310786,-11029.068536,0.000000,536.266849
3202.311123,-10214.842000,1110.308913,-2221.676944
3202.311460,-9400.615463,444.123565,-2145.067394
3202.311798,-9030.512492,740.205942,-995.924147
3202.312135,-9252.574275,-74.020594,-612.876398
3202.312473,-9918.759623,0.000000,-536.266849
3202.312810,-11251.130318,-296.082377,0.000000
3202.313148,-10955.047942,-888.247130,306.438199
3202.313485,-9474.636058,-962.267725,612.876398
3202.313822,-8882.471304,-666.185348,1072.533697
3202.314160,-9104.533087,74.020594,919.314598
3202.314497,-9770.718434,148.041188,842.705048
3202.314835,-10955.047942,-740.205942,1685.410096
3202.315172,-10436.903782,-1406.391290,2298.286494
3202.315509,-10584.944971,-444.123565,3524.039291
3202.315847,-10510.924376,666.185348,2451.505594
3202.316184,-9548.656652,148.041188,842.705048
3202.316522,-9178.553681,962.267725,76.609550
3202.316859,-8586.388927,-74.020594,0.000000
3202.317197,-9326.594869,296.082377,459.657299
3202.317534,-10436.903782,-222.061783,689.485948
3202.317871,-11325.150913,-1776.494261,689.485948
3202.318209,-10436.903782,-592.164754,76.609550
3202.318546,-9178.553681,-1554.432478,-766.095498
3202.318884,-8956.491898,-1628.453072,0.000000
3202.319221,-9326.594869,-1924.535449,-536.266849
3202.319559,-9992.780217,-1776.494261,-306.438199
3202.319896,-10510.924376,-2812.782580,-76.609550
3202.320233,-10584.944971,-4145.153275,0.000000
3202.320571,-11399.171507,-3182.885551,766.095498
3202.320908,-10658.965565,-3627.009116,0.000000
3202.321246,-10140.821405,-2738.761985,-1378.971896
3202.321583,-9474.636058,-2886.803174,-1838.629195
3202.321921,-9104.533087,-2886.803174,-536.266849
3202.322258,-10066.800811,-2442.679609,0.000000
3202.322595,-10807.006753,-2664.741391,383.047749
3202.322933,-11177.109724,-1776.494261,689.485948
3202.323270,-11177.109724,-1998.556043,1915.238745
3202.323608,-10214.842000,-1184.329507,1915.238745
3202.323945,-9178.553681,592.164754,1149.143247
3202.324282,-9474.636058,1110.308913,995.924147
3202.324620,-10436.903782,1110.308913,1378.971896
3202.324957,-10732.986159,148.041188,612.876398
3202.325295,-9992.780217,74.020594,1225.752797
3202.325632,-10658.965565,666.185348,1302.362347
3202.325970,-10288.862594,1406.391290,0.000000
3202.326307,-9770.718434,1110.308913,-1915.238745
3202.326644,-9178.553681,1554.432478,-2451.505594
3202.326982,-8068.244768,1110.308913,-2374.896044
3202.327319,-8660.409521,666.185348,-1532.190996
3202.327657,-10140.821405,592.164754,0.000000
3202.327994,-10214.842000,0.000000,-229.828649
3202.328332,-10214.842000,370.102971,612.876398
3202.328669,-9918.759623,740.205942,1378.971896
3202.329006,-9474.636058,888.247130,1225.752797
3202.329344,-9918.759623,888.247130,995.924147
3202.329681,-10214.842000,518.144159,1455.581446
3202.330019,-10807.006753,518.144159,1838.629195
3202.330356,-11103.089130,-518.144159,2068.457845
3202.330694,-11029.068536,370.102971,1915.238745
3202.331031,-10214.842000,370.102971,536.266849
3202.331368,-9622.677246,1332.370696,-383.047749
3202.331706,-9474.636058,444.123565,-842.705048
3202.332043,-9030.512492,148.041188,-612.876398
3202.332381,-9696.697840,518.144159,153.219100
3202.332718,-10214.842000,0.000000,-229.828649
3202.333055,-11621.233289,-74.020594,229.828649
3202.333393,-11399.171507,-518.144159,0.000000
3202.333730,-9992.780217,-1184.329507,-459.657299
3202.334068,-8882.471304,148.041188,-612.876398
3202.334405,-9918.759623,-74.020594,-919.314598
3202.334743,-10510.924376,-962.267725,-919.314598
3202.335080,-10658.965565,-1628.453072,0.000000
3202.335417,-10658.965565,-1258.350101,995.924147
3202.335755,-11029.068536,-666.185348,1838.629195
3202.336092,-10955.047942,74.020594,1072.533697
3202.336430,-9992.780217,74.020594,-383.047749
3202.336767,-9178.553681,444.123565,-76.609550
3202.337105,-9400.615463,666.185348,766.095498
3202.337442,-10436.903782,962.267725,1991.848295
3202.337779,-10732.986159,1184.329507,1762.019645
3202.338117,-10807.006753,370.102971,1608.800546
3202.338454,-9918.759623,518.144159,1762.019645
3202.338792,-9252.574275,740.205942,1455.581446
3202.339129,-8956.491898,740.205942,842.705048
3202.339467,-9178.553681,1850.514855,306.438199
3202.339804,-9400.615463,888.247130,-306.438199
3202.340141,-10066.800811,444.123565,536.266849
3202.340479,-10658.965565,-740.205942,1225.752797
3202.340816,-10436.903782,-296.082377,-76.609550
3202.341154,-10214.842000,-444.123565,-1149.143247
3202.341491,-9918.759623,-222.061783,-2374.896044
3202.341828,-8438.347739,-1628.453072,-2298.286494
3202.342166,-9104.533087,-2368.659014,-1072.533697
3202.342503,-9474.636058,-2220.617826,229.828649
3202.342841,-10066.800811,-2146.597232,0.000000
3202.343178,-11029.068536,-2368.659014,229.828649
3202.343516,-11325.150913,-2886.803174,689.485948
3202.343853,-9770.718434,-2146.597232,919.314598
3202.344190,-10066.800811,-888.247130,919.314598
3202.344528,-10436.903782,-444.123565,766.095498
3202.344865,-10658.965565,-1184.329507,612.876398
3202.345203,-10955.047942,-1924.535449,1608.800546
3202.345540,-11029.068536,-1998.556043,2374.896044
3202.345878,-10881.027347,-1406.391290,2374.896044
3202.346215,-10732.986159,-814.226536,1072.533697
3202.346552,-10066.800811,-518.144159,-1378.971896
3202.346890,-8660.409521,0.000000,-1838.629195
3202.347227,-8660.409521,0.000000,-1149.143247
3202.347565,-9252.574275,-296.082377,-766.095498
3202.347902,-10140.821405,-444.123565,-689.485948
3202.348240,-10140.821405,0.000000,-459.657299
3202.348577,-9770.718434,-740.205942,383.047749
3202.348914,-9474.636058,-148.041188,612.876398
3202.349252,-8882.471304,222.061783,1532.190996
3202.349589,-9622.677246,370.102971,1608.800546
3202.349927,-10066.800811,592.164754,1685.410096
3202.350264,-10288.862594,0.000000,2374.896044
3202.350601,-10881.027347,-148.041188,3370.820191
3202.350939,-10584.944971,296.082377,2987.772442
3202.351276,-10658.965565,1776.494261,2221.676944
3202.351614,-9770.718434,2590.720797,0.000000
3202.351951,-9104.533087,2220.617826,-766.095498
3202.352289,-9474.636058,1110.308913,459.657299
3202.352626,-9326.594869,1924.535449,76.609550
3202.352963,-10584.944971,1184.329507,689.485948
3202.353301,-11695.253884,666.185348,459.657299
3202.353638,-9844.739029,0.000000,-536.266849
3202.353976,-9474.636058,222.061783,-306.438199
3202.354313,-9030.512492,74.020594,-229.828649
3202.354651,-8660.409521,-296.082377,-1225.752797
3202.354988,-10140.821405,-444.123565,-1225.752797
3202.355325,-10807.006753,-1776.494261,-383.047749
3202.355663,-10881.027347,-1406.391290,0.000000
3202.356000,-10362.883188,-1850.514855,153.219100
3202.356338,-10732.986159,-1258.350101,-459.657299
3202.356675,-10140.821405,-814.226536,-1915.238745
3202.357012,-9474.636058,-1184.329507,-2068.457845
3202.357350,-9252.574275,-1036.288319,-1455.581446
3202.357687,-10214.842000,-1702.473667,0.000000
3202.358025,-11177.109724,-962.267725,612.876398
3202.358362,-11473.192101,-1332.370696,1149.143247
3202.358700,-11399.171507,74.020594,1762.019645
3202.359037,-10214.842000,-148.041188,1685.410096
3202.359374,-9474.636058,740.205942,2374.896044
3202.359712,-9548.656652,962.267725,1532.190996
3202.360049,-10288.862594,1850.514855,1302.362347
3202.360387,-10732.986159,222.061783,1838.629195
3202.360724,-10362.883188,1184.329507,1532.190996
3202.361062,-10584.944971,666.185348,1685.410096
3202.361399,-9918.759623,2072.576638,0.000000
3202.361736,-8512.368333,1184.329507,-1762.019645
3202.362074,-8734.430116,444.123565,-1838.629195
3202.362411,-8068.244768,148.041188,-1378.971896
3202.362749,-8586.388927,222.061783,-383.047749
3202.363086,-10214.842000,296.082377,153.219100
3202.363424,-10436.903782,-592.164754,229.828649
3202.363761,-9844.739029,-518.144159,612.876398
3202.364098,-9918.759623,222.061783,1762.019645
3202.364436,-8882.471304,962.267725,459.657299
3202.364773,-9844.739029,-296.082377,383.047749
3202.365111,-10658.965565,-444.123565,689.485948
3202.365448,-10584.944971,-740.205942,1302.362347
3202.365785,-11251.130318,-1110.308913,2451.505594
3202.366123,-10658.965565,-814.226536,1838.629195
3202.366460,-10288.862594,-962.267725,459.657299
3202.366798,-9474.636058,74.020594,-689.485948
3202.367135,-9474.636058,-888.247130,-1378.971896
3202.367473,-9178.553681,-370.102971,-1072.533697
3202.367810,-10732.986159,-1406.391290,0.000000
3202.368147,-10732.986159,-1258.350101,0.000000
3202.368485,-10732.986159,-1628.453072,-1149.143247
3202.368822,-10732.986159,-1924.535449,0.000000
3202.369160,-9474.636058,-2368.659014,0.000000
3202.369497,-9326.594869,-1776.494261,-229.828649
3202.369835,-9844.739029,-1406.391290,-459.657299
3202.370172,-10362.883188,-2294.638420,-229.828649
3202.370509,-10658.965565,-2886.803174,919.314598
3202.370847,-10362.883188,-2368.659014,1225.752797
3202.371184,-10658.965565,-1554.432478,1838.629195
3202.371522,-10288.862594,-962.267725,536.266849
3202.371859,-9696.697840,0.000000,-536.266849
3202.372197,-9474.636058,-444.123565,689.485948
3202.372534,-9326.594869,444.123565,612.876398
3202.372871,-9992.780217,888.247130,2145.067394
3202.373209,-11547.212695,1036.288319,1608.800546
3202.373546,-10807.006753,1110.308913,1302.362347
3202.373884,-10288.862594,1554.432478,1991.848295
3202.374221,-9696.697840,1998.556043,1378.971896
3202.374558,-8808.450710,2886.803174,536.266849
3202.374896,-9548.656652,2664.741391,-536.266849
3202.375233,-9622.677246,1406.391290,-995.924147
3202.375571,-9844.739029,1184.329507,536.266849
3202.375908,-10584.944971,740.205942,1149.143247
3202.376246,-9844.739029,1184.329507,0.000000
3202.376583,-10214.842000,1036.288319,-1455.581446
3202.376920,-9844.739029,814.226536,-2145.067394
3202.377258,-8956.491898,0.000000,-2451.505594
3202.377595,-8660.409521,-592.164754,-689.485948
3202.377933,-9326.594869,-1036.288319,-459.657299
3202.378270,-10140.821405,-1332.370696,-306.438199
3202.378608,-10658.965565,-1480.411884,-76.609550
3202.378945,-10436.903782,-1776.494261,1149.143247
3202.379282,-9622.677246,-1702.473667,1455.581446
3202.379620,-9696.697840,-592.164754,1378.971896
3202.379957,-10510.924376,518.144159,1455.581446
3202.380295,-10658.965565,-1036.288319,1455.581446
3202.380632,-11177.109724,-740.205942,1532.190996
3202.380970,-10807.006753,-1554.432478,2374.896044
3202.381307,-11103.089130,-296.082377,1378.971896
3202.381644,-10584.944971,148.041188,-842.705048
3202.381982,-10288.862594,0.000000,-2221.676944
3202.382319,-8882.471304,0.000000,-1991.848295
3202.382657,-9178.553681,-666.185348,-1149.143247
3202.382994,-9918.759623,-740.205942,76.609550
3202.383331,-10732.986159,-296.082377,-995.924147
3202.383669,-11029.068536,-888.247130,-766.095498
3202.384006,-10732.986159,-814.226536,0.000000
3202.384343,-9178.553681,-518.144159,76.609550
3202.384681,-8882.471304,0.000000,612.876398
3202.385018,-9696.697840,0.000000,0.000000
3202.385355,-9844.739029,0.000000,536.266849
3202.385693,-10584.944971,-888.247130,1915.238745
3202.386030,-10436.903782,-740.205942,3064.381992
3202.386367,-10066.800811,-296.082377,2528.115143
3202.386705,-10140.821405,592.164754,1455.581446
3202.387042,-9918.759623,1998.556043,0.000000
3202.387379,-9030.512492,1406.391290,-1225.752797
3202.387717,-9252.574275,1332.370696,689.485948
3202.388054,-9622.677246,1110.308913,229.828649
3202.388391,-10955.047942,1406.391290,76.609550
3202.388728,-10658.965565,962.267725,-306.438199
3202.389066,-10066.800811,-222.061783,-459.657299
3202.389403,-9474.636058,-148.041188,536.266849
3202.389740,-8956.491898,-222.061783,-229.828649
3202.390078,-9326.594869,148.041188,-612.876398
3202.390415,-10362.883188,-1258.350101,-766.095498
3202.390752,-10807.006753,-1924.535449,76.609550
3202.391090,-10881.027347,-1850.514855,612.876398
3202.391427,-10140.821405,-1998.556043,76.609550
3202.391764,-10584.944971,-1258.350101,-536.266849
3202.392102,-9844.739029,-1554.432478,-1455.581446
3202.392439,-9400.615463,-1702.473667,-995.924147
3202.392776,-9400.615463,-1702.473667,153.219100
3202.393114,-10658.965565,-1924.535449,1378.971896
3202.393451,-10881.027347,-2072.576638,919.314598
3202.393788,-11695.253884,-1628.453072,1608.800546
3202.394126,-10214.842000,-740.205942,1455.581446
3202.394463,-9474.636058,-518.144159,1455.581446
3202.394800,-9326.594869,666.185348,1225.752797
3202.395138,-9474.636058,814.226536,306.438199
3202.395475,-10510.924376,666.185348,919.314598
3202.395812,-10881.027347,222.061783,1225.752797
3202.396150,-10362.883188,-148.041188,1532.190996
3202.396487,-10214.842000,444.123565,995.924147
3202.396824,-9918.759623,592.164754,-153.219100
3202.397161,-9326.594869,1924.535449,-1991.848295
3202.397499,-8808.450710,814.226536,-2451.505594
3202.397836,-9030.512492,370.102971,-1838.629195
3202.398173,-8882.471304,592.164754,-1302.362347
3202.398511,-10510.924376,222.061783,-766.095498
3202.398848,-10658.965565,-148.041188,-76.609550
3202.399185,-9474.636058,-370.102971,76.609550
3202.399523,-9252.574275,666.185348,1378.971896
3202.399860,-9844.739029,370.102971,995.924147
3202.400197,-10436.903782,666.185348,919.314598
3202.400535,-10881.027347,-222.061783,1685.410096
3202.400872,-10881.027347,-370.102971,2374.896044
3202.401209,-10955.047942,-666.185348,2528.115143
3202.401547,-10584.944971,-296.082377,1149.143247
3202.401884,-10066.800811,370.102971,-306.438199
3202.402221,-9178.553681,0.000000,-1608.800546
3202.402559,-8734.430116,-518.144159,-1685.410096
3202.402896,-9178.553681,-74.020594,-383.047749
3202.403233,-10140.821405,-962.267725,-76.609550
3202.403571,-10732.986159,-592.164754,0.000000
3202.403908,-10732.986159,-1110.308913,-612.876398
3202.404245,-10362.883188,-1110.308913,-459.657299
3202.404583,-9622.677246,-1036.288319,-766.095498
3202.404920,-9326.594869,-888.247130,-995.924147
3202.405257,-10140.821405,-814.226536,-1149.143247
3202.405594,-10584.944971,-1924.535449,153.219100
3202.405932,-10732.986159,-2368.659014,306.438199
3202.406269,-10362.883188,-2368.659014,1302.362347
3202.406606,-10658.965565,-962.267725,2145.067394
3202.406944,-10658.965565,-518.144159,612.876398
3202.407281,-10140.821405,518.144159,-306.438199
3202.407618,-9252.574275,0.000000,612.876398
3202.407956,-9326.594869,0.000000,1762.019645
3202.408293,-10214.842000,1110.308913,2374.896044
3202.408630,-10807.006753,740.205942,2145.067394
3202.408968,-10732.986159,370.102971,1762.019645
3202.409305,-9622.677246,370.102971,1762.019645
3202.409642,-9326.594869,1554.432478,2298.286494
3202.409980,-9474.636058,1850.514855,1072.533697
3202.410317,-9474.636058,1924.535449,-229.828649
3202.410654,-9548.656652,1258.350101,0.000000
3202.410992,-9548.656652,-518.144159,766.095498
3202.411329,-9918.759623,888.247130,1378.971896
3202.411666,-10658.965565,0.000000,229.828649
3202.412004,-9548.656652,296.082377,-1532.190996
3202.412341,-9548.656652,-222.061783,-2451.505594
3202.412678,-9030.512492,-1110.308913,-2604.724693
3202.413016,-8882.471304,-1554.432478,-689.485948
3202.413353,-10066.800811,-1924.535449,0.000000
3202.413690,-10584.944971,-2146.597232,-229.828649
3202.414027,-10658.965565,-2146.597232,-383.047749
3202.414365,-10436.903782,-2368.659014,459.657299
3202.414702,-9992.780217,-1850.514855,306.438199
3202.415039,-9918.759623,-592.164754,229.828649
3202.415377,-10436.903782,-222.061783,153.219100
3202.415714,-10807.006753,-962.267725,383.047749
3202.416051,-10955.047942,-1480.411884,1378.971896
3202.416389,-10658.965565,-2146.597232,1532.190996
3202.416726,-10955.047942,-740.205942,1455.581446
3202.417063,-10955.047942,-296.082377,-536.266849
3202.417401,-10140.821405,-222.061783,-2145.067394
3202.417738,-8956.491898,-370.102971,-1991.848295
3202.418075,-9400.615463,-592.164754,-1378.971896
3202.418413,-10066.800811,-222.061783,-766.095498
3202.418750,-10214.842000,-666.185348,-1455.581446
3202.419087,-10436.903782,-888.247130,-536.266849
3202.419425,-9992.780217,-962.267725,459.657299
3202.419762,-9178.553681,-592.164754,1149.143247
3202.420099,-9252.574275,666.185348,1302.362347
3202.420437,-9992.780217,296.082377,1149.143247
3202.420774,-10214.842000,0.000000,1302.362347
3202.421111,-10214.842000,-222.061783,2451.505594
3202.421449,-10658.965565,0.000000,3524.039291
3202.421786,-10140.821405,444.123565,2451.505594
3202.422123,-9622.677246,1924.535449,919.314598
3202.422460,-9252.574275,2220.617826,0.000000
3202.422798,-8438.347739,1332.370696,-383.047749
3202.423135,-8808.450710,1702.473667,995.924147
3202.423472,-9992.780217,740.205942,1455.581446
3202.423810,-10288.862594,1776.494261,459.657299
3202.424147,-11029.068536,1258.350101,536.266849
3202.424484,-10658.965565,666.185348,459.657299
3202.424822,-9178.553681,74.020594,-536.266849
3202.425159,-8660.409521,296.082377,-1225.752797
3202.425496,-9326.594869,0.000000,-919.314598
3202.425834,-9992.780217,-1554.432478,-1149.143247
3202.426171,-10658.965565,-1998.556043,0.000000
3202.426508,-10510.924376,-2738.761985,153.219100
3202.426846,-10140.821405,-1850.514855,153.219100
3202.427183,-11177.109724,-1110.308913,-306.438199
3202.427520,-10584.944971,-1184.329507,-1991.848295
3202.427858,-9622.677246,-1998.556043,-1608.800546
3202.428195,-9104.533087,-1998.556043,-766.095498
3202.428532,-10807.006753,-1924.535449,459.657299
3202.428870,-11325.150913,-2442.679609,842.705048
3202.429207,-10881.027347,-1850.514855,1072.533697
3202.429544,-10807.006753,-1480.411884,2374.896044
3202.429882,-9770.718434,-518.144159,1762.019645
3202.430219,-9696.697840,0.000000,1225.752797
3202.430556,-10658.965565,0.000000,1072.533697
3202.430893,-9918.759623,148.041188,1608.800546
3202.431231,-10807.006753,0.000000,1991.848295
3202.431568,-10881.027347,-74.020594,1915.238745
3202.431905,-10214.842000,740.205942,306.438199
3202.432243,-10140.821405,814.226536,-612.876398
3202.432580,-9474.636058,1110.308913,-2374.896044
3202.432917,-8438.347739,0.000000,-1915.238745
3202.433255,-8956.491898,74.020594,-1225.752797
3202.433592,-8438.347739,-370.102971,-1302.362347
3202.433929,-10214.842000,-444.123565,-306.438199
3202.434267,-10955.047942,-74.020594,0.000000
3202.434604,-9770.718434,-148.041188,459.657299
3202.434941,-9030.512492,518.144159,383.047749
3202.435279,-9178.553681,518.144159,459.657299
3202.435616,-9844.739029,814.226536,766.095498
3202.435953,-11029.068536,-296.082377,1225.752797
3202.436291,-10807.006753,-814.226536,2451.505594
3202.436628,-10658.965565,-888.247130,1838.629195
3202.436965,-10881.027347,-370.102971,1532.190996
3202.437303,-10510.924376,296.082377,0.000000
3202.437640,-9696.697840,-666.185348,-1149.143247
3202.437977,-8882.471304,222.061783,-2221.676944
3202.438315,-9252.574275,-444.123565,-919.314598
3202.438652,-10362.883188,-518.144159,-536.266849
3202.438989,-10732.986159,-1110.308913,-536.266849
3202.439326,-10881.027347,-1702.473667,306.438199
3202.439664,-10214.842000,-1628.453072,536.266849
3202.440001,-10140.821405,-1184.329507,0.000000
3202.440338,-9474.636058,-1628.453072,-612.876398
3202.440676,-9770.718434,-962.267725,-1072.533697
3202.441013,-10436.903782,-2516.700203,766.095498
3202.441350,-11473.192101,-2220.617826,1838.629195
3202.441688,-10214.842000,-2072.576638,1532.190996
3202.442025,-10732.986159,-1184.329507,1149.143247
3202.442362,-10066.800811,-666.185348,-383.047749
3202.442700,-8956.491898,-444.123565,-536.266849
3202.443037,-9548.656652,0.000000,1378.971896
3202.443374,-9104.533087,0.000000,1838.629195
3202.443712,-9918.759623,740.205942,1838.629195
3202.444049,-11103.089130,1184.329507,2145.067394
3202.444386,-10807.006753,1332.370696,1225.752797
3202.444724,-9992.780217,666.185348,1378.971896
3202.445061,-8956.491898,2072.576638,1072.533697
3202.445398,-9030.512492,2664.741391,-229.828649
3202.445736,-9770.718434,2812.782580,-383.047749
3202.446073,-9918.759623,1110.308913,-612.876398
3202.446410,-9474.636058,0.000000,0.000000
3202.446748,-9696.697840,814.226536,842.705048
3202.447085,-10066.800811,296.082377,306.438199
3202.447422,-9844.739029,1480.411884,-1991.848295
3202.447759,-9696.697840,296.082377,-2834.553343
3202.448097,-9178.553681,592.164754,-2528.115143
3202.448434,-9548.656652,-740.205942,-1532.190996
3202.448771,-10436.903782,-370.102971,-383.047749
3202.449109,-9992.780217,-1554.432478,-536.266849
3202.449446,-10436.903782,-2516.700203,0.000000
3202.449783,-10140.821405,-1628.453072,1072.533697
3202.450121,-9770.718434,-1554.432478,1455.581446
3202.450458,-10140.821405,-888.247130,1608.800546
3202.450795,-10436.903782,0.000000,689.485948
3202.451133,-11325.150913,-666.185348,2451.505594
3202.451470,-11029.068536,-1406.391290,2757.943793
3202.451807,-10881.027347,-1554.432478,2068.457845
3202.452145,-11103.089130,-740.205942,1149.143247
3202.452482,-10288.862594,0.000000,-766.095498
3202.452819,-9474.636058,0.000000,-1991.848295
3202.453157,-9622.677246,-1332.370696,-1302.362347
3202.453494,-8660.409521,-1332.370696,-842.705048
3202.453831,-9918.759623,-962.267725,-536.266849
3202.454169,-10881.027347,-666.185348,-306.438199
3202.454506,-10436.903782,-1036.288319,-766.095498
3202.454843,-10214.842000,-1332.370696,153.219100
3202.455181,-9030.512492,-592.164754,0.000000
3202.455518,-9030.512492,666.185348,383.047749
3202.455855,-10214.842000,0.000000,1072.533697
3202.456192,-10436.903782,-814.226536,766.095498
3202.456530,-10214.842000,-1110.308913,2068.457845
3202.456867,-10362.883188,-666.185348,3677.258390
3202.457204,-10288.862594,740.205942,2451.505594
3202.457542,-10436.903782,1702.473667,536.266849
3202.457879,-9844.739029,1776.494261,-766.095498
3202.458216,-8512.368333,2220.617826,-766.095498
3202.458554,-9252.574275,1776.494261,153.219100
3202.458891,-10066.800811,1702.473667,919.314598
3202.459228,-10584.944971,1110.308913,0.000000
3202.459566,-10584.944971,666.185348,383.047749
3202.459903,-10066.800811,296.082377,0.000000
3202.460240,-9474.636058,-296.082377,383.047749
3202.460578,-9326.594869,296.082377,-229.828649
3202.460915,-9326.594869,-370.102971,-612.876398
3202.461252,-10510.924376,-1184.329507,-153.219100
3202.461590,-10732.986159,-2220.617826,0.000000
3202.461927,-10658.965565,-2738.761985,459.657299
3202.462264,-10066.800811,-1554.432478,-612.876398
3202.462602,-9992.780217,-1628.453072,-1302.362347
3202.462939,-9844.739029,-1480.411884,-995.924147
3202.463276,-9400.615463,-2146.597232,-1532.190996
3202.463614,-9474.636058,-2664.741391,0.000000
3202.463951,-10881.027347,-1850.514855,995.924147
3202.464288,-11177.109724,-1998.556043,995.924147
3202.464625,-11621.233289,-1702.473667,995.924147
3202.464963,-10807.006753,-888.247130,1072.533697
3202.465300,-8734.430116,0.000000,612.876398
3202.465637,-9474.636058,444.123565,1072.533697
3202.465975,-10510.924376,444.123565,919.314598
3202.466312,-10362.883188,-296.082377,536.266849
3202.466649,-10436.903782,0.000000,1685.410096
3202.466987,-10436.903782,0.000000,1685.410096
3202.467324,-10362.883188,740.205942,766.095498
3202.467661,-10288.862594,1332.370696,-995.924147
3202.467999,-8734.430116,962.267725,-2757.943793
3202.468336,-8364.327145,1110.308913,-2221.676944
3202.468673,-8956.491898,148.041188,-1302.362347
3202.469011,-9696.697840,0.000000,-689.485948
3202.469348,-10288.862594,-296.082377,-689.485948
3202.469685,-10214.842000,74.020594,306.438199
3202.470023,-9400.615463,0.000000,1455.581446
3202.470360,-8956.491898,0.000000,1378.971896
3202.470697,-9104.533087,814.226536,1762.019645
3202.471035,-10807.006753,592.164754,1762.019645
3202.471372,-10658.965565,222.061783,2145.067394
3202.471709,-11399.171507,-222.061783,2757.943793
3202.472047,-10955.047942,-518.144159,2528.115143
3202.472384,-9844.739029,148.041188,919.314598
3202.472721,-9844.739029,296.082377,-612.876398
3202.473058,-9252.574275,0.000000,-1072.533697
3202.473396,-8734.430116,-296.082377,-842.705048
3202.473733,-9474.636058,-740.205942,76.609550
3202.474070,-10510.924376,148.041188,-306.438199
3202.474408,-10955.047942,-888.247130,0.000000
3202.474745,-11547.212695,-1184.329507,-306.438199
3202.475082,-9992.780217,-1036.288319,-766.095498
3202.475420,-9474.636058,-74.020594,-383.047749
3202.475757,-10066.800811,-962.267725,-536.266849
3202.476094,-10066.800811,-1702.473667,-766.095498
3202.476432,-10881.027347,-1924.535449,153.219100
3202.476769,-11251.130318,-2368.659014,1915.238745
3202.477106,-10955.047942,-1332.370696,1455.581446
3202.477444,-10955.047942,-1184.329507,306.438199
3202.477781,-10214.842000,-444.123565,-306.438199
3202.478118,-8734.430116,0.000000,-1455.581446
3202.478456,-9104.533087,666.185348,153.219100
3202.478793,-9622.677246,148.041188,1608.800546
3202.479130,-10362.883188,666.185348,1225.752797
3202.479468,-11103.089130,1332.370696,1532.190996
3202.479805,-10732.986159,814.226536,1608.800546
3202.480142,-9770.718434,962.267725,1915.238745
3202.480480,-9252.574275,1110.308913,1532.190996
3202.480817,-9030.512492,2368.659014,1149.143247
3202.481154,-9474.636058,1332.370696,383.047749
3202.481491,-9770.718434,592.164754,612.876398
3202.481829,-10288.862594,370.102971,1378.971896
3202.482166,-9918.759623,148.041188,919.314598
3202.482503,-9770.718434,962.267725,-612.876398
3202.482841,-9474.636058,1036.288319,-1991.848295
3202.483178,-9104.533087,74.020594,-2451.505594
3202.483515,-8660.409521,-1258.350101,-1378.971896
3202.483853,-9622.677246,-740.205942,229.828649
3202.484190,-10066.800811,-1036.288319,0.000000
3202.484527,-11103.089130,-1406.391290,-306.438199
3202.484865,-10955.047942,-2146.597232,-306.438199
3202.485202,-9844.739029,-1628.453072,0.000000
3202.485539,-9696.697840,-592.164754,1455.581446
3202.485877,-9992.780217,-296.082377,536.266849
3202.486214,-10436.903782,-296.082377,689.485948
3202.486551,-11103.089130,-962.267725,1378.971896
3202.486889,-11029.068536,-1924.535449,1685.410096
3202.487226,-11103.089130,-1036.288319,2068.457845
3202.487564,-10658.965565,-1110.308913,842.705048
3202.487901,-10436.903782,-296.082377,-1455.581446
3202.488238,-9030.512492,0.000000,-2451.505594
3202.488576,-8734.430116,-592.164754,-1838.629195
3202.488913,-9474.636058,-1258.350101,-1225.752797
3202.489250,-10066.800811,-962.267725,-1302.362347
3202.489588,-10510.924376,-814.226536,-306.438199
3202.489925,-10362.883188,-1406.391290,-229.828649
3202.490262,-9474.636058,-1480.411884,459.657299
3202.490600,-9474.636058,-592.164754,1225.752797
3202.490937,-9474.636058,-148.041188,1532.190996
3202.491274,-10288.862594,592.164754,1532.190996
3202.491612,-10955.047942,-592.164754,1838.629195
3202.491949,-10436.903782,-888.247130,2528.115143
3202.492286,-10658.965565,-370.102971,3370.820191
3202.492624,-10658.965565,962.267725,2221.676944
3202.492961,-9400.615463,1332.370696,612.876398
3202.493298,-9326.594869,2072.576638,229.828649
3202.493636,-8882.471304,1110.308913,0.000000
3202.493973,-9030.512492,1702.473667,536.266849
3202.494310,-10140.821405,1702.473667,766.095498
3202.494648,-10732.986159,666.185348,76.609550
3202.494985,-10214.842000,1258.350101,153.219100
3202.495323,-9474.636058,444.123565,-229.828649
3202.495660,-8882.471304,888.247130,-383.047749
3202.495997,-9326.594869,296.082377,-1225.752797
3202.496335,-10066.800811,-888.247130,-919.314598
3202.496672,-10362.883188,-1258.350101,0.000000
3202.497009,-10362.883188,-2812.782580,229.828649
3202.497347,-9992.780217,-2368.659014,1378.971896
3202.497684,-10288.862594,-1998.556043,-383.047749
3202.498021,-10510.924376,-888.247130,-1991.848295
3202.498359,-9844.739029,-962.267725,-2145.067394
3202.498696,-9474.636058,-1776.494261,-1762.019645
3202.499033,-9622.677246,-1628.453072,0.000000
3202.499371,-10584.944971,-1776.494261,0.000000
3202.499708,-11399.171507,-1332.370696,919.314598
3202.500045,-11621.233289,-1258.350101,1302.362347
3202.500383,-10584.944971,-592.164754,1915.238745
3202.500720,-9770.718434,0.000000,1455.581446
3202.501057,-9918.759623,814.226536,1455.581446
3202.501395,-10732.986159,592.164754,1532.190996
3202.501732,-10658.965565,-296.082377,1838.629195
3202.502069,-10584.944971,0.000000,2451.505594
3202.502407,-10510.924376,814.226536,1302.362347
3202.502744,-10362.883188,1406.391290,-306.438199
3202.503082,-9622.677246,1258.350101,-1915.238745
3202.503419,-9400.615463,666.185348,-1991.848295
3202.503756,-8290.306550,666.185348,-1532.190996
3202.504094,-8808.450710,-148.041188,-612.876398
3202.504431,-9770.718434,148.041188,306.438199
3202.504768,-10140.821405,-296.082377,0.000000
3202.505106,-10066.800811,-222.061783,459.657299
3202.505443,-9178.553681,0.000000,612.876398
3202.505780,-8438.347739,740.205942,919.314598
3202.506118,-9474.636058,1110.308913,1685.410096
3202.506455,-10362.883188,0.000000,1455.581446
3202.506792,-10658.965565,518.144159,1915.238745
3202.507130,-11251.130318,-592.164754,3064.381992
3202.507467,-11325.150913,0.000000,3064.381992
3202.507804,-11029.068536,148.041188,995.924147
3202.508142,-10140.821405,1110.308913,-995.924147
3202.508479,-9474.636058,888.247130,-2374.896044
3202.508816,-8586.388927,-592.164754,-2068.457845
3202.509154,-9548.656652,0.000000,-459.657299
3202.509491,-10955.047942,-740.205942,0.000000
3202.509828,-11103.089130,-814.226536,0.000000
3202.510166,-10658.965565,-1776.494261,-612.876398
3202.510503,-10436.903782,-1702.473667,306.438199
3202.510841,-9622.677246,-518.144159,0.000000
3202.511178,-10214.842000,-1628.453072,-383.047749
3202.511515,-10288.862594,-2072.576638,229.828649
3202.511853,-10436.903782,-2590.720797,842.705048
3202.512190,-11029.068536,-3034.844362,2374.896044
3202.512527,-10807.006753,-2146.597232,536.266849
3202.512865,-10066.800811,-1702.473667,-536.266849
3202.513202,-9844.739029,-1110.308913,-766.095498
3202.513539,-8586.388927,-1258.350101,-1225.752797
3202.513877,-8882.471304,-444.123565,1532.190996
3202.514214,-9844.739029,0.000000,1915.238745
3202.514551,-10658.965565,296.082377,1685.410096
3202.514889,-11103.089130,518.144159,1072.533697
3202.515226,-10658.965565,518.144159,1455.581446
3202.515563,-9474.636058,2072.576638,2145.067394
3202.515901,-9104.533087,1554.432478,536.266849
3202.516238,-8956.491898,2294.638420,229.828649
3202.516575,-9696.697840,1332.370696,-919.314598
3202.516913,-10510.924376,740.205942,459.657299
3202.517250,-10066.800811,0.000000,459.657299
3202.517588,-9992.780217,148.041188,383.047749
3202.517925,-9992.780217,1406.391290,-766.095498
3202.518262,-9770.718434,1110.308913,-2298.286494
3202.518600,-9252.574275,518.144159,-2374.896044
3202.518937,-8956.491898,-296.082377,-1838.629195
3202.519274,-9548.656652,-148.041188,-229.828649
3202.519612,-10436.903782,-962.267725,383.047749
3202.519949,-10732.986159,-1406.391290,459.657299
3202.520286,-10066.800811,-2368.659014,1685.410096
3202.520624,-9474.636058,-1628.453072,1455.581446
3202.520961,-9474.636058,-666.185348,1991.848295
3202.521298,-10955.047942,0.000000,1455.581446
3202.521636,-10214.842000,-222.061783,842.705048
3202.521973,-10732.986159,-1110.308913,1838.629195
3202.522310,-11325.150913,-1258.350101,2911.162892
3202.522648,-10362.883188,-666.185348,1072.533697
3202.522985,-10807.006753,-296.082377,0.000000
3202.523322,-9992.780217,0.000000,-1378.971896
3202.523660,-8956.491898,-370.102971,-2221.676944
3202.523997,-9474.636058,-666.185348,-459.657299
3202.524334,-9622.677246,-1184.329507,-536.266849
3202.524672,-10584.944971,-962.267725,-1302.362347
3202.525009,-11177.109724,-296.082377,-1302.362347
3202.525347,-10214.842000,-814.226536,-995.924147
3202.525684,-9474.636058,-444.123565,-76.609550
3202.526021,-9548.656652,0.000000,0.000000
3202.526359,-9548.656652,518.144159,153.219100
3202.526696,-10732.986159,148.041188,383.047749
3202.527033,-11177.109724,-1110.308913,2145.067394
3202.527371,-10288.862594,-962.267725,2528.115143
3202.527708,-10362.883188,-666.185348,3370.820191
3202.528045,-10140.821405,1036.288319,1915.238745
3202.528383,-9770.718434,1480.411884,-383.047749
3202.528720,-8956.491898,1850.514855,-612.876398
3202.529057,-8290.306550,1110.308913,-76.609550
3202.529395,-8660.409521,962.267725,306.438199
3202.529732,-10066.800811,1702.473667,459.657299
3202.530069,-10584.944971,814.226536,306.438199
3202.530407,-10214.842000,-296.082377,919.314598
3202.530744,-9178.553681,370.102971,229.828649
3202.531081,-9474.636058,444.123565,153.219100
3202.531419,-9696.697840,-222.061783,0.000000
3202.531756,-9918.759623,-1110.308913,-536.266849
3202.532093,-10436.903782,-2072.576638,536.266849
3202.532431,-10362.883188,-2590.720797,842.705048
3202.532768,-9844.739029,-2146.597232,229.828649
3202.533106,-10732.986159,-2146.597232,-76.609550
3202.533443,-9992.780217,-1480.411884,-2068.457845
3202.533780,-9770.718434,-1628.453072,-1762.019645
3202.534118,-9844.739029,-1924.535449,-536.266849
3202.534455,-10066.800811,-1702.473667,306.438199
3202.534792,-11399.171507,-2220.617826,612.876398
3202.535130,-11473.192101,-1628.453072,919.314598
3202.535467,-10658.965565,-1184.329507,1149.143247
3202.535804,-10066.800811,-518.144159,1225.752797
3202.536142,-9474.636058,-148.041188,689.485948
3202.536479,-9548.656652,518.144159,459.657299
3202.536816,-10436.903782,0.000000,459.657299
3202.537154,-10436.903782,-296.082377,1302.362347
3202.537491,-10140.821405,-222.061783,1608.800546
3202.537828,-10362.883188,0.000000,1149.143247
3202.538166,-9992.780217,1406.391290,-459.657299
3202.538503,-9770.718434,1110.308913,-2834.553343
3202.538840,-8808.450710,1332.370696,-2451.505594
3202.539178,-8364.327145,370.102971,-2145.067394
3202.539515,-9474.636058,444.123565,-1225.752797
3202.539852,-9992.780217,74.020594,-919.314598
3202.540190,-9844.739029,-666.185348,0.000000
3202.540527,-10066.800811,-370.102971,1225.752797
3202.540865,-9178.553681,0.000000,1608.800546
3202.541202,-9696.697840,962.267725,2068.457845
3202.541539,-10066.800811,1110.308913,1685.410096
3202.541877,-10510.924376,444.123565,2451.505594
3202.542214,-11177.109724,518.144159,2681.334243
3202.542551,-10881.027347,222.061783,2681.334243
3202.542889,-11029.068536,740.205942,2834.553343
3202.543226,-10658.965565,666.185348,536.266849
3202.543563,-9474.636058,148.041188,-1072.533697
3202.543901,-9104.533087,0.000000,-1149.143247
3202.544238,-8586.388927,-370.102971,0.000000
3202.544575,-9474.636058,-518.144159,0.000000
3202.544913,-10658.965565,-1036.288319,536.266849
3202.545250,-10955.047942,-814.226536,-1225.752797
3202.545587,-10658.965565,-1110.308913,-689.485948
3202.545925,-10066.800811,-1480.411884,-919.314598
3202.546262,-9178.553681,-1258.350101,-612.876398
3202.546599,-9918.759623,-1406.391290,-383.047749
3202.546937,-9918.759623,-2516.700203,76.609550
3202.547274,-10510.924376,-2960.823768,383.047749
3202.547611,-10732.986159,-2960.823768,1915.238745
3202.547949,-10510.924376,-1998.556043,995.924147
3202.548286,-10955.047942,-1702.473667,76.609550
3202.548624,-10066.800811,-666.185348,-1532.190996
3202.548961,-9178.553681,-296.082377,-1072.533697
3202.549298,-9030.512492,74.020594,766.095498
3202.549636,-9992.780217,370.102971,1685.410096
3202.549973,-11029.068536,518.144159,1149.143247
3202.550310,-10955.047942,222.061783,1838.629195
3202.550648,-10288.862594,740.205942,2298.286494
3202.550985,-10362.883188,666.185348,2604.724693
3202.551322,-9548.656652,2368.659014,995.924147
3202.551660,-9548.656652,1850.514855,0.000000
3202.551997,-9918.759623,962.267725,612.876398
3202.552334,-9400.615463,444.123565,383.047749
3202.552672,-9844.739029,222.061783,689.485948
3202.553009,-9918.759623,0.000000,0.000000
3202.553346,-9400.615463,740.205942,-1685.410096
3202.553684,-9474.636058,592.164754,-2298.286494
3202.554021,-8808.450710,0.000000,-2221.676944
3202.554358,-8808.450710,-962.267725,-766.095498
3202.554696,-9844.739029,-1184.329507,383.047749
3202.555033,-10510.924376,-1184.329507,306.438199
3202.555370,-11399.171507,-1480.411884,306.438199
3202.555708,-10584.944971,-1554.432478,229.828649
3202.556045,-9326.594869,-1406.391290,689.485948
3202.556383,-9178.553681,-444.123565,766.095498
3202.556720,-9770.718434,-296.082377,842.705048
3202.557057,-10436.903782,-1184.329507,842.705048
3202.557395,-11399.171507,-1702.473667,1532.190996
3202.557732,-11399.171507,-1258.350101,2221.676944
3202.558069,-10732.986159,-740.205942,919.314598
3202.558407,-10955.047942,0.000000,0.000000
3202.558744,-10066.800811,0.000000,-1302.362347
3202.559081,-8586.388927,-592.164754,-2374.896044
3202.559419,-9400.615463,-592.164754,-1532.190996
3202.559756,-10658.965565,-666.185348,-842.705048
3202.560093,-10955.047942,-1628.453072,-1225.752797
3202.560431,-10510.924376,-1702.473667,-995.924147
3202.560768,-9696.697840,-888.247130,-383.047749
3202.561105,-9474.636058,-962.267725,766.095498
3202.561443,-9400.615463,-222.061783,766.095498
3202.561780,-9844.739029,518.144159,919.314598
3202.562117,-10955.047942,444.123565,2068.457845
3202.562455,-10584.944971,-296.082377,2681.334243
3202.562792,-10732.986159,-814.226536,3140.991542
3202.563130,-10436.903782,370.102971,2451.505594
3202.563467,-9918.759623,1628.453072,612.876398
3202.563804,-9696.697840,1554.432478,459.657299
3202.564142,-9030.512492,1332.370696,-229.828649
3202.564479,-8808.450710,1554.432478,1072.533697
3202.564816,-9918.759623,1036.288319,842.705048
3202.565154,-10214.842000,2146.597232,536.266849
3202.565491,-10955.047942,1702.473667,306.438199
3202.565828,-10140.821405,518.144159,0.000000
3202.566166,-8808.450710,1332.370696,0.000000
3202.566503,-9030.512492,1406.391290,-689.485948
3202.566840,-9770.718434,888.247130,-995.924147
3202.567178,-10584.944971,-370.102971,-1225.752797
3202.567515,-10140.821405,-1776.494261,-689.485948
3202.567852,-9918.759623,-3034.844362,0.000000
3202.568190,-9622.677246,-2368.659014,153.219100
3202.568527,-10658.965565,-1036.288319,-1149.143247
3202.568864,-10362.883188,-1776.494261,-2451.505594
3202.569202,-9178.553681,-1036.288319,-2834.553343
3202.569539,-9474.636058,-1702.473667,-1532.190996
3202.569876,-10584.944971,-1850.514855,76.609550
3202.570214,-10732.986159,-2368.659014,459.657299
3202.570551,-11177.109724,-2146.597232,1225.752797
3202.570889,-10288.862594,-1850.514855,2145.067394
3202.571226,-10362.883188,-444.123565,1762.019645
3202.571563,-10510.924376,-518.144159,1915.238745
3202.571901,-10140.821405,148.041188,612.876398
3202.572238,-10362.883188,-740.205942,1838.629195
3202.572575,-10807.006753,-518.144159,2145.067394
3202.572913,-9992.780217,-666.185348,1685.410096
3202.573250,-9918.759623,148.041188,919.314598
3202.573587,-9696.697840,666.185348,-766.095498
3202.573925,-9474.636058,1184.329507,-1915.238745
3202.574262,-9252.574275,148.041188,-1302.362347
3202.574599,-8956.491898,-370.102971,-536.266849
3202.574937,-9400.615463,222.061783,0.000000
3202.575274,-10214.842000,-222.061783,153.219100
3202.575611,-10732.986159,518.144159,842.705048
3202.575949,-9992.780217,0.000000,-306.438199
3202.576286,-9178.553681,592.164754,459.657299
3202.576623,-9252.574275,888.247130,689.485948
3202.576961,-9770.718434,444.123565,995.924147
3202.577298,-10436.903782,592.164754,1532.190996
3202.577635,-10436.903782,-592.164754,1991.848295
3202.577973,-10288.862594,296.082377,3064.381992
3202.578310,-10881.027347,666.185348,1838.629195
3202.578648,-10881.027347,962.267725,0.000000
3202.578985,-9844.739029,740.205942,-1762.019645
3202.579322,-8956.491898,740.205942,-1762.019645
3202.579660,-8882.471304,0.000000,-1302.362347
3202.579997,-9770.718434,-370.102971,-995.924147
3202.580334,-10436.903782,-962.267725,-76.609550
3202.580672,-10510.924376,-1480.411884,0.000000
3202.581009,-9992.780217,-1406.391290,76.609550
3202.581346,-10436.903782,-1480.411884,229.828649
3202.581684,-10362.883188,-962.267725,-229.828649
3202.582021,-10288.862594,-1850.514855,-612.876398
3202.582358,-10510.924376,-2294.638420,229.828649
3202.582696,-10881.027347,-2960.823768,1532.190996
3202.583033,-10732.986159,-2960.823768,1455.581446
3202.583370,-10807.006753,-2220.617826,536.266849
3202.583708,-10658.965565,-1184.329507,-1225.752797
3202.584045,-9696.697840,-1332.370696,-1149.143247
3202.584382,-9474.636058,-1332.370696,153.219100
3202.584720,-9474.636058,-814.226536,1762.019645
3202.585057,-9844.739029,74.020594,2221.676944
3202.585394,-10732.986159,370.102971,1302.362347
3202.585732,-11251.130318,296.082377,1302.362347
3202.586069,-10807.006753,888.247130,1225.752797
3202.586406,-9548.656652,1480.411884,1532.190996
3202.586744,-8808.450710,2368.659014,153.219100
3202.587081,-9622.677246,1998.556043,-383.047749
3202.587418,-10066.800811,1480.411884,0.000000
3202.587756,-9770.718434,-296.082377,76.609550
3202.588093,-9622.677246,740.205942,995.924147
3202.588430,-9844.739029,666.185348,-306.438199
3202.588768,-9548.656652,888.247130,-1838.629195
3202.589105,-8660.409521,1258.350101,-3064.381992
3202.589442,-9104.533087,518.144159,-1838.629195
3202.589780,-9474.636058,222.061783,-919.314598
3202.590117,-9770.718434,-592.164754,-612.876398
3202.590454,-10732.986159,-666.185348,306.438199
3202.590792,-10510.924376,-814.226536,536.266849
3202.591129,-10288.862594,-1924.535449,1532.190996
3202.591466,-9696.697840,-962.267725,2221.676944
3202.591804,-9326.594869,0.000000,919.314598
3202.592141,-10510.924376,518.144159,1455.581446
3202.592478,-10881.027347,-888.247130,766.095498
3202.592816,-10584.944971,-1036.288319,1991.848295
3202.593153,-11325.150913,-962.267725,2451.505594
3202.593490,-10955.047942,0.000000,1149.143247
3202.593828,-10214.842000,444.123565,-459.657299
3202.594165,-10288.862594,-296.082377,-1608.800546
3202.594502,-9178.553681,-962.267725,-995.924147
3202.594840,-8956.491898,-1258.350101,-612.876398
3202.595177,-10214.842000,-1036.288319,306.438199
3202.595514,-10955.047942,-1332.370696,-612.876398
3202.595851,-11029.068536,-1702.473667,-842.705048
3202.596189,-9770.718434,-1628.453072,-76.609550
3202.596526,-9326.594869,-962.267725,-153.219100
3202.596863,-9400.615463,0.000000,689.485948
3202.597201,-9770.718434,-296.082377,0.000000
3202.597538,-9992.780217,-1406.391290,919.314598
3202.597875,-10807.006753,-1628.453072,2068.457845
3202.598213,-10584.944971,-962.267725,3983.696590
3202.598550,-10584.944971,-296.082377,2834.553343
3202.598887,-10140.821405,592.164754,995.924147
3202.599225,-9474.636058,1850.514855,-229.828649
3202.599562,-9326.594869,1480.411884,-689.485948
3202.599899,-9030.512492,2220.617826,153.219100
3202.600237,-10066.800811,1258.350101,0.000000
3202.600574,-10214.842000,1406.391290,0.000000
3202.600911,-9622.677246,888.247130,76.609550
3202.601249,-9918.759623,444.123565,306.438199
3202.601586,-8882.471304,888.247130,153.219100
3202.601923,-9030.512492,296.082377,306.438199
3202.602261,-10584.944971,666.185348,-153.219100
3202.602598,-10214.842000,-444.123565,-1378.971896
3202.602935,-10436.903782,-1998.556043,153.219100
3202.603273,-10362.883188,-2146.597232,612.876398
3202.603610,-9252.574275,-2146.597232,-536.266849
3202.603947,-9770.718434,-962.267725,-536.266849
3202.604285,-9992.780217,-1850.514855,-995.924147
3202.604622,-9474.636058,-1924.535449,-1302.362347
3202.604959,-9844.739029,-1776.494261,0.000000
3202.605296,-10584.944971,-1924.535449,1302.362347
3202.605634,-11547.212695,-1480.411884,1991.848295
3202.605971,-11695.253884,-1554.432478,1302.362347
3202.606308,-10436.903782,-740.205942,1225.752797
3202.606646,-9918.759623,-370.102971,1149.143247
3202.606983,-10140.821405,296.082377,919.314598
3202.607320,-10140.821405,-148.041188,0.000000
3202.607658,-10584.944971,0.000000,689.485948
3202.607995,-10584.944971,-666.185348,1762.019645
3202.608332,-10288.862594,-888.247130,1608.800546
3202.608670,-9844.739029,148.041188,536.266849
3202.609007,-9770.718434,740.205942,-1532.190996
3202.609344,-9400.615463,1406.391290,-2068.457845
3202.609682,-8586.388927,814.226536,-2298.286494
3202.610019,-9474.636058,1110.308913,-995.924147
3202.610356,-9622.677246,-518.144159,-919.314598
3202.610694,-9622.677246,0.000000,-612.876398
3202.611031,-9918.759623,-518.144159,612.876398
3202.611368,-10140.821405,-592.164754,1762.019645
3202.611706,-8586.388927,666.185348,995.924147
3202.612043,-9252.574275,740.205942,1608.800546
3202.612380,-10288.862594,888.247130,1838.629195
3202.612718,-10436.903782,962.267725,1915.238745
3202.613055,-11103.089130,0.000000,3294.210641
3202.613392,-10732.986159,1628.453072,2451.505594
3202.613730,-10362.883188,888.247130,1455.581446
3202.614067,-10510.924376,1628.453072,76.609550
3202.614404,-9326.594869,814.226536,-1302.362347
3202.614742,-9474.636058,-222.061783,-383.047749
3202.615079,-9326.594869,296.082377,76.609550
3202.615416,-9844.739029,-888.247130,-153.219100
3202.615753,-11251.130318,-518.144159,76.609550
3202.616091,-10658.965565,-1702.473667,-766.095498
3202.616428,-9474.636058,-962.267725,-1072.533697
3202.616765,-9696.697840,-518.144159,-1378.971896
3202.617103,-9622.677246,-592.164754,-1608.800546
3202.617440,-9918.759623,-1332.370696,-1838.629195
3202.617777,-11103.089130,-2812.782580,-459.657299
3202.618115,-10436.903782,-2664.741391,612.876398
3202.618452,-10510.924376,-3108.864956,995.924147
3202.618789,-10881.027347,-1924.535449,919.314598
3202.619127,-10510.924376,-1480.411884,-1072.533697
3202.619464,-10214.842000,-370.102971,-1149.143247
3202.619801,-9474.636058,-370.102971,-689.485948
3202.620139,-9696.697840,-444.123565,919.314598
3202.620476,-10436.903782,0.000000,1838.629195
3202.620813,-10436.903782,740.205942,1149.143247
3202.621151,-11103.089130,148.041188,1685.410096
3202.621488,-10436.903782,666.185348,1685.410096
3202.621825,-9770.718434,1776.494261,1762.019645
3202.622163,-10140.821405,2516.700203,842.705048
3202.622500,-10066.800811,1924.535449,0.000000
3202.622837,-9992.780217,1184.329507,536.266849
3202.623175,-9844.739029,74.020594,842.705048
3202.623512,-9252.574275,296.082377,306.438199
3202.623849,-9992.780217,1406.391290,0.000000
3202.624187,-9474.636058,518.144159,-1608.800546
3202.624524,-8586.388927,814.226536,-2145.067394
3202.624861,-8956.491898,0.000000,-306.438199
3202.625199,-8734.430116,0.000000,383.047749
3202.625536,-10066.800811,-518.144159,1072.533697
3202.625873,-10955.047942,-666.185348,1455.581446
3202.626210,-10584.944971,-888.247130,459.657299
3202.626548,-10066.800811,-1036.288319,612.876398
3202.626885,-9474.636058,-444.123565,1072.533697
3202.627222,-9696.697840,-444.123565,1072.533697
3202.627560,-10066.800811,-518.144159,1455.581446
3202.627897,-10066.800811,-888.247130,919.314598
3202.628234,-10955.047942,-1554.432478,2374.896044
3202.628572,-11103.089130,-1184.329507,2068.457845
3202.628909,-10881.027347,-222.061783,612.876398
3202.629246,-10584.944971,148.041188,-612.876398
3202.629584,-10066.800811,0.000000,-1838.629195
3202.629921,-9400.615463,-592.164754,-1685.410096
3202.630258,-9252.574275,-1628.453072,-919.314598
3202.630596,-10066.800811,-592.164754,-995.924147
3202.630933,-11473.192101,-1924.535449,-1072.533697
3202.631270,-10436.903782,-1776.494261,-689.485948
3202.631608,-9326.594869,-2368.659014,-229.828649
3202.631945,-9696.697840,-1554.432478,919.314598
3202.632282,-9400.615463,-148.041188,383.047749
3202.632620,-10140.821405,-666.185348,0.000000
3202.632957,-10881.027347,-814.226536,1225.752797
3202.633294,-10214.842000,-1184.329507,2298.286494
3202.633632,-10955.047942,-740.205942,3447.429741
3202.633969,-10510.924376,296.082377,1915.238745
3202.634306,-9918.759623,1184.329507,919.314598
3202.634644,-9474.636058,1184.329507,0.000000
3202.634981,-8438.347739,1258.350101,153.219100
3202.635318,-9178.553681,1110.308913,919.314598
3202.635655,-10214.842000,1258.350101,842.705048
3202.635993,-10214.842000,1924.535449,229.828649
3202.636330,-10140.821405,1554.432478,-689.485948
3202.636667,-9696.697840,1258.350101,153.219100
3202.637005,-8364.327145,1332.370696,-766.095498
3202.637342,-8956.491898,1258.350101,-919.314598
3202.637679,-10288.862594,1184.329507,-383.047749
3202.638017,-10288.862594,-592.164754,-1302.362347
3202.638354,-10881.027347,-1702.473667,76.609550
3202.638691,-10362.883188,-1998.556043,919.314598
3202.639029,-9696.697840,-1998.556043,-229.828649
3202.639366,-9844.739029,-740.205942,-1149.143247
3202.639703,-10140.821405,-962.267725,-1685.410096
3202.640041,-9622.677246,-1184.329507,-1302.362347
3202.640378,-9844.739029,-2072.576638,-306.438199
3202.640715,-10658.965565,-1184.329507,919.314598
3202.641053,-11399.171507,-1776.494261,1072.533697
3202.641390,-11029.068536,-1850.514855,1838.629195
3202.641727,-9770.718434,-1258.350101,1991.848295
3202.642065,-10362.883188,-592.164754,2451.505594
3202.642402,-10214.842000,444.123565,1302.362347
3202.642739,-10807.006753,0.000000,842.705048
3202.643077,-10288.862594,-370.102971,1072.533697
3202.643414,-10362.883188,-592.164754,1762.019645
3202.643751,-10214.842000,-666.185348,1225.752797
3202.644089,-9474.636058,-148.041188,153.219100
3202.644426,-9770.718434,370.102971,-766.095498
3202.644763,-9400.615463,296.082377,-2068.457845
3202.645101,-8586.388927,518.144159,-1685.410096
3202.645438,-9474.636058,0.000000,-229.828649
3202.645775,-10066.800811,-740.205942,-612.876398
3202.646112,-10066.800811,-296.082377,0.000000
3202.646450,-9992.780217,0.000000,919.314598
3202.646787,-9770.718434,0.000000,995.924147
3202.647124,-9030.512492,444.123565,1072.533697
3202.647462,-9548.656652,740.205942,919.314598
3202.647799,-10436.903782,888.247130,1455.581446
3202.648136,-10436.903782,444.123565,1991.848295
3202.648474,-10658.965565,0.000000,2757.943793
3202.648811,-10732.986159,148.041188,2757.943793
3202.649148,-10510.924376,1628.453072,995.924147
3202.649486,-10732.986159,1850.514855,-229.828649
3202.649823,-10510.924376,1110.308913,-1608.800546
3202.650160,-8882.471304,444.123565,-1915.238745
3202.650498,-9104.533087,444.123565,-1072.533697
3202.650835,-9696.697840,-592.164754,-842.705048
3202.651172,-10362.883188,-1332.370696,-1149.143247
3202.651510,-10436.903782,-2368.659014,0.000000
3202.651847,-9474.636058,-740.205942,-383.047749
3202.652184,-10066.800811,-814.226536,0.000000
3202.652522,-10288.862594,-1110.308913,-919.314598
3202.652859,-9548.656652,-2146.597232,-612.876398
3202.653196,-10658.965565,-2886.803174,76.609550
3202.653534,-10140.821405,-2812.782580,1378.971896
3202.653871,-10955.047942,-2664.741391,1378.971896
3202.654208,-10658.965565,-1776.494261,76.609550
3202.654546,-10214.842000,-1702.473667,-612.876398
3202.654883,-9474.636058,-740.205942,-1455.581446
3202.655220,-9104.533087,-1406.391290,306.438199
3202.655558,-10288.862594,-814.226536,2374.896044
3202.655895,-10362.883188,-444.123565,1991.848295
3202.656232,-10658.965565,222.061783,1378.971896
3202.656569,-10881.027347,666.185348,1455.581446
3202.656907,-10140.821405,666.185348,1532.190996
3202.657244,-9844.739029,1924.535449,1455.581446
3202.657581,-9326.594869,1924.535449,229.828649
3202.657919,-9770.718434,1924.535449,0.000000
3202.658256,-9918.759623,296.082377,0.000000
3202.658593,-9992.780217,0.000000,383.047749
3202.658931,-9474.636058,518.144159,612.876398
3202.659268,-9770.718434,1332.370696,-612.876398
3202.659605,-9474.636058,1036.288319,-1915.238745
3202.659943,-8216.285956,444.123565,-2374.896044
3202.660280,-8290.306550,518.144159,-459.657299
3202.660617,-9474.636058,296.082377,0.000000
3202.660955,-10362.883188,0.000000,383.047749
3202.661292,-10732.986159,-666.185348,536.266849
3202.661629,-10658.965565,-1036.288319,2834.553343
3202.661967,-9474.636058,-1258.350101,1838.629195
3202.662304,-9770.718434,-74.020594,1838.629195
3202.662641,-10362.883188,74.020594,1455.581446
3202.662979,-9844.739029,-222.061783,306.438199
3202.663316,-10807.006753,-1036.288319,1532.190996
3202.663653,-10732.986159,-370.102971,1685.410096
3202.663991,-10807.006753,-814.226536,2221.676944
3202.664328,-10881.027347,222.061783,76.609550
3202.664665,-10214.842000,296.082377,-1302.362347
3202.665003,-9770.718434,-296.082377,-1532.190996
3202.665340,-9400.615463,-1628.453072,-612.876398
3202.665677,-9622.677246,-1702.473667,-459.657299
3202.666014,-10510.924376,-1184.329507,-536.266849
3202.666352,-11251.130318,-1258.350101,-1302.362347
3202.666689,-10510.924376,-1554.432478,-1838.629195
3202.667026,-9622.677246,-2294.638420,-1608.800546
3202.667364,-9030.512492,-888.247130,-612.876398
3202.667701,-9474.636058,-888.247130,-612.876398
3202.668038,-10288.862594,-148.041188,-76.609550
3202.668376,-10658.965565,-1258.350101,459.657299
3202.668713,-10732.986159,-1998.556043,2604.724693
3202.669050,-10584.944971,-444.123565,2757.943793
3202.669388,-10807.006753,666.185348,1991.848295
3202.669725,-10510.924376,888.247130,459.657299
3202.670062,-9326.594869,1258.350101,-1225.752797
3202.670400,-9326.594869,1332.370696,76.609550
3202.670737,-9104.533087,1776.494261,76.609550
3202.671074,-10140.821405,962.267725,919.314598
3202.671412,-10140.821405,1406.391290,383.047749
3202.671749,-9844.739029,1554.432478,0.000000
3202.672086,-9474.636058,1258.350101,1072.533697
3202.672424,-9326.594869,1184.329507,459.657299
3202.672761,-9400.615463,1110.308913,0.000000
3202.673098,-10658.965565,740.205942,0.000000
3202.673436,-10436.903782,-370.102971,0.000000
3202.673773,-10658.965565,-1554.432478,766.095498
3202.674110,-10214.842000,-2220.617826,1225.752797
3202.674448,-9622.677246,-1628.453072,0.000000
3202.674785,-9548.656652,-962.267725,-995.924147
3202.675122,-9622.677246,-1628.453072,-612.876398
3202.675460,-9252.574275,-1480.411884,-383.047749
3202.675797,-10066.800811,-2220.617826,995.924147
3202.676134,-11177.109724,-1406.391290,1608.800546
3202.676471,-11621.233289,-1406.391290,1455.581446
3202.676809,-11621.233289,-1184.329507,1685.410096
3202.677146,-10066.800811,-740.205942,1225.752797
3202.677483,-9474.636058,-296.082377,1302.362347
3202.677821,-10066.800811,222.061783,995.924147
3202.678158,-10658.965565,296.082377,612.876398
3202.678495,-11103.089130,-888.247130,995.924147
3202.678833,-10510.924376,-888.247130,1149.143247
3202.679170,-10362.883188,-148.041188,766.095498
3202.679507,-10214.842000,0.000000,-689.485948
3202.679845,-9622.677246,518.144159,-2221.676944
3202.680182,-8882.471304,222.061783,-2068.457845
3202.680519,-9030.512492,666.185348,-2298.286494
3202.680857,-9030.512492,0.000000,-1608.800546
3202.681194,-10955.047942,-296.082377,-766.095498
3202.681531,-10288.862594,-296.082377,-612.876398
3202.681869,-9918.759623,-222.061783,383.047749
3202.682206,-9474.636058,148.041188,1302.362347
3202.682543,-8734.430116,518.144159,842.705048
3202.682881,-9400.615463,222.061783,1225.752797
3202.683218,-10510.924376,814.226536,1455.581446
3202.683555,-10140.821405,518.144159,2145.067394
3202.683893,-11103.089130,740.205942,2834.553343
3202.684230,-10955.047942,666.185348,1991.848295
3202.684567,-9992.780217,1702.473667,612.876398
3202.684905,-9992.780217,1998.556043,-612.876398
3202.685242,-9474.636058,592.164754,-1225.752797
3202.685579,-8808.450710,444.123565,0.000000
3202.685917,-9326.594869,0.000000,0.000000
3202.686254,-9622.677246,-222.061783,0.000000
3202.686591,-10584.944971,-888.247130,-153.219100
3202.686929,-10510.924376,-1554.432478,0.000000
3202.687266,-9622.677246,-1184.329507,-1149.143247
3202.687603,-9548.656652,-518.144159,-612.876398
3202.687941,-9992.780217,-740.205942,-459.657299
3202.688278,-9844.739029,-2368.659014,-459.657299
3202.688616,-10658.965565,-2960.823768,689.485948
3202.688953,-10510.924376,-2738.761985,1762.019645
3202.689291,-10955.047942,-2368.659014,1532.190996
3202.689628,-10658.965565,-1776.494261,0.000000
3202.689966,-10066.800811,-1332.370696,-842.705048
3202.690303,-9548.656652,-1850.514855,-919.314598
3202.690641,-9030.512492,-222.061783,76.609550
3202.690978,-10066.800811,-814.226536,1608.800546
3202.691315,-11029.068536,-370.102971,1378.971896
3202.691653,-10436.903782,74.020594,842.705048
3202.691990,-10510.924376,0.000000,1762.019645
3202.692328,-10214.842000,814.226536,2528.115143
3202.692665,-9548.656652,1628.453072,1302.362347
3202.693003,-10140.821405,1776.494261,1302.362347
3202.693340,-9548.656652,1776.494261,-383.047749
3202.693678,-9844.739029,296.082377,459.657299
3202.694015,-10436.903782,0.000000,1838.629195
3202.694352,-9474.636058,592.164754,229.828649
3202.694690,-9918.759623,1036.288319,-919.314598
3202.695027,-9474.636058,1406.391290,-1991.848295
3202.695365,-8364.327145,0.000000,-1915.238745
3202.695702,-8808.450710,-370.102971,0.000000
3202.696040,-9400.615463,0.000000,919.314598
3202.696377,-10140.821405,296.082377,459.657299
3202.696715,-11177.109724,-444.123565,536.266849
3202.697052,-10658.965565,-1184.329507,1149.143247
3202.697389,-9844.739029,-518.144159,842.705048
3202.697727,-9696.697840,-444.123565,689.485948
3202.698064,-9548.656652,370.102971,459.657299
3202.698402,-10140.821405,-1036.288319,766.095498
3202.698739,-10288.862594,-1110.308913,1915.238745
3202.699077,-10807.006753,-1480.411884,1838.629195
3202.699414,-11029.068536,-518.144159,1991.848295
3202.699752,-11473.192101,-222.061783,229.828649
3202.700089,-10510.924376,0.000000,-1532.190996
3202.700427,-9326.594869,-740.205942,-2068.457845
3202.700764,-8808.450710,-592.164754,-1072.533697
3202.701101,-10140.821405,-1702.473667,-383.047749
3202.701439,-10510.924376,-1776.494261,-1072.533697
3202.701776,-10955.047942,-1628.453072,-1225.752797
3202.702114,-10881.027347,-1850.514855,-766.095498
3202.702451,-9474.636058,-2072.576638,229.828649
3202.702789,-9178.553681,-1406.391290,459.657299
3202.703126,-9992.780217,-592.164754,383.047749
3202.703464,-9918.759623,-444.123565,919.314598
3202.703801,-10807.006753,-1110.308913,1762.019645
3202.704138,-11029.068536,-1554.432478,3140.991542
3202.704476,-10881.027347,-444.123565,3370.820191
3202.704813,-10807.006753,814.226536,2068.457845
3202.705151,-9992.780217,1628.453072,-306.438199
3202.705488,-9178.553681,888.247130,-76.609550
3202.705826,-9252.574275,1258.350101,612.876398
3202.706163,-8882.471304,1110.308913,536.266849
3202.706501,-10214.842000,1702.473667,459.657299
3202.706838,-11029.068536,1110.308913,0.000000
3202.707176,-9622.677246,1332.370696,0.000000
3202.707513,-8956.491898,1036.288319,-689.485948
3202.707850,-8586.388927,1776.494261,-383.047749
3202.708188,-9326.594869,1258.350101,-612.876398
3202.708525,-10214.842000,0.000000,-766.095498
3202.708863,-10732.986159,-592.164754,0.000000
3202.709200,-10584.944971,-1628.453072,76.609550
3202.709538,-9992.780217,-1776.494261,76.609550
3202.709875,-9992.780217,-1332.370696,-612.876398
3202.710213,-9548.656652,-1406.391290,-1838.629195
3202.710550,-9030.512492,-518.144159,-2221.676944
3202.710887,-9400.615463,-2072.576638,-1302.362347
3202.711225,-9992.780217,-1480.411884,459.657299
3202.711562,-11399.171507,-1850.514855,995.924147
3202.711900,-11695.253884,-1776.494261,1455.581446
3202.712237,-10955.047942,-1110.308913,1378.971896
3202.712575,-10288.862594,-666.185348,1685.410096
3202.712912,-9548.656652,-222.061783,1532.190996
3202.713250,-10214.842000,296.082377,842.705048
3202.713587,-11325.150913,-296.082377,1225.752797
3202.713924,-11251.130318,-592.164754,1455.581446
3202.714262,-10807.006753,-666.185348,2145.067394
3202.714599,-10140.821405,-370.102971,1225.752797
3202.714937,-9548.656652,518.144159,-459.657299
3202.715274,-9400.615463,296.082377,-1302.362347
3202.715612,-9030.512492,0.000000,-1378.971896
3202.715949,-8734.430116,-148.041188,-612.876398
3202.716287,-9696.697840,-296.082377,-612.876398
3202.716624,-10362.883188,-814.226536,0.000000
3202.716962,-10436.903782,-962.267725,-383.047749
3202.717299,-9992.780217,-518.144159,689.485948
3202.717636,-8882.471304,74.020594,1378.971896
3202.717974,-8586.388927,370.102971,229.828649
3202.718311,-9474.636058,740.205942,919.314598
3202.718649,-10584.944971,148.041188,1762.019645
3202.718986,-10584.944971,0.000000,1838.629195
3202.719324,-10436.903782,518.144159,2911.162892
3202.719661,-10732.986159,814.226536,2451.505594
3202.719999,-10288.862594,1554.432478,306.438199
3202.720336,-9770.718434,1406.391290,-2298.286494
3202.720673,-9548.656652,2072.576638,-1685.410096
3202.721011,-9474.636058,370.102971,-1378.971896
3202.721348,-9696.697840,0.000000,-689.485948
3202.721686,-9622.677246,-370.102971,-1915.238745
3202.722023,-10288.862594,-1332.370696,-766.095498
3202.722361,-9474.636058,-1332.370696,-1072.533697
3202.722698,-9548.656652,-1776.494261,-1225.752797
3202.723036,-9400.615463,-962.267725,-459.657299
3202.723373,-10510.924376,-962.267725,-766.095498
3202.723710,-11029.068536,-2368.659014,0.000000
3202.724048,-10658.965565,-2960.823768,842.705048
3202.724385,-10955.047942,-2664.741391,2374.896044
3202.724723,-11029.068536,-2368.659014,1532.190996
3202.725060,-10288.862594,-1924.535449,0.000000
3202.725398,-10066.800811,-1554.432478,-766.095498
3202.725735,-9252.574275,-1998.556043,-1149.143247
3202.726073,-9104.533087,-666.185348,842.705048
3202.726410,-10214.842000,-518.144159,1838.629195
3202.726748,-11029.068536,-222.061783,1915.238745
3202.727085,-10881.027347,296.082377,1685.410096
3202.727422,-10807.006753,740.205942,1532.190996
3202.727760,-10288.862594,1184.329507,2068.457845
3202.728097,-9326.594869,2220.617826,842.705048
3202.728435,-10066.800811,2368.659014,459.657299
3202.728772,-10140.821405,814.226536,459.657299
3202.729110,-9992.780217,370.102971,306.438199
3202.729447,-10066.800811,666.185348,1302.362347
3202.729785,-10288.862594,518.144159,306.438199
3202.730122,-9474.636058,740.205942,-1302.362347
3202.730459,-9400.615463,814.226536,-2528.115143
3202.730797,-8142.265362,1110.308913,-1991.848295
3202.731134,-8882.471304,0.000000,-842.705048
3202.731472,-9844.739029,0.000000,612.876398
3202.731809,-9992.780217,666.185348,-383.047749
3202.732147,-11177.109724,-740.205942,919.314598
3202.732484,-10807.006753,-740.205942,1455.581446
3202.732822,-8882.471304,-962.267725,1532.190996
3202.733159,-9844.739029,0.000000,1608.800546
3202.733496,-10584.944971,444.123565,842.705048
3202.733834,-10510.924376,-666.185348,459.657299
3202.734171,-10436.903782,-962.267725,1532.190996
3202.734509,-10658.965565,-1036.288319,2221.676944
3202.734846,-10510.924376,0.000000,1608.800546
3202.735184,-10732.986159,-296.082377,-1149.143247
3202.735521,-10066.800811,0.000000,-2451.505594
3202.735859,-9326.594869,-444.123565,-2221.676944
3202.736196,-9326.594869,-1036.288319,-383.047749
3202.736534,-10214.842000,-1184.329507,-229.828649
3202.736871,-11103.089130,-1554.432478,-1149.143247
3202.737208,-11251.130318,-1480.411884,-1302.362347
3202.737546,-10288.862594,-1998.556043,-1072.533697
3202.737883,-9474.636058,-1480.411884,0.000000
3202.738221,-9104.533087,-814.226536,76.609550
3202.738558,-9770.718434,-888.247130,0.000000
3202.738896,-10436.903782,-1036.288319,919.314598
3202.739233,-11103.089130,-1480.411884,2221.676944
3202.739571,-11103.089130,-1406.391290,3907.087040
3202.739908,-10807.006753,-296.082377,2757.943793
3202.740245,-10510.924376,1406.391290,1532.190996
3202.740583,-10066.800811,1702.473667,0.000000
3202.740920,-8808.450710,1332.370696,-536.266849
3202.741258,-9252.574275,1406.391290,842.705048
3202.741595,-9770.718434,1702.473667,842.705048
3202.741933,-9770.718434,1332.370696,0.000000
3202.742270,-10140.821405,962.267725,229.828649
3202.742608,-9770.718434,1036.288319,612.876398
3202.742945,-8586.388927,1406.391290,229.828649
3202.743283,-9104.533087,1776.494261,76.609550
3202.743620,-9622.677246,2294.638420,-612.876398
3202.743957,-10510.924376,518.144159,76.609550
3202.744295,-10955.047942,-444.123565,1072.533697
3202.744632,-10066.800811,-1258.350101,459.657299
3202.744970,-10140.821405,-888.247130,229.828649
3202.745307,-10214.842000,-1480.411884,-1149.143247
3202.745645,-8956.491898,-1554.432478,-1915.238745
3202.745982,-8956.491898,-1184.329507,-1762.019645
3202.746320,-9326.594869,-1924.535449,-536.266849
3202.746657,-9992.780217,-1480.411884,229.828649
3202.746994,-11473.192101,-2294.638420,383.047749
3202.747332,-11843.295072,-962.267725,1149.143247
3202.747669,-10436.903782,-1332.370696,1072.533697
3202.748007,-10066.800811,-592.164754,842.705048
3202.748344,-9474.636058,-518.144159,612.876398
3202.748682,-10140.821405,-444.123565,536.266849
3202.749019,-10658.965565,0.000000,229.828649
3202.749357,-11325.150913,-1332.370696,1991.848295
3202.749694,-11029.068536,-1184.329507,1608.800546
3202.750031,-9992.780217,-592.164754,536.266849
3202.750369,-9992.780217,-296.082377,-536.266849
3202.750706,-8734.430116,518.144159,-1685.410096
3202.751044,-9030.512492,-148.041188,-1378.971896
3202.751381,-9178.553681,-370.102971,-689.485948
3202.751719,-9622.677246,0.000000,-1225.752797
3202.752056,-10658.965565,-592.164754,229.828649
3202.752394,-10584.944971,-1110.308913,229.828649
3202.752731,-9030.512492,-740.205942,1455.581446
3202.753069,-9326.594869,444.123565,2987.772442
3202.753406,-9178.553681,740.205942,1455.581446
3202.753743,-10066.800811,444.123565,1378.971896
3202.754081,-10955.047942,296.082377,2068.457845
3202.754418,-10584.944971,0.000000,2681.334243
3202.754756,-10732.986159,666.185348,3294.210641
3202.755093,-10881.027347,1554.432478,1838.629195
3202.755431,-9844.739029,2072.576638,76.609550
3202.755768,-9844.739029,1332.370696,-995.924147
3202.756106,-9178.553681,1406.391290,-995.924147
3202.756443,-9400.615463,0.000000,-1302.362347
3202.756780,-9770.718434,148.041188,-536.266849
3202.757118,-9918.759623,-370.102971,-536.266849
3202.757455,-10140.821405,-1258.350101,-383.047749
3202.757793,-9844.739029,-1110.308913,-1072.533697
3202.758130,-8882.471304,-592.164754,-1991.848295
3202.758468,-9474.636058,-370.102971,-1915.238745
3202.758805,-10140.821405,-1258.350101,-766.095498
3202.759143,-11029.068536,-1924.535449,-229.828649
3202.759480,-10732.986159,-2960.823768,612.876398
3202.759817,-10732.986159,-3034.844362,1685.410096
3202.760155,-10658.965565,-2146.597232,1072.533697
3202.760492,-11029.068536,-1036.288319,-689.485948
3202.760830,-9844.739029,-518.144159,-1455.581446
3202.761167,-9992.780217,-1184.329507,-766.095498
3202.761505,-9696.697840,-370.102971,0.000000
3202.761842,-10140.821405,0.000000,842.705048
3202.762180,-11399.171507,0.000000,1455.581446
3202.762517,-10732.986159,148.041188,919.314598
3202.762855,-9918.759623,74.020594,2145.067394
3202.763192,-10140.821405,1406.391290,2221.676944
3202.763529,-9474.636058,1998.556043,919.314598
3202.763867,-10510.924376,2294.638420,383.047749
3202.764204,-9918.759623,666.185348,0.000000
3202.764542,-9770.718434,296.082377,1455.581446
3202.764879,-9992.780217,444.123565,1838.629195
3202.765217,-9992.780217,592.164754,229.828649
3202.765554,-9252.574275,1110.308913,-1225.752797
3202.765892,-9178.553681,296.082377,-2145.067394
3202.766229,-8364.327145,74.020594,-1149.143247
3202.766566,-8586.388927,0.000000,76.609550
3202.766904,-9696.697840,-296.082377,995.924147
3202.767241,-10510.924376,0.000000,459.657299
3202.767579,-10584.944971,-1036.288319,842.705048
3202.767916,-10362.883188,-592.164754,1685.410096
3202.768254,-9696.697840,-1036.288319,1532.190996
3202.768591,-9474.636058,518.144159,1302.362347
3202.768929,-10214.842000,222.061783,536.266849
3202.769266,-10732.986159,-1184.329507,229.828649
3202.769603,-10658.965565,-1480.411884,1378.971896
3202.769941,-10881.027347,-1184.329507,2145.067394
3202.770278,-10807.006753,-814.226536,995.924147
3202.770616,-11177.109724,444.123565,-1225.752797
3202.770953,-9918.759623,0.000000,-2145.067394
3202.771291,-9474.636058,-444.123565,-2451.505594
3202.771628,-9178.553681,-1184.329507,-1532.190996
3202.771966,-10436.903782,-1184.329507,-612.876398
3202.772303,-11103.089130,-2146.597232,-1532.190996
3202.772641,-10658.965565,-1924.535449,-1838.629195
3202.772978,-9992.780217,-2590.720797,-766.095498
3202.773315,-9474.636058,-1258.350101,-153.219100
3202.773653,-9474.636058,-1036.288319,0.000000
3202.773990,-10214.842000,-814.226536,229.828649
3202.774328,-10140.821405,-1036.288319,153.219100
3202.774665,-10807.006753,-1628.453072,2911.162892
3202.775003,-11029.068536,-962.267725,3907.087040
3202.775340,-10436.903782,-148.041188,2911.162892
3202.775678,-10510.924376,1332.370696,1302.362347
3202.776015,-9548.656652,1702.473667,-383.047749
3202.776352,-8808.450710,1924.535449,0.000000
3202.776690,-9474.636058,1628.453072,1455.581446
3202.777027,-10140.821405,1184.329507,1302.362347
3202.777365,-10214.842000,1850.514855,766.095498
3202.777702,-10807.006753,2072.576638,842.705048
3202.778040,-9474.636058,1776.494261,612.876398
3202.778377,-8512.368333,1110.308913,0.000000
3202.778715,-8364.327145,2442.679609,76.609550
3202.779052,-9548.656652,1406.391290,-459.657299
3202.779390,-10732.986159,222.061783,306.438199
3202.779727,-10658.965565,-1036.288319,229.828649
3202.780064,-10140.821405,-1480.411884,919.314598
3202.780402,-10584.944971,-1702.473667,306.438199
3202.780739,-9548.656652,-296.082377,-1225.752797
3202.781077,-9548.656652,-1776.494261,-1838.629195
3202.781414,-8512.368333,-1702.473667,-1532.190996
3202.781752,-9474.636058,-2072.576638,-459.657299
3202.782089,-10658.965565,-1554.432478,536.266849
3202.782427,-11695.253884,-2146.597232,689.485948
3202.782764,-11177.109724,-1924.535449,1762.019645
3202.783101,-10362.883188,-888.247130,1915.238745
3202.783439,-9622.677246,-592.164754,1302.362347
3202.783776,-10066.800811,-444.123565,1149.143247
3202.784114,-10658.965565,-962.267725,153.219100
3202.784451,-10732.986159,-444.123565,229.828649
3202.784789,-10955.047942,-1776.494261,1532.190996
3202.785126,-10955.047942,-962.267725,1302.362347
3202.785464,-9844.739029,-1036.288319,153.219100
3202.785801,-9844.739029,0.000000,-1225.752797
3202.786138,-9178.553681,0.000000,-2374.896044
3202.786476,-9474.636058,-296.082377,-1991.848295
3202.786813,-9178.553681,-518.144159,-919.314598
3202.787151,-9844.739029,-666.185348,-995.924147
3202.787488,-10510.924376,-148.041188,0.000000
3202.787826,-10807.006753,-518.144159,459.657299
3202.788163,-9696.697840,-518.144159,842.705048
3202.788500,-8882.471304,592.164754,766.095498
3202.788838,-9548.656652,1258.350101,766.095498
3202.789175,-10140.821405,1110.308913,689.485948
3202.789512,-10436.903782,148.041188,1608.800546
3202.789850,-10436.903782,0.000000,3064.381992
3202.790187,-10288.862594,1110.308913,3830.477490
3202.790524,-10510.924376,2516.700203,2068.457845
3202.790862,-10584.944971,1776.494261,76.609550
3202.791199,-9474.636058,2146.597232,-1608.800546
3202.791536,-9474.636058,1702.473667,-689.485948
3202.791874,-9770.718434,888.247130,0.000000
3202.792211,-9696.697840,444.123565,-459.657299
3202.792549,-10066.800811,-592.164754,-383.047749
3202.792886,-9992.780217,-1036.288319,0.000000
3202.793223,-8882.471304,-1036.288319,0.000000
3202.793561,-9474.636058,-888.247130,76.609550
3202.793898,-10066.800811,-148.041188,-1378.971896
3202.794235,-10066.800811,-1480.411884,-1225.752797
3202.794573,-10732.986159,-2072.576638,229.828649
3202.794910,-10807.006753,-2812.782580,1455.581446
3202.795247,-10881.027347,-2960.823768,2374.896044
3202.795585,-10955.047942,-2368.659014,995.924147
3202.795922,-10362.883188,-1850.514855,-1072.533697
3202.796259,-10066.800811,-1480.411884,-1608.800546
3202.796597,-9696.697840,-1776.494261,229.828649
3202.796934,-9622.677246,-1258.350101,1302.362347
3202.797271,-10658.965565,-666.185348,1532.190996
3202.797609,-10955.047942,0.000000,1149.143247
3202.797946,-10807.006753,-370.102971,0.000000
3202.798283,-10436.903782,0.000000,1762.019645
3202.798621,-9770.718434,1036.288319,1685.410096
3202.798958,-9252.574275,1480.411884,383.047749
3202.799295,-9992.780217,1184.329507,0.000000
3202.799633,-10066.800811,296.082377,459.657299
3202.799970,-10510.924376,0.000000,766.095498
3202.800307,-9548.656652,0.000000,612.876398
3202.800645,-10066.800811,1110.308913,0.000000
3202.800982,-9548.656652,296.082377,-2068.457845
3202.801319,-8808.450710,518.144159,-2451.505594
3202.801657,-8364.327145,148.041188,-1685.410096
3202.801994,-9252.574275,444.123565,76.609550
3202.802331,-9918.759623,444.123565,536.266849
3202.802669,-10881.027347,-222.061783,766.095498
3202.803006,-10362.883188,0.000000,1378.971896
3202.803344,-10510.924376,-222.061783,2145.067394
3202.803681,-10140.821405,0.000000,2298.286494
3202.804018,-9844.739029,444.123565,1225.752797
3202.804356,-10362.883188,222.061783,1302.362347
3202.804693,-10807.006753,-592.164754,1455.581446
3202.805030,-10658.965565,-666.185348,2451.505594
3202.805368,-10732.986159,-740.205942,2221.676944
3202.805705,-10955.047942,0.000000,689.485948
3202.806042,-10066.800811,518.144159,-1455.581446
3202.806380,-9696.697840,0.000000,-2145.067394
3202.806717,-9030.512492,-888.247130,-1302.362347
3202.807054,-9326.594869,-1480.411884,-612.876398
3202.807392,-10066.800811,-962.267725,-459.657299
3202.807729,-11251.130318,-1998.556043,-1072.533697
3202.808066,-10436.903782,-2368.659014,-1225.752797
3202.808404,-9918.759623,-2294.638420,-612.876398
3202.808741,-9104.533087,-1998.556043,0.000000
3202.809078,-8808.450710,-888.247130,-1149.143247
3202.809416,-9992.780217,-1406.391290,-306.438199
3202.809753,-10362.883188,-2072.576638,76.609550
3202.810090,-10140.821405,-1776.494261,1838.629195
3202.810428,-11177.109724,-1850.514855,3294.210641
3202.810765,-10658.965565,296.082377,2145.067394
3202.811102,-10807.006753,666.185348,0.000000
3202.811440,-9770.718434,1406.391290,-306.438199
3202.811777,-9104.533087,2294.638420,-612.876398
3202.812114,-9696.697840,1110.308913,1072.533697
3202.812452,-10584.944971,1036.288319,842.705048
3202.812789,-9622.677246,1036.288319,76.609550
3202.813126,-10807.006753,1332.370696,1149.143247
3202.813464,-9252.574275,1406.391290,612.876398
3202.813801,-8882.471304,1036.288319,153.219100
3202.814138,-8808.450710,1628.453072,0.000000
3202.814476,-9548.656652,1406.391290,-536.266849
3202.814813,-10214.842000,222.061783,229.828649
3202.815151,-10658.965565,-1110.308913,842.705048
3202.815488,-10214.842000,-888.247130,1378.971896
3202.815825,-10214.842000,-1184.329507,-536.266849
3202.816163,-9622.677246,-592.164754,-842.705048
3202.816500,-9474.636058,-1332.370696,-1072.533697
3202.816837,-8660.409521,-1850.514855,0.000000
3202.817175,-9696.697840,-1554.432478,383.047749
3202.817512,-11325.150913,-1924.535449,1149.143247
3202.817849,-11695.253884,-1702.473667,1225.752797
3202.818187,-11177.109724,-1184.329507,842.705048
3202.818524,-9918.759623,-1110.308913,689.485948
3202.818861,-9400.615463,74.020594,919.314598
3202.819199,-10140.821405,222.061783,766.095498
3202.819536,-10732.986159,-444.123565,612.876398
3202.819873,-10732.986159,-1184.329507,306.438199
3202.820211,-11325.150913,-740.205942,1608.800546
3202.820548,-11325.150913,-1036.288319,1225.752797
3202.820885,-10214.842000,0.000000,-153.219100
3202.821223,-9918.759623,0.000000,-2145.067394
3202.821560,-9326.594869,148.041188,-2068.457845
3202.821897,-8586.388927,74.020594,-2145.067394
3202.822235,-9400.615463,-370.102971,-1302.362347
3202.822572,-10214.842000,-1258.350101,-995.924147
3202.822909,-10140.821405,-888.247130,-459.657299
3202.823247,-10436.903782,-814.226536,995.924147
3202.823584,-9030.512492,-370.102971,995.924147
3202.823921,-8734.430116,0.000000,995.924147
3202.824259,-9474.636058,592.164754,1149.143247
3202.824596,-10362.883188,592.164754,919.314598
3202.824933,-10732.986159,518.144159,2451.505594
3202.825271,-10436.903782,0.000000,3064.381992
3202.825608,-9918.759623,814.226536,3217.601092
3202.825946,-9992.780217,1776.494261,1225.752797
3202.826283,-9548.656652,1776.494261,0.000000
3202.826620,-9252.574275,1776.494261,-1072.533697
3202.826958,-9474.636058,370.102971,-76.609550
3202.827295,-10140.821405,1110.308913,612.876398
3202.827632,-10658.965565,0.000000,0.000000
3202.827970,-10658.965565,-296.082377,-383.047749
3202.828307,-9548.656652,-1480.411884,-306.438199
3202.828644,-9030.512492,-1036.288319,76.609550
3202.828982,-9104.533087,-296.082377,-612.876398
3202.829319,-9844.739029,-666.185348,-1072.533697
3202.829656,-10807.006753,-1628.453072,-842.705048
3202.829994,-10658.965565,-2442.679609,-383.047749
3202.830331,-10732.986159,-2960.823768,1838.629195
3202.830668,-10807.006753,-2664.741391,2298.286494
3202.831006,-10732.986159,-2516.700203,1225.752797
3202.831343,-10140.821405,-1332.370696,-459.657299
3202.831680,-9548.656652,-962.267725,-1608.800546
3202.832018,-9918.759623,-888.247130,766.095498
3202.832355,-10807.006753,-962.267725,842.705048
3202.832692,-10140.821405,-740.205942,766.095498
3202.833030,-10881.027347,-592.164754,1225.752797
3202.833367,-10584.944971,-222.061783,1455.581446
3202.833704,-9696.697840,-222.061783,1991.848295
3202.834042,-9474.636058,962.267725,1225.752797
3202.834379,-9918.759623,1628.453072,842.705048
3202.834716,-10362.883188,888.247130,-306.438199
3202.835054,-10658.965565,444.123565,612.876398
3202.835391,-9844.739029,0.000000,766.095498
3202.835728,-10288.862594,74.020594,459.657299
3202.836066,-9474.636058,1184.329507,-995.924147
3202.836403,-9030.512492,296.082377,-3140.991542
3202.836740,-8438.347739,0.000000,-2451.505594
3202.837078,-8290.306550,0.000000,-1532.190996
3202.837415,-8808.450710,370.102971,0.000000
3202.837753,-10214.842000,0.000000,0.000000
3202.838090,-10510.924376,370.102971,306.438199
3202.838427,-10584.944971,-444.123565,842.705048
3202.838765,-9548.656652,-74.020594,1378.971896
3202.839102,-9326.594869,740.205942,1302.362347
3202.839439,-10066.800811,444.123565,842.705048
3202.839777,-10584.944971,296.082377,153.219100
3202.840114,-10510.924376,-666.185348,612.876398
3202.840451,-10807.006753,-962.267725,1225.752797
3202.840789,-10362.883188,-592.164754,1455.581446
3202.841126,-11029.068536,-814.226536,229.828649
3202.841463,-9918.759623,518.144159,-1762.019645
3202.841801,-9104.533087,0.000000,-2298.286494
3202.842138,-9326.594869,-962.267725,-1149.143247
3202.842475,-9696.697840,-1184.329507,-1302.362347
3202.842813,-10140.821405,-1480.411884,-76.609550
3202.843150,-11399.171507,-1702.473667,76.609550
3202.843487,-9400.615463,-2516.700203,-536.266849
3202.843825,-9918.759623,-1850.514855,306.438199
3202.844162,-9770.718434,-2146.597232,229.828649
3202.844499,-9770.718434,-518.144159,76.609550
3202.844837,-10510.924376,-1480.411884,306.438199
3202.845174,-10584.944971,-1628.453072,1455.581446
3202.845511,-10436.903782,-1702.473667,2911.162892
3202.845849,-11251.130318,-1036.288319,3600.648841
3202.846186,-10732.986159,370.102971,3064.381992
3202.846523,-9992.780217,592.164754,1149.143247
3202.846861,-9548.656652,1184.329507,1302.362347
3202.847198,-9326.594869,1184.329507,459.657299
3202.847535,-9770.718434,1258.350101,2145.067394
3202.847873,-10510.924376,1406.391290,1378.971896
3202.848210,-10362.883188,1184.329507,229.828649
3202.848548,-9844.739029,1628.453072,459.657299
3202.848885,-9474.636058,1036.288319,306.438199
3202.849222,-8660.409521,2072.576638,-306.438199
3202.849560,-8882.471304,1702.473667,-1302.362347
3202.849897,-9844.739029,1554.432478,-689.485948
3202.850234,-10140.821405,0.000000,76.609550
3202.850572,-10362.883188,-592.164754,0.000000
3202.850909,-9770.718434,-814.226536,689.485948
3202.851246,-10214.842000,-888.247130,-612.876398
3202.851584,-9770.718434,-444.123565,-1915.238745
3202.851921,-9252.574275,-1110.308913,-2145.067394
3202.852258,-8882.471304,-1332.370696,-1225.752797
3202.852596,-9474.636058,-1480.411884,-766.095498
3202.852933,-11325.150913,-1924.535449,612.876398
3202.853270,-11473.192101,-1258.350101,536.266849
3202.853608,-10881.027347,-1998.556043,919.314598
3202.853945,-10066.800811,-1036.288319,995.924147
3202.854282,-9474.636058,0.000000,612.876398
3202.854620,-10584.944971,0.000000,612.876398
3202.854957,-11029.068536,-148.041188,0.000000
3202.855294,-10510.924376,-1480.411884,0.000000
3202.855632,-11029.068536,-1332.370696,1149.143247
3202.855969,-11399.171507,-1480.411884,612.876398
3202.856306,-9844.739029,-592.164754,-919.314598
3202.856644,-9326.594869,-814.226536,-2298.286494
3202.856981,-9104.533087,-444.123565,-1838.629195
3202.857318,-8882.471304,-518.144159,-1608.800546
3202.857656,-9770.718434,-1036.288319,-459.657299
3202.857993,-10436.903782,-1036.288319,-306.438199
3202.858330,-10436.903782,-1702.473667,153.219100
3202.858668,-10436.903782,0.000000,1378.971896
3202.859005,-9474.636058,-888.247130,1149.143247
3202.859342,-9326.594869,592.164754,1455.581446
3202.859680,-9622.677246,518.144159,689.485948
3202.860017,-10362.883188,740.205942,1455.581446
3202.860355,-10732.986159,0.000000,2451.505594
3202.860692,-10288.862594,148.041188,3677.258390
3202.861029,-10510.924376,888.247130,3600.648841
3202.861367,-9918.759623,2220.617826,1378.971896
3202.861704,-9992.780217,2442.679609,-459.657299
3202.862041,-9622.677246,2146.597232,-383.047749
3202.862379,-8882.471304,1480.411884,229.828649
3202.862716,-9696.697840,1554.432478,536.266849
3202.863053,-10658.965565,370.102971,-306.438199
3202.863391,-9918.759623,148.041188,76.609550
3202.863728,-9770.718434,-814.226536,306.438199
3202.864065,-9030.512492,-888.247130,0.000000
3202.864403,-9252.574275,0.000000,-383.047749
3202.864740,-10288.862594,-962.267725,-689.485948
3202.865077,-9992.780217,-1258.350101,-1378.971896
3202.865415,-10436.903782,-2812.782580,0.000000
3202.865752,-10807.006753,-2368.659014,2298.286494
3202.866089,-10807.006753,-2368.659014,1455.581446
3202.866427,-10955.047942,-1258.350101,229.828649
3202.866764,-10066.800811,-1628.453072,-1455.581446
3202.867101,-9474.636058,-1776.494261,-1378.971896
3202.867439,-9918.759623,-1184.329507,459.657299
3202.867776,-10584.944971,-1258.350101,1149.143247
3202.868113,-10658.965565,-888.247130,1225.752797
3202.868451,-10955.047942,-592.164754,0.000000
3202.868788,-10732.986159,0.000000,919.314598
3202.869125,-9992.780217,444.123565,842.705048
3202.869463,-9696.697840,1110.308913,459.657299
3202.869800,-10066.800811,1628.453072,-306.438199
3202.870137,-10436.903782,888.247130,-306.438199
3202.870475,-10140.821405,148.041188,842.705048
3202.870812,-10362.883188,-518.144159,766.095498
3202.871149,-9844.739029,74.020594,459.657299
3202.871487,-10140.821405,962.267725,-689.485948
3202.871824,-9474.636058,444.123565,-2068.457845
3202.872162,-8142.265362,0.000000,-2298.286494
3202.872499,-8438.347739,0.000000,-1455.581446
3202.872836,-9474.636058,222.061783,0.000000
3202.873174,-9696.697840,222.061783,919.314598
3202.873511,-10214.842000,-370.102971,1532.190996
3202.873848,-10140.821405,-888.247130,1915.238745
3202.874186,-9622.677246,0.000000,1915.238745
3202.874523,-9696.697840,740.205942,2374.896044
3202.874860,-10436.903782,370.102971,1302.362347
3202.875198,-10881.027347,444.123565,1149.143247
3202.875535,-10584.944971,-296.082377,1762.019645
3202.875872,-11029.068536,-740.205942,2374.896044
3202.876210,-10288.862594,-148.041188,1685.410096
3202.876547,-10436.903782,-296.082377,-153.219100
3202.876884,-9548.656652,222.061783,-1608.800546
3202.877222,-9474.636058,-370.102971,-1608.800546
3202.877559,-9548.656652,-740.205942,153.219100
3202.877896,-9622.677246,-1554.432478,-1225.752797
3202.878234,-10510.924376,-1184.329507,0.000000
3202.878571,-11251.130318,-1258.350101,-612.876398
3202.878908,-10732.986159,-2146.597232,-842.705048
3202.879246,-9030.512492,-1998.556043,-842.705048
3202.879583,-9400.615463,-1036.288319,-383.047749
3202.879920,-9844.739029,-666.185348,-383.047749
3202.880258,-9844.739029,-1628.453072,-229.828649
3202.880595,-10732.986159,-1702.473667,842.705048
3202.880932,-10140.821405,-2368.659014,2757.943793
3202.881270,-10881.027347,-666.185348,2604.724693
3202.881607,-10955.047942,592.164754,1762.019645
3202.881944,-10436.903782,1332.370696,306.438199
3202.882282,-9252.574275,1776.494261,-306.438199
3202.882619,-9844.739029,1480.411884,459.657299
3202.882957,-10066.800811,1850.514855,842.705048
3202.883294,-10732.986159,1480.411884,919.314598
3202.883631,-10214.842000,814.226536,689.485948
3202.883969,-9474.636058,1554.432478,459.657299
3202.884306,-9178.553681,1702.473667,689.485948
3202.884643,-9474.636058,1628.453072,0.000000
3202.884981,-9252.574275,1628.453072,-766.095498
3202.885318,-9844.739029,518.144159,-919.314598
3202.885655,-10807.006753,74.020594,0.000000
3202.885993,-10214.842000,-296.082377,689.485948
3202.886330,-9992.780217,-592.164754,459.657299
3202.886667,-9770.718434,-814.226536,-1072.533697
3202.887005,-9252.574275,-666.185348,-1608.800546
3202.887342,-9400.615463,-1184.329507,-842.705048
3202.887679,-9178.553681,-2146.597232,383.047749
3202.888017,-9992.780217,-1924.535449,306.438199
3202.888354,-11325.150913,-1776.494261,459.657299
3202.888691,-11991.336260,-1628.453072,1072.533697
3202.889029,-10732.986159,-1258.350101,612.876398
3202.889366,-9622.677246,-962.267725,766.095498
3202.889704,-9696.697840,-444.123565,459.657299
3202.890041,-9696.697840,0.000000,76.609550
3202.890378,-10732.986159,-1406.391290,0.000000
3202.890716,-10732.986159,-1480.411884,459.657299
3202.891053,-10436.903782,-1628.453072,1302.362347
3202.891391,-11103.089130,-962.267725,1149.143247
3202.891728,-9992.780217,74.020594,-919.314598
3202.892065,-9770.718434,-592.164754,-1302.362347
3202.892403,-9252.574275,-222.061783,-1915.238745
3202.892740,-9030.512492,-370.102971,-1378.971896
3202.893078,-10214.842000,-962.267725,-383.047749
3202.893415,-10584.944971,-888.247130,-306.438199
3202.893752,-10066.800811,-1406.391290,536.266849
3202.894090,-9696.697840,-444.123565,1149.143247
3202.894427,-9474.636058,0.000000,1685.410096
3202.894765,-9178.553681,148.041188,1302.362347
3202.895102,-9622.677246,296.082377,612.876398
3202.895439,-10140.821405,740.205942,2145.067394
3202.895777,-10510.924376,74.020594,3140.991542
3202.896114,-10732.986159,370.102971,3600.648841
3202.896452,-10140.821405,1184.329507,2451.505594
3202.896789,-9622.677246,1924.535449,689.485948
3202.897127,-9474.636058,2886.803174,-229.828649
3202.897464,-9178.553681,1850.514855,-689.485948
3202.897801,-9178.553681,1184.329507,0.000000
3202.898139,-9918.759623,1332.370696,0.000000
3202.898476,-10732.986159,296.082377,-306.438199
3202.898814,-10362.883188,74.020594,-229.828649
3202.899151,-9622.677246,-592.164754,-919.314598
3202.899488,-8956.491898,-518.144159,-919.314598
3202.899826,-8956.491898,-592.164754,-1838.629195
3202.900163,-9992.780217,-740.205942,-1991.848295
3202.900501,-10584.944971,-2442.679609,-919.314598
3202.900838,-9992.780217,-2960.823768,-536.266849
3202.901175,-10881.027347,-2664.741391,1915.238745
3202.901513,-11399.171507,-2072.576638,2221.676944
3202.901850,-10658.965565,-1702.473667,76.609550
3202.902188,-9992.780217,-1628.453072,-1532.190996
3202.902525,-9622.677246,-1850.514855,-1608.800546
3202.902862,-9548.656652,-962.267725,306.438199
3202.903200,-10955.047942,-1702.473667,919.314598
3202.903537,-10732.986159,-962.267725,459.657299
3202.903875,-10955.047942,-592.164754,995.924147
3202.904212,-10510.924376,-296.082377,1685.410096
3202.904550,-9844.739029,444.123565,1762.019645
3202.904887,-10214.842000,888.247130,1991.848295
3202.905224,-10288.862594,1332.370696,689.485948
3202.905562,-10066.800811,962.267725,459.657299
3202.905899,-10436.903782,444.123565,1072.533697
3202.906237,-10362.883188,0.000000,1685.410096
3202.906574,-9844.739029,592.164754,153.219100
3202.906911,-9474.636058,888.247130,-1378.971896
3202.907249,-8882.471304,740.205942,-2068.457845
3202.907586,-8142.265362,-296.082377,-1455.581446
3202.907924,-8734.430116,-296.082377,-612.876398
3202.908261,-9474.636058,74.020594,76.609550
3202.908598,-10066.800811,518.144159,612.876398
3202.908936,-10436.903782,0.000000,229.828649
3202.909273,-10066.800811,148.041188,1149.143247
3202.909611,-9178.553681,814.226536,1378.971896
3202.909948,-9474.636058,1480.411884,1072.533697
3202.910285,-10658.965565,888.247130,383.047749
3202.910623,-10732.986159,148.041188,766.095498
3202.910960,-10362.883188,-740.205942,1378.971896
3202.911298,-10807.006753,-148.041188,1762.019645
3202.911635,-10436.903782,-296.082377,536.266849
3202.911973,-10436.903782,-148.041188,-612.876398
3202.912310,-10140.821405,0.000000,-2145.067394
3202.912647,-8956.491898,-222.061783,-2681.334243
3202.912985,-9548.656652,-518.144159,-1072.533697
3202.913322,-10510.924376,-1406.391290,-612.876398
3202.913660,-10436.903782,-2220.617826,-459.657299
3202.913997,-10732.986159,-2146.597232,0.000000
3202.914334,-10066.800811,-2442.679609,-229.828649
3202.914672,-9622.677246,-2442.679609,-383.047749
3202.915009,-10066.800811,-1628.453072,153.219100
3202.915347,-9844.739029,-1776.494261,383.047749
3202.915684,-10436.903782,-1554.432478,766.095498
3202.916021,-10584.944971,-2442.679609,2145.067394
3202.916359,-10732.986159,-2368.659014,2451.505594
3202.916696,-10881.027347,-592.164754,2681.334243
3202.917034,-10436.903782,222.061783,1762.019645
3202.917371,-9918.759623,1258.350101,995.924147
3202.917708,-9548.656652,518.144159,536.266849
3202.918046,-9252.574275,1480.411884,1532.190996
3202.918383,-10436.903782,1332.370696,1762.019645
3202.918721,-10732.986159,1702.473667,1225.752797
3202.919058,-10436.903782,1258.350101,0.000000
3202.919396,-9992.780217,1406.391290,459.657299
3202.919733,-8808.450710,2220.617826,-229.828649
3202.920070,-8512.368333,2294.638420,-766.095498
3202.920408,-9474.636058,1110.308913,-1532.190996
3202.920745,-9178.553681,1554.432478,-1302.362347
3202.921083,-10510.924376,0.000000,153.219100
3202.921420,-9696.697840,0.000000,612.876398
3202.921757,-9844.739029,-666.185348,-229.828649
3202.922095,-10584.944971,-592.164754,-612.876398
3202.922432,-9326.594869,74.020594,-2681.334243
3202.922770,-8586.388927,-370.102971,-1762.019645
3202.923107,-9548.656652,-1036.288319,-536.266849
3202.923444,-9844.739029,-1924.535449,-76.609550
3202.923782,-11029.068536,-1776.494261,536.266849
3202.924119,-11177.109724,-2072.576638,1302.362347
3202.924457,-10807.006753,-1110.308913,1455.581446
3202.924794,-9918.759623,-814.226536,766.095498
3202.925132,-9918.759623,-222.061783,919.314598
3202.925469,-10510.924376,0.000000,766.095498
3202.925806,-11547.212695,-962.267725,766.095498
3202.926144,-11029.068536,-1332.370696,1302.362347
3202.926481,-11029.068536,-1702.473667,612.876398
3202.926819,-10584.944971,-1110.308913,459.657299
3202.927156,-10066.800811,-518.144159,-1608.800546
3202.927493,-9104.533087,-740.205942,-1915.238745
3202.927831,-8734.430116,-1924.535449,-2068.457845
3202.928168,-8808.450710,-1184.329507,-766.095498
3202.928506,-9622.677246,-1184.329507,-689.485948
3202.928843,-11177.109724,-1184.329507,-153.219100
3202.929180,-10732.986159,-1184.329507,0.000000
3202.929518,-9622.677246,-740.205942,842.705048
3202.929855,-9474.636058,444.123565,1072.533697
3202.930193,-9252.574275,0.000000,842.705048
3202.930530,-10066.800811,888.247130,229.828649
3202.930867,-10140.821405,0.000000,1762.019645
3202.931205,-10584.944971,0.000000,3524.039291
3202.931542,-10584.944971,592.164754,3830.477490
3202.931880,-10436.903782,1628.453072,2834.553343
3202.932217,-10288.862594,1702.473667,459.657299
3202.932555,-9326.594869,2368.659014,-842.705048
3202.932892,-9326.594869,2220.617826,306.438199
3202.933229,-9548.656652,2072.576638,76.609550
3202.933567,-9770.718434,814.226536,-306.438199
3202.933904,-10807.006753,740.205942,0.000000
3202.934242,-10214.842000,-592.164754,-383.047749
3202.934579,-9326.594869,-888.247130,76.609550
3202.934916,-9030.512492,-592.164754,-306.438199
3202.935254,-9030.512492,-592.164754,-995.924147
3202.935591,-9918.759623,-444.123565,-689.485948
3202.935929,-10807.006753,-2294.638420,-153.219100
3202.936266,-10140.821405,-2812.782580,1225.752797
3202.936603,-10955.047942,-2886.803174,2145.067394
3202.936941,-10955.047942,-1998.556043,1685.410096
3202.937278,-10140.821405,-1776.494261,-995.924147
3202.937616,-9770.718434,-1702.473667,-1378.971896
3202.937953,-9400.615463,-2146.597232,-1072.533697
3202.938290,-9696.697840,-1850.514855,612.876398
3202.938628,-10807.006753,-1110.308913,1302.362347
3202.938965,-11177.109724,-1184.329507,0.000000
3202.939303,-10807.006753,-666.185348,229.828649
3202.939640,-9918.759623,-296.082377,306.438199
3202.939978,-9696.697840,962.267725,995.924147
3202.940315,-9696.697840,518.144159,459.657299
3202.940652,-10288.862594,1480.411884,-536.266849
3202.940990,-10362.883188,296.082377,383.047749
3202.941327,-10584.944971,0.000000,459.657299
3202.941665,-10362.883188,296.082377,842.705048
3202.942002,-10584.944971,592.164754,0.000000
3202.942339,-9474.636058,962.267725,-1991.848295
3202.942677,-8956.491898,888.247130,-2757.943793
3202.943014,-8660.409521,148.041188,-1991.848295
3202.943352,-8660.409521,148.041188,-995.924147
3202.943689,-9696.697840,444.123565,76.609550
3202.944026,-10288.862594,148.041188,536.266849
3202.944364,-9844.739029,148.041188,766.095498
3202.944701,-9844.739029,-592.164754,2451.505594
3202.945039,-9400.615463,222.061783,2374.896044
3202.945376,-9770.718434,1110.308913,2221.676944
3202.945713,-10510.924376,1184.329507,2145.067394
3202.946051,-10732.986159,0.000000,1608.800546
3202.946388,-10955.047942,-518.144159,2221.676944
3202.946726,-10288.862594,-148.041188,2221.676944
3202.947063,-10658.965565,0.000000,1072.533697
3202.947401,-9696.697840,148.041188,-766.095498
3202.947738,-9474.636058,-222.061783,-1455.581446
3202.948075,-8512.368333,-814.226536,-919.314598
3202.948413,-9844.739029,-962.267725,-306.438199
3202.948750,-10881.027347,-1184.329507,0.000000
3202.949088,-11251.130318,-1628.453072,-995.924147
3202.949425,-11103.089130,-1924.535449,-689.485948
3202.949762,-9770.718434,-1924.535449,-689.485948
3202.950100,-9252.574275,-2294.638420,-766.095498
3202.950437,-9474.636058,-666.185348,-459.657299
3202.950775,-10436.903782,-1702.473667,-229.828649
3202.951112,-10288.862594,-2146.597232,0.000000
3202.951449,-10658.965565,-2664.741391,1225.752797
3202.951787,-10955.047942,-2072.576638,2834.553343
3202.952124,-10584.944971,-1110.308913,2451.505594
3202.952462,-10510.924376,518.144159,995.924147
3202.952799,-10214.842000,1110.308913,-459.657299
3202.953136,-9030.512492,666.185348,-612.876398
3202.953474,-9844.739029,1036.288319,1225.752797
3202.953811,-10362.883188,1110.308913,919.314598
3202.954149,-10140.821405,1258.350101,306.438199
3202.954486,-10140.821405,740.205942,0.000000
3202.954824,-9770.718434,1184.329507,1072.533697
3202.955161,-8586.388927,1702.473667,612.876398
3202.955498,-9178.553681,1998.556043,-383.047749
3202.955836,-9400.615463,1258.350101,-689.485948
3202.956173,-9696.697840,592.164754,-306.438199
3202.956511,-9474.636058,222.061783,689.485948
3202.956848,-9696.697840,0.000000,689.485948
3202.957185,-9992.780217,0.000000,229.828649
3202.957523,-10140.821405,0.000000,-383.047749
3202.957860,-9252.574275,-1258.350101,-2451.505594
3202.958198,-8882.471304,-592.164754,-536.266849
3202.958535,-9326.594869,-1554.432478,459.657299
3202.958872,-10066.800811,-2146.597232,689.485948
3202.959210,-10732.986159,-1258.350101,0.000000
3202.959547,-11325.150913,-1184.329507,995.924147
3202.959885,-10584.944971,-962.267725,1072.533697
3202.960222,-9548.656652,-222.061783,153.219100
3202.960559,-9992.780217,444.123565,612.876398
3202.960897,-10140.821405,-666.185348,306.438199
3202.961234,-10807.006753,-888.247130,1072.533697
3202.961572,-11103.089130,-1258.350101,1532.190996
3202.961909,-11177.109724,-1554.432478,1762.019645
3202.962247,-10955.047942,-518.144159,0.000000
3202.962584,-10807.006753,-296.082377,-1608.800546
3202.962921,-9474.636058,-74.020594,-2604.724693
3202.963259,-8882.471304,-740.205942,-2145.067394
3202.963596,-9178.553681,-518.144159,-1455.581446
3202.963934,-9548.656652,-888.247130,-1455.581446
3202.964271,-10807.006753,-1332.370696,0.000000
3202.964608,-10658.965565,-1554.432478,153.219100
3202.964946,-9474.636058,-740.205942,1455.581446
3202.965283,-9474.636058,222.061783,1455.581446
3202.965621,-9918.759623,444.123565,1532.190996
3202.965958,-9918.759623,296.082377,1072.533697
3202.966295,-10066.800811,0.000000,2374.896044
3202.966633,-10362.883188,592.164754,3983.696590
3202.966970,-10732.986159,592.164754,3370.820191
3202.967308,-11029.068536,1850.514855,1225.752797
3202.967645,-9992.780217,2442.679609,229.828649
3202.967983,-8882.471304,2146.597232,-995.924147
3202.968320,-8808.450710,1850.514855,76.609550
3202.968657,-9474.636058,1406.391290,689.485948
3202.968995,-9696.697840,1258.350101,-536.266849
3202.969332,-10807.006753,888.247130,0.000000
3202.969670,-11103.089130,222.061783,-919.314598
3202.970007,-9326.594869,222.061783,-1455.581446
3202.970344,-9252.574275,-888.247130,-1225.752797
3202.970682,-8882.471304,0.000000,-1149.143247
3202.971019,-9400.615463,-1702.473667,-1225.752797
3202.971357,-10436.903782,-2516.700203,-766.095498
3202.971694,-10214.842000,-2960.823768,0.000000
3202.972031,-10955.047942,-3330.926739,1915.238745
3202.972369,-11695.253884,-1998.556043,1149.143247
3202.972706,-9918.759623,-1924.535449,-1378.971896
3202.973044,-9770.718434,-1628.453072,-1685.410096
3202.973381,-9326.594869,-1998.556043,-766.095498
3202.973718,-9622.677246,-1776.494261,306.438199
3202.974056,-11103.089130,-1554.432478,689.485948
3202.974393,-11843.295072,-1480.411884,995.924147
3202.974731,-10658.965565,-1258.350101,536.266849
3202.975068,-9918.759623,-1036.288319,1455.581446
3202.975406,-9844.739029,592.164754,2374.896044
3202.975743,-9992.780217,592.164754,1149.143247
3202.976080,-10584.944971,814.226536,842.705048
3202.976418,-10658.965565,0.000000,1072.533697
3202.976755,-10732.986159,0.000000,1991.848295
3202.977093,-10807.006753,444.123565,1762.019645
3202.977430,-10214.842000,222.061783,-612.876398
3202.977767,-9252.574275,1110.308913,-1838.629195
3202.978105,-8586.388927,370.102971,-2145.067394
3202.978442,-8290.306550,0.000000,-1149.143247
3202.978780,-8734.430116,-222.061783,-306.438199
3202.979117,-9992.780217,518.144159,229.828649
3202.979454,-10807.006753,370.102971,536.266849
3202.979792,-9992.780217,-74.020594,0.000000
3202.980129,-9400.615463,888.247130,1455.581446
3202.980467,-9474.636058,814.226536,2068.457845
3202.980804,-9326.594869,2072.576638,1225.752797
3202.981141,-10584.944971,518.144159,842.705048
3202.981479,-11399.171507,0.000000,1915.238745
3202.981816,-10436.903782,-666.185348,2451.505594
3202.982154,-10658.965565,-296.082377,2374.896044
3202.982491,-10732.986159,814.226536,1149.143247
3202.982829,-9770.718434,814.226536,-1762.019645
3202.983166,-9548.656652,296.082377,-2528.115143
3202.983503,-9474.636058,-222.061783,-1991.848295
3202.983841,-9400.615463,-370.102971,-1072.533697
3202.984178,-10584.944971,-888.247130,-919.314598
3202.984516,-10881.027347,-1850.514855,-1225.752797
3202.984853,-10436.903782,-2220.617826,-383.047749
3202.985190,-9844.739029,-2516.700203,153.219100
3202.985528,-9474.636058,-2220.617826,76.609550
3202.985865,-9918.759623,-1628.453072,0.000000
3202.986203,-10955.047942,-1924.535449,383.047749
3202.986540,-10584.944971,-2294.638420,919.314598
3202.986877,-10362.883188,-2664.741391,1838.629195
3202.987215,-10955.047942,-1480.411884,2374.896044
3202.987552,-10732.986159,-1258.350101,1302.362347
3202.987890,-9474.636058,296.082377,459.657299
3202.988227,-9474.636058,444.123565,0.000000
3202.988565,-9400.615463,296.082377,306.438199
3202.988902,-9770.718434,518.144159,919.314598
3202.989239,-10436.903782,1184.329507,1455.581446
3202.989577,-10881.027347,1110.308913,689.485948
3202.989914,-10436.903782,1258.350101,-229.828649
3202.990251,-9178.553681,1036.288319,459.657299
3202.990589,-8660.409521,2368.659014,766.095498
3202.990926,-8808.450710,1850.514855,-306.438199
3202.991264,-9622.677246,1554.432478,-995.924147
3202.991601,-9992.780217,222.061783,-459.657299
3202.991938,-9474.636058,370.102971,1532.190996
3202.992276,-10510.924376,-296.082377,1608.800546
3202.992613,-9918.759623,222.061783,0.000000
3202.992950,-10362.883188,74.020594,-1225.752797
3202.993288,-9696.697840,-444.123565,-1685.410096
3202.993625,-8808.450710,-296.082377,-1072.533697
3202.993963,-9992.780217,-444.123565,0.000000
3202.994300,-10510.924376,-1184.329507,76.609550
3202.994637,-10658.965565,-1850.514855,229.828649
3202.994975,-10362.883188,-888.247130,1685.410096
3202.995312,-10288.862594,-1110.308913,2145.067394
3202.995649,-10510.924376,0.000000,1915.238745
3202.995987,-10362.883188,0.000000,919.314598
3202.996324,-10658.965565,-592.164754,919.314598
3202.996661,-10807.006753,-592.164754,1991.848295
3202.996999,-11177.109724,-1776.494261,1915.238745
3202.997336,-10658.965565,-1184.329507,1455.581446
3202.997674,-10658.965565,-740.205942,0.000000
3202.998011,-9992.780217,0.000000,-1685.410096
3202.998348,-9474.636058,-1258.350101,-2068.457845
3202.998686,-9030.512492,-1332.370696,-1991.848295
3202.999023,-8734.430116,-1258.350101,-1685.410096
3202.999360,-10066.800811,-1258.350101,-842.705048
3202.999698,-10807.006753,-1036.288319,-842.705048
3203.000035,-10436.903782,-1258.350101,76.609550
3203.000373,-9844.739029,-1480.411884,536.266849
3203.000710,-8808.450710,888.247130,76.609550
3203.001047,-9844.739029,370.102971,842.705048
3203.001385,-10214.842000,592.164754,612.876398
3203.001722,-10362.883188,-444.123565,1608.800546
3203.002059,-10658.965565,-74.020594,3830.477490
3203.002397,-10140.821405,592.164754,2681.334243
3203.002734,-10584.944971,1332.370696,1838.629195
3203.003072,-10584.944971,2368.659014,-153.219100
3203.003409,-8956.491898,1998.556043,-1608.800546
3203.003746,-8808.450710,2072.576638,-995.924147
3203.004084,-9252.574275,1258.350101,0.000000
3203.004421,-10066.800811,1628.453072,-306.438199
3203.004758,-10436.903782,0.000000,-306.438199
3203.005096,-9918.759623,-222.061783,0.000000
3203.005433,-8882.471304,-444.123565,153.219100
3203.005770,-9548.656652,-370.102971,76.609550
3203.006108,-9178.553681,-296.082377,76.609550
3203.006445,-9696.697840,-1554.432478,-842.705048
3203.006783,-10584.944971,-1850.514855,536.266849
3203.007120,-10510.924376,-2960.823768,1072.533697
3203.007457,-10658.965565,-2146.597232,1685.410096
3203.007795,-10732.986159,-1702.473667,612.876398
3203.008132,-9992.780217,-1554.432478,-995.924147
3203.008469,-9474.636058,-1924.535449,-1302.362347
3203.008807,-9770.718434,-2294.638420,229.828649
3203.009144,-10214.842000,-1554.432478,1225.752797
3203.009482,-11177.109724,-1036.288319,1378.971896
3203.009819,-11843.295072,-296.082377,1302.362347
3203.010156,-10955.047942,-1184.329507,612.876398
3203.010494,-9696.697840,0.000000,689.485948
3203.010831,-9104.533087,1036.288319,459.657299
3203.011168,-10288.862594,1406.391290,536.266849
3203.011506,-10510.924376,370.102971,-229.828649
3203.011843,-10066.800811,-148.041188,306.438199
3203.012181,-10584.944971,-444.123565,1915.238745
3203.012518,-10362.883188,518.144159,919.314598
3203.012855,-10288.862594,148.041188,-536.266849
3203.013193,-9918.759623,1406.391290,-2451.505594
3203.013530,-8364.327145,444.123565,-2757.943793
3203.013867,-8512.368333,740.205942,-1225.752797
3203.014205,-9030.512492,74.020594,-766.095498
3203.014542,-9696.697840,0.000000,0.000000
3203.014879,-10510.924376,0.000000,153.219100
3203.015217,-9326.594869,-444.123565,612.876398
3203.015554,-9178.553681,296.082377,2068.457845
3203.015892,-9770.718434,518.144159,2528.115143
3203.016229,-9622.677246,1776.494261,1915.238745
3203.016566,-11103.089130,1110.308913,1685.410096
3203.016904,-11251.130318,222.061783,2528.115143
3203.017241,-10881.027347,-592.164754,2681.334243
3203.017578,-10955.047942,-222.061783,2681.334243
3203.017916,-9770.718434,666.185348,0.000000
3203.018253,-9030.512492,0.000000,-1991.848295
3203.018591,-8956.491898,0.000000,-2221.676944
3203.018928,-8956.491898,-1480.411884,-1225.752797
3203.019265,-9548.656652,-814.226536,-612.876398
3203.019603,-10288.862594,-1110.308913,-1302.362347
3203.019940,-11547.212695,-1628.453072,-1302.362347
3203.020277,-10584.944971,-2516.700203,-536.266849
3203.020615,-9326.594869,-1554.432478,-459.657299
3203.020952,-9178.553681,-1850.514855,76.609550
3203.021290,-10214.842000,-740.205942,0.000000
3203.021627,-10510.924376,-1628.453072,-536.266849
3203.021964,-11621.233289,-2442.679609,459.657299
3203.022302,-10362.883188,-2442.679609,1455.581446
3203.022639,-11029.068536,-1702.473667,2451.505594
3203.022976,-10436.903782,-962.267725,1915.238745
3203.023314,-9474.636058,444.123565,0.000000
3203.023651,-9474.636058,740.205942,-306.438199
3203.023988,-9622.677246,1406.391290,153.219100
3203.024326,-10066.800811,1332.370696,1149.143247
3203.024663,-10955.047942,888.247130,1455.581446
3203.025001,-10658.965565,1258.350101,842.705048
3203.025338,-9918.759623,1480.411884,766.095498
3203.025675,-9326.594869,1184.329507,1149.143247
3203.026013,-8586.388927,1332.370696,612.876398
3203.026350,-9252.574275,1776.494261,0.000000
3203.026687,-9622.677246,1332.370696,0.000000
3203.027025,-10214.842000,148.041188,153.219100
3203.027362,-10066.800811,0.000000,1302.362347
3203.027700,-10066.800811,0.000000,919.314598
3203.028037,-9474.636058,74.020594,-536.266849
3203.028374,-9622.677246,0.000000,-1838.629195
3203.028712,-9400.615463,-592.164754,-1378.971896
3203.029049,-9252.574275,-962.267725,-919.314598
3203.029386,-9548.656652,-1332.370696,-383.047749
3203.029724,-10510.924376,-1702.473667,229.828649
3203.030061,-11029.068536,-2072.576638,229.828649
3203.030399,-10436.903782,-1332.370696,612.876398
3203.030736,-9548.656652,-1036.288319,919.314598
3203.031073,-9622.677246,0.000000,229.828649
3203.031411,-10140.821405,-518.144159,306.438199
3203.031748,-11325.150913,-592.164754,1072.533697
3203.032085,-11029.068536,-1184.329507,1149.143247
3203.032423,-11251.130318,-1332.370696,1762.019645
3203.032760,-10955.047942,-1480.411884,1455.581446
3203.033097,-10732.986159,-814.226536,-612.876398
3203.033435,-9992.780217,-370.102971,-2221.676944
3203.033772,-9696.697840,-370.102971,-2451.505594
3203.034110,-9178.553681,-740.205942,-2068.457845
3203.034447,-9622.677246,-962.267725,-1762.019645
3203.034784,-10362.883188,-814.226536,-919.314598
3203.035122,-10140.821405,-1554.432478,0.000000
3203.035459,-10214.842000,-1480.411884,1455.581446
3203.035796,-10214.842000,-370.102971,1608.800546
3203.036134,-9400.615463,0.000000,2145.067394
3203.036471,-9992.780217,888.247130,2068.457845
3203.036809,-10807.006753,222.061783,1915.238745
3203.037146,-10436.903782,296.082377,2987.772442
3203.037483,-10658.965565,296.082377,4136.915689
3203.037821,-10510.924376,1036.288319,3217.601092
3203.038158,-9992.780217,2368.659014,842.705048
3203.038495,-9548.656652,1924.535449,-612.876398
3203.038833,-8808.450710,1850.514855,-612.876398
3203.039170,-8290.306550,1702.473667,-306.438199
3203.039508,-9400.615463,1850.514855,612.876398
3203.039845,-10436.903782,1258.350101,229.828649
3203.040182,-10362.883188,370.102971,-689.485948
3203.040520,-10140.821405,518.144159,-536.266849
3203.040857,-9474.636058,74.020594,-919.314598
3203.041194,-8956.491898,148.041188,-919.314598
3203.041532,-8956.491898,-666.185348,-1762.019645
3203.041869,-9622.677246,-1998.556043,-1378.971896
3203.042206,-10214.842000,-2368.659014,-689.485948
3203.042544,-10510.924376,-3034.844362,919.314598
3203.042881,-10955.047942,-1998.556043,1378.971896
3203.043219,-11325.150913,-1554.432478,0.000000
3203.043556,-10288.862594,-1554.432478,-1685.410096
3203.043893,-9918.759623,-1406.391290,-1991.848295
3203.044231,-9844.739029,-1776.494261,153.219100
3203.044568,-10362.883188,-1406.391290,459.657299
3203.044905,-11029.068536,-1184.329507,689.485948
3203.045243,-11399.171507,-1480.411884,766.095498
3203.045580,-10732.986159,-1332.370696,1838.629195
3203.045918,-9326.594869,-518.144159,1072.533697
3203.046255,-9474.636058,296.082377,919.314598
3203.046592,-10436.903782,1406.391290,1072.533697
3203.046930,-10214.842000,0.000000,229.828649
3203.047267,-10066.800811,-74.020594,1302.362347
3203.047604,-10066.800811,-222.061783,2221.676944
3203.047942,-10214.842000,888.247130,1302.362347
3203.048279,-9992.780217,1110.308913,-612.876398
3203.048617,-9252.574275,592.164754,-1762.019645
3203.048954,-8586.388927,148.041188,-1838.629195
3203.049291,-8290.306550,148.041188,536.266849
3203.049629,-9400.615463,222.061783,842.705048
3203.049966,-9770.718434,148.041188,0.000000
3203.050303,-10362.883188,0.000000,459.657299
3203.050641,-9622.677246,444.123565,229.828649
3203.050978,-9178.553681,148.041188,1532.190996
3203.051315,-9548.656652,1480.411884,2528.115143
3203.051653,-10066.800811,1702.473667,1072.533697
3203.051990,-10436.903782,1036.288319,1455.581446
3203.052328,-11177.109724,0.000000,2221.676944
3203.052665,-10584.944971,-962.267725,2681.334243
3203.053002,-10658.965565,-444.123565,2298.286494
3203.053340,-10362.883188,814.226536,0.000000
3203.053677,-9696.697840,518.144159,-2834.553343
3203.054014,-9030.512492,0.000000,-3447.429741
3203.054352,-9178.553681,-740.205942,-1838.629195
3203.054689,-9474.636058,-1480.411884,-1685.410096
3203.055027,-10140.821405,-1184.329507,-1225.752797
3203.055364,-11103.089130,-2368.659014,-536.266849
3203.055701,-10658.965565,-2738.761985,0.000000
3203.056039,-9844.739029,-2368.659014,536.266849
3203.056376,-9474.636058,-2442.679609,0.000000
3203.056713,-10288.862594,-1702.473667,383.047749
3203.057051,-11177.109724,-2294.638420,153.219100
3203.057388,-10955.047942,-2442.679609,919.314598
3203.057726,-10436.903782,-2294.638420,919.314598
3203.058063,-10732.986159,-2072.576638,1302.362347
3203.058400,-10584.944971,-592.164754,689.485948
3203.058738,-9474.636058,-222.061783,-536.266849
3203.059075,-9252.574275,296.082377,76.609550
3203.059412,-9770.718434,518.144159,919.314598
3203.059750,-10140.821405,518.144159,1838.629195
3203.060087,-11029.068536,1258.350101,1302.362347
3203.060424,-10955.047942,1258.350101,995.924147
3203.060762,-10214.842000,1924.535449,306.438199
3203.061099,-9104.533087,1554.432478,-76.609550
3203.061437,-8660.409521,2146.597232,-153.219100
3203.061774,-8808.450710,1776.494261,-1072.533697
3203.062111,-9918.759623,888.247130,-766.095498
3203.062449,-10066.800811,222.061783,153.219100
3203.062786,-9474.636058,-370.102971,1072.533697
3203.063123,-9696.697840,0.000000,1072.533697
3203.063461,-10510.924376,370.102971,0.000000
3203.063798,-9622.677246,592.164754,-1991.848295
3203.064136,-9474.636058,0.000000,-1608.800546
3203.064473,-9622.677246,-370.102971,-76.609550
3203.064810,-9622.677246,-888.247130,0.000000
3203.065148,-10362.883188,-1406.391290,383.047749
3203.065485,-10436.903782,-2220.617826,1378.971896
3203.065822,-10066.800811,-2220.617826,2221.676944
3203.066160,-10214.842000,-1036.288319,2528.115143
3203.066497,-10066.800811,-444.123565,1149.143247
3203.066835,-10732.986159,-148.041188,1685.410096
3203.067172,-11251.130318,-740.205942,1608.800546
3203.067509,-11103.089130,-1628.453072,1991.848295
3203.067847,-10955.047942,-1332.370696,1838.629195
3203.068184,-10658.965565,-1184.329507,766.095498
3203.068521,-10140.821405,-1036.288319,-612.876398
3203.068859,-9548.656652,-1110.308913,-2451.505594
3203.069196,-9400.615463,-888.247130,-1608.800546
3203.069533,-9770.718434,-1628.453072,-1149.143247
3203.069871,-9918.759623,-814.226536,-995.924147
3203.070208,-10140.821405,-1554.432478,-995.924147
3203.070546,-10807.006753,-1258.350101,0.000000
3203.070883,-10066.800811,-1184.329507,536.266849
3203.071220,-9622.677246,-296.082377,306.438199
3203.071558,-9474.636058,296.082377,612.876398
3203.071895,-9622.677246,962.267725,76.609550
3203.072232,-10807.006753,0.000000,1225.752797
3203.072570,-10140.821405,0.000000,1762.019645
3203.072907,-10066.800811,-296.082377,2911.162892
3203.073245,-10807.006753,1406.391290,2911.162892
3203.073582,-10066.800811,2072.576638,0.000000
3203.073919,-9622.677246,3256.906145,-766.095498
3203.074257,-9178.553681,2368.659014,-1685.410096
3203.074594,-8438.347739,2072.576638,-689.485948
3203.074931,-9696.697840,2812.782580,0.000000
3203.075269,-9918.759623,592.164754,-612.876398
3203.075606,-9918.759623,1036.288319,459.657299
3203.075944,-9696.697840,0.000000,229.828649
3203.076281,-9400.615463,370.102971,459.657299
3203.076618,-9622.677246,370.102971,0.000000
3203.076956,-10510.924376,-592.164754,-536.266849
3203.077293,-10214.842000,-1258.350101,0.000000
3203.077630,-10066.800811,-3034.844362,766.095498
3203.077968,-9844.739029,-1924.535449,1302.362347
3203.078305,-10955.047942,-2738.761985,1455.581446
3203.078642,-10510.924376,-1184.329507,0.000000
3203.078980,-9474.636058,-1850.514855,-1378.971896
3203.079317,-9992.780217,-1628.453072,153.219100
3203.079655,-9770.718434,-2146.597232,1072.533697
3203.079992,-10436.903782,-1480.411884,1685.410096
3203.080329,-11473.192101,-1480.411884,1302.362347
3203.080667,-10955.047942,-666.185348,306.438199
3203.081004,-10658.965565,-962.267725,1455.581446
3203.081341,-9918.759623,-370.102971,842.705048
3203.081679,-9252.574275,888.247130,76.609550
3203.082016,-9992.780217,1036.288319,383.047749
3203.082354,-10436.903782,-370.102971,-306.438199
3203.082691,-9622.677246,-1332.370696,1149.143247
3203.083028,-10140.821405,-888.247130,2221.676944
3203.083366,-10214.842000,296.082377,1149.143247
3203.083703,-10510.924376,814.226536,-1455.581446
3203.084040,-10066.800811,814.226536,-2757.943793
3203.084378,-8512.368333,814.226536,-2374.896044
3203.084715,-8660.409521,-222.061783,-995.924147
3203.085053,-9252.574275,518.144159,0.000000
3203.085390,-10066.800811,-296.082377,-383.047749
3203.085727,-10214.842000,74.020594,842.705048
