#time,accel_x,accel_y,accel_z
2750.365283,-9400.615463,-2812.782580,536.266849
2750.365621,-9178.553681,-2442.679609,1532.190996
2750.365958,-8956.491898,-1184.329507,1838.629195
2750.366296,-9622.677246,-222.061783,1838.629195
2750.366634,-11547.212695,666.185348,153.219100
2750.366971,-11251.130318,1258.350101,-1072.533697
2750.367309,-11103.089130,2294.638420,-1149.143247
2750.367647,-10214.842000,962.267725,-766.095498
2750.367984,-10436.903782,0.000000,-1378.971896
2750.368322,-9400.615463,-2368.659014,-1455.581446
2750.368659,-8512.368333,-2886.803174,-612.876398
2750.368997,-8142.265362,-1406.391290,536.266849
2750.369335,-10362.883188,-1258.350101,0.000000
2750.369672,-10510.924376,-1702.473667,-1072.533697
2750.370010,-10214.842000,-1110.308913,-1225.752797
2750.370348,-10732.986159,592.164754,76.609550
2750.370685,-10584.944971,148.041188,-1455.581446
2750.371023,-10658.965565,-1850.514855,-2451.505594
2750.371360,-11251.130318,-2590.720797,-2068.457845
2750.371698,-10140.821405,-3256.906145,-229.828649
2750.372036,-9252.574275,-2294.638420,1225.752797
2750.372373,-9770.718434,-2146.597232,1762.019645
2750.372711,-9770.718434,-1998.556043,919.314598
2750.373049,-11251.130318,-1924.535449,1532.190996
2750.373386,-10584.944971,-666.185348,2374.896044
2750.373724,-10140.821405,740.205942,3447.429741
2750.374061,-11029.068536,2516.700203,2681.334243
2750.374399,-10807.006753,2146.597232,0.000000
2750.374737,-11399.171507,1776.494261,-1072.533697
2750.375074,-10066.800811,962.267725,229.828649
2750.375412,-8734.430116,0.000000,76.609550
2750.375750,-8364.327145,148.041188,1455.581446
2750.376087,-8808.450710,592.164754,1302.362347
2750.376425,-9992.780217,592.164754,306.438199
2750.376762,-9326.594869,1332.370696,-1149.143247
2750.377100,-9030.512492,1110.308913,-1455.581446
2750.377438,-9770.718434,1110.308913,-1378.971896
2750.377775,-10140.821405,222.061783,-2298.286494
2750.378113,-9548.656652,0.000000,-1225.752797
2750.378451,-9178.553681,-666.185348,-1149.143247
2750.378788,-9326.594869,-2072.576638,-76.609550
2750.379126,-10436.903782,-1406.391290,-383.047749
2750.379463,-10288.862594,-2442.679609,-306.438199
2750.379801,-9400.615463,-2146.597232,1149.143247
2750.380139,-9992.780217,-1258.350101,1455.581446
2750.380476,-10658.965565,-814.226536,1072.533697
2750.380814,-11695.253884,0.000000,306.438199
2750.381152,-11621.233289,-518.144159,76.609550
2750.381489,-11029.068536,0.000000,459.657299
2750.381827,-10510.924376,-888.247130,612.876398
2750.382164,-10510.924376,-444.123565,1149.143247
2750.382502,-10288.862594,-1184.329507,0.000000
2750.382840,-9474.636058,-962.267725,0.000000
2750.383177,-9992.780217,-1036.288319,76.609550
2750.383515,-10066.800811,-666.185348,0.000000
2750.383853,-10214.842000,-888.247130,-459.657299
2750.384190,-10732.986159,-1036.288319,-383.047749
2750.384528,-9400.615463,-666.185348,-1149.143247
2750.384866,-9548.656652,-1110.308913,-995.924147
2750.385203,-9474.636058,-1480.411884,-383.047749
2750.385541,-9474.636058,-2072.576638,612.876398
2750.385878,-9696.697840,-1480.411884,1685.410096
2750.386216,-9474.636058,-1332.370696,1302.362347
2750.386554,-9548.656652,-1184.329507,1072.533697
2750.386891,-10214.842000,-518.144159,1685.410096
2750.387229,-9548.656652,-444.123565,1608.800546
2750.387567,-9326.594869,1110.308913,2068.457845
2750.387904,-10140.821405,1554.432478,1685.410096
2750.388242,-10807.006753,2072.576638,76.609550
2750.388579,-10881.027347,962.267725,153.219100
2750.388917,-9992.780217,1110.308913,153.219100
2750.389254,-9844.739029,888.247130,689.485948
2750.389592,-9622.677246,74.020594,1302.362347
2750.389930,-9474.636058,296.082377,995.924147
2750.390267,-10140.821405,296.082377,306.438199
2750.390605,-10584.944971,370.102971,-153.219100
2750.390942,-10881.027347,74.020594,-1838.629195
2750.391280,-11177.109724,-888.247130,-2451.505594
2750.391617,-9400.615463,-592.164754,-2604.724693
2750.391955,-9104.533087,-2368.659014,-1685.410096
2750.392293,-8808.450710,-2590.720797,-153.219100
2750.392630,-8882.471304,-2516.700203,-383.047749
2750.392968,-10214.842000,-3330.926739,766.095498
2750.393305,-10362.883188,-2590.720797,0.000000
2750.393643,-10362.883188,-2368.659014,766.095498
2750.393981,-11029.068536,-2368.659014,1608.800546
2750.394318,-10066.800811,-2146.597232,1302.362347
2750.394656,-10140.821405,-1036.288319,1378.971896
2750.394993,-10584.944971,-370.102971,306.438199
2750.395331,-9770.718434,-296.082377,-383.047749
2750.395668,-10214.842000,296.082377,383.047749
2750.396006,-10436.903782,0.000000,766.095498
2750.396344,-10436.903782,888.247130,1378.971896
2750.396681,-10807.006753,740.205942,689.485948
2750.397019,-10436.903782,1332.370696,1302.362347
2750.397356,-10436.903782,1258.350101,919.314598
2750.397694,-10732.986159,1554.432478,1149.143247
2750.398031,-10436.903782,1480.411884,0.000000
2750.398369,-9918.759623,888.247130,-766.095498
2750.398707,-9622.677246,1406.391290,-1225.752797
2750.399044,-9104.533087,1036.288319,-842.705048
2750.399382,-8956.491898,592.164754,-306.438199
2750.399719,-8808.450710,0.000000,229.828649
2750.400057,-9400.615463,74.020594,1455.581446
2750.400395,-9474.636058,444.123565,1991.848295
2750.400732,-9844.739029,518.144159,995.924147
2750.401070,-9622.677246,0.000000,1915.238745
2750.401407,-9548.656652,888.247130,1225.752797
2750.401745,-9622.677246,888.247130,2374.896044
2750.402082,-9992.780217,1406.391290,612.876398
2750.402420,-9548.656652,518.144159,0.000000
2750.402758,-9918.759623,666.185348,153.219100
2750.403095,-9918.759623,0.000000,-306.438199
2750.403433,-10066.800811,222.061783,-689.485948
2750.403770,-10140.821405,0.000000,-306.438199
2750.404108,-10288.862594,0.000000,-612.876398
2750.404445,-9992.780217,-148.041188,-689.485948
2750.404783,-11029.068536,-592.164754,-306.438199
2750.405121,-10362.883188,-1036.288319,-1072.533697
2750.405458,-10732.986159,-1850.514855,-1532.190996
2750.405796,-10658.965565,-1628.453072,-383.047749
2750.406133,-9844.739029,-2368.659014,-1225.752797
2750.406471,-10214.842000,-2664.741391,-76.609550
2750.406809,-10436.903782,-2590.720797,-612.876398
2750.407146,-9992.780217,-2960.823768,-612.876398
2750.407484,-10288.862594,-1850.514855,-536.266849
2750.407821,-10510.924376,-2812.782580,-229.828649
2750.408159,-9992.780217,-1998.556043,612.876398
2750.408496,-9770.718434,-2220.617826,1225.752797
2750.408834,-9844.739029,-888.247130,1455.581446
2750.409172,-9770.718434,-444.123565,1685.410096
2750.409509,-10362.883188,370.102971,2298.286494
2750.409847,-9992.780217,74.020594,1762.019645
2750.410184,-9770.718434,296.082377,1532.190996
2750.410522,-10510.924376,1184.329507,1225.752797
2750.410859,-10140.821405,814.226536,919.314598
2750.411197,-9474.636058,740.205942,229.828649
2750.411535,-8808.450710,1110.308913,-536.266849
2750.411872,-9696.697840,814.226536,76.609550
2750.412210,-9474.636058,592.164754,0.000000
2750.412547,-9474.636058,740.205942,-842.705048
2750.412885,-9696.697840,296.082377,-153.219100
2750.413223,-9474.636058,0.000000,-612.876398
2750.413560,-9696.697840,-370.102971,459.657299
2750.413898,-10140.821405,-888.247130,919.314598
2750.414235,-9770.718434,-962.267725,919.314598
2750.414573,-10436.903782,-814.226536,995.924147
2750.414910,-10510.924376,-1554.432478,689.485948
2750.415248,-10066.800811,-1554.432478,229.828649
2750.415586,-10066.800811,-2146.597232,919.314598
2750.415923,-9918.759623,-1480.411884,1149.143247
2750.416261,-9844.739029,-740.205942,919.314598
2750.416598,-10436.903782,-1332.370696,766.095498
2750.416936,-9992.780217,-370.102971,153.219100
2750.417273,-10658.965565,-888.247130,0.000000
2750.417611,-10584.944971,0.000000,919.314598
2750.417949,-10288.862594,-740.205942,0.000000
2750.418286,-10288.862594,-518.144159,0.000000
2750.418624,-9770.718434,-1406.391290,0.000000
2750.418961,-9696.697840,-814.226536,-766.095498
2750.419299,-10362.883188,-518.144159,-766.095498
2750.419637,-10140.821405,-962.267725,-1225.752797
2750.419974,-9844.739029,-518.144159,-1991.848295
2750.420312,-9844.739029,-444.123565,-1532.190996
2750.420649,-10214.842000,-518.144159,0.000000
2750.420987,-9844.739029,-1110.308913,-383.047749
2750.421324,-9918.759623,-222.061783,76.609550
2750.421662,-9696.697840,74.020594,1225.752797
2750.422000,-10362.883188,0.000000,842.705048
2750.422337,-9992.780217,444.123565,995.924147
2750.422675,-10362.883188,592.164754,1455.581446
2750.423012,-9548.656652,1332.370696,2298.286494
2750.423350,-10362.883188,1702.473667,1072.533697
2750.423687,-9844.739029,1776.494261,842.705048
2750.424025,-10066.800811,1850.514855,612.876398
2750.424363,-9770.718434,1110.308913,0.000000
2750.424700,-9548.656652,1850.514855,306.438199
2750.425038,-9400.615463,1036.288319,1072.533697
2750.425375,-9770.718434,1480.411884,766.095498
2750.425713,-9252.574275,1184.329507,-689.485948
2750.426051,-10288.862594,518.144159,-1225.752797
2750.426388,-10510.924376,74.020594,-383.047749
2750.426726,-10140.821405,-1406.391290,-1838.629195
2750.427063,-9326.594869,-1480.411884,-842.705048
2750.427401,-8734.430116,-2590.720797,-1225.752797
2750.427738,-9178.553681,-2738.761985,76.609550
2750.428076,-9844.739029,-2516.700203,459.657299
2750.428414,-10584.944971,-2664.741391,766.095498
2750.428751,-10362.883188,-2146.597232,612.876398
2750.429089,-11177.109724,-1850.514855,536.266849
2750.429426,-11029.068536,-1776.494261,1455.581446
2750.429764,-10955.047942,-2368.659014,1455.581446
2750.430101,-10584.944971,-2072.576638,1378.971896
2750.430439,-10436.903782,-1406.391290,1455.581446
2750.430777,-10140.821405,-1184.329507,1532.190996
2750.431114,-10510.924376,-740.205942,1149.143247
2750.431452,-10881.027347,-592.164754,1225.752797
2750.431789,-10288.862594,222.061783,153.219100
2750.432127,-10288.862594,444.123565,536.266849
2750.432465,-10807.006753,740.205942,612.876398
2750.432802,-9770.718434,518.144159,0.000000
2750.433140,-9474.636058,592.164754,153.219100
2750.433477,-10140.821405,74.020594,306.438199
2750.433815,-9696.697840,0.000000,-612.876398
2750.434152,-8808.450710,148.041188,-842.705048
2750.434490,-9844.739029,-518.144159,-76.609550
2750.434828,-9178.553681,0.000000,229.828649
2750.435165,-9178.553681,-148.041188,-76.609550
2750.435503,-9622.677246,0.000000,919.314598
2750.435840,-9548.656652,518.144159,995.924147
2750.436178,-9548.656652,518.144159,689.485948
2750.436515,-10066.800811,222.061783,383.047749
2750.436853,-9844.739029,296.082377,536.266849
2750.437191,-10066.800811,888.247130,1685.410096
2750.437528,-9844.739029,1110.308913,995.924147
2750.437866,-10140.821405,814.226536,842.705048
2750.438203,-10658.965565,1480.411884,536.266849
2750.438541,-10658.965565,222.061783,0.000000
2750.438879,-10584.944971,1332.370696,-842.705048
2750.439216,-10658.965565,444.123565,-306.438199
2750.439554,-10510.924376,-222.061783,-383.047749
2750.439891,-9622.677246,-740.205942,-1225.752797
2750.440229,-10066.800811,-666.185348,-612.876398
2750.440566,-10807.006753,-888.247130,-612.876398
2750.440904,-10140.821405,-1184.329507,-1762.019645
2750.441242,-10436.903782,-1924.535449,-1225.752797
2750.441579,-9844.739029,-1998.556043,-1455.581446
2750.441917,-9770.718434,-2590.720797,-536.266849
2750.442254,-9844.739029,-2590.720797,-536.266849
2750.442592,-9696.697840,-2072.576638,-612.876398
2750.442929,-10140.821405,-1776.494261,0.000000
2750.443267,-9992.780217,-2442.679609,0.000000
2750.443605,-9696.697840,-1184.329507,536.266849
2750.443942,-9918.759623,-1702.473667,1378.971896
2750.444280,-10436.903782,-518.144159,2298.286494
2750.444617,-10066.800811,518.144159,2221.676944
2750.444955,-10807.006753,666.185348,2604.724693
2750.445293,-10436.903782,888.247130,2298.286494
2750.445630,-10436.903782,888.247130,1762.019645
2750.445968,-10732.986159,2442.679609,1378.971896
2750.446305,-9992.780217,2146.597232,612.876398
2750.446643,-9770.718434,1998.556043,0.000000
2750.446980,-9326.594869,1628.453072,0.000000
2750.447318,-9548.656652,1184.329507,0.000000
2750.447656,-9474.636058,1480.411884,0.000000
2750.447993,-9844.739029,1406.391290,0.000000
2750.448331,-9770.718434,666.185348,-306.438199
2750.448668,-9400.615463,-518.144159,0.000000
2750.449006,-9252.574275,222.061783,536.266849
2750.449343,-9770.718434,-814.226536,689.485948
2750.449681,-9474.636058,-444.123565,919.314598
2750.450019,-9548.656652,-592.164754,229.828649
2750.450356,-10214.842000,-740.205942,689.485948
2750.450694,-9918.759623,-1110.308913,0.000000
2750.451031,-9622.677246,-1628.453072,306.438199
2750.451369,-10140.821405,-888.247130,766.095498
2750.451707,-9770.718434,-592.164754,612.876398
2750.452044,-10881.027347,-888.247130,689.485948
2750.452382,-10362.883188,-518.144159,229.828649
2750.452719,-10436.903782,-666.185348,536.266849
2750.453057,-11103.089130,-222.061783,919.314598
2750.453394,-10807.006753,0.000000,-153.219100
2750.453732,-10584.944971,-888.247130,-153.219100
2750.454070,-10436.903782,-666.185348,-689.485948
2750.454407,-10140.821405,-814.226536,-1378.971896
2750.454745,-10584.944971,-74.020594,-1072.533697
2750.455082,-10288.862594,-1702.473667,-1762.019645
2750.455420,-9622.677246,-1036.288319,-1685.410096
2750.455757,-10140.821405,-1258.350101,-689.485948
2750.456095,-9918.759623,-1110.308913,-536.266849
2750.456433,-9400.615463,-1036.288319,-383.047749
2750.456770,-10362.883188,-888.247130,229.828649
2750.457108,-10214.842000,0.000000,766.095498
2750.457445,-9696.697840,0.000000,459.657299
2750.457783,-10214.842000,0.000000,1302.362347
2750.458121,-10140.821405,0.000000,1225.752797
2750.458458,-9326.594869,1110.308913,1608.800546
2750.458796,-9918.759623,1184.329507,1149.143247
2750.459133,-10066.800811,1776.494261,2145.067394
2750.459471,-9252.574275,1332.370696,76.609550
2750.459808,-9622.677246,1110.308913,612.876398
2750.460146,-9770.718434,1628.453072,995.924147
2750.460484,-9178.553681,1184.329507,459.657299
2750.460821,-9548.656652,1998.556043,612.876398
2750.461159,-9770.718434,666.185348,0.000000
2750.461496,-9992.780217,1110.308913,-1225.752797
2750.461834,-10214.842000,296.082377,-306.438199
2750.462172,-10732.986159,-814.226536,-842.705048
2750.462509,-9326.594869,-1554.432478,-1072.533697
2750.462847,-9326.594869,-2368.659014,-766.095498
2750.463184,-9326.594869,-1924.535449,-459.657299
2750.463522,-9918.759623,-1850.514855,0.000000
2750.463859,-10732.986159,-2516.700203,689.485948
2750.464197,-10584.944971,-1406.391290,229.828649
2750.464535,-10362.883188,-2146.597232,919.314598
2750.464872,-11103.089130,-1628.453072,1532.190996
2750.465210,-10732.986159,-1480.411884,1532.190996
2750.465547,-10658.965565,-1554.432478,1302.362347
2750.465885,-10658.965565,-740.205942,1302.362347
2750.466222,-9844.739029,-962.267725,766.095498
2750.466560,-10288.862594,-962.267725,1838.629195
2750.466898,-10658.965565,-666.185348,1455.581446
2750.467235,-10140.821405,518.144159,536.266849
2750.467573,-10140.821405,296.082377,306.438199
2750.467910,-10288.862594,592.164754,459.657299
2750.468248,-9918.759623,592.164754,0.000000
2750.468586,-9992.780217,518.144159,536.266849
2750.468923,-9548.656652,814.226536,0.000000
2750.469261,-9474.636058,74.020594,-383.047749
2750.469598,-10214.842000,518.144159,0.000000
2750.469936,-9770.718434,148.041188,-536.266849
2750.470273,-9326.594869,592.164754,-536.266849
2750.470611,-9326.594869,74.020594,0.000000
2750.470949,-9992.780217,444.123565,383.047749
2750.471286,-9400.615463,444.123565,766.095498
2750.471624,-9474.636058,1702.473667,229.828649
2750.471961,-10881.027347,666.185348,1608.800546
2750.472299,-9992.780217,888.247130,842.705048
2750.472636,-9548.656652,1258.350101,842.705048
2750.472974,-10362.883188,1036.288319,1455.581446
2750.473312,-9844.739029,1184.329507,612.876398
2750.473649,-10362.883188,814.226536,383.047749
2750.473987,-10362.883188,222.061783,-383.047749
2750.474324,-9474.636058,666.185348,-1225.752797
2750.474662,-10066.800811,370.102971,-995.924147
2750.475000,-9844.739029,-296.082377,-1378.971896
2750.475337,-9474.636058,-444.123565,-1149.143247
2750.475675,-10362.883188,-1406.391290,-536.266849
2750.476012,-9918.759623,-1258.350101,-1302.362347
2750.476350,-9992.780217,-1850.514855,-1072.533697
2750.476687,-10436.903782,-2072.576638,-536.266849
2750.477025,-9918.759623,-2516.700203,-1149.143247
2750.477363,-10362.883188,-2664.741391,-383.047749
2750.477700,-9992.780217,-2738.761985,0.000000
2750.478038,-10362.883188,-2220.617826,-842.705048
2750.478375,-10510.924376,-2220.617826,-76.609550
2750.478713,-10066.800811,-1702.473667,-229.828649
2750.479050,-10436.903782,-1480.411884,766.095498
2750.479388,-10436.903782,-1554.432478,1302.362347
2750.479726,-10436.903782,-888.247130,1608.800546
2750.480063,-9992.780217,-222.061783,1762.019645
2750.480401,-10288.862594,222.061783,2145.067394
2750.480738,-10584.944971,592.164754,2528.115143
2750.481076,-10362.883188,518.144159,1838.629195
2750.481414,-10140.821405,1850.514855,1455.581446
2750.481751,-10584.944971,1406.391290,612.876398
2750.482089,-9474.636058,1628.453072,-306.438199
2750.482426,-9178.553681,1258.350101,-306.438199
2750.482764,-9622.677246,888.247130,306.438199
2750.483101,-9104.533087,888.247130,-536.266849
2750.483439,-9252.574275,592.164754,-612.876398
2750.483777,-9844.739029,296.082377,-229.828649
2750.484114,-9252.574275,74.020594,383.047749
2750.484452,-9326.594869,-444.123565,919.314598
2750.484789,-9844.739029,-592.164754,919.314598
2750.485127,-9918.759623,-370.102971,0.000000
2750.485464,-9770.718434,-814.226536,689.485948
2750.485802,-9844.739029,-592.164754,612.876398
2750.486139,-9992.780217,-740.205942,229.828649
2750.486477,-10140.821405,-1480.411884,689.485948
2750.486814,-10288.862594,-814.226536,689.485948
2750.487151,-9844.739029,-814.226536,766.095498
2750.487489,-10436.903782,-296.082377,1072.533697
2750.487826,-10658.965565,0.000000,766.095498
2750.488164,-10881.027347,-222.061783,689.485948
2750.488501,-10807.006753,370.102971,995.924147
2750.488838,-10584.944971,-74.020594,-306.438199
2750.489176,-10288.862594,-740.205942,-612.876398
2750.489513,-10140.821405,-814.226536,-536.266849
2750.489851,-9992.780217,-1036.288319,-919.314598
2750.490188,-10214.842000,-222.061783,-1225.752797
2750.490526,-10362.883188,-666.185348,-1225.752797
2750.490863,-10436.903782,-962.267725,-1378.971896
2750.491200,-9622.677246,-1776.494261,-1149.143247
2750.491538,-9844.739029,-888.247130,-689.485948
2750.491875,-9548.656652,-1036.288319,76.609550
2750.492213,-9918.759623,-666.185348,306.438199
2750.492550,-9770.718434,-222.061783,689.485948
2750.492887,-9696.697840,74.020594,1225.752797
2750.493225,-9548.656652,518.144159,1225.752797
2750.493562,-10214.842000,444.123565,1378.971896
2750.493900,-9992.780217,888.247130,2145.067394
2750.494237,-9696.697840,1480.411884,1225.752797
2750.494574,-9918.759623,1924.535449,1072.533697
2750.494912,-9844.739029,1850.514855,766.095498
2750.495249,-9844.739029,1702.473667,689.485948
2750.495587,-10066.800811,1628.453072,383.047749
2750.495924,-9474.636058,1924.535449,306.438199
2750.496261,-9474.636058,1998.556043,689.485948
2750.496599,-9844.739029,1110.308913,-306.438199
2750.496936,-10362.883188,1110.308913,-1225.752797
2750.497274,-10658.965565,444.123565,-1302.362347
2750.497611,-10288.862594,-740.205942,-919.314598
2750.497948,-9400.615463,-2072.576638,-612.876398
2750.498286,-9030.512492,-1998.556043,0.000000
2750.498623,-9474.636058,-2664.741391,0.000000
2750.498961,-9474.636058,-2146.597232,0.000000
2750.499298,-10584.944971,-2294.638420,536.266849
2750.499635,-10584.944971,-2368.659014,689.485948
2750.499973,-10214.842000,-1924.535449,766.095498
2750.500310,-11029.068536,-1998.556043,1838.629195
2750.500648,-11103.089130,-1998.556043,1685.410096
2750.500985,-10510.924376,-2072.576638,1072.533697
2750.501322,-10584.944971,-1776.494261,1762.019645
2750.501660,-9696.697840,-962.267725,1225.752797
2750.501997,-11029.068536,-1036.288319,1685.410096
2750.502335,-10807.006753,-1184.329507,1455.581446
2750.502672,-9992.780217,518.144159,0.000000
2750.503009,-10658.965565,666.185348,766.095498
2750.503347,-10658.965565,518.144159,-153.219100
2750.503684,-9696.697840,222.061783,-306.438199
2750.504022,-10140.821405,222.061783,0.000000
2750.504359,-9696.697840,370.102971,229.828649
2750.504696,-9918.759623,222.061783,-766.095498
2750.505034,-9844.739029,0.000000,-919.314598
2750.505371,-9548.656652,-296.082377,0.000000
2750.505709,-9030.512492,74.020594,76.609550
2750.506046,-9474.636058,370.102971,306.438199
2750.506383,-9696.697840,814.226536,766.095498
2750.506721,-9918.759623,666.185348,229.828649
2750.507058,-9770.718434,1036.288319,766.095498
2750.507396,-9992.780217,666.185348,995.924147
2750.507733,-9474.636058,1110.308913,1149.143247
2750.508070,-9326.594869,1184.329507,1072.533697
2750.508408,-9770.718434,888.247130,536.266849
2750.508745,-9622.677246,888.247130,689.485948
2750.509083,-10214.842000,1036.288319,919.314598
2750.509420,-10584.944971,592.164754,76.609550
2750.509757,-10214.842000,1036.288319,-919.314598
2750.510095,-10066.800811,518.144159,-1378.971896
2750.510432,-10140.821405,148.041188,-995.924147
2750.510770,-9474.636058,-740.205942,-689.485948
2750.511107,-9474.636058,-740.205942,-919.314598
2750.511444,-10436.903782,-1036.288319,-919.314598
2750.511782,-10436.903782,-1184.329507,-1302.362347
2750.512119,-10955.047942,-1850.514855,-1225.752797
2750.512457,-10955.047942,-2516.700203,-459.657299
2750.512794,-10140.821405,-2516.700203,-153.219100
2750.513131,-10066.800811,-2294.638420,0.000000
2750.513469,-10732.986159,-2738.761985,0.000000
2750.513806,-9992.780217,-2072.576638,-766.095498
2750.514144,-10288.862594,-2220.617826,-153.219100
2750.514481,-10066.800811,-1332.370696,306.438199
2750.514818,-10214.842000,-1110.308913,2068.457845
2750.515156,-10140.821405,-814.226536,2221.676944
2750.515493,-9770.718434,0.000000,1762.019645
2750.515831,-10510.924376,518.144159,2374.896044
2750.516168,-10807.006753,592.164754,2298.286494
2750.516506,-10214.842000,962.267725,1991.848295
2750.516843,-10066.800811,1258.350101,1072.533697
2750.517180,-9992.780217,1702.473667,1149.143247
2750.517518,-9326.594869,1554.432478,-153.219100
2750.517855,-9622.677246,1110.308913,76.609550
2750.518193,-9770.718434,1628.453072,-229.828649
2750.518530,-9474.636058,888.247130,-459.657299
2750.518867,-9918.759623,1184.329507,-383.047749
2750.519205,-9474.636058,518.144159,76.609550
2750.519542,-9474.636058,-296.082377,536.266849
2750.519880,-9326.594869,-296.082377,995.924147
2750.520217,-10214.842000,-370.102971,1762.019645
2750.520554,-10362.883188,-518.144159,919.314598
2750.520892,-9992.780217,-296.082377,306.438199
2750.521229,-10362.883188,-1110.308913,766.095498
2750.521567,-10066.800811,-592.164754,306.438199
2750.521904,-10288.862594,-1184.329507,76.609550
2750.522241,-10140.821405,-1184.329507,76.609550
2750.522579,-9474.636058,-592.164754,0.000000
2750.522916,-9992.780217,-962.267725,536.266849
2750.523254,-10658.965565,-888.247130,383.047749
2750.523591,-10214.842000,-740.205942,306.438199
2750.523928,-10732.986159,-962.267725,459.657299
2750.524266,-10510.924376,-814.226536,0.000000
2750.524603,-10436.903782,-814.226536,-536.266849
2750.524941,-10362.883188,-740.205942,-153.219100
2750.525278,-10140.821405,-962.267725,-1072.533697
2750.525615,-9918.759623,-1628.453072,-1302.362347
2750.525953,-10288.862594,-1036.288319,-1685.410096
2750.526290,-9844.739029,-1332.370696,-1915.238745
2750.526628,-10584.944971,-1628.453072,-689.485948
2750.526965,-9696.697840,-1258.350101,-995.924147
2750.527302,-9622.677246,-1258.350101,-306.438199
2750.527640,-10288.862594,-592.164754,1225.752797
2750.527977,-10214.842000,-518.144159,1149.143247
2750.528315,-9992.780217,74.020594,766.095498
2750.528652,-10288.862594,-296.082377,919.314598
2750.528989,-9844.739029,740.205942,1991.848295
2750.529327,-10584.944971,814.226536,1762.019645
2750.529664,-9770.718434,1258.350101,1762.019645
2750.530002,-9474.636058,1702.473667,689.485948
2750.530339,-10140.821405,1776.494261,842.705048
2750.530676,-9918.759623,962.267725,0.000000
2750.531014,-9252.574275,1406.391290,76.609550
2750.531351,-9252.574275,1036.288319,229.828649
2750.531689,-8956.491898,1776.494261,76.609550
2750.532026,-10584.944971,1184.329507,536.266849
2750.532363,-9844.739029,592.164754,-919.314598
2750.532701,-10066.800811,0.000000,-1455.581446
2750.533038,-10214.842000,-1110.308913,-612.876398
2750.533376,-9474.636058,-1998.556043,-1072.533697
2750.533713,-8882.471304,-2516.700203,536.266849
2750.534050,-9400.615463,-2590.720797,-153.219100
2750.534388,-9548.656652,-2072.576638,0.000000
2750.534725,-10807.006753,-1850.514855,229.828649
2750.535063,-11029.068536,-2294.638420,0.000000
2750.535400,-10584.944971,-1702.473667,766.095498
2750.535737,-10955.047942,-1998.556043,1838.629195
2750.536075,-10955.047942,-1776.494261,1762.019645
2750.536412,-10584.944971,-1702.473667,1685.410096
2750.536750,-10584.944971,-1702.473667,1072.533697
2750.537087,-9770.718434,-1036.288319,1378.971896
2750.537424,-10807.006753,-592.164754,1072.533697
2750.537762,-10955.047942,-296.082377,1532.190996
2750.538099,-9992.780217,74.020594,229.828649
2750.538437,-10066.800811,666.185348,153.219100
2750.538774,-10066.800811,518.144159,-383.047749
2750.539111,-9770.718434,370.102971,-76.609550
2750.539449,-9844.739029,444.123565,76.609550
2750.539786,-9548.656652,740.205942,383.047749
2750.540124,-9696.697840,444.123565,-689.485948
2750.540461,-9622.677246,-444.123565,-383.047749
2750.540799,-9548.656652,0.000000,0.000000
2750.541136,-9104.533087,-148.041188,76.609550
2750.541473,-9474.636058,740.205942,842.705048
2750.541811,-9474.636058,592.164754,766.095498
2750.542148,-9844.739029,518.144159,229.828649
2750.542486,-9622.677246,740.205942,229.828649
2750.542823,-10066.800811,740.205942,842.705048
2750.543160,-10214.842000,1258.350101,1532.190996
2750.543498,-9770.718434,1184.329507,919.314598
2750.543835,-9992.780217,370.102971,1302.362347
2750.544173,-10140.821405,1776.494261,536.266849
2750.544510,-10584.944971,814.226536,612.876398
2750.544847,-11177.109724,1184.329507,383.047749
2750.545185,-9696.697840,592.164754,-766.095498
2750.545522,-10214.842000,370.102971,-842.705048
2750.545860,-9992.780217,0.000000,-1072.533697
2750.546197,-9474.636058,-666.185348,-1225.752797
2750.546534,-9696.697840,-666.185348,-536.266849
2750.546872,-9844.739029,-1850.514855,-1072.533697
2750.547209,-10214.842000,-1480.411884,-995.924147
2750.547547,-10881.027347,-2072.576638,-689.485948
2750.547884,-10436.903782,-3108.864956,-383.047749
2750.548221,-9918.759623,-2960.823768,-536.266849
2750.548559,-10362.883188,-2590.720797,153.219100
2750.548896,-10362.883188,-2664.741391,-306.438199
2750.549234,-10066.800811,-2960.823768,0.000000
2750.549571,-10214.842000,-1850.514855,229.828649
2750.549908,-10214.842000,-2294.638420,383.047749
2750.550246,-10658.965565,-962.267725,1455.581446
2750.550583,-10584.944971,-814.226536,1762.019645
2750.550921,-9918.759623,74.020594,2145.067394
2750.551258,-9622.677246,0.000000,1608.800546
2750.551595,-10214.842000,814.226536,1532.190996
2750.551933,-10658.965565,518.144159,2068.457845
2750.552270,-10140.821405,1258.350101,919.314598
2750.552608,-9548.656652,1702.473667,383.047749
2750.552945,-9548.656652,1776.494261,153.219100
2750.553282,-9474.636058,1184.329507,-229.828649
2750.553620,-9104.533087,814.226536,76.609550
2750.553957,-9252.574275,518.144159,0.000000
2750.554295,-9178.553681,592.164754,-153.219100
2750.554632,-9918.759623,370.102971,76.609550
2750.554969,-9622.677246,-592.164754,612.876398
2750.555307,-9326.594869,-296.082377,306.438199
2750.555644,-9844.739029,-518.144159,1225.752797
2750.555982,-9992.780217,148.041188,766.095498
2750.556319,-10362.883188,-962.267725,459.657299
2750.556656,-10436.903782,-962.267725,612.876398
2750.556994,-9918.759623,-740.205942,459.657299
2750.557331,-10214.842000,-814.226536,919.314598
2750.557669,-10362.883188,-592.164754,459.657299
2750.558006,-10214.842000,-814.226536,536.266849
2750.558343,-10288.862594,-296.082377,612.876398
2750.558681,-10584.944971,-740.205942,612.876398
2750.559018,-10732.986159,-370.102971,689.485948
2750.559356,-10955.047942,-518.144159,0.000000
2750.559693,-10658.965565,-222.061783,0.000000
2750.560030,-10140.821405,-666.185348,-383.047749
2750.560368,-9992.780217,-592.164754,-536.266849
2750.560705,-10066.800811,-1258.350101,-612.876398
2750.561043,-10140.821405,-1332.370696,-1149.143247
2750.561380,-10288.862594,-666.185348,-1378.971896
2750.561717,-10288.862594,-1406.391290,-1685.410096
2750.562055,-10288.862594,-1332.370696,-1149.143247
2750.562392,-9548.656652,-1258.350101,-383.047749
2750.562730,-9918.759623,-666.185348,459.657299
2750.563067,-10066.800811,-518.144159,689.485948
2750.563404,-9844.739029,-518.144159,459.657299
2750.563742,-10140.821405,-74.020594,1149.143247
2750.564079,-10288.862594,444.123565,1302.362347
2750.564417,-10436.903782,1110.308913,2681.334243
2750.564754,-9992.780217,1480.411884,1378.971896
2750.565092,-9622.677246,1406.391290,1302.362347
2750.565429,-9770.718434,1776.494261,612.876398
2750.565766,-9696.697840,1998.556043,153.219100
2750.566104,-9770.718434,1628.453072,459.657299
2750.566441,-9474.636058,1184.329507,229.828649
2750.566779,-8734.430116,1702.473667,0.000000
2750.567116,-9474.636058,1850.514855,536.266849
2750.567453,-10140.821405,1332.370696,229.828649
2750.567791,-9992.780217,592.164754,-1149.143247
2750.568128,-10510.924376,-370.102971,-1225.752797
2750.568466,-10214.842000,-666.185348,-306.438199
2750.568803,-9474.636058,-2220.617826,-995.924147
2750.569140,-9178.553681,-2146.597232,76.609550
2750.569478,-9104.533087,-2516.700203,0.000000
2750.569815,-9252.574275,-2664.741391,-76.609550
2750.570153,-10584.944971,-1850.514855,0.000000
2750.570490,-10807.006753,-2590.720797,689.485948
2750.570827,-10807.006753,-1924.535449,919.314598
2750.571165,-10584.944971,-2442.679609,1455.581446
2750.571502,-11251.130318,-1554.432478,1762.019645
2750.571840,-10288.862594,-2294.638420,1378.971896
2750.572177,-10436.903782,-1776.494261,1302.362347
2750.572514,-10510.924376,-888.247130,1455.581446
2750.572852,-10510.924376,-666.185348,1378.971896
2750.573189,-10955.047942,-296.082377,1302.362347
2750.573527,-10807.006753,0.000000,76.609550
2750.573864,-10066.800811,444.123565,0.000000
2750.574201,-10140.821405,518.144159,-306.438199
2750.574539,-9770.718434,74.020594,0.000000
2750.574876,-9770.718434,0.000000,459.657299
2750.575214,-9474.636058,0.000000,536.266849
2750.575551,-9696.697840,296.082377,-383.047749
2750.575888,-9844.739029,0.000000,-612.876398
2750.576226,-9622.677246,0.000000,76.609550
2750.576563,-9030.512492,0.000000,0.000000
2750.576901,-9178.553681,444.123565,459.657299
2750.577238,-9474.636058,1036.288319,919.314598
2750.577575,-9844.739029,370.102971,229.828649
2750.577913,-9992.780217,518.144159,766.095498
2750.578250,-9696.697840,740.205942,689.485948
2750.578588,-9400.615463,888.247130,1838.629195
2750.578925,-9474.636058,1036.288319,1225.752797
2750.579262,-10066.800811,592.164754,1608.800546
2750.579600,-10066.800811,1406.391290,842.705048
2750.579937,-10214.842000,1110.308913,153.219100
2750.580275,-10732.986159,1184.329507,689.485948
2750.580612,-10288.862594,444.123565,-766.095498
2750.580949,-9474.636058,148.041188,-1762.019645
2750.581287,-9844.739029,-740.205942,-1455.581446
2750.581624,-9696.697840,-222.061783,-459.657299
2750.581962,-9696.697840,-1406.391290,-766.095498
2750.582299,-10436.903782,-1924.535449,-919.314598
2750.582636,-9770.718434,-1110.308913,-1608.800546
2750.582974,-11177.109724,-2368.659014,-995.924147
2750.583311,-10732.986159,-2738.761985,-612.876398
2750.583649,-9474.636058,-2960.823768,-612.876398
2750.583986,-10510.924376,-2368.659014,536.266849
2750.584323,-10288.862594,-2516.700203,-153.219100
2750.584661,-10140.821405,-2220.617826,-153.219100
2750.584998,-10436.903782,-2146.597232,0.000000
2750.585336,-10288.862594,-1850.514855,229.828649
2750.585673,-10140.821405,-888.247130,1685.410096
2750.586010,-10807.006753,-296.082377,2221.676944
2750.586348,-10066.800811,0.000000,1915.238745
2750.586685,-10066.800811,444.123565,1915.238745
2750.587023,-10214.842000,814.226536,2068.457845
2750.587360,-10436.903782,1036.288319,1685.410096
2750.587697,-10066.800811,1258.350101,1302.362347
2750.588034,-9474.636058,1702.473667,766.095498
2750.588371,-9178.553681,1702.473667,0.000000
2750.588709,-9474.636058,1110.308913,0.000000
2750.589046,-9326.594869,1480.411884,153.219100
2750.589383,-9252.574275,740.205942,-306.438199
2750.589720,-9178.553681,962.267725,0.000000
2750.590058,-9252.574275,222.061783,-153.219100
2750.590395,-9252.574275,0.000000,1072.533697
2750.590732,-9474.636058,-148.041188,766.095498
2750.591069,-9696.697840,0.000000,1225.752797
2750.591407,-10066.800811,0.000000,995.924147
2750.591744,-9992.780217,0.000000,612.876398
2750.592081,-10658.965565,-888.247130,842.705048
2750.592418,-10066.800811,-814.226536,995.924147
2750.592756,-9622.677246,-962.267725,536.266849
2750.593093,-10436.903782,-666.185348,995.924147
2750.593430,-10436.903782,-1036.288319,459.657299
2750.593767,-9844.739029,-518.144159,536.266849
2750.594105,-10658.965565,-740.205942,689.485948
2750.594442,-10436.903782,0.000000,306.438199
2750.594779,-10955.047942,-740.205942,306.438199
2750.595116,-10658.965565,-888.247130,0.000000
2750.595454,-10066.800811,-740.205942,-766.095498
2750.595791,-10510.924376,-962.267725,0.000000
2750.596128,-10288.862594,-1258.350101,-1149.143247
2750.596465,-9918.759623,-1480.411884,-1685.410096
2750.596802,-10140.821405,-1184.329507,-995.924147
2750.597140,-10214.842000,-1850.514855,-1762.019645
2750.597477,-9844.739029,-1406.391290,-1225.752797
2750.597814,-9770.718434,-1554.432478,-766.095498
2750.598151,-9696.697840,-592.164754,-153.219100
2750.598489,-9844.739029,-148.041188,459.657299
2750.598826,-9992.780217,-518.144159,536.266849
2750.599163,-9844.739029,0.000000,919.314598
2750.599500,-9918.759623,0.000000,1455.581446
2750.599838,-10214.842000,1480.411884,2374.896044
2750.600175,-10436.903782,1406.391290,1225.752797
2750.600512,-9918.759623,1332.370696,1302.362347
2750.600849,-9400.615463,1924.535449,612.876398
2750.601187,-9696.697840,1554.432478,919.314598
2750.601524,-9474.636058,2146.597232,306.438199
2750.601861,-9252.574275,1036.288319,612.876398
2750.602198,-9622.677246,2146.597232,229.828649
2750.602536,-9178.553681,1924.535449,-153.219100
2750.602873,-10140.821405,1554.432478,229.828649
2750.603210,-9918.759623,814.226536,-842.705048
2750.603547,-9992.780217,-518.144159,-1455.581446
2750.603885,-10066.800811,-740.205942,0.000000
2750.604222,-9474.636058,-1554.432478,153.219100
2750.604559,-9104.533087,-2368.659014,0.000000
2750.604896,-9548.656652,-2368.659014,153.219100
2750.605233,-9548.656652,-2442.679609,0.000000
2750.605571,-10584.944971,-2146.597232,76.609550
2750.605908,-10732.986159,-1998.556043,689.485948
2750.606245,-10584.944971,-1850.514855,689.485948
2750.606582,-11103.089130,-2146.597232,1608.800546
2750.606920,-10881.027347,-1258.350101,1532.190996
2750.607257,-10362.883188,-1850.514855,1378.971896
2750.607594,-10658.965565,-1480.411884,1378.971896
2750.607931,-10288.862594,-1406.391290,1302.362347
2750.608269,-10362.883188,-740.205942,1302.362347
2750.608606,-10881.027347,0.000000,1225.752797
2750.608943,-10732.986159,0.000000,153.219100
2750.609280,-10584.944971,296.082377,0.000000
2750.609618,-9844.739029,74.020594,-612.876398
2750.609955,-9770.718434,370.102971,-306.438199
2750.610292,-9622.677246,296.082377,76.609550
2750.610629,-9696.697840,0.000000,-229.828649
2750.610967,-9844.739029,444.123565,-536.266849
2750.611304,-9696.697840,0.000000,-689.485948
2750.611641,-9474.636058,518.144159,-306.438199
2750.611978,-9770.718434,74.020594,459.657299
2750.612316,-9252.574275,518.144159,383.047749
2750.612653,-9326.594869,1480.411884,383.047749
2750.612990,-9696.697840,592.164754,229.828649
2750.613327,-9770.718434,592.164754,689.485948
2750.613665,-9770.718434,888.247130,1072.533697
2750.614002,-9696.697840,1554.432478,1149.143247
2750.614339,-9252.574275,1036.288319,919.314598
2750.614676,-10214.842000,1184.329507,1225.752797
2750.615013,-9918.759623,1332.370696,612.876398
2750.615351,-10066.800811,888.247130,306.438199
2750.615688,-10658.965565,1332.370696,383.047749
2750.616025,-9992.780217,592.164754,-919.314598
2750.616362,-10214.842000,296.082377,-842.705048
2750.616700,-9918.759623,-444.123565,-1455.581446
2750.617037,-9474.636058,-740.205942,-689.485948
2750.617374,-9770.718434,-1554.432478,-612.876398
2750.617711,-9992.780217,-2146.597232,-995.924147
2750.618049,-10066.800811,-1554.432478,-1532.190996
2750.618386,-10807.006753,-2368.659014,-1225.752797
2750.618723,-10658.965565,-2886.803174,-76.609550
2750.619060,-9918.759623,-2590.720797,-536.266849
2750.619398,-10362.883188,-2886.803174,306.438199
2750.619735,-10584.944971,-2368.659014,536.266849
2750.620072,-10362.883188,-2442.679609,-612.876398
2750.620409,-10510.924376,-1850.514855,229.828649
2750.620747,-10732.986159,-2146.597232,995.924147
2750.621084,-9992.780217,-1406.391290,1378.971896
2750.621421,-10362.883188,-518.144159,1532.190996
2750.621758,-10066.800811,0.000000,1915.238745
2750.622096,-9770.718434,0.000000,1838.629195
2750.622433,-9844.739029,74.020594,1685.410096
2750.622770,-10436.903782,1110.308913,1685.410096
2750.623107,-10140.821405,1628.453072,1378.971896
2750.623444,-9844.739029,1480.411884,459.657299
2750.623782,-9770.718434,1184.329507,229.828649
2750.624119,-9548.656652,1702.473667,0.000000
2750.624456,-9178.553681,1036.288319,0.000000
2750.624793,-9622.677246,962.267725,0.000000
2750.625131,-9252.574275,592.164754,-383.047749
2750.625468,-9326.594869,518.144159,0.000000
2750.625805,-9474.636058,0.000000,229.828649
2750.626142,-9400.615463,0.000000,612.876398
2750.626480,-9992.780217,0.000000,1685.410096
2750.626817,-9844.739029,0.000000,612.876398
2750.627154,-9844.739029,-370.102971,536.266849
2750.627491,-10140.821405,-444.123565,1072.533697
2750.627829,-10140.821405,-1332.370696,612.876398
2750.628166,-10436.903782,-148.041188,919.314598
2750.628503,-9918.759623,-1258.350101,919.314598
2750.628840,-10214.842000,-888.247130,0.000000
2750.629178,-9918.759623,-814.226536,229.828649
2750.629515,-10140.821405,-592.164754,1149.143247
2750.629852,-10436.903782,-666.185348,612.876398
2750.630189,-10807.006753,-370.102971,0.000000
2750.630527,-10807.006753,-666.185348,-153.219100
2750.630864,-10066.800811,-592.164754,-689.485948
2750.631201,-9696.697840,-1406.391290,-306.438199
2750.631538,-10214.842000,-814.226536,-536.266849
2750.631875,-10140.821405,-1998.556043,-919.314598
2750.632213,-10362.883188,-814.226536,-1455.581446
2750.632550,-9992.780217,-1628.453072,-1455.581446
2750.632887,-9992.780217,-1554.432478,-995.924147
2750.633224,-10066.800811,-1332.370696,-919.314598
2750.633562,-9770.718434,-814.226536,229.828649
2750.633899,-9918.759623,-296.082377,536.266849
2750.634236,-9918.759623,0.000000,842.705048
2750.634573,-10066.800811,74.020594,689.485948
2750.634911,-10066.800811,740.205942,1455.581446
2750.635248,-9770.718434,1332.370696,2145.067394
2750.635585,-10362.883188,962.267725,1685.410096
2750.635922,-9844.739029,2072.576638,1149.143247
2750.636260,-9770.718434,1776.494261,612.876398
2750.636597,-9770.718434,1628.453072,536.266849
2750.636934,-9474.636058,1776.494261,612.876398
2750.637271,-9326.594869,1406.391290,306.438199
2750.637609,-9178.553681,1998.556043,229.828649
2750.637946,-9178.553681,1702.473667,0.000000
2750.638283,-10066.800811,1554.432478,0.000000
2750.638620,-9770.718434,666.185348,-1149.143247
2750.638958,-10066.800811,-814.226536,-1225.752797
2750.639295,-10066.800811,-740.205942,-306.438199
2750.639632,-9474.636058,-1850.514855,-306.438199
2750.639969,-9178.553681,-1998.556043,-229.828649
2750.640306,-9474.636058,-2368.659014,383.047749
2750.640644,-9992.780217,-2442.679609,536.266849
2750.640981,-10288.862594,-1998.556043,229.828649
2750.641318,-10955.047942,-2220.617826,919.314598
2750.641655,-11251.130318,-2442.679609,1225.752797
2750.641993,-11399.171507,-2072.576638,1608.800546
2750.642330,-11177.109724,-1776.494261,1762.019645
2750.642667,-10436.903782,-1702.473667,1608.800546
2750.643004,-10807.006753,-1554.432478,1455.581446
2750.643342,-10214.842000,-1406.391290,1225.752797
2750.643679,-10436.903782,-1110.308913,766.095498
2750.644016,-10436.903782,-222.061783,306.438199
2750.644353,-11029.068536,-518.144159,229.828649
2750.644691,-10288.862594,222.061783,0.000000
2750.645028,-10066.800811,0.000000,-459.657299
2750.645365,-9548.656652,0.000000,76.609550
2750.645702,-9622.677246,0.000000,76.609550
2750.646040,-10214.842000,-296.082377,383.047749
2750.646377,-9696.697840,-296.082377,0.000000
2750.646714,-9474.636058,-74.020594,-306.438199
2750.647051,-9918.759623,370.102971,383.047749
2750.647389,-9326.594869,-222.061783,153.219100
2750.647726,-9252.574275,444.123565,306.438199
2750.648063,-9400.615463,888.247130,536.266849
2750.648400,-9844.739029,962.267725,153.219100
2750.648737,-9844.739029,296.082377,153.219100
2750.649075,-9696.697840,1406.391290,1225.752797
2750.649412,-9622.677246,1184.329507,1378.971896
2750.649749,-9400.615463,1184.329507,1378.971896
2750.650086,-9770.718434,1776.494261,536.266849
2750.650424,-10214.842000,740.205942,689.485948
2750.650761,-10510.924376,1258.350101,459.657299
2750.651098,-10066.800811,962.267725,229.828649
2750.651435,-10881.027347,888.247130,-153.219100
2750.651773,-9548.656652,222.061783,-1685.410096
2750.652110,-9844.739029,-518.144159,-1608.800546
2750.652447,-9918.759623,-1184.329507,-919.314598
2750.652784,-9696.697840,-1480.411884,-766.095498
2750.653122,-10140.821405,-2146.597232,-612.876398
2750.653459,-10288.862594,-1628.453072,-1532.190996
2750.653796,-10362.883188,-2516.700203,-1225.752797
2750.654133,-10807.006753,-2368.659014,-76.609550
2750.654471,-9474.636058,-2886.803174,-306.438199
2750.654808,-10140.821405,-2960.823768,612.876398
2750.655145,-10362.883188,-2590.720797,0.000000
2750.655482,-10288.862594,-2368.659014,-536.266849
2750.655820,-11029.068536,-1258.350101,229.828649
2750.656157,-10584.944971,-2294.638420,1072.533697
2750.656494,-10140.821405,-1036.288319,1838.629195
2750.656831,-10066.800811,-518.144159,1302.362347
2750.657168,-10066.800811,-74.020594,1838.629195
2750.657506,-10140.821405,0.000000,1608.800546
2750.657843,-10584.944971,222.061783,1838.629195
2750.658180,-10140.821405,1184.329507,1532.190996
2750.658517,-9844.739029,1332.370696,689.485948
2750.658855,-9622.677246,1702.473667,0.000000
2750.659192,-9400.615463,1110.308913,0.000000
2750.659529,-9548.656652,1554.432478,76.609550
2750.659866,-8956.491898,1184.329507,-689.485948
2750.660204,-9622.677246,1036.288319,0.000000
2750.660541,-9252.574275,444.123565,0.000000
2750.660878,-9030.512492,370.102971,-459.657299
2750.661215,-9474.636058,-222.061783,536.266849
2750.661553,-9400.615463,370.102971,919.314598
2750.661890,-9474.636058,-296.082377,1608.800546
2750.662227,-10362.883188,74.020594,1149.143247
2750.662564,-9622.677246,0.000000,383.047749
2750.662902,-10362.883188,-222.061783,995.924147
2750.663239,-10140.821405,-740.205942,919.314598
2750.663576,-9992.780217,-296.082377,995.924147
2750.663913,-10140.821405,-370.102971,1762.019645
2750.664251,-10362.883188,-666.185348,153.219100
2750.664588,-10140.821405,-222.061783,229.828649
2750.664925,-10658.965565,-962.267725,842.705048
2750.665262,-10288.862594,0.000000,229.828649
2750.665600,-10510.924376,-962.267725,0.000000
2750.665937,-10807.006753,-666.185348,-306.438199
2750.666274,-10214.842000,-1184.329507,-153.219100
2750.666611,-10510.924376,-1036.288319,-229.828649
2750.666948,-10584.944971,-1036.288319,-919.314598
2750.667286,-10214.842000,-1924.535449,-1378.971896
2750.667623,-9992.780217,-1850.514855,-1225.752797
2750.667960,-10140.821405,-1924.535449,-1225.752797
2750.668297,-9918.759623,-1184.329507,-766.095498
2750.668635,-9992.780217,-1850.514855,-766.095498
2750.668972,-9770.718434,-888.247130,153.219100
2750.669309,-9992.780217,-814.226536,76.609550
2750.669646,-10288.862594,0.000000,919.314598
2750.669984,-9992.780217,-370.102971,842.705048
2750.670321,-9696.697840,0.000000,1915.238745
2750.670658,-10288.862594,1036.288319,1991.848295
2750.670995,-10362.883188,1480.411884,1915.238745
2750.671333,-10288.862594,1480.411884,919.314598
2750.671670,-9622.677246,1776.494261,536.266849
2750.672007,-10066.800811,1258.350101,1149.143247
2750.672344,-9252.574275,1480.411884,1072.533697
2750.672682,-9030.512492,1924.535449,0.000000
2750.673019,-9474.636058,1628.453072,536.266849
2750.673356,-9548.656652,1184.329507,-153.219100
2750.673693,-9548.656652,962.267725,-229.828649
2750.674031,-10362.883188,518.144159,-995.924147
2750.674368,-9844.739029,74.020594,-1072.533697
2750.674705,-9770.718434,-1110.308913,-919.314598
2750.675042,-9474.636058,-1702.473667,-536.266849
2750.675379,-9252.574275,-1702.473667,-153.219100
2750.675717,-9918.759623,-2072.576638,536.266849
2750.676054,-10214.842000,-2368.659014,229.828649
2750.676391,-10140.821405,-1850.514855,383.047749
2750.676728,-10658.965565,-1924.535449,612.876398
2750.677066,-10807.006753,-2146.597232,1072.533697
2750.677403,-10955.047942,-2146.597232,1608.800546
2750.677740,-10510.924376,-1406.391290,1838.629195
2750.678077,-10288.862594,-1184.329507,1378.971896
2750.678415,-10510.924376,-1258.350101,1532.190996
2750.678752,-10436.903782,-1480.411884,1149.143247
2750.679089,-10584.944971,-740.205942,1302.362347
2750.679426,-10362.883188,0.000000,459.657299
2750.679764,-10436.903782,222.061783,76.609550
2750.680101,-10436.903782,0.000000,-306.438199
2750.680438,-10066.800811,148.041188,-306.438199
2750.680775,-9844.739029,148.041188,-383.047749
2750.681113,-9696.697840,-148.041188,0.000000
2750.681450,-10066.800811,0.000000,-306.438199
2750.681787,-9548.656652,0.000000,0.000000
2750.682124,-9548.656652,0.000000,-612.876398
2750.682462,-9178.553681,74.020594,0.000000
2750.682799,-9696.697840,74.020594,842.705048
2750.683136,-9474.636058,888.247130,383.047749
2750.683473,-9770.718434,740.205942,0.000000
2750.683810,-9992.780217,814.226536,689.485948
2750.684148,-9474.636058,888.247130,536.266849
2750.684485,-9474.636058,1110.308913,1608.800546
2750.684822,-10066.800811,1184.329507,1302.362347
2750.685159,-9252.574275,1554.432478,919.314598
2750.685497,-10140.821405,1628.453072,1072.533697
2750.685834,-10658.965565,1406.391290,766.095498
2750.686171,-9918.759623,1258.350101,383.047749
2750.686508,-10214.842000,1184.329507,229.828649
2750.686846,-10214.842000,1036.288319,-842.705048
2750.687183,-9622.677246,370.102971,-1532.190996
2750.687520,-9992.780217,-444.123565,-1532.190996
2750.687857,-9696.697840,-1480.411884,-995.924147
2750.688193,-9696.697840,-1406.391290,-995.924147
2750.688530,-10362.883188,-1554.432478,-995.924147
2750.688867,-10214.842000,-2072.576638,-1685.410096
2750.689205,-10510.924376,-2738.761985,-1072.533697
2750.689542,-10436.903782,-2812.782580,-612.876398
2750.689880,-10140.821405,-2738.761985,-383.047749
2750.690217,-10584.944971,-2738.761985,0.000000
2750.690554,-10732.986159,-2442.679609,229.828649
2750.690892,-10066.800811,-2516.700203,-306.438199
2750.691229,-10362.883188,-2368.659014,0.000000
2750.691566,-10658.965565,-2072.576638,1532.190996
2750.691904,-10658.965565,-1702.473667,1532.190996
2750.692241,-9622.677246,-888.247130,1532.190996
2750.692578,-10066.800811,74.020594,1762.019645
2750.692916,-10140.821405,0.000000,2145.067394
2750.693253,-10288.862594,296.082377,1455.581446
2750.693591,-10362.883188,814.226536,1455.581446
2750.693928,-10066.800811,1554.432478,1149.143247
2750.694265,-9992.780217,1406.391290,153.219100
2750.694603,-9844.739029,888.247130,0.000000
2750.694940,-8956.491898,1036.288319,-153.219100
2750.695277,-9252.574275,1332.370696,536.266849
2750.695615,-9918.759623,962.267725,76.609550
2750.695952,-9474.636058,370.102971,-383.047749
2750.696290,-9548.656652,0.000000,76.609550
2750.696627,-9474.636058,222.061783,612.876398
2750.696964,-9474.636058,148.041188,995.924147
2750.697302,-9992.780217,74.020594,689.485948
2750.697639,-9844.739029,-148.041188,842.705048
2750.697976,-9696.697840,148.041188,919.314598
2750.698314,-10510.924376,-74.020594,1302.362347
2750.698651,-10807.006753,-1184.329507,1225.752797
2750.698988,-9844.739029,-222.061783,919.314598
2750.699326,-10288.862594,0.000000,919.314598
2750.699663,-10288.862594,-370.102971,612.876398
2750.700001,-9696.697840,-888.247130,76.609550
2750.700338,-10288.862594,-444.123565,612.876398
2750.700675,-10732.986159,-592.164754,0.000000
2750.701013,-10140.821405,-148.041188,-612.876398
2750.701350,-10658.965565,-666.185348,-689.485948
2750.701687,-10362.883188,-518.144159,-306.438199
2750.702025,-10066.800811,-1554.432478,-766.095498
2750.702362,-10436.903782,-1036.288319,-612.876398
2750.702700,-10214.842000,-1406.391290,-919.314598
2750.703037,-10510.924376,-1628.453072,-1302.362347
2750.703374,-10362.883188,-2294.638420,-995.924147
2750.703712,-9770.718434,-1554.432478,-1225.752797
2750.704049,-10140.821405,-666.185348,-766.095498
2750.704386,-9844.739029,-962.267725,0.000000
2750.704724,-10066.800811,-592.164754,383.047749
2750.705061,-9770.718434,-222.061783,689.485948
2750.705398,-9992.780217,296.082377,1225.752797
2750.705736,-10140.821405,222.061783,1838.629195
2750.706073,-10436.903782,1258.350101,1762.019645
2750.706411,-10584.944971,1554.432478,2298.286494
2750.706748,-10066.800811,2072.576638,766.095498
2750.707085,-9918.759623,1628.453072,766.095498
2750.707423,-9918.759623,1702.473667,1072.533697
2750.707760,-8882.471304,1332.370696,153.219100
2750.708097,-9104.533087,2516.700203,229.828649
2750.708435,-9326.594869,1776.494261,536.266849
2750.708772,-9252.574275,1406.391290,76.609550
2750.709110,-9622.677246,1406.391290,-383.047749
2750.709447,-9918.759623,444.123565,-536.266849
2750.709784,-10066.800811,-370.102971,-1149.143247
2750.710122,-9474.636058,-1184.329507,-1072.533697
2750.710459,-9548.656652,-1258.350101,306.438199
2750.710796,-9548.656652,-1702.473667,0.000000
2750.711134,-9548.656652,-2146.597232,229.828649
2750.711471,-10510.924376,-1628.453072,0.000000
2750.711808,-10436.903782,-2294.638420,76.609550
2750.712146,-10732.986159,-1702.473667,689.485948
2750.712483,-11103.089130,-2220.617826,919.314598
2750.712821,-10807.006753,-1924.535449,1532.190996
2750.713158,-10732.986159,-2146.597232,2145.067394
2750.713495,-10436.903782,-1628.453072,1608.800546
2750.713833,-10140.821405,-1480.411884,1608.800546
2750.714170,-10584.944971,-1332.370696,1685.410096
2750.714507,-10658.965565,-1332.370696,689.485948
2750.714845,-10288.862594,-296.082377,383.047749
2750.715182,-10436.903782,74.020594,383.047749
2750.715520,-10436.903782,-148.041188,-536.266849
2750.715857,-9992.780217,0.000000,-459.657299
2750.716194,-9474.636058,-444.123565,0.000000
2750.716532,-9622.677246,-370.102971,153.219100
2750.716869,-9844.739029,-296.082377,0.000000
2750.717206,-9548.656652,-296.082377,-459.657299
2750.717544,-9252.574275,-370.102971,-153.219100
2750.717881,-9622.677246,-222.061783,-306.438199
2750.718218,-9548.656652,0.000000,766.095498
2750.718556,-9178.553681,444.123565,229.828649
2750.718893,-9696.697840,222.061783,0.000000
2750.719231,-9918.759623,1036.288319,612.876398
2750.719568,-9844.739029,518.144159,919.314598
2750.719905,-9474.636058,1406.391290,842.705048
2750.720243,-9622.677246,666.185348,1149.143247
2750.720580,-9696.697840,1702.473667,919.314598
2750.720917,-9696.697840,1998.556043,766.095498
2750.721255,-10140.821405,1184.329507,919.314598
2750.721592,-10214.842000,1480.411884,306.438199
2750.721930,-10066.800811,1036.288319,0.000000
2750.722267,-10362.883188,1406.391290,-306.438199
2750.722604,-9474.636058,222.061783,-1915.238745
2750.722942,-9770.718434,-962.267725,-1378.971896
2750.723279,-10066.800811,-1332.370696,-919.314598
2750.723616,-9474.636058,-814.226536,-766.095498
2750.723954,-9844.739029,-1332.370696,-1149.143247
2750.724291,-10510.924376,-2220.617826,-1302.362347
2750.724628,-10214.842000,-2220.617826,-995.924147
2750.724966,-10807.006753,-2738.761985,-689.485948
2750.725303,-10288.862594,-2294.638420,766.095498
2750.725641,-10362.883188,-3108.864956,0.000000
2750.725978,-10658.965565,-2220.617826,306.438199
2750.726315,-10140.821405,-2220.617826,0.000000
2750.726653,-10288.862594,-1776.494261,459.657299
2750.726990,-10881.027347,-1332.370696,1455.581446
2750.727327,-10584.944971,-1258.350101,1608.800546
2750.727665,-10288.862594,-74.020594,2298.286494
2750.728002,-10066.800811,74.020594,1915.238745
2750.728340,-10510.924376,666.185348,1455.581446
2750.728677,-10807.006753,444.123565,1685.410096
2750.729014,-9696.697840,1036.288319,1532.190996
2750.729352,-9770.718434,1776.494261,766.095498
2750.729689,-9696.697840,1184.329507,612.876398
2750.730026,-9918.759623,1480.411884,153.219100
2750.730364,-9770.718434,1036.288319,0.000000
2750.730701,-9548.656652,1406.391290,-306.438199
2750.731038,-9326.594869,1184.329507,-153.219100
2750.731376,-9770.718434,592.164754,76.609550
2750.731713,-9178.553681,370.102971,229.828649
2750.732051,-9548.656652,0.000000,919.314598
2750.732388,-9326.594869,0.000000,919.314598
2750.732725,-9622.677246,296.082377,612.876398
2750.733063,-10658.965565,74.020594,1378.971896
2750.733400,-10140.821405,222.061783,536.266849
2750.733737,-10066.800811,-444.123565,1149.143247
2750.734075,-10881.027347,148.041188,1455.581446
2750.734412,-9770.718434,-666.185348,459.657299
2750.734750,-10510.924376,0.000000,995.924147
2750.735087,-10066.800811,-296.082377,306.438199
2750.735424,-9918.759623,-74.020594,153.219100
2750.735762,-10436.903782,-444.123565,76.609550
2750.736099,-10362.883188,-1036.288319,-306.438199
2750.736436,-9992.780217,-370.102971,0.000000
2750.736774,-10510.924376,-888.247130,-689.485948
2750.737111,-10510.924376,-1036.288319,-612.876398
2750.737448,-10140.821405,-1554.432478,-919.314598
2750.737786,-10658.965565,-1332.370696,-766.095498
2750.738123,-10140.821405,-962.267725,-1225.752797
2750.738461,-10140.821405,-2294.638420,-1378.971896
2750.738798,-9992.780217,-1554.432478,-1608.800546
2750.739135,-9918.759623,-2072.576638,-842.705048
2750.739473,-10288.862594,-814.226536,-689.485948
2750.739810,-9770.718434,-1258.350101,-766.095498
2750.740147,-10362.883188,-814.226536,383.047749
2750.740485,-9622.677246,-962.267725,689.485948
2750.740822,-9844.739029,0.000000,1149.143247
2750.741160,-10140.821405,0.000000,1762.019645
2750.741497,-10362.883188,1628.453072,1608.800546
2750.741834,-10584.944971,1184.329507,2374.896044
2750.742172,-10140.821405,1776.494261,919.314598
2750.742509,-9696.697840,1406.391290,612.876398
2750.742846,-10140.821405,1110.308913,1149.143247
2750.743184,-9030.512492,1332.370696,459.657299
2750.743521,-8586.388927,1776.494261,0.000000
2750.743858,-9474.636058,1776.494261,459.657299
2750.744196,-9474.636058,1554.432478,153.219100
2750.744533,-9918.759623,740.205942,-153.219100
2750.744871,-10288.862594,740.205942,-229.828649
2750.745208,-9474.636058,296.082377,-995.924147
2750.745545,-9844.739029,-1184.329507,-459.657299
2750.745883,-9770.718434,-1036.288319,919.314598
2750.746220,-9030.512492,-1924.535449,153.219100
2750.746557,-10362.883188,-1628.453072,842.705048
2750.746895,-10362.883188,-1628.453072,383.047749
2750.747232,-10510.924376,-2146.597232,153.219100
2750.747570,-10510.924376,-1924.535449,612.876398
2750.747907,-10807.006753,-2368.659014,1072.533697
2750.748244,-10658.965565,-962.267725,1455.581446
2750.748582,-11103.089130,-1702.473667,1838.629195
2750.748919,-10436.903782,-1332.370696,1225.752797
2750.749256,-10362.883188,-1258.350101,919.314598
2750.749594,-11103.089130,-740.205942,1762.019645
2750.749931,-10732.986159,-888.247130,842.705048
2750.750268,-10066.800811,-444.123565,536.266849
2750.750606,-10807.006753,370.102971,76.609550
2750.750943,-10807.006753,74.020594,-383.047749
2750.751281,-10362.883188,-518.144159,-689.485948
2750.751618,-9474.636058,-74.020594,-766.095498
2750.751955,-9770.718434,0.000000,536.266849
2750.752293,-9474.636058,0.000000,-383.047749
2750.752630,-9474.636058,0.000000,-536.266849
2750.752967,-9696.697840,-296.082377,459.657299
2750.753305,-9548.656652,0.000000,0.000000
2750.753642,-9548.656652,518.144159,459.657299
2750.753980,-10140.821405,888.247130,459.657299
2750.754317,-9548.656652,592.164754,0.000000
2750.754654,-9696.697840,888.247130,459.657299
2750.754992,-9770.718434,518.144159,842.705048
2750.755329,-9844.739029,1554.432478,1302.362347
2750.755666,-9992.780217,888.247130,1378.971896
2750.756004,-9770.718434,1850.514855,842.705048
2750.756341,-9548.656652,1554.432478,919.314598
2750.756679,-10362.883188,1036.288319,1225.752797
2750.757016,-10066.800811,1776.494261,153.219100
2750.757353,-10066.800811,1036.288319,-76.609550
2750.757691,-10214.842000,1184.329507,-76.609550
2750.758028,-9474.636058,74.020594,-1302.362347
2750.758365,-10140.821405,0.000000,-842.705048
2750.758703,-9918.759623,-1850.514855,-1149.143247
2750.759040,-9326.594869,-1184.329507,-919.314598
2750.759377,-9844.739029,-1554.432478,-1225.752797
2750.759715,-10732.986159,-2368.659014,-995.924147
2750.760052,-10658.965565,-2442.679609,-1149.143247
2750.760390,-10658.965565,-2664.741391,-383.047749
2750.760727,-10510.924376,-2146.597232,0.000000
2750.761064,-10140.821405,-3108.864956,76.609550
2750.761402,-10658.965565,-2294.638420,-153.219100
2750.761739,-9992.780217,-2516.700203,76.609550
2750.762076,-10658.965565,-2368.659014,536.266849
2750.762414,-10510.924376,-1554.432478,1225.752797
2750.762751,-11325.150913,-1480.411884,1685.410096
2750.763089,-10140.821405,-814.226536,1915.238745
2750.763426,-10214.842000,-296.082377,919.314598
2750.763763,-10658.965565,148.041188,1685.410096
2750.764101,-10584.944971,592.164754,1532.190996
2750.764438,-9844.739029,444.123565,1225.752797
2750.764775,-10066.800811,1406.391290,842.705048
2750.765113,-9770.718434,1480.411884,229.828649
2750.765450,-9844.739029,1332.370696,0.000000
2750.765787,-9548.656652,592.164754,-383.047749
2750.766125,-9178.553681,1036.288319,0.000000
2750.766462,-9104.533087,888.247130,-229.828649
2750.766800,-9474.636058,148.041188,-459.657299
2750.767137,-9178.553681,0.000000,0.000000
2750.767474,-9548.656652,-222.061783,459.657299
2750.767812,-9474.636058,-296.082377,842.705048
2750.768149,-9622.677246,296.082377,1378.971896
2750.768486,-10288.862594,74.020594,1608.800546
2750.768824,-9992.780217,0.000000,766.095498
2750.769161,-10214.842000,-444.123565,1225.752797
2750.769499,-10436.903782,148.041188,1532.190996
2750.769836,-10510.924376,-592.164754,995.924147
2750.770173,-10288.862594,-296.082377,536.266849
2750.770511,-9844.739029,148.041188,383.047749
2750.770848,-10066.800811,-444.123565,0.000000
2750.771185,-10436.903782,-148.041188,76.609550
2750.771523,-10362.883188,-592.164754,76.609550
2750.771860,-10362.883188,-74.020594,-766.095498
2750.772197,-10362.883188,-518.144159,-766.095498
2750.772535,-10510.924376,-518.144159,0.000000
2750.772872,-9992.780217,-1332.370696,-919.314598
2750.773210,-10362.883188,-1554.432478,-919.314598
2750.773547,-10288.862594,-1480.411884,-1072.533697
2750.773884,-10362.883188,-1628.453072,-1225.752797
2750.774222,-10066.800811,-1924.535449,-1225.752797
2750.774559,-10140.821405,-2072.576638,-842.705048
2750.774896,-9696.697840,-1036.288319,-766.095498
2750.775234,-9918.759623,-962.267725,-306.438199
2750.775571,-10436.903782,-444.123565,459.657299
2750.775909,-9326.594869,-592.164754,536.266849
2750.776246,-10140.821405,74.020594,1608.800546
2750.776583,-10436.903782,814.226536,1608.800546
2750.776921,-10362.883188,888.247130,1915.238745
2750.777258,-10362.883188,1480.411884,1915.238745
2750.777595,-10066.800811,1480.411884,995.924147
2750.777933,-9622.677246,1998.556043,995.924147
2750.778270,-9844.739029,1776.494261,383.047749
2750.778607,-9548.656652,1258.350101,612.876398
2750.778945,-8882.471304,2072.576638,0.000000
2750.779282,-9326.594869,2294.638420,229.828649
2750.779620,-9844.739029,1332.370696,0.000000
2750.779957,-9252.574275,222.061783,-919.314598
2750.780294,-9918.759623,444.123565,-459.657299
2750.780632,-9844.739029,0.000000,-306.438199
2750.780969,-9400.615463,-1184.329507,-536.266849
2750.781306,-9548.656652,-1702.473667,153.219100
2750.781644,-9696.697840,-1406.391290,612.876398
2750.781981,-9918.759623,-2220.617826,76.609550
2750.782319,-9770.718434,-1924.535449,76.609550
2750.782656,-10362.883188,-1702.473667,459.657299
2750.782993,-10510.924376,-2072.576638,995.924147
2750.783331,-10881.027347,-2442.679609,1225.752797
2750.783668,-10732.986159,-1554.432478,1302.362347
2750.784005,-10732.986159,-1776.494261,1762.019645
2750.784343,-10214.842000,-1850.514855,1608.800546
2750.784680,-10140.821405,-1480.411884,1225.752797
2750.785017,-10658.965565,-1184.329507,1225.752797
2750.785355,-11177.109724,-814.226536,1302.362347
2750.785692,-10658.965565,-518.144159,0.000000
2750.786030,-10362.883188,74.020594,-383.047749
2750.786367,-10510.924376,-148.041188,-229.828649
2750.786704,-10066.800811,0.000000,-689.485948
2750.787042,-9770.718434,-814.226536,0.000000
2750.787379,-10066.800811,-592.164754,0.000000
2750.787716,-9548.656652,-592.164754,-459.657299
2750.788054,-9992.780217,0.000000,-383.047749
2750.788391,-9548.656652,-518.144159,0.000000
2750.788729,-9548.656652,-1036.288319,76.609550
2750.789066,-9622.677246,666.185348,459.657299
2750.789403,-10140.821405,666.185348,612.876398
2750.789740,-10066.800811,888.247130,536.266849
2750.790078,-9474.636058,370.102971,0.000000
2750.790415,-9844.739029,1110.308913,1685.410096
2750.790752,-9770.718434,1110.308913,919.314598
2750.791089,-9548.656652,518.144159,1072.533697
2750.791427,-9992.780217,1554.432478,1302.362347
2750.791764,-9474.636058,1332.370696,612.876398
2750.792101,-10436.903782,2146.597232,1072.533697
2750.792438,-10584.944971,1406.391290,306.438199
2750.792775,-9844.739029,1184.329507,0.000000
2750.793113,-10436.903782,1036.288319,-153.219100
2750.793450,-9622.677246,370.102971,-1838.629195
2750.793787,-9400.615463,-222.061783,-1225.752797
2750.794124,-10362.883188,-888.247130,-766.095498
2750.794462,-9548.656652,-1332.370696,-995.924147
2750.794799,-9844.739029,-1258.350101,-1302.362347
2750.795136,-10214.842000,-2220.617826,-995.924147
2750.795473,-10362.883188,-2294.638420,-1532.190996
2750.795811,-10510.924376,-2442.679609,-153.219100
2750.796148,-10214.842000,-2442.679609,76.609550
2750.796485,-10362.883188,-2590.720797,153.219100
2750.796822,-10658.965565,-2368.659014,76.609550
2750.797159,-10140.821405,-2368.659014,229.828649
2750.797497,-10288.862594,-2294.638420,229.828649
2750.797834,-10436.903782,-1776.494261,1532.190996
2750.798171,-10955.047942,-1036.288319,1991.848295
2750.798508,-10066.800811,-444.123565,1532.190996
2750.798846,-10066.800811,-518.144159,1302.362347
2750.799183,-10288.862594,666.185348,2221.676944
2750.799520,-10214.842000,592.164754,1532.190996
2750.799857,-10214.842000,888.247130,1455.581446
2750.800195,-9918.759623,888.247130,842.705048
2750.800532,-9548.656652,1406.391290,612.876398
2750.800869,-9918.759623,1702.473667,0.000000
2750.801206,-9622.677246,888.247130,0.000000
2750.801544,-9696.697840,592.164754,-76.609550
2750.801881,-9104.533087,592.164754,-76.609550
2750.802218,-9918.759623,370.102971,459.657299
2750.802555,-9400.615463,-148.041188,689.485948
2750.802892,-9030.512492,-370.102971,536.266849
2750.803230,-9326.594869,222.061783,1455.581446
2750.803567,-9622.677246,518.144159,1149.143247
2750.803904,-9918.759623,74.020594,995.924147
2750.804241,-10288.862594,74.020594,1225.752797
2750.804579,-9474.636058,0.000000,1149.143247
2750.804916,-10288.862594,592.164754,1455.581446
2750.805253,-10436.903782,0.000000,919.314598
2750.805590,-10140.821405,-296.082377,76.609550
2750.805928,-10140.821405,-148.041188,536.266849
2750.806265,-10140.821405,-296.082377,0.000000
2750.806602,-10140.821405,-518.144159,306.438199
2750.806939,-10288.862594,-740.205942,0.000000
2750.807276,-10066.800811,-518.144159,-459.657299
2750.807614,-10140.821405,-444.123565,-536.266849
2750.807951,-10658.965565,-740.205942,-919.314598
2750.808288,-10214.842000,-1036.288319,-919.314598
2750.808625,-10436.903782,-1702.473667,-612.876398
2750.808963,-9992.780217,-1480.411884,-1072.533697
2750.809300,-10066.800811,-1924.535449,-1838.629195
2750.809637,-10214.842000,-2072.576638,-1225.752797
2750.809974,-9696.697840,-1924.535449,-1149.143247
2750.810312,-10288.862594,-1406.391290,-689.485948
2750.810649,-10362.883188,-1110.308913,0.000000
2750.810986,-10214.842000,-740.205942,0.000000
2750.811323,-10288.862594,-1184.329507,919.314598
2750.811660,-9400.615463,74.020594,919.314598
2750.811998,-10288.862594,74.020594,2145.067394
2750.812335,-10584.944971,666.185348,2451.505594
2750.812672,-10362.883188,1998.556043,1149.143247
2750.813009,-10658.965565,1184.329507,1378.971896
2750.813347,-9770.718434,1702.473667,153.219100
2750.813684,-9400.615463,1406.391290,842.705048
2750.814021,-9474.636058,1406.391290,995.924147
2750.814358,-8586.388927,1924.535449,0.000000
2750.814696,-9474.636058,1924.535449,0.000000
2750.815033,-10066.800811,1258.350101,-153.219100
2750.815370,-9844.739029,1036.288319,-612.876398
2750.815707,-10066.800811,222.061783,0.000000
2750.816045,-9252.574275,-444.123565,-459.657299
2750.816382,-9400.615463,-370.102971,0.000000
2750.816719,-9918.759623,-1480.411884,0.000000
2750.817056,-9622.677246,-1258.350101,536.266849
2750.817393,-10214.842000,-1776.494261,0.000000
2750.817731,-10584.944971,-1258.350101,536.266849
2750.818068,-10658.965565,-1480.411884,306.438199
2750.818405,-10436.903782,-2294.638420,919.314598
2750.818742,-10510.924376,-1850.514855,1072.533697
2750.819080,-10658.965565,-1776.494261,1762.019645
2750.819417,-10732.986159,-1480.411884,1455.581446
2750.819754,-10510.924376,-1184.329507,1378.971896
2750.820091,-10955.047942,-1110.308913,1762.019645
2750.820429,-10288.862594,-1184.329507,1838.629195
2750.820766,-10807.006753,0.000000,919.314598
2750.821103,-10658.965565,-888.247130,383.047749
2750.821440,-10510.924376,148.041188,0.000000
2750.821777,-10288.862594,-666.185348,-612.876398
2750.822115,-10584.944971,296.082377,-766.095498
2750.822452,-9548.656652,-666.185348,-536.266849
2750.822789,-9918.759623,-666.185348,-612.876398
2750.823126,-9622.677246,-222.061783,0.000000
2750.823464,-9474.636058,-518.144159,-995.924147
2750.823801,-9548.656652,-296.082377,536.266849
2750.824138,-9844.739029,0.000000,306.438199
2750.824475,-9622.677246,74.020594,229.828649
2750.824813,-10584.944971,1258.350101,842.705048
2750.825150,-9474.636058,740.205942,0.000000
2750.825487,-9918.759623,370.102971,306.438199
2750.825824,-9770.718434,1110.308913,1455.581446
2750.826162,-9474.636058,666.185348,1072.533697
2750.826499,-9918.759623,1406.391290,1685.410096
2750.826836,-9548.656652,1258.350101,766.095498
2750.827173,-9622.677246,1258.350101,766.095498
2750.827510,-9918.759623,2220.617826,919.314598
2750.827848,-9844.739029,1110.308913,383.047749
2750.828185,-9918.759623,1480.411884,0.000000
2750.828522,-10362.883188,592.164754,-383.047749
2750.828859,-9548.656652,296.082377,-1225.752797
2750.829197,-9400.615463,-444.123565,-1455.581446
2750.829534,-10362.883188,-888.247130,-842.705048
2750.829871,-9622.677246,-1628.453072,-995.924147
2750.830208,-9326.594869,-2294.638420,-1378.971896
2750.830546,-9918.759623,-1776.494261,-1608.800546
2750.830883,-10807.006753,-2368.659014,-919.314598
2750.831220,-10510.924376,-2960.823768,-306.438199
2750.831557,-9992.780217,-2442.679609,-306.438199
2750.831894,-10658.965565,-2368.659014,689.485948
2750.832232,-10510.924376,-2368.659014,0.000000
2750.832569,-10362.883188,-2220.617826,76.609550
2750.832906,-10807.006753,-2294.638420,1149.143247
2750.833243,-10658.965565,-1776.494261,1149.143247
2750.833581,-10658.965565,-888.247130,1455.581446
2750.833918,-10436.903782,-1036.288319,1225.752797
2750.834255,-9844.739029,-518.144159,1302.362347
2750.834592,-10214.842000,518.144159,1762.019645
2750.834930,-10362.883188,592.164754,1532.190996
2750.835267,-9992.780217,740.205942,995.924147
2750.835604,-9918.759623,222.061783,919.314598
2750.835941,-9400.615463,666.185348,0.000000
2750.836278,-9770.718434,1332.370696,306.438199
2750.836616,-9992.780217,814.226536,0.000000
2750.836953,-9252.574275,666.185348,-995.924147
2750.837290,-9178.553681,222.061783,-306.438199
2750.837627,-9474.636058,444.123565,459.657299
2750.837965,-9400.615463,0.000000,383.047749
2750.838302,-9474.636058,74.020594,536.266849
2750.838639,-9770.718434,0.000000,1149.143247
2750.838976,-9474.636058,518.144159,995.924147
2750.839314,-10140.821405,222.061783,842.705048
2750.839651,-9992.780217,0.000000,1608.800546
2750.839988,-10066.800811,-148.041188,995.924147
2750.840325,-10362.883188,444.123565,1762.019645
2750.840663,-10658.965565,444.123565,1455.581446
2750.841000,-10436.903782,-296.082377,766.095498
2750.841337,-10510.924376,-222.061783,383.047749
2750.841674,-9918.759623,296.082377,76.609550
2750.842011,-10288.862594,0.000000,0.000000
2750.842349,-9696.697840,-370.102971,-383.047749
2750.842686,-10436.903782,-444.123565,-383.047749
2750.843023,-10214.842000,-296.082377,-229.828649
2750.843360,-10362.883188,-888.247130,-1072.533697
2750.843698,-10510.924376,-1110.308913,-766.095498
2750.844035,-10288.862594,-1406.391290,-1378.971896
2750.844372,-10066.800811,-1702.473667,-1072.533697
2750.844709,-10214.842000,-1998.556043,-1072.533697
2750.845047,-9992.780217,-2146.597232,-1149.143247
2750.845384,-10214.842000,-1480.411884,-536.266849
2750.845721,-10510.924376,-1184.329507,-919.314598
2750.846058,-9992.780217,-518.144159,-383.047749
2750.846395,-10066.800811,-888.247130,306.438199
2750.846733,-10214.842000,-666.185348,612.876398
2750.847070,-9844.739029,0.000000,1149.143247
2750.847407,-10066.800811,592.164754,1685.410096
2750.847744,-10214.842000,1184.329507,2221.676944
2750.848082,-10584.944971,1258.350101,1225.752797
2750.848419,-10140.821405,1258.350101,1225.752797
2750.848756,-9844.739029,1702.473667,459.657299
2750.849093,-9696.697840,1776.494261,612.876398
2750.849431,-9474.636058,1776.494261,459.657299
2750.849768,-9178.553681,1554.432478,383.047749
2750.850105,-9400.615463,1998.556043,76.609550
2750.850442,-9696.697840,1406.391290,-306.438199
2750.850780,-10214.842000,592.164754,-306.438199
2750.851117,-9474.636058,-296.082377,-842.705048
2750.851454,-9326.594869,0.000000,76.609550
2750.851791,-9474.636058,-370.102971,-229.828649
2750.852128,-9474.636058,-1258.350101,0.000000
2750.852466,-9992.780217,-1702.473667,842.705048
2750.852803,-9844.739029,-1776.494261,306.438199
2750.853140,-10140.821405,-1480.411884,153.219100
2750.853477,-10436.903782,-1332.370696,536.266849
2750.853815,-10732.986159,-1998.556043,536.266849
2750.854152,-10510.924376,-1924.535449,1455.581446
2750.854489,-10732.986159,-1776.494261,1455.581446
2750.854826,-10436.903782,-1036.288319,1532.190996
2750.855164,-10584.944971,-1184.329507,1608.800546
2750.855501,-10955.047942,-1406.391290,1532.190996
2750.855838,-10658.965565,-888.247130,536.266849
2750.856175,-10510.924376,-370.102971,689.485948
2750.856512,-10362.883188,-666.185348,0.000000
2750.856850,-10140.821405,-518.144159,-229.828649
2750.857187,-10510.924376,0.000000,-306.438199
2750.857524,-9992.780217,-592.164754,-919.314598
2750.857861,-9844.739029,-592.164754,-536.266849
2750.858199,-9770.718434,-888.247130,-919.314598
2750.858536,-9992.780217,-592.164754,0.000000
2750.858873,-9252.574275,-518.144159,-766.095498
2750.859210,-9474.636058,-814.226536,0.000000
2750.859548,-10140.821405,0.000000,612.876398
2750.859885,-9548.656652,-444.123565,0.000000
2750.860222,-10066.800811,1110.308913,536.266849
2750.860559,-9918.759623,148.041188,536.266849
2750.860896,-9770.718434,1110.308913,612.876398
2750.861234,-9622.677246,74.020594,536.266849
2750.861571,-9622.677246,1406.391290,1455.581446
2750.861908,-9844.739029,1406.391290,919.314598
2750.862245,-9548.656652,1258.350101,842.705048
2750.862583,-9400.615463,1406.391290,766.095498
2750.862920,-9844.739029,1924.535449,766.095498
2750.863257,-10214.842000,2072.576638,689.485948
2750.863594,-10214.842000,1776.494261,-383.047749
2750.863932,-10362.883188,666.185348,-459.657299
2750.864269,-9622.677246,740.205942,-995.924147
2750.864606,-9622.677246,296.082377,-842.705048
2750.864943,-10066.800811,-814.226536,-919.314598
2750.865281,-9918.759623,-1332.370696,-1072.533697
2750.865618,-9696.697840,-2294.638420,-1532.190996
2750.865955,-9400.615463,-2368.659014,-1225.752797
2750.866292,-10288.862594,-2738.761985,-766.095498
2750.866629,-10584.944971,-2294.638420,-536.266849
2750.866967,-10510.924376,-2664.741391,-153.219100
2750.867304,-10436.903782,-2146.597232,306.438199
2750.867641,-10140.821405,-2590.720797,0.000000
2750.867978,-10510.924376,-1998.556043,612.876398
2750.868316,-10584.944971,-2072.576638,919.314598
2750.868653,-10658.965565,-1924.535449,1302.362347
2750.868990,-10362.883188,-518.144159,1608.800546
2750.869327,-10436.903782,-814.226536,1608.800546
2750.869665,-10510.924376,-592.164754,1455.581446
2750.870002,-9992.780217,-296.082377,1072.533697
2750.870339,-10732.986159,1110.308913,1915.238745
2750.870676,-10214.842000,1110.308913,995.924147
2750.871013,-9474.636058,814.226536,229.828649
2750.871351,-9696.697840,1184.329507,1532.190996
2750.871688,-9474.636058,1554.432478,0.000000
2750.872025,-9844.739029,1184.329507,0.000000
2750.872362,-10140.821405,444.123565,-229.828649
2750.872700,-8956.491898,740.205942,-612.876398
2750.873037,-9548.656652,0.000000,383.047749
2750.873374,-9474.636058,0.000000,383.047749
2750.873711,-9030.512492,-296.082377,689.485948
2750.874049,-9770.718434,0.000000,1378.971896
2750.874386,-9770.718434,0.000000,1072.533697
2750.874723,-10362.883188,888.247130,1149.143247
2750.875060,-10362.883188,444.123565,1455.581446
2750.875398,-9844.739029,0.000000,1072.533697
2750.875735,-10214.842000,518.144159,1532.190996
2750.876072,-10436.903782,592.164754,1378.971896
2750.876409,-10214.842000,0.000000,536.266849
2750.876746,-10140.821405,0.000000,229.828649
2750.877084,-9696.697840,-518.144159,0.000000
2750.877421,-10140.821405,-74.020594,-76.609550
2750.877758,-10584.944971,-518.144159,-383.047749
2750.878095,-10436.903782,-740.205942,-536.266849
2750.878433,-9918.759623,-296.082377,-842.705048
2750.878770,-10362.883188,-1184.329507,-995.924147
2750.879107,-10436.903782,-740.205942,-612.876398
2750.879444,-10066.800811,-1628.453072,-1378.971896
2750.879782,-10140.821405,-1776.494261,-459.657299
2750.880119,-9992.780217,-1998.556043,-1225.752797
2750.880456,-10288.862594,-1998.556043,-1149.143247
2750.880793,-10066.800811,-1554.432478,-766.095498
2750.881130,-10214.842000,-1850.514855,-536.266849
2750.881468,-10140.821405,-1184.329507,-383.047749
2750.881805,-10288.862594,-1184.329507,0.000000
2750.882142,-10288.862594,-666.185348,1225.752797
2750.882479,-9622.677246,-740.205942,1072.533697
2750.882817,-9844.739029,222.061783,1608.800546
2750.883154,-10584.944971,814.226536,2068.457845
2750.883491,-10658.965565,1036.288319,1302.362347
2750.883828,-9992.780217,1628.453072,1072.533697
2750.884166,-10140.821405,1184.329507,842.705048
2750.884503,-9178.553681,1628.453072,612.876398
2750.884840,-9474.636058,1776.494261,306.438199
2750.885177,-9326.594869,1776.494261,0.000000
2750.885514,-9104.533087,1184.329507,-229.828649
2750.885852,-9844.739029,1406.391290,0.000000
2750.886189,-10288.862594,370.102971,-459.657299
2750.886526,-9474.636058,0.000000,0.000000
2750.886863,-8956.491898,-222.061783,76.609550
2750.887201,-9030.512492,-814.226536,0.000000
2750.887538,-9770.718434,-592.164754,612.876398
2750.887875,-9696.697840,-1406.391290,1149.143247
2750.888212,-10510.924376,-1406.391290,383.047749
2750.888550,-10436.903782,-1184.329507,689.485948
2750.888887,-9918.759623,-1406.391290,229.828649
2750.889224,-10584.944971,-2220.617826,766.095498
2750.889561,-10584.944971,-2220.617826,1225.752797
2750.889899,-9918.759623,-1258.350101,1225.752797
2750.890236,-10732.986159,-1258.350101,1455.581446
2750.890573,-10881.027347,-1258.350101,1532.190996
2750.890910,-10732.986159,-888.247130,1762.019645
2750.891247,-11103.089130,-1184.329507,1302.362347
2750.891585,-10140.821405,0.000000,766.095498
2750.891922,-10584.944971,-518.144159,689.485948
2750.892259,-10436.903782,-444.123565,0.000000
2750.892596,-9770.718434,0.000000,-1225.752797
2750.892934,-10362.883188,-888.247130,-459.657299
2750.893271,-9474.636058,-148.041188,-842.705048
2750.893608,-9326.594869,-1110.308913,-1225.752797
2750.893945,-10066.800811,-444.123565,0.000000
2750.894282,-9474.636058,-740.205942,-766.095498
2750.894620,-9252.574275,-222.061783,229.828649
2750.894957,-10140.821405,-222.061783,536.266849
2750.895294,-9548.656652,222.061783,229.828649
2750.895631,-10214.842000,444.123565,536.266849
2750.895969,-9918.759623,222.061783,919.314598
2750.896306,-9770.718434,888.247130,842.705048
2750.896643,-9770.718434,518.144159,1149.143247
2750.896980,-9770.718434,1332.370696,1608.800546
2750.897317,-9548.656652,1406.391290,1225.752797
2750.897655,-9992.780217,1628.453072,1225.752797
2750.897992,-9844.739029,1998.556043,1149.143247
2750.898329,-9770.718434,1480.411884,766.095498
2750.898666,-10066.800811,2294.638420,995.924147
2750.899004,-10140.821405,1480.411884,229.828649
2750.899341,-10436.903782,1184.329507,-153.219100
2750.899678,-9252.574275,0.000000,-1072.533697
2750.900015,-9696.697840,-222.061783,-1378.971896
2750.900353,-9770.718434,-962.267725,-919.314598
2750.900690,-9770.718434,-1406.391290,-1455.581446
2750.901027,-9548.656652,-2368.659014,-995.924147
2750.901364,-9696.697840,-2368.659014,-1762.019645
2750.901701,-10214.842000,-2368.659014,-383.047749
2750.902039,-10807.006753,-2664.741391,-536.266849
2750.902376,-10214.842000,-2960.823768,0.000000
2750.902713,-10658.965565,-2146.597232,306.438199
2750.903050,-10436.903782,-2368.659014,229.828649
2750.903388,-10807.006753,-2442.679609,153.219100
2750.903725,-10881.027347,-2294.638420,1302.362347
2750.904062,-10881.027347,-1776.494261,1149.143247
2750.904399,-10362.883188,-1110.308913,1225.752797
2750.904736,-10732.986159,-1036.288319,1532.190996
2750.905074,-9918.759623,-592.164754,766.095498
2750.905411,-10214.842000,-370.102971,229.828649
2750.905748,-10362.883188,592.164754,1149.143247
2750.906085,-10066.800811,518.144159,229.828649
2750.906423,-9770.718434,740.205942,919.314598
2750.906760,-9696.697840,444.123565,153.219100
2750.907097,-9474.636058,814.226536,459.657299
2750.907434,-10140.821405,888.247130,306.438199
2750.907771,-10140.821405,0.000000,0.000000
2750.908109,-9252.574275,740.205942,-306.438199
2750.908446,-9474.636058,-296.082377,0.000000
2750.908783,-9474.636058,148.041188,383.047749
2750.909120,-9030.512492,-370.102971,536.266849
2750.909458,-9844.739029,0.000000,842.705048
2750.909795,-9770.718434,370.102971,766.095498
2750.910132,-9844.739029,148.041188,689.485948
2750.910469,-10066.800811,222.061783,1302.362347
2750.910807,-10510.924376,0.000000,1685.410096
2750.911144,-10140.821405,666.185348,1608.800546
2750.911481,-10214.842000,592.164754,1072.533697
2750.911818,-10584.944971,-222.061783,1838.629195
2750.912155,-10362.883188,296.082377,919.314598
2750.912493,-9918.759623,-370.102971,0.000000
2750.912830,-10436.903782,-148.041188,229.828649
2750.913167,-10066.800811,0.000000,-766.095498
2750.913504,-10066.800811,-370.102971,-842.705048
2750.913842,-10066.800811,-666.185348,-919.314598
2750.914179,-9770.718434,-740.205942,-766.095498
2750.914516,-10436.903782,-962.267725,-1072.533697
2750.914853,-10436.903782,-1554.432478,-1072.533697
2750.915190,-10140.821405,-1702.473667,-766.095498
2750.915528,-10066.800811,-2368.659014,-766.095498
2750.915865,-9770.718434,-1850.514855,-842.705048
2750.916202,-10066.800811,-1702.473667,-383.047749
2750.916539,-10436.903782,-1850.514855,-229.828649
2750.916877,-10066.800811,-962.267725,-766.095498
2750.917214,-10066.800811,-1184.329507,0.000000
2750.917551,-10066.800811,-518.144159,1149.143247
2750.917888,-9844.739029,-592.164754,766.095498
2750.918225,-9992.780217,814.226536,1532.190996
2750.918563,-10658.965565,1110.308913,1762.019645
2750.918900,-10140.821405,1332.370696,766.095498
2750.919237,-10214.842000,1480.411884,1072.533697
2750.919574,-10288.862594,1480.411884,1149.143247
2750.919912,-9622.677246,1702.473667,536.266849
2750.920249,-9696.697840,2220.617826,612.876398
2750.920586,-9474.636058,1998.556043,229.828649
2750.920923,-9400.615463,1480.411884,-76.609550
2750.921261,-9548.656652,740.205942,-842.705048
2750.921598,-9548.656652,740.205942,-383.047749
2750.921935,-9548.656652,-370.102971,0.000000
2750.922272,-8660.409521,-296.082377,-306.438199
2750.922609,-9252.574275,-888.247130,0.000000
2750.922947,-9844.739029,-518.144159,459.657299
2750.923284,-10066.800811,-1332.370696,0.000000
2750.923621,-10436.903782,-962.267725,459.657299
2750.923958,-10066.800811,-1554.432478,229.828649
2750.924296,-10140.821405,-1406.391290,612.876398
2750.924633,-10436.903782,-2368.659014,1225.752797
2750.924970,-10214.842000,-2294.638420,842.705048
2750.925307,-10288.862594,-1406.391290,1532.190996
2750.925644,-10510.924376,-1702.473667,1455.581446
2750.925982,-10214.842000,-888.247130,1608.800546
2750.926319,-10658.965565,-888.247130,1532.190996
2750.926656,-11103.089130,-1110.308913,1149.143247
2750.926993,-10584.944971,0.000000,842.705048
2750.927331,-10584.944971,-740.205942,153.219100
2750.927668,-10584.944971,-592.164754,0.000000
2750.928005,-9918.759623,-740.205942,-536.266849
2750.928342,-9918.759623,-592.164754,-76.609550
2750.928679,-9992.780217,-666.185348,-459.657299
2750.929017,-9918.759623,-1110.308913,-919.314598
2750.929354,-9696.697840,-814.226536,-612.876398
2750.929691,-9400.615463,-740.205942,-536.266849
2750.930028,-9474.636058,-666.185348,0.000000
2750.930366,-9770.718434,0.000000,383.047749
2750.930703,-10214.842000,74.020594,153.219100
2750.931040,-9770.718434,518.144159,229.828649
2750.931377,-10288.862594,592.164754,1072.533697
2750.931715,-10140.821405,518.144159,995.924147
2750.932052,-9918.759623,592.164754,1608.800546
2750.932389,-9770.718434,1110.308913,1532.190996
2750.932726,-9918.759623,1702.473667,1072.533697
2750.933063,-9622.677246,1702.473667,689.485948
2750.933401,-10066.800811,1480.411884,1225.752797
2750.933738,-9992.780217,1628.453072,689.485948
2750.934075,-9696.697840,2368.659014,0.000000
2750.934412,-10140.821405,1184.329507,76.609550
2750.934750,-9992.780217,1258.350101,-612.876398
2750.935087,-9474.636058,148.041188,-919.314598
2750.935424,-9770.718434,74.020594,-995.924147
2750.935761,-9844.739029,-962.267725,-995.924147
2750.936098,-9992.780217,-1258.350101,-919.314598
2750.936436,-9548.656652,-1776.494261,-995.924147
2750.936773,-9622.677246,-2516.700203,-1302.362347
2750.937110,-9992.780217,-2146.597232,-536.266849
2750.937447,-10584.944971,-2664.741391,-459.657299
2750.937785,-10362.883188,-2368.659014,-76.609550
2750.938122,-10214.842000,-2146.597232,-383.047749
2750.938459,-10510.924376,-2220.617826,919.314598
2750.938796,-10362.883188,-2146.597232,76.609550
2750.939133,-10510.924376,-2146.597232,1685.410096
2750.939471,-10584.944971,-1480.411884,1608.800546
2750.939808,-10510.924376,-1258.350101,1302.362347
2750.940145,-10584.944971,0.000000,1685.410096
2750.940482,-10732.986159,-962.267725,1685.410096
2750.940820,-10140.821405,74.020594,995.924147
2750.941157,-9918.759623,370.102971,842.705048
2750.941494,-10066.800811,1110.308913,919.314598
2750.941831,-9622.677246,222.061783,612.876398
2750.942169,-9622.677246,1036.288319,76.609550
2750.942506,-9844.739029,1110.308913,306.438199
2750.942843,-10140.821405,1406.391290,536.266849
2750.943180,-10362.883188,740.205942,0.000000
2750.943517,-9474.636058,888.247130,-536.266849
2750.943855,-8586.388927,0.000000,383.047749
2750.944192,-9252.574275,148.041188,536.266849
2750.944529,-9178.553681,-148.041188,536.266849
2750.944866,-9474.636058,74.020594,612.876398
2750.945204,-9918.759623,666.185348,1378.971896
2750.945541,-9918.759623,0.000000,459.657299
2750.945878,-10066.800811,444.123565,1225.752797
2750.946215,-9844.739029,0.000000,1838.629195
2750.946552,-9844.739029,296.082377,1685.410096
2750.946890,-9918.759623,222.061783,1149.143247
2750.947227,-10362.883188,592.164754,1225.752797
2750.947564,-10140.821405,222.061783,383.047749
2750.947901,-10214.842000,-148.041188,-383.047749
2750.948239,-10214.842000,148.041188,-229.828649
2750.948576,-10584.944971,-518.144159,-612.876398
2750.948913,-9622.677246,-370.102971,-1302.362347
2750.949250,-9992.780217,-1036.288319,-76.609550
2750.949587,-10214.842000,-1036.288319,-842.705048
2750.949925,-10436.903782,-1036.288319,-1838.629195
2750.950262,-10807.006753,-1258.350101,-995.924147
2750.950599,-10214.842000,-1702.473667,-995.924147
2750.950936,-9770.718434,-2368.659014,-1072.533697
2750.951274,-10510.924376,-2442.679609,-459.657299
2750.951611,-10140.821405,-1332.370696,-919.314598
2750.951948,-10214.842000,-2220.617826,-689.485948
2750.952285,-10362.883188,-1554.432478,-536.266849
2750.952623,-9622.677246,-962.267725,-229.828649
2750.952960,-10288.862594,-1184.329507,1149.143247
2750.953297,-9844.739029,-814.226536,995.924147
2750.953634,-9622.677246,74.020594,1302.362347
2750.953971,-10584.944971,888.247130,1991.848295
2750.954309,-10584.944971,888.247130,1302.362347
2750.954646,-9918.759623,1332.370696,995.924147
2750.954983,-10214.842000,1258.350101,1455.581446
2750.955320,-9474.636058,1776.494261,842.705048
2750.955658,-9622.677246,1924.535449,459.657299
2750.955995,-9474.636058,1924.535449,0.000000
2750.956332,-9400.615463,1406.391290,-153.219100
2750.956669,-9474.636058,1036.288319,-689.485948
2750.957006,-9474.636058,740.205942,0.000000
2750.957344,-9474.636058,-148.041188,-306.438199
2750.957681,-9252.574275,-296.082377,0.000000
2750.958018,-9178.553681,-666.185348,0.000000
2750.958355,-9326.594869,-592.164754,153.219100
2750.958693,-10140.821405,-1554.432478,919.314598
2750.959030,-10362.883188,-740.205942,612.876398
2750.959367,-10140.821405,-1406.391290,76.609550
2750.959704,-10140.821405,-1702.473667,842.705048
2750.960041,-10362.883188,-1924.535449,612.876398
2750.960379,-10510.924376,-1998.556043,995.924147
2750.960716,-10362.883188,-1628.453072,1302.362347
2750.961053,-10510.924376,-1332.370696,1915.238745
2750.961390,-10658.965565,-1258.350101,1378.971896
2750.961728,-10807.006753,-666.185348,1378.971896
2750.962065,-11399.171507,-814.226536,1149.143247
2750.962402,-10881.027347,-296.082377,612.876398
2750.962739,-10436.903782,0.000000,0.000000
2750.963077,-10881.027347,-666.185348,153.219100
2750.963414,-10066.800811,-814.226536,-766.095498
2750.963751,-9400.615463,-666.185348,-612.876398
2750.964088,-10510.924376,-592.164754,-383.047749
2750.964425,-9548.656652,-740.205942,-1225.752797
2750.964763,-9770.718434,-592.164754,-919.314598
2750.965100,-9622.677246,-740.205942,-536.266849
2750.965437,-9400.615463,-592.164754,-306.438199
2750.965774,-10214.842000,74.020594,536.266849
2750.966112,-10214.842000,0.000000,153.219100
2750.966449,-9844.739029,518.144159,153.219100
2750.966786,-10066.800811,888.247130,689.485948
2750.967123,-9844.739029,518.144159,1302.362347
2750.967460,-9474.636058,888.247130,1225.752797
2750.967798,-9474.636058,814.226536,1302.362347
2750.968135,-10066.800811,1776.494261,1532.190996
2750.968472,-9992.780217,1776.494261,612.876398
2750.968809,-9844.739029,1628.453072,306.438199
2750.969147,-9622.677246,1776.494261,536.266849
2750.969484,-9474.636058,1776.494261,383.047749
2750.969821,-9918.759623,1702.473667,229.828649
2750.970158,-10436.903782,962.267725,-459.657299
2750.970495,-9696.697840,370.102971,-842.705048
2750.970833,-9548.656652,148.041188,-1149.143247
2750.971170,-10288.862594,-888.247130,-536.266849
2750.971507,-9696.697840,-1110.308913,-1608.800546
2750.971844,-9548.656652,-2146.597232,-919.314598
2750.972182,-9770.718434,-2146.597232,-1302.362347
2750.972519,-9770.718434,-2294.638420,-1608.800546
2750.972856,-10807.006753,-2590.720797,153.219100
2750.973193,-10510.924376,-2590.720797,-383.047749
2750.973531,-10140.821405,-2516.700203,-306.438199
2750.973868,-10732.986159,-2294.638420,919.314598
2750.974205,-10288.862594,-2442.679609,306.438199
2750.974542,-10732.986159,-2368.659014,1378.971896
2750.974879,-10955.047942,-1850.514855,1302.362347
2750.975217,-10140.821405,-1258.350101,1608.800546
2750.975554,-10807.006753,-962.267725,1302.362347
2750.975891,-10510.924376,-814.226536,1225.752797
2750.976228,-9918.759623,-148.041188,383.047749
2750.976566,-9844.739029,0.000000,766.095498
2750.976903,-10066.800811,592.164754,1072.533697
2750.977240,-9844.739029,222.061783,229.828649
2750.977577,-9844.739029,444.123565,612.876398
2750.977914,-9400.615463,444.123565,0.000000
2750.978252,-9548.656652,592.164754,383.047749
2750.978589,-9992.780217,74.020594,0.000000
2750.978926,-9474.636058,74.020594,0.000000
2750.979263,-8956.491898,74.020594,-76.609550
2750.979601,-9400.615463,0.000000,229.828649
2750.979938,-9474.636058,370.102971,459.657299
2750.980275,-9696.697840,0.000000,995.924147
2750.980612,-10066.800811,592.164754,612.876398
2750.980949,-9844.739029,0.000000,1149.143247
2750.981287,-10066.800811,666.185348,1608.800546
2750.981624,-9844.739029,666.185348,1762.019645
2750.981961,-10807.006753,296.082377,1608.800546
2750.982298,-9622.677246,370.102971,1455.581446
2750.982636,-10510.924376,888.247130,1149.143247
2750.982973,-11029.068536,74.020594,1608.800546
2750.983310,-9844.739029,74.020594,-153.219100
2750.983647,-9770.718434,74.020594,76.609550
2750.983985,-10436.903782,74.020594,-995.924147
2750.984322,-9548.656652,-740.205942,-1225.752797
2750.984659,-10066.800811,-888.247130,-383.047749
2750.984996,-9622.677246,-888.247130,-689.485948
2750.985333,-10066.800811,-592.164754,-842.705048
2750.985671,-10732.986159,-1258.350101,-612.876398
2750.986008,-10510.924376,-1776.494261,-1532.190996
2750.986345,-10362.883188,-1924.535449,-766.095498
2750.986682,-10066.800811,-2146.597232,-612.876398
2750.987020,-9992.780217,-1554.432478,0.000000
2750.987357,-10807.006753,-1628.453072,0.000000
2750.987694,-10510.924376,-1258.350101,-536.266849
2750.988031,-9770.718434,-296.082377,-612.876398
2750.988368,-10436.903782,-888.247130,842.705048
2750.988706,-10140.821405,-370.102971,1532.190996
2750.989043,-9622.677246,74.020594,1072.533697
2750.989380,-10288.862594,1332.370696,1532.190996
2750.989717,-10436.903782,1406.391290,1302.362347
2750.990055,-10140.821405,1406.391290,689.485948
2750.990392,-10066.800811,1480.411884,1072.533697
2750.990729,-9918.759623,2072.576638,995.924147
2750.991066,-9474.636058,2146.597232,306.438199
2750.991403,-9474.636058,1998.556043,-229.828649
2750.991741,-9474.636058,1776.494261,-153.219100
2750.992078,-9622.677246,1036.288319,-383.047749
2750.992415,-9178.553681,148.041188,-766.095498
2750.992752,-9474.636058,222.061783,-153.219100
2750.993090,-9252.574275,0.000000,0.000000
2750.993427,-8882.471304,-814.226536,-306.438199
2750.993764,-9844.739029,-962.267725,383.047749
2750.994101,-10214.842000,-740.205942,919.314598
2750.994438,-10362.883188,-814.226536,536.266849
2750.994776,-10584.944971,-814.226536,842.705048
2750.995113,-10066.800811,-1480.411884,306.438199
2750.995450,-10584.944971,-1628.453072,1225.752797
2750.995787,-10584.944971,-1850.514855,919.314598
2750.996124,-9770.718434,-1924.535449,1225.752797
2750.996462,-10066.800811,-1480.411884,2298.286494
2750.996799,-10510.924376,-1184.329507,842.705048
2750.997136,-10881.027347,-1110.308913,1072.533697
2750.997473,-11029.068536,-666.185348,842.705048
2750.997811,-10584.944971,-740.205942,229.828649
2750.998148,-10584.944971,148.041188,0.000000
2750.998485,-10732.986159,-888.247130,0.000000
2750.998822,-10066.800811,-814.226536,-689.485948
2750.999159,-9696.697840,-1406.391290,-766.095498
2750.999497,-10140.821405,-740.205942,0.000000
2750.999834,-10066.800811,-1332.370696,-1149.143247
2751.000171,-9696.697840,-1036.288319,-1302.362347
2751.000508,-9474.636058,-962.267725,-612.876398
2751.000845,-9474.636058,-740.205942,-229.828649
2751.001183,-9696.697840,-888.247130,0.000000
2751.001520,-9844.739029,74.020594,229.828649
2751.001857,-10288.862594,0.000000,383.047749
2751.002194,-9622.677246,666.185348,689.485948
2751.002532,-10066.800811,814.226536,1302.362347
2751.002869,-9918.759623,814.226536,1225.752797
2751.003206,-9474.636058,666.185348,1225.752797
2751.003543,-9770.718434,1406.391290,1378.971896
2751.003880,-9622.677246,1776.494261,689.485948
2751.004218,-9992.780217,2368.659014,1072.533697
2751.004555,-10066.800811,1776.494261,229.828649
2751.004892,-9474.636058,1776.494261,-229.828649
2751.005229,-9844.739029,2368.659014,0.000000
2751.005566,-9696.697840,444.123565,-536.266849
2751.005904,-9400.615463,888.247130,-459.657299
2751.006241,-9326.594869,-222.061783,-1302.362347
2751.006578,-10510.924376,-444.123565,-842.705048
2751.006915,-10066.800811,-1036.288319,-995.924147
2751.007253,-9844.739029,-1776.494261,-1225.752797
2751.007590,-9770.718434,-2072.576638,-766.095498
2751.007927,-9548.656652,-2738.761985,-995.924147
2751.008264,-10140.821405,-2072.576638,0.000000
2751.008601,-10214.842000,-2738.761985,-229.828649
2751.008939,-10214.842000,-1850.514855,76.609550
2751.009276,-10510.924376,-1998.556043,459.657299
2751.009613,-10584.944971,-2072.576638,766.095498
2751.009950,-10584.944971,-2220.617826,1072.533697
2751.010287,-10807.006753,-1554.432478,1302.362347
2751.010625,-10066.800811,-962.267725,1302.362347
2751.010962,-10658.965565,-888.247130,1149.143247
2751.011299,-10955.047942,-518.144159,1915.238745
2751.011636,-10362.883188,-296.082377,919.314598
2751.011974,-9622.677246,444.123565,1072.533697
2751.012311,-10140.821405,592.164754,1072.533697
2751.012648,-9918.759623,740.205942,536.266849
2751.012985,-9844.739029,740.205942,612.876398
2751.013322,-9548.656652,666.185348,995.924147
2751.013660,-9844.739029,1110.308913,76.609550
2751.013997,-9696.697840,1110.308913,-536.266849
2751.014334,-9844.739029,222.061783,0.000000
2751.014671,-9400.615463,296.082377,76.609550
2751.015008,-8956.491898,-370.102971,536.266849
2751.015346,-9474.636058,518.144159,1302.362347
2751.015683,-9696.697840,0.000000,919.314598
2751.016020,-9918.759623,296.082377,995.924147
2751.016357,-10066.800811,518.144159,1532.190996
2751.016695,-10214.842000,444.123565,1455.581446
2751.017032,-10066.800811,814.226536,1685.410096
2751.017369,-10214.842000,296.082377,1762.019645
2751.017706,-9770.718434,1036.288319,1302.362347
2751.018043,-9918.759623,222.061783,1149.143247
2751.018381,-10732.986159,222.061783,766.095498
2751.018718,-10066.800811,0.000000,-383.047749
2751.019055,-9992.780217,0.000000,-689.485948
2751.019392,-10140.821405,0.000000,-459.657299
2751.019729,-9548.656652,-1258.350101,-1149.143247
2751.020067,-9622.677246,-740.205942,-919.314598
2751.020404,-10066.800811,-1480.411884,-612.876398
2751.020741,-10584.944971,-592.164754,-995.924147
2751.021078,-10510.924376,-1628.453072,-1302.362347
2751.021416,-10955.047942,-1406.391290,-1378.971896
2751.021753,-9622.677246,-2886.803174,-1225.752797
2751.022090,-10214.842000,-2294.638420,-383.047749
2751.022427,-10362.883188,-1850.514855,-76.609550
2751.022764,-10362.883188,-1850.514855,-689.485948
2751.023102,-10288.862594,-1702.473667,-229.828649
2751.023439,-10436.903782,-1036.288319,-612.876398
2751.023776,-10140.821405,-962.267725,995.924147
2751.024113,-10214.842000,-148.041188,1685.410096
2751.024450,-9844.739029,-296.082377,1302.362347
2751.024788,-10362.883188,888.247130,1838.629195
2751.025125,-10288.862594,814.226536,1225.752797
2751.025462,-10288.862594,592.164754,1072.533697
2751.025799,-10066.800811,1332.370696,1532.190996
2751.026137,-9696.697840,1776.494261,1225.752797
2751.026474,-9104.533087,2294.638420,536.266849
2751.026811,-9474.636058,1406.391290,0.000000
2751.027148,-9252.574275,1258.350101,0.000000
2751.027485,-9104.533087,518.144159,-689.485948
2751.027823,-9474.636058,222.061783,-459.657299
2751.028160,-9622.677246,518.144159,0.000000
2751.028497,-9400.615463,-370.102971,383.047749
2751.028834,-8882.471304,-444.123565,76.609550
2751.029171,-9400.615463,-1184.329507,459.657299
2751.029509,-10510.924376,-592.164754,1072.533697
2751.029846,-10066.800811,-740.205942,459.657299
2751.030183,-10658.965565,-592.164754,536.266849
2751.030520,-9992.780217,-1554.432478,459.657299
2751.030858,-10140.821405,-1702.473667,612.876398
2751.031195,-10510.924376,-1998.556043,995.924147
2751.031532,-9992.780217,-1480.411884,919.314598
2751.031869,-9992.780217,-1258.350101,1838.629195
2751.032206,-10955.047942,-1036.288319,1378.971896
2751.032544,-10214.842000,0.000000,1149.143247
2751.032881,-11325.150913,-888.247130,1149.143247
2751.033218,-10732.986159,-592.164754,229.828649
2751.033555,-10140.821405,0.000000,76.609550
2751.033892,-10732.986159,-666.185348,229.828649
2751.034230,-9918.759623,-962.267725,-383.047749
2751.034567,-9474.636058,-1258.350101,-995.924147
2751.034904,-10214.842000,-666.185348,-842.705048
2751.035241,-10066.800811,-666.185348,-1149.143247
2751.035578,-10066.800811,-740.205942,-1225.752797
2751.035916,-9474.636058,-444.123565,-995.924147
2751.036253,-9400.615463,-740.205942,-229.828649
2751.036590,-10288.862594,0.000000,766.095498
2751.036927,-9918.759623,0.000000,689.485948
2751.037265,-9844.739029,0.000000,459.657299
2751.037602,-9696.697840,444.123565,1072.533697
2751.037939,-10362.883188,1184.329507,1455.581446
2751.038276,-9992.780217,1258.350101,1608.800546
2751.038613,-9918.759623,592.164754,1608.800546
2751.038951,-9696.697840,2294.638420,1225.752797
2751.039288,-9622.677246,1554.432478,0.000000
2751.039625,-9844.739029,2294.638420,766.095498
2751.039962,-9844.739029,1406.391290,153.219100
2751.040299,-9474.636058,1924.535449,0.000000
2751.040637,-9770.718434,2072.576638,-459.657299
2751.040974,-9918.759623,666.185348,229.828649
2751.041311,-10066.800811,666.185348,-383.047749
2751.041648,-9474.636058,0.000000,-1302.362347
2751.041986,-10362.883188,-222.061783,-536.266849
2751.042323,-10288.862594,-1036.288319,-919.314598
2751.042660,-9548.656652,-1406.391290,-1838.629195
2751.042997,-9696.697840,-2146.597232,-383.047749
2751.043334,-9696.697840,-2664.741391,-1072.533697
2751.043672,-9992.780217,-2146.597232,0.000000
2751.044009,-10807.006753,-2590.720797,229.828649
2751.044346,-10066.800811,-2220.617826,0.000000
2751.044683,-10584.944971,-2368.659014,229.828649
2751.045020,-10732.986159,-2442.679609,689.485948
2751.045358,-10732.986159,-1924.535449,919.314598
2751.045695,-11177.109724,-1554.432478,1608.800546
2751.046032,-10436.903782,-1406.391290,919.314598
2751.046369,-10214.842000,-962.267725,1149.143247
2751.046707,-10881.027347,-740.205942,1302.362347
2751.047044,-10066.800811,-740.205942,306.438199
2751.047381,-9622.677246,222.061783,306.438199
2751.047718,-10140.821405,296.082377,689.485948
2751.048055,-10066.800811,592.164754,306.438199
2751.048393,-9770.718434,518.144159,459.657299
2751.048730,-9918.759623,222.061783,0.000000
2751.049067,-9548.656652,592.164754,306.438199
2751.049404,-9548.656652,222.061783,0.000000
2751.049741,-9770.718434,370.102971,0.000000
2751.050079,-9252.574275,-444.123565,0.000000
2751.050416,-9178.553681,74.020594,383.047749
2751.050753,-9474.636058,740.205942,919.314598
2751.051090,-9918.759623,0.000000,1225.752797
2751.051428,-9548.656652,296.082377,229.828649
2751.051765,-9400.615463,370.102971,1225.752797
2751.052102,-10214.842000,740.205942,1838.629195
2751.052439,-9992.780217,740.205942,1455.581446
2751.052776,-10362.883188,666.185348,1915.238745
2751.053114,-9918.759623,1036.288319,1378.971896
2751.053451,-10140.821405,592.164754,995.924147
2751.053788,-10436.903782,222.061783,1225.752797
2751.054125,-10066.800811,148.041188,0.000000
2751.054462,-9696.697840,-148.041188,-306.438199
2751.054800,-9844.739029,0.000000,-459.657299
2751.055137,-9992.780217,-370.102971,-1149.143247
2751.055474,-9770.718434,-888.247130,-1302.362347
2751.055811,-10140.821405,-1110.308913,-612.876398
2751.056149,-9918.759623,-740.205942,-1072.533697
2751.056486,-10732.986159,-1258.350101,-919.314598
2751.056823,-10955.047942,-1628.453072,-995.924147
2751.057160,-10066.800811,-2516.700203,-1225.752797
2751.057497,-10214.842000,-2146.597232,-612.876398
2751.057835,-10140.821405,-2072.576638,-306.438199
2751.058172,-10362.883188,-1850.514855,-536.266849
2751.058509,-10510.924376,-1406.391290,-306.438199
2751.058846,-10140.821405,-1184.329507,-76.609550
2751.059183,-10140.821405,-888.247130,612.876398
2751.059521,-10066.800811,0.000000,1378.971896
2751.059858,-9918.759623,-222.061783,1302.362347
2751.060195,-10214.842000,740.205942,1838.629195
2751.060532,-10140.821405,814.226536,995.924147
2751.060870,-10362.883188,1036.288319,1225.752797
2751.061207,-10066.800811,962.267725,1225.752797
2751.061544,-9326.594869,1480.411884,1149.143247
2751.061881,-9696.697840,2368.659014,229.828649
2751.062218,-9474.636058,1850.514855,0.000000
2751.062556,-9770.718434,1924.535449,-689.485948
2751.062893,-9770.718434,814.226536,-459.657299
2751.063230,-9104.533087,148.041188,-919.314598
2751.063567,-9178.553681,0.000000,383.047749
2751.063904,-9400.615463,-444.123565,0.000000
2751.064242,-8956.491898,-518.144159,0.000000
2751.064579,-10066.800811,-814.226536,612.876398
2751.064916,-10066.800811,0.000000,76.609550
2751.065253,-10510.924376,-888.247130,612.876398
2751.065591,-10584.944971,-592.164754,1149.143247
2751.065928,-9992.780217,-1776.494261,306.438199
2751.066265,-10436.903782,-1850.514855,1225.752797
2751.066602,-10510.924376,-1924.535449,1302.362347
2751.066939,-9992.780217,-2294.638420,1455.581446
2751.067277,-9844.739029,-1258.350101,1225.752797
2751.067614,-10288.862594,-1332.370696,1072.533697
2751.067951,-10658.965565,-296.082377,919.314598
2751.068288,-11399.171507,-592.164754,612.876398
2751.068625,-11029.068536,-740.205942,459.657299
2751.068963,-10140.821405,0.000000,0.000000
2751.069300,-10658.965565,-444.123565,76.609550
2751.069637,-9696.697840,-1258.350101,76.609550
2751.069974,-9474.636058,-1702.473667,-383.047749
2751.070312,-10140.821405,-962.267725,-153.219100
2751.070649,-10436.903782,-888.247130,-919.314598
2751.070986,-9918.759623,-1184.329507,-1608.800546
2751.071323,-9474.636058,-1036.288319,-1378.971896
2751.071660,-9474.636058,-1036.288319,76.609550
2751.071998,-10140.821405,-592.164754,459.657299
2751.072335,-9622.677246,0.000000,459.657299
2751.072672,-9844.739029,222.061783,306.438199
2751.073009,-10066.800811,370.102971,536.266849
2751.073346,-10066.800811,370.102971,1302.362347
2751.073684,-9918.759623,740.205942,1302.362347
2751.074021,-9770.718434,1110.308913,1378.971896
2751.074358,-9400.615463,1258.350101,1608.800546
2751.074695,-10066.800811,2072.576638,919.314598
2751.075033,-9770.718434,1924.535449,689.485948
2751.075370,-10140.821405,1776.494261,383.047749
2751.075707,-9622.677246,2220.617826,0.000000
2751.076044,-9474.636058,1702.473667,-306.438199
2751.076381,-9844.739029,1110.308913,0.000000
2751.076719,-9474.636058,592.164754,-1072.533697
2751.077056,-9622.677246,-148.041188,-1149.143247
2751.077393,-10288.862594,0.000000,-153.219100
2751.077730,-10288.862594,-1184.329507,-842.705048
2751.078067,-10140.821405,-1406.391290,-919.314598
2751.078405,-9696.697840,-2516.700203,-919.314598
2751.078742,-9548.656652,-2442.679609,-1302.362347
2751.079079,-9696.697840,-2442.679609,-383.047749
2751.079416,-10584.944971,-2072.576638,76.609550
2751.079754,-10214.842000,-2516.700203,-229.828649
2751.080091,-10584.944971,-2146.597232,0.000000
2751.080428,-10807.006753,-1924.535449,995.924147
2751.080765,-10732.986159,-1628.453072,1225.752797
2751.081102,-10436.903782,-1924.535449,1072.533697
2751.081440,-10658.965565,-814.226536,1762.019645
2751.081777,-10510.924376,-1184.329507,1915.238745
2751.082114,-10807.006753,0.000000,1225.752797
2751.082451,-10510.924376,-592.164754,919.314598
2751.082788,-9992.780217,222.061783,459.657299
2751.083126,-10066.800811,296.082377,919.314598
2751.083463,-10140.821405,592.164754,76.609550
2751.083800,-9474.636058,518.144159,153.219100
2751.084137,-9696.697840,814.226536,76.609550
2751.084475,-9696.697840,296.082377,0.000000
2751.084812,-9548.656652,666.185348,76.609550
2751.085149,-9992.780217,518.144159,459.657299
2751.085486,-9474.636058,-296.082377,153.219100
2751.085823,-9326.594869,370.102971,612.876398
2751.086161,-9474.636058,74.020594,1149.143247
2751.086498,-9696.697840,148.041188,919.314598
2751.086835,-9770.718434,296.082377,919.314598
2751.087172,-9474.636058,222.061783,1072.533697
2751.087509,-9918.759623,666.185348,1532.190996
2751.087847,-9992.780217,666.185348,1532.190996
2751.088184,-10214.842000,814.226536,1762.019645
2751.088521,-9918.759623,1110.308913,1072.533697
2751.088858,-10066.800811,666.185348,1149.143247
2751.089196,-10658.965565,814.226536,1302.362347
2751.089533,-9992.780217,0.000000,76.609550
2751.089870,-10066.800811,0.000000,-383.047749
2751.090207,-9844.739029,370.102971,-766.095498
2751.090544,-9696.697840,-592.164754,-1149.143247
2751.090882,-9696.697840,-814.226536,-1149.143247
2751.091219,-10214.842000,-1036.288319,-1532.190996
2751.091556,-10584.944971,-814.226536,-689.485948
2751.091893,-10658.965565,-1628.453072,-1378.971896
2751.092230,-10436.903782,-1924.535449,-1072.533697
2751.092568,-10066.800811,-2220.617826,-1225.752797
2751.092905,-9992.780217,-2442.679609,-612.876398
2751.093242,-10362.883188,-1998.556043,-153.219100
2751.093579,-10288.862594,-2146.597232,-995.924147
2751.093917,-10214.842000,-1702.473667,-919.314598
2751.094254,-10436.903782,-1554.432478,-229.828649
2751.094591,-9992.780217,-1036.288319,536.266849
2751.094928,-9844.739029,-370.102971,1378.971896
2751.095266,-10066.800811,0.000000,1532.190996
2751.095603,-10436.903782,444.123565,1532.190996
2751.095940,-10362.883188,1110.308913,1302.362347
2751.096277,-9992.780217,666.185348,1302.362347
2751.096614,-9844.739029,1036.288319,1685.410096
2751.096952,-9548.656652,1628.453072,1225.752797
2751.097289,-9548.656652,2072.576638,306.438199
2751.097626,-9622.677246,2220.617826,-153.219100
2751.097963,-9696.697840,1554.432478,-919.314598
2751.098301,-9770.718434,740.205942,-306.438199
2751.098638,-9178.553681,0.000000,-459.657299
2751.098975,-9030.512492,370.102971,0.000000
2751.099312,-8956.491898,0.000000,0.000000
2751.099650,-9030.512492,-888.247130,612.876398
2751.099987,-9474.636058,-444.123565,536.266849
2751.100324,-10436.903782,-592.164754,1225.752797
2751.100661,-10807.006753,-222.061783,842.705048
2751.100999,-10214.842000,-814.226536,689.485948
2751.101336,-10732.986159,-1184.329507,995.924147
2751.101673,-9844.739029,-1702.473667,919.314598
2751.102010,-10362.883188,-1036.288319,1149.143247
2751.102347,-10140.821405,-1850.514855,1072.533697
2751.102685,-9844.739029,-962.267725,995.924147
2751.103022,-10807.006753,-1184.329507,1685.410096
2751.103359,-10807.006753,-222.061783,689.485948
2751.103696,-11029.068536,-592.164754,1072.533697
2751.104034,-11251.130318,-74.020594,612.876398
2751.104371,-10214.842000,-518.144159,76.609550
2751.104708,-10436.903782,-370.102971,0.000000
2751.105045,-10510.924376,-962.267725,0.000000
2751.105383,-9770.718434,-1480.411884,-766.095498
2751.105720,-10288.862594,-888.247130,-842.705048
2751.106057,-10066.800811,-962.267725,-1378.971896
2751.106394,-9474.636058,-740.205942,-1608.800546
2751.106731,-9400.615463,-1554.432478,-1532.190996
2751.107069,-9548.656652,-592.164754,0.000000
2751.107406,-9770.718434,-444.123565,153.219100
2751.107743,-10140.821405,222.061783,612.876398
2751.108080,-9992.780217,444.123565,383.047749
2751.108418,-10066.800811,0.000000,995.924147
2751.108755,-10066.800811,1332.370696,1532.190996
2751.109092,-9844.739029,444.123565,1991.848295
2751.109429,-9844.739029,1110.308913,1762.019645
2751.109767,-9548.656652,1480.411884,1072.533697
2751.110104,-9918.759623,2368.659014,766.095498
2751.110441,-9696.697840,1850.514855,306.438199
2751.110778,-9918.759623,2590.720797,0.000000
2751.111116,-9548.656652,1628.453072,306.438199
2751.111453,-9400.615463,2294.638420,-306.438199
2751.111790,-9844.739029,592.164754,229.828649
2751.112127,-9992.780217,1110.308913,-919.314598
2751.112464,-9326.594869,0.000000,-1072.533697
2751.112802,-10214.842000,-296.082377,-612.876398
2751.113139,-10066.800811,-888.247130,-536.266849
2751.113476,-9770.718434,-1628.453072,-1149.143247
2751.113813,-9622.677246,-2442.679609,-536.266849
2751.114151,-9548.656652,-2368.659014,-919.314598
2751.114488,-9992.780217,-2442.679609,-306.438199
2751.114825,-10584.944971,-2220.617826,0.000000
2751.115162,-10288.862594,-1776.494261,-229.828649
2751.115500,-10658.965565,-2886.803174,0.000000
2751.115837,-10732.986159,-1924.535449,1149.143247
2751.116174,-10584.944971,-2220.617826,1225.752797
2751.116511,-11029.068536,-1924.535449,1532.190996
2751.116849,-10288.862594,-1406.391290,1225.752797
2751.117186,-9844.739029,-1184.329507,842.705048
2751.117523,-10955.047942,-444.123565,1378.971896
2751.117860,-10510.924376,-740.205942,995.924147
2751.118197,-9696.697840,0.000000,76.609550
2751.118535,-10066.800811,148.041188,229.828649
2751.118872,-10214.842000,296.082377,306.438199
2751.119209,-9844.739029,296.082377,0.000000
2751.119546,-9622.677246,222.061783,459.657299
2751.119884,-9400.615463,74.020594,459.657299
2751.120221,-9548.656652,518.144159,0.000000
2751.120558,-9918.759623,296.082377,0.000000
2751.120895,-9474.636058,-296.082377,0.000000
2751.121233,-9474.636058,-148.041188,612.876398
2751.121570,-9030.512492,296.082377,612.876398
2751.121907,-9770.718434,222.061783,1225.752797
2751.122244,-9326.594869,0.000000,766.095498
2751.122581,-9326.594869,666.185348,1225.752797
2751.122919,-10140.821405,222.061783,2145.067394
2751.123256,-9992.780217,1036.288319,1762.019645
2751.123593,-9844.739029,888.247130,1608.800546
2751.123930,-10436.903782,888.247130,1455.581446
2751.124268,-9844.739029,888.247130,842.705048
2751.124605,-10436.903782,962.267725,689.485948
2751.124942,-10288.862594,0.000000,459.657299
2751.125279,-9918.759623,296.082377,-306.438199
2751.125617,-9770.718434,222.061783,-766.095498
2751.125954,-9918.759623,-518.144159,-1149.143247
2751.126291,-9622.677246,-888.247130,-306.438199
2751.126628,-10436.903782,-962.267725,229.828649
2751.126966,-9992.780217,-814.226536,-1149.143247
2751.127303,-10658.965565,-1110.308913,-1455.581446
2751.127640,-10807.006753,-1776.494261,-1072.533697
2751.127977,-9918.759623,-1776.494261,-766.095498
2751.128314,-10140.821405,-2294.638420,-842.705048
2751.128652,-10362.883188,-2220.617826,-383.047749
2751.128989,-10140.821405,-1850.514855,-536.266849
2751.129326,-10288.862594,-1554.432478,-1149.143247
2751.129663,-10288.862594,-1480.411884,306.438199
2751.130001,-10214.842000,-1258.350101,612.876398
2751.130338,-10066.800811,0.000000,1608.800546
2751.130675,-10140.821405,518.144159,1225.752797
2751.131012,-9770.718434,0.000000,919.314598
2751.131350,-10066.800811,1258.350101,689.485948
2751.131687,-9918.759623,592.164754,1532.190996
2751.132024,-10140.821405,1258.350101,1225.752797
2751.132361,-9770.718434,1776.494261,612.876398
2751.132699,-9770.718434,2146.597232,306.438199
2751.133036,-9844.739029,2516.700203,-229.828649
2751.133373,-9844.739029,1258.350101,-1378.971896
2751.133710,-9622.677246,74.020594,-229.828649
2751.134047,-9104.533087,222.061783,-306.438199
2751.134385,-8808.450710,148.041188,76.609550
2751.134722,-9770.718434,0.000000,459.657299
2751.135059,-9030.512492,-444.123565,153.219100
2751.135396,-9622.677246,-666.185348,229.828649
2751.135734,-10436.903782,0.000000,919.314598
2751.136071,-10214.842000,-222.061783,536.266849
2751.136408,-10658.965565,-740.205942,1149.143247
2751.136745,-10658.965565,-1258.350101,842.705048
2751.137083,-9992.780217,-1480.411884,1149.143247
2751.137420,-10436.903782,-962.267725,1302.362347
2751.137757,-10214.842000,-1554.432478,919.314598
2751.138094,-10066.800811,-1332.370696,766.095498
2751.138431,-10214.842000,-888.247130,1072.533697
2751.138769,-10807.006753,-814.226536,919.314598
2751.139106,-10807.006753,-592.164754,919.314598
2751.139443,-10807.006753,-740.205942,689.485948
2751.139780,-10436.903782,-518.144159,76.609550
2751.140118,-10436.903782,-296.082377,0.000000
2751.140455,-10362.883188,-1332.370696,-153.219100
2751.140792,-10288.862594,-1332.370696,-536.266849
2751.141129,-9770.718434,-1554.432478,-1072.533697
2751.141467,-9844.739029,-1332.370696,-1072.533697
2751.141804,-9992.780217,-962.267725,-1225.752797
2751.142141,-9474.636058,-1258.350101,-995.924147
2751.142478,-9474.636058,-814.226536,0.000000
2751.142816,-10140.821405,-592.164754,459.657299
2751.143153,-9918.759623,0.000000,0.000000
2751.143490,-9918.759623,74.020594,383.047749
2751.143827,-9770.718434,0.000000,1149.143247
2751.144164,-9844.739029,222.061783,1838.629195
2751.144502,-10066.800811,1110.308913,2298.286494
2751.144839,-9918.759623,1702.473667,1455.581446
2751.145176,-9548.656652,1184.329507,1072.533697
2751.145513,-9918.759623,2072.576638,1149.143247
2751.145851,-9770.718434,1850.514855,459.657299
2751.146188,-10140.821405,2442.679609,689.485948
2751.146525,-9696.697840,1406.391290,-306.438199
2751.146862,-9400.615463,1776.494261,-153.219100
2751.147200,-9252.574275,1628.453072,153.219100
2751.147537,-9770.718434,444.123565,-459.657299
2751.147874,-9474.636058,222.061783,-842.705048
2751.148211,-10066.800811,-148.041188,-1225.752797
2751.148549,-10584.944971,-962.267725,-842.705048
2751.148886,-9474.636058,-1332.370696,-1608.800546
2751.149223,-9474.636058,-2146.597232,-1072.533697
2751.149560,-9770.718434,-2516.700203,-383.047749
2751.149897,-9474.636058,-2368.659014,-383.047749
2751.150235,-10584.944971,-1998.556043,0.000000
2751.150572,-10658.965565,-2368.659014,-229.828649
2751.150909,-10288.862594,-2368.659014,76.609550
2751.151246,-10436.903782,-2368.659014,1378.971896
2751.151584,-10436.903782,-1258.350101,1991.848295
2751.151921,-11029.068536,-1850.514855,1455.581446
2751.152258,-10658.965565,-1258.350101,1225.752797
2751.152595,-10436.903782,-962.267725,1378.971896
2751.152933,-10658.965565,-666.185348,1149.143247
2751.153270,-10362.883188,-962.267725,766.095498
2751.153607,-9548.656652,-74.020594,153.219100
2751.153944,-10140.821405,296.082377,689.485948
2751.154281,-9770.718434,518.144159,229.828649
2751.154619,-9844.739029,296.082377,229.828649
2751.154956,-10140.821405,370.102971,153.219100
2751.155293,-9992.780217,444.123565,612.876398
2751.155630,-9844.739029,296.082377,76.609550
2751.155968,-9844.739029,666.185348,0.000000
2751.156305,-9548.656652,0.000000,612.876398
2751.156642,-9474.636058,296.082377,383.047749
2751.156979,-9400.615463,222.061783,766.095498
2751.157317,-9770.718434,592.164754,995.924147
2751.157654,-9622.677246,148.041188,612.876398
2751.157991,-9622.677246,518.144159,1072.533697
2751.158328,-9918.759623,518.144159,1762.019645
2751.158666,-9770.718434,1036.288319,2068.457845
2751.159003,-9918.759623,1258.350101,1532.190996
2751.159340,-10362.883188,888.247130,2068.457845
2751.159677,-10066.800811,962.267725,919.314598
2751.160014,-10362.883188,1110.308913,612.876398
2751.160352,-10584.944971,666.185348,459.657299
2751.160689,-10066.800811,148.041188,-995.924147
2751.161026,-9326.594869,-370.102971,-1225.752797
2751.161363,-10510.924376,0.000000,-919.314598
2751.161701,-9696.697840,-1036.288319,-1072.533697
2751.162038,-9918.759623,-1258.350101,-1302.362347
2751.162375,-10288.862594,-1554.432478,-1225.752797
2751.162712,-10288.862594,-1184.329507,-1378.971896
2751.163050,-10807.006753,-1998.556043,-919.314598
2751.163387,-10732.986159,-2146.597232,-1149.143247
2751.163724,-9844.739029,-2590.720797,0.000000
2751.164061,-10584.944971,-1998.556043,0.000000
2751.164399,-10436.903782,-1702.473667,-612.876398
2751.164736,-10436.903782,-1628.453072,-689.485948
2751.165073,-10436.903782,-1776.494261,153.219100
2751.165410,-10362.883188,-1258.350101,153.219100
2751.165747,-10288.862594,-222.061783,1762.019645
2751.166085,-10288.862594,0.000000,1072.533697
2751.166422,-10214.842000,0.000000,1302.362347
2751.166759,-10584.944971,740.205942,995.924147
2751.167096,-9992.780217,666.185348,1378.971896
2751.167434,-9918.759623,1184.329507,1532.190996
2751.167771,-9844.739029,1406.391290,1072.533697
2751.168108,-9770.718434,2072.576638,459.657299
2751.168445,-9474.636058,2294.638420,-306.438199
2751.168783,-9770.718434,1110.308913,-919.314598
2751.169120,-9622.677246,666.185348,0.000000
2751.169457,-9030.512492,0.000000,-306.438199
2751.169794,-8882.471304,222.061783,229.828649
2751.170132,-9178.553681,0.000000,229.828649
2751.170469,-9030.512492,-1036.288319,536.266849
2751.170806,-9548.656652,-296.082377,689.485948
2751.171143,-10436.903782,-296.082377,1455.581446
2751.171480,-10436.903782,296.082377,919.314598
2751.171818,-10362.883188,-962.267725,689.485948
2751.172155,-10732.986159,-814.226536,1532.190996
2751.172492,-10140.821405,-1628.453072,842.705048
2751.172829,-10140.821405,-1332.370696,1149.143247
2751.173167,-10140.821405,-1184.329507,1455.581446
2751.173504,-10066.800811,-1332.370696,1072.533697
2751.173841,-10066.800811,-666.185348,919.314598
2751.174178,-10807.006753,-518.144159,766.095498
2751.174516,-10658.965565,-222.061783,536.266849
2751.174853,-11103.089130,-296.082377,229.828649
2751.175190,-10807.006753,-370.102971,153.219100
2751.175527,-9770.718434,-888.247130,-459.657299
2751.175864,-10140.821405,-962.267725,229.828649
2751.176202,-10066.800811,-1776.494261,-766.095498
2751.176539,-9844.739029,-1776.494261,-919.314598
2751.176876,-10214.842000,-1110.308913,-766.095498
2751.177213,-9548.656652,-1184.329507,-2145.067394
2751.177551,-9548.656652,-1110.308913,-1072.533697
2751.177888,-9474.636058,-1036.288319,-536.266849
2751.178225,-9770.718434,-148.041188,229.828649
2751.178562,-10214.842000,-74.020594,459.657299
2751.178900,-9474.636058,222.061783,229.828649
2751.179237,-10066.800811,0.000000,1072.533697
2751.179574,-9992.780217,222.061783,1838.629195
2751.179911,-9770.718434,1258.350101,2221.676944
2751.180249,-10288.862594,1110.308913,1915.238745
2751.180586,-10066.800811,1702.473667,919.314598
2751.180923,-9844.739029,1998.556043,919.314598
2751.181260,-10140.821405,1850.514855,689.485948
2751.181597,-9326.594869,2590.720797,153.219100
2751.181935,-9696.697840,1406.391290,0.000000
2751.182272,-9474.636058,1628.453072,-153.219100
2751.182609,-9252.574275,1554.432478,-306.438199
2751.182946,-10288.862594,592.164754,229.828649
2751.183284,-9474.636058,592.164754,-995.924147
2751.183621,-10140.821405,-592.164754,-536.266849
2751.183958,-10658.965565,-370.102971,-995.924147
2751.184295,-9400.615463,-1480.411884,-1532.190996
2751.184633,-9992.780217,-1850.514855,-1149.143247
2751.184970,-9622.677246,-2812.782580,-919.314598
2751.185307,-9622.677246,-2220.617826,-459.657299
2751.185644,-10140.821405,-2294.638420,153.219100
2751.185982,-10510.924376,-2368.659014,-306.438199
2751.186319,-10288.862594,-2146.597232,459.657299
2751.186656,-10955.047942,-2368.659014,1072.533697
2751.186993,-10807.006753,-1628.453072,1378.971896
2751.187330,-10807.006753,-1480.411884,1072.533697
2751.187668,-10881.027347,-1258.350101,1685.410096
2751.188005,-10658.965565,-962.267725,1302.362347
2751.188342,-10584.944971,-1110.308913,919.314598
2751.188679,-10140.821405,-296.082377,459.657299
2751.189017,-9992.780217,-740.205942,153.219100
2751.189354,-10066.800811,0.000000,383.047749
2751.189691,-9622.677246,-148.041188,0.000000
2751.190028,-10066.800811,222.061783,153.219100
2751.190366,-9918.759623,0.000000,0.000000
2751.190703,-9992.780217,592.164754,153.219100
2751.191040,-9474.636058,0.000000,153.219100
2751.191377,-9770.718434,592.164754,0.000000
2751.191715,-9622.677246,-814.226536,842.705048
2751.192052,-9696.697840,296.082377,459.657299
2751.192389,-9474.636058,-148.041188,612.876398
2751.192727,-9918.759623,740.205942,1455.581446
2751.193064,-9696.697840,444.123565,842.705048
2751.193401,-9918.759623,148.041188,1072.533697
2751.193739,-10140.821405,296.082377,1838.629195
2751.194076,-9770.718434,1036.288319,1762.019645
2751.194413,-10214.842000,1332.370696,1225.752797
2751.194750,-10214.842000,1036.288319,1762.019645
2751.195088,-9696.697840,1258.350101,919.314598
