#time,accel_x,accel_y,accel_z
3228.580543,-10436.903782,-962.267725,919.314598
3228.580881,-10436.903782,-1480.411884,153.219100
3228.581218,-9622.677246,-1110.308913,-689.485948
3228.581556,-9474.636058,-1480.411884,-306.438199
3228.581893,-10436.903782,-888.247130,1072.533697
3228.582231,-9844.739029,-1184.329507,1762.019645
3228.582568,-8290.306550,-814.226536,1762.019645
3228.582906,-8438.347739,-814.226536,1532.190996
3228.583243,-9474.636058,-1184.329507,1991.848295
3228.583580,-9918.759623,148.041188,2221.676944
3228.583918,-9844.739029,518.144159,1838.629195
3228.584255,-9622.677246,1776.494261,2145.067394
3228.584593,-10510.924376,1850.514855,1762.019645
3228.584930,-10955.047942,1554.432478,1149.143247
3228.585268,-10732.986159,592.164754,1378.971896
3228.585605,-10066.800811,296.082377,1225.752797
3228.585943,-9104.533087,814.226536,536.266849
3228.586280,-9918.759623,0.000000,612.876398
3228.586618,-9770.718434,-740.205942,153.219100
3228.586955,-9844.739029,-1406.391290,459.657299
3228.587293,-10066.800811,-1110.308913,1532.190996
3228.587630,-10214.842000,-2220.617826,1915.238745
3228.587967,-10732.986159,-2294.638420,2451.505594
3228.588305,-11251.130318,-2886.803174,2451.505594
3228.588642,-10584.944971,-3849.070898,2757.943793
3228.588980,-9770.718434,-3256.906145,4213.525239
3228.589317,-10436.903782,-3478.967927,4903.011187
3228.589655,-10584.944971,-3552.988522,4519.963438
3228.589992,-10066.800811,-4589.276840,2987.772442
3228.590330,-9992.780217,-4367.215058,3830.477490
3228.590667,-10140.821405,-3923.091493,4443.353888
3228.591005,-9326.594869,-3701.029710,5056.230287
3228.591342,-9474.636058,-3256.906145,4213.525239
3228.591680,-9326.594869,-3256.906145,4903.011187
3228.592017,-10066.800811,-3256.906145,5592.497135
3228.592354,-11029.068536,-3552.988522,6665.030833
3228.592692,-11251.130318,-2516.700203,6511.811733
3228.593029,-10955.047942,-1184.329507,3983.696590
3228.593367,-10658.965565,-1554.432478,2068.457845
3228.593704,-9622.677246,-2146.597232,842.705048
3228.594042,-9104.533087,-3552.988522,689.485948
3228.594379,-8364.327145,-3256.906145,76.609550
3228.594717,-8364.327145,-2812.782580,76.609550
3228.595054,-9474.636058,-4515.256246,919.314598
3228.595392,-10807.006753,-3997.112087,1149.143247
3228.595729,-10288.862594,-3182.885551,1072.533697
3228.596067,-9104.533087,-1850.514855,306.438199
3228.596404,-9400.615463,-2368.659014,2145.067394
3228.596742,-11103.089130,-3330.926739,2757.943793
3228.597079,-12139.377449,-3997.112087,2987.772442
3228.597416,-11399.171507,-2886.803174,1991.848295
3228.597754,-9918.759623,-2220.617826,76.609550
3228.598091,-10658.965565,-2442.679609,-612.876398
3228.598429,-10510.924376,-4071.132681,-1532.190996
3228.598766,-7920.203579,-4071.132681,-2681.334243
3228.599104,-7402.059420,-1924.535449,-1762.019645
3228.599441,-9400.615463,-1184.329507,-536.266849
3228.599779,-10807.006753,-888.247130,-2528.115143
3228.600116,-11325.150913,-814.226536,-3370.820191
3228.600454,-10140.821405,-1184.329507,-2068.457845
3228.600791,-10066.800811,-666.185348,76.609550
3228.601129,-10510.924376,0.000000,-536.266849
3228.601466,-9622.677246,1110.308913,-3064.381992
3228.601803,-10362.883188,-592.164754,-3600.648841
3228.602141,-11103.089130,-1850.514855,-2604.724693
3228.602478,-10214.842000,-2368.659014,-1532.190996
3228.602816,-9030.512492,-1110.308913,766.095498
3228.603153,-9030.512492,814.226536,306.438199
3228.603491,-10510.924376,1702.473667,0.000000
3228.603828,-10955.047942,1776.494261,612.876398
3228.604166,-11399.171507,1554.432478,3217.601092
3228.604503,-11547.212695,2516.700203,3830.477490
3228.604840,-11473.192101,4737.318029,3140.991542
3228.605178,-11769.274478,5255.462188,3370.820191
3228.605515,-9770.718434,3182.885551,2757.943793
3228.605853,-9474.636058,1776.494261,3140.991542
3228.606190,-9178.553681,2146.597232,3370.820191
3228.606528,-8882.471304,2960.823768,3064.381992
3228.606865,-9548.656652,3108.864956,2298.286494
3228.607202,-9918.759623,3256.906145,919.314598
3228.607540,-8660.409521,3108.864956,1225.752797
3228.607877,-9400.615463,3849.070898,1149.143247
3228.608215,-10510.924376,4663.297435,0.000000
3228.608552,-9474.636058,4959.379811,-1608.800546
3228.608890,-8956.491898,2590.720797,-1762.019645
3228.609227,-9252.574275,-592.164754,-229.828649
3228.609564,-9326.594869,-2072.576638,1225.752797
3228.609902,-9474.636058,-2072.576638,2604.724693
3228.610239,-10066.800811,-2072.576638,2681.334243
3228.610577,-10140.821405,-2294.638420,1072.533697
3228.610914,-9474.636058,-2294.638420,995.924147
3228.611252,-10807.006753,-1480.411884,2451.505594
3228.611589,-12583.501014,296.082377,1225.752797
3228.611926,-12213.398043,1998.556043,-1378.971896
3228.612264,-12139.377449,962.267725,-2911.162892
3228.612601,-9992.780217,-1702.473667,-2911.162892
3228.612939,-8882.471304,-3108.864956,-995.924147
3228.613276,-9252.574275,-3256.906145,153.219100
3228.613614,-9844.739029,-4145.153275,-689.485948
3228.613951,-10362.883188,-4737.318029,-459.657299
3228.614288,-10140.821405,-4219.173869,536.266849
3228.614626,-9474.636058,-2072.576638,1149.143247
3228.614963,-11695.253884,-222.061783,-919.314598
3228.615301,-11399.171507,814.226536,-3753.867940
3228.615638,-11103.089130,0.000000,-4290.134789
3228.615976,-9548.656652,-1554.432478,-2987.772442
3228.616313,-8364.327145,-3108.864956,-2374.896044
3228.616651,-8438.347739,-4145.153275,-766.095498
3228.616988,-9474.636058,-5255.462188,1225.752797
3228.617325,-8734.430116,-6143.709319,1608.800546
3228.617663,-8660.409521,-5625.565159,3600.648841
3228.618000,-9178.553681,-3330.926739,4290.134789
3228.618338,-10362.883188,-740.205942,3447.429741
3228.618675,-12731.542202,1554.432478,536.266849
3228.619013,-12435.459826,3627.009116,-1072.533697
3228.619350,-11399.171507,1924.535449,-1302.362347
3228.619687,-9030.512492,296.082377,-1225.752797
3228.620025,-7402.059420,-592.164754,1149.143247
3228.620362,-9400.615463,-2368.659014,3370.820191
3228.620700,-9400.615463,-2886.803174,3217.601092
3228.621037,-9178.553681,-3256.906145,3294.210641
3228.621375,-10732.986159,-1702.473667,4213.525239
3228.621712,-11325.150913,444.123565,3524.039291
3228.622049,-11695.253884,3330.926739,-842.705048
3228.622387,-11325.150913,3256.906145,-4749.792088
3228.622724,-10288.862594,2294.638420,-3600.648841
3228.623062,-9252.574275,-888.247130,-2068.457845
3228.623399,-8142.265362,-1184.329507,-1455.581446
3228.623737,-9104.533087,-3034.844362,0.000000
3228.624074,-9548.656652,-4811.338623,2145.067394
3228.624411,-8364.327145,-5847.626942,3447.429741
3228.624749,-10288.862594,-3552.988522,3600.648841
3228.625086,-10436.903782,-1036.288319,3370.820191
3228.625424,-11399.171507,1110.308913,1302.362347
3228.625761,-11843.295072,2886.803174,-383.047749
3228.626099,-11547.212695,2812.782580,-2451.505594
3228.626436,-9992.780217,2442.679609,-1838.629195
3228.626773,-9474.636058,1258.350101,153.219100
3228.627111,-9696.697840,666.185348,1685.410096
3228.627448,-9844.739029,-592.164754,2451.505594
3228.627786,-10955.047942,-962.267725,2451.505594
3228.628123,-10510.924376,740.205942,3600.648841
3228.628461,-9844.739029,2590.720797,1762.019645
3228.628798,-11103.089130,4811.338623,-1149.143247
3228.629135,-11547.212695,4811.338623,-3217.601092
3228.629473,-9918.759623,4663.297435,-3294.210641
3228.629810,-8808.450710,3404.947333,-4136.915689
3228.630148,-9622.677246,3701.029710,-3294.210641
3228.630485,-9474.636058,1110.308913,-2221.676944
3228.630823,-9252.574275,-1332.370696,0.000000
3228.631160,-8660.409521,-3182.885551,3753.867940
3228.631497,-7920.203579,-1480.411884,3217.601092
3228.631835,-9474.636058,0.000000,3294.210641
3228.632172,-10658.965565,1480.411884,612.876398
3228.632510,-11103.089130,1702.473667,-1455.581446
3228.632847,-10436.903782,1332.370696,-1608.800546
3228.633185,-9252.574275,1776.494261,-2911.162892
3228.633522,-9400.615463,1776.494261,-1915.238745
3228.633859,-10732.986159,0.000000,-383.047749
3228.634197,-9992.780217,-2590.720797,536.266849
3228.634534,-9474.636058,-3997.112087,2528.115143
3228.634872,-9622.677246,-2664.741391,3983.696590
3228.635209,-10510.924376,-296.082377,2068.457845
3228.635547,-12361.439231,222.061783,-459.657299
3228.635884,-11251.130318,444.123565,-2374.896044
3228.636222,-9548.656652,-666.185348,-3524.039291
3228.636559,-10140.821405,-962.267725,-1838.629195
3228.636896,-10436.903782,-740.205942,-2374.896044
3228.637234,-11029.068536,-1554.432478,-1685.410096
3228.637571,-11399.171507,-3552.988522,76.609550
3228.637909,-10066.800811,-5699.585753,2221.676944
3228.638246,-8956.491898,-5107.421000,3370.820191
3228.638584,-10066.800811,-3404.947333,3524.039291
3228.638921,-10140.821405,-1110.308913,1915.238745
3228.639258,-10436.903782,-1628.453072,-459.657299
3228.639596,-10066.800811,-1554.432478,-459.657299
3228.639933,-8660.409521,-1850.514855,383.047749
3228.640271,-8512.368333,-740.205942,536.266849
3228.640608,-9992.780217,148.041188,1225.752797
3228.640946,-10584.944971,-2294.638420,2068.457845
3228.641283,-9474.636058,-2664.741391,3753.867940
3228.641620,-8216.285956,-2146.597232,4903.011187
3228.641958,-9548.656652,666.185348,4519.963438
3228.642295,-10955.047942,1702.473667,1378.971896
3228.642633,-10140.821405,1850.514855,-2221.676944
3228.642970,-7920.203579,592.164754,-2374.896044
3228.643308,-8068.244768,74.020594,-2221.676944
3228.643645,-9030.512492,592.164754,-1149.143247
3228.643982,-10732.986159,0.000000,-1762.019645
3228.644320,-10066.800811,-1850.514855,-1072.533697
3228.644657,-10732.986159,-2960.823768,1072.533697
3228.644995,-9770.718434,-3330.926739,3064.381992
3228.645332,-9474.636058,-962.267725,2451.505594
3228.645670,-11621.233289,0.000000,0.000000
3228.646007,-11325.150913,-740.205942,-1685.410096
3228.646344,-10288.862594,-1258.350101,-2221.676944
3228.646682,-9474.636058,-1998.556043,-1149.143247
3228.647019,-9178.553681,-592.164754,-1378.971896
3228.647357,-10436.903782,-1184.329507,-766.095498
3228.647694,-11547.212695,-1628.453072,842.705048
3228.648032,-10955.047942,-2664.741391,1915.238745
3228.648369,-9770.718434,-1184.329507,3524.039291
3228.648706,-9918.759623,296.082377,1685.410096
3228.649044,-10955.047942,1702.473667,-536.266849
3228.649381,-11177.109724,1998.556043,-1762.019645
3228.649719,-9326.594869,444.123565,-2374.896044
3228.650056,-8142.265362,0.000000,-1608.800546
3228.650394,-8438.347739,666.185348,-1532.190996
3228.650731,-10288.862594,1258.350101,-995.924147
3228.651068,-11325.150913,-740.205942,0.000000
3228.651406,-9844.739029,-888.247130,995.924147
3228.651743,-9474.636058,-518.144159,2451.505594
3228.652081,-10362.883188,1998.556043,2068.457845
3228.652418,-10881.027347,3775.050304,0.000000
3228.652756,-11843.295072,2294.638420,-1225.752797
3228.653093,-9326.594869,1776.494261,-1685.410096
3228.653430,-8660.409521,1628.453072,-995.924147
3228.653768,-9178.553681,1702.473667,1225.752797
3228.654105,-9696.697840,1184.329507,1608.800546
3228.654443,-10584.944971,-518.144159,2374.896044
3228.654780,-9992.780217,1110.308913,4290.134789
3228.655118,-9474.636058,1332.370696,4290.134789
3228.655455,-10732.986159,2886.803174,3677.258390
3228.655793,-11843.295072,4145.153275,306.438199
3228.656130,-10214.842000,3923.091493,-2298.286494
3228.656467,-9326.594869,2072.576638,-2451.505594
3228.656805,-8660.409521,444.123565,-1915.238745
3228.657142,-7772.162391,0.000000,-1378.971896
3228.657480,-9178.553681,-1332.370696,-1532.190996
3228.657817,-10066.800811,-2516.700203,459.657299
3228.658155,-9770.718434,-3478.967927,1762.019645
3228.658492,-9918.759623,-2812.782580,2528.115143
3228.658829,-10140.821405,-962.267725,459.657299
3228.659167,-11621.233289,-148.041188,-1608.800546
3228.659504,-11843.295072,-222.061783,-2374.896044
3228.659842,-10510.924376,-1702.473667,-2374.896044
3228.660179,-8586.388927,-2220.617826,-2068.457845
3228.660517,-9178.553681,-2442.679609,-1532.190996
3228.660854,-10658.965565,-3552.988522,459.657299
3228.661191,-11029.068536,-4737.318029,1532.190996
3228.661529,-9844.739029,-4737.318029,3677.258390
3228.661866,-10584.944971,-2368.659014,4596.572988
3228.662204,-11177.109724,-518.144159,2911.162892
3228.662541,-12287.418637,1480.411884,612.876398
3228.662879,-11843.295072,1332.370696,-1149.143247
3228.663216,-9474.636058,666.185348,-1225.752797
3228.663553,-8734.430116,0.000000,-383.047749
3228.663891,-9918.759623,0.000000,0.000000
3228.664228,-9844.739029,-814.226536,306.438199
3228.664566,-9696.697840,-2886.803174,1915.238745
3228.664903,-9622.677246,-2738.761985,2681.334243
3228.665241,-8882.471304,-2072.576638,3370.820191
3228.665578,-9622.677246,0.000000,2757.943793
3228.665915,-10362.883188,1184.329507,0.000000
3228.666253,-11251.130318,1554.432478,-1991.848295
3228.666590,-9548.656652,1258.350101,-2451.505594
3228.666928,-8438.347739,74.020594,-2451.505594
3228.667265,-8438.347739,518.144159,-1225.752797
3228.667603,-9104.533087,-2072.576638,383.047749
3228.667940,-9474.636058,-2294.638420,3294.210641
3228.668277,-9030.512492,-3034.844362,4903.011187
3228.668615,-10140.821405,-1702.473667,4903.011187
3228.668952,-11251.130318,1332.370696,2757.943793
3228.669290,-12213.398043,2960.823768,-459.657299
3228.669627,-11029.068536,2738.761985,-2451.505594
3228.669965,-9326.594869,1184.329507,-3524.039291
3228.670302,-8586.388927,888.247130,-1915.238745
3228.670639,-9474.636058,666.185348,-1685.410096
3228.670977,-9844.739029,-740.205942,-1991.848295
3228.671314,-10436.903782,-2664.741391,-306.438199
3228.671652,-10436.903782,-3108.864956,2374.896044
3228.671989,-10066.800811,-2220.617826,2757.943793
3228.672327,-11029.068536,0.000000,766.095498
3228.672664,-11917.315666,1184.329507,-1685.410096
3228.673001,-11399.171507,888.247130,-3294.210641
3228.673339,-10066.800811,-296.082377,-3140.991542
3228.673676,-8586.388927,0.000000,-2911.162892
3228.674014,-8808.450710,-592.164754,-995.924147
3228.674351,-9770.718434,-1776.494261,766.095498
3228.674689,-9918.759623,-2960.823768,2374.896044
3228.675026,-9178.553681,-2442.679609,3907.087040
3228.675364,-10214.842000,-888.247130,5592.497135
3228.675701,-10955.047942,1850.514855,3907.087040
3228.676038,-11769.274478,3923.091493,1225.752797
3228.676376,-10732.986159,3997.112087,-536.266849
3228.676713,-8734.430116,3256.906145,-919.314598
3228.677051,-8438.347739,2368.659014,0.000000
3228.677388,-9178.553681,3552.988522,842.705048
3228.677726,-9770.718434,1776.494261,0.000000
3228.678063,-9992.780217,370.102971,1762.019645
3228.678400,-9770.718434,-1036.288319,3753.867940
3228.678738,-9104.533087,0.000000,4136.915689
3228.679075,-10214.842000,2220.617826,2757.943793
3228.679413,-11547.212695,3256.906145,-536.266849
3228.679750,-10066.800811,2590.720797,-4136.915689
3228.680088,-9992.780217,740.205942,-4443.353888
3228.680425,-9104.533087,74.020594,-2221.676944
3228.680762,-8068.244768,-296.082377,-2298.286494
3228.681100,-9400.615463,-2368.659014,-995.924147
3228.681437,-9918.759623,-4145.153275,689.485948
3228.681775,-9326.594869,-5255.462188,3677.258390
3228.682112,-9770.718434,-2886.803174,5362.668486
3228.682450,-11843.295072,-1184.329507,2987.772442
3228.682787,-11991.336260,888.247130,-689.485948
3228.683124,-11325.150913,296.082377,-2145.067394
3228.683462,-10288.862594,-518.144159,-2068.457845
3228.683799,-8882.471304,-740.205942,-995.924147
3228.684137,-9178.553681,-1258.350101,-1149.143247
3228.684474,-10066.800811,-2220.617826,-306.438199
3228.684812,-10436.903782,-3552.988522,919.314598
3228.685149,-10436.903782,-4145.153275,3217.601092
3228.685486,-9548.656652,-3478.967927,2911.162892
3228.685824,-10510.924376,-1036.288319,2145.067394
3228.686161,-11769.274478,962.267725,-919.314598
3228.686499,-10658.965565,962.267725,-3217.601092
3228.686836,-10066.800811,0.000000,-3907.087040
3228.687174,-8660.409521,-1036.288319,-2451.505594
3228.687511,-8808.450710,-740.205942,-1378.971896
3228.687848,-10066.800811,-1924.535449,0.000000
3228.688186,-10140.821405,-2886.803174,2451.505594
3228.688523,-9400.615463,-2812.782580,4519.963438
3228.688861,-9252.574275,-1998.556043,5132.839837
3228.689198,-10732.986159,814.226536,3600.648841
3228.689536,-11917.315666,3034.844362,1149.143247
3228.689873,-11399.171507,3404.947333,-1072.533697
3228.690210,-8808.450710,2516.700203,-1608.800546
3228.690548,-7920.203579,2146.597232,-1149.143247
3228.690885,-8586.388927,2146.597232,153.219100
3228.691223,-9474.636058,296.082377,1378.971896
3228.691560,-9696.697840,-1184.329507,2298.286494
3228.691898,-9622.677246,-1924.535449,4136.915689
3228.692235,-9622.677246,-296.082377,4519.963438
3228.692572,-10955.047942,1110.308913,2221.676944
3228.692910,-11399.171507,2368.659014,-2221.676944
3228.693247,-10288.862594,1776.494261,-4136.915689
3228.693585,-10066.800811,518.144159,-3983.696590
3228.693922,-8216.285956,-148.041188,-3447.429741
3228.694260,-8290.306550,-1406.391290,-2681.334243
3228.694597,-10140.821405,-2072.576638,-1685.410096
3228.694935,-10436.903782,-3701.029710,229.828649
3228.695272,-11177.109724,-3923.091493,2757.943793
3228.695609,-10140.821405,-2812.782580,3217.601092
3228.695947,-11251.130318,-962.267725,2987.772442
3228.696284,-12657.521608,888.247130,689.485948
3228.696622,-11547.212695,1258.350101,-1149.143247
3228.696959,-10214.842000,740.205942,-1532.190996
3228.697297,-9548.656652,0.000000,-612.876398
3228.697634,-9252.574275,296.082377,919.314598
3228.697971,-9918.759623,-296.082377,1532.190996
3228.698309,-10362.883188,-1258.350101,2681.334243
3228.698646,-10362.883188,-1554.432478,3140.991542
3228.698984,-9844.739029,370.102971,4290.134789
3228.699321,-10881.027347,2368.659014,2145.067394
3228.699659,-10732.986159,2812.782580,-1532.190996
3228.699996,-10066.800811,3404.947333,-3294.210641
3228.700333,-9252.574275,1702.473667,-2911.162892
3228.700671,-7772.162391,2072.576638,-2757.943793
3228.701008,-7920.203579,592.164754,-2681.334243
3228.701346,-9474.636058,-592.164754,-229.828649
3228.701683,-9178.553681,-2294.638420,1915.238745
3228.702021,-9252.574275,-1332.370696,4060.306139
3228.702358,-9252.574275,-444.123565,4213.525239
3228.702695,-10955.047942,2072.576638,1838.629195
3228.703033,-12287.418637,2664.741391,-459.657299
3228.703370,-10732.986159,3182.885551,-2834.553343
3228.703708,-9474.636058,1702.473667,-1915.238745
3228.704045,-9474.636058,1036.288319,-995.924147
3228.704383,-8586.388927,0.000000,-842.705048
3228.704720,-9918.759623,-666.185348,842.705048
3228.705057,-10658.965565,-2590.720797,2681.334243
3228.705395,-10436.903782,-3404.947333,4060.306139
3228.705732,-9992.780217,-1332.370696,4596.572988
3228.706069,-11621.233289,148.041188,2068.457845
3228.706407,-10955.047942,2146.597232,-2451.505594
3228.706744,-10955.047942,1110.308913,-4290.134789
3228.707081,-10140.821405,-814.226536,-3524.039291
3228.707419,-8216.285956,-1702.473667,-2604.724693
3228.707756,-8512.368333,-2886.803174,-2068.457845
3228.708093,-9474.636058,-3627.009116,-1225.752797
3228.708431,-9548.656652,-6217.729913,689.485948
3228.708768,-10066.800811,-5181.441594,2451.505594
3228.709105,-9844.739029,-3849.070898,3677.258390
3228.709443,-11325.150913,-1036.288319,2911.162892
3228.709780,-11621.233289,0.000000,-306.438199
3228.710117,-11399.171507,740.205942,-1991.848295
3228.710455,-9252.574275,-518.144159,-1455.581446
3228.710792,-9030.512492,-518.144159,459.657299
3228.711129,-9474.636058,-370.102971,2528.115143
3228.711467,-9992.780217,0.000000,1455.581446
3228.711804,-9918.759623,-2072.576638,3217.601092
3228.712141,-10732.986159,-1702.473667,4290.134789
3228.712479,-9992.780217,0.000000,4749.792088
3228.712816,-10955.047942,2220.617826,2451.505594
3228.713154,-10807.006753,3997.112087,-1838.629195
3228.713491,-9918.759623,3849.070898,-4596.572988
3228.713828,-9548.656652,2960.823768,-3600.648841
3228.714166,-8586.388927,1850.514855,-3294.210641
3228.714503,-7846.182985,0.000000,-2834.553343
3228.714840,-9030.512492,-1036.288319,-995.924147
3228.715178,-9252.574275,-2442.679609,153.219100
3228.715515,-8956.491898,-3478.967927,2987.772442
3228.715852,-9474.636058,-1702.473667,3677.258390
3228.716190,-10955.047942,0.000000,1915.238745
3228.716527,-12583.501014,2294.638420,-1762.019645
3228.716864,-10510.924376,1480.411884,-3447.429741
3228.717202,-8956.491898,0.000000,-3600.648841
3228.717539,-8142.265362,-888.247130,-1455.581446
3228.717876,-9326.594869,-1332.370696,612.876398
3228.718214,-10362.883188,-1480.411884,1532.190996
3228.718551,-10140.821405,-3627.009116,2757.943793
3228.718888,-10881.027347,-2960.823768,3983.696590
3228.719226,-10955.047942,-1036.288319,4213.525239
3228.719563,-11769.274478,1184.329507,2681.334243
3228.719900,-11991.336260,2146.597232,-612.876398
3228.720238,-11251.130318,1628.453072,-2834.553343
3228.720575,-9770.718434,1480.411884,-3370.820191
3228.720912,-9252.574275,518.144159,-1838.629195
3228.721250,-9252.574275,-222.061783,-1532.190996
3228.721587,-9844.739029,-1332.370696,-995.924147
3228.721925,-10362.883188,-2738.761985,383.047749
3228.722262,-9548.656652,-3034.844362,2451.505594
3228.722599,-10066.800811,-740.205942,2987.772442
3228.722937,-11473.192101,1036.288319,2068.457845
3228.723274,-11843.295072,2368.659014,-1302.362347
3228.723611,-10140.821405,2886.803174,-1915.238745
3228.723949,-9622.677246,1480.411884,-1532.190996
3228.724286,-8068.244768,1554.432478,-383.047749
3228.724623,-9400.615463,592.164754,1149.143247
3228.724961,-9622.677246,370.102971,2528.115143
3228.725298,-8660.409521,-962.267725,3294.210641
3228.725635,-9696.697840,-1036.288319,5132.839837
3228.725973,-9844.739029,1036.288319,5515.887586
3228.726310,-10732.986159,3108.864956,2451.505594
3228.726647,-11399.171507,4441.235652,-1378.971896
3228.726985,-10362.883188,3775.050304,-4903.011187
3228.727322,-9548.656652,2664.741391,-4366.744339
3228.727659,-8512.368333,1480.411884,-2757.943793
3228.727997,-8142.265362,0.000000,-2911.162892
3228.728334,-9104.533087,-1998.556043,-1378.971896
3228.728671,-9474.636058,-3775.050304,0.000000
3228.729009,-9474.636058,-3404.947333,3064.381992
3228.729346,-10436.903782,-1850.514855,2451.505594
3228.729683,-12435.459826,-592.164754,383.047749
3228.730021,-12879.583391,148.041188,-3217.601092
3228.730358,-11251.130318,0.000000,-2681.334243
3228.730696,-9030.512492,-1036.288319,-3140.991542
3228.731033,-8364.327145,-3552.988522,-612.876398
3228.731370,-9770.718434,-3404.947333,-306.438199
3228.731708,-9400.615463,-4737.318029,1302.362347
3228.732045,-10658.965565,-4885.359217,3140.991542
3228.732382,-10584.944971,-4515.256246,4749.792088
3228.732720,-11103.089130,-2812.782580,4903.011187
3228.733057,-11251.130318,0.000000,2374.896044
3228.733394,-10881.027347,148.041188,-153.219100
3228.733732,-10140.821405,1036.288319,-536.266849
3228.734069,-8882.471304,0.000000,-1532.190996
3228.734406,-8734.430116,0.000000,-229.828649
3228.734744,-9696.697840,0.000000,0.000000
3228.735081,-9770.718434,-1850.514855,0.000000
3228.735418,-9918.759623,-2368.659014,995.924147
3228.735756,-9474.636058,-2664.741391,2911.162892
3228.736093,-9252.574275,-888.247130,2604.724693
3228.736430,-11177.109724,740.205942,536.266849
3228.736768,-11325.150913,2516.700203,-2451.505594
3228.737105,-10732.986159,1850.514855,-3064.381992
3228.737442,-9548.656652,1480.411884,-1915.238745
3228.737780,-8734.430116,666.185348,-842.705048
3228.738117,-9326.594869,-370.102971,0.000000
3228.738455,-9548.656652,-1406.391290,2374.896044
3228.738792,-9400.615463,-2664.741391,3830.477490
3228.739129,-10436.903782,-1554.432478,5439.278036
3228.739467,-10955.047942,740.205942,4749.792088
3228.739804,-11769.274478,2664.741391,1762.019645
3228.740141,-11843.295072,3552.988522,-1608.800546
3228.740479,-10288.862594,2294.638420,-3064.381992
3228.740816,-8882.471304,1850.514855,-2834.553343
3228.741153,-7846.182985,592.164754,-1838.629195
3228.741491,-7994.224174,-370.102971,-1532.190996
3228.741828,-9548.656652,-1924.535449,-919.314598
3228.742165,-10362.883188,-3256.906145,229.828649
3228.742503,-9918.759623,-2072.576638,2451.505594
3228.742840,-10584.944971,-1554.432478,2528.115143
3228.743177,-11251.130318,444.123565,0.000000
3228.743515,-11325.150913,814.226536,-3140.991542
3228.743852,-10436.903782,74.020594,-3064.381992
3228.744189,-8660.409521,-888.247130,-2681.334243
3228.744527,-9326.594869,-2146.597232,-612.876398
3228.744864,-9770.718434,-1480.411884,76.609550
3228.745201,-9918.759623,-2664.741391,766.095498
3228.745539,-10584.944971,-3256.906145,3064.381992
3228.745876,-10658.965565,-2812.782580,4366.744339
3228.746213,-10436.903782,148.041188,4673.182538
3228.746551,-11695.253884,2368.659014,2298.286494
3228.746888,-11769.274478,2812.782580,-536.266849
3228.747226,-10436.903782,2294.638420,-1838.629195
3228.747563,-9252.574275,1480.411884,-766.095498
3228.747900,-8512.368333,2368.659014,-229.828649
3228.748238,-9474.636058,1332.370696,-459.657299
3228.748575,-9622.677246,-370.102971,-459.657299
3228.748912,-9252.574275,-1776.494261,766.095498
3228.749250,-9030.512492,-1036.288319,3524.039291
3228.749587,-9696.697840,888.247130,3140.991542
3228.749924,-10807.006753,1998.556043,-995.924147
3228.750262,-11251.130318,3108.864956,-3677.258390
3228.750599,-10436.903782,1776.494261,-3907.087040
3228.750936,-9252.574275,0.000000,-2604.724693
3228.751274,-8438.347739,-592.164754,-1762.019645
3228.751611,-8808.450710,-1258.350101,-383.047749
3228.751948,-9844.739029,-3108.864956,842.705048
3228.752286,-9548.656652,-4219.173869,2451.505594
3228.752623,-10436.903782,-3404.947333,4826.401637
3228.752960,-11473.192101,-1184.329507,4213.525239
3228.753298,-11917.315666,148.041188,1149.143247
3228.753635,-11473.192101,1628.453072,-995.924147
3228.753972,-11029.068536,740.205942,-1608.800546
3228.754310,-9400.615463,-592.164754,-1225.752797
3228.754647,-9104.533087,-1036.288319,-306.438199
3228.754984,-8882.471304,-1406.391290,-459.657299
3228.755322,-10288.862594,-2516.700203,536.266849
3228.755659,-10732.986159,-4293.194464,1302.362347
3228.755997,-9252.574275,-3775.050304,3370.820191
3228.756334,-10436.903782,-2220.617826,3830.477490
3228.756671,-11399.171507,222.061783,0.000000
3228.757009,-11325.150913,814.226536,-3294.210641
3228.757346,-10510.924376,0.000000,-2911.162892
3228.757683,-8660.409521,-1406.391290,-1915.238745
3228.758021,-8364.327145,-1628.453072,0.000000
3228.758358,-9844.739029,-1702.473667,229.828649
3228.758695,-9770.718434,-2886.803174,76.609550
3228.759033,-9178.553681,-3478.967927,2145.067394
3228.759370,-10066.800811,-1924.535449,4596.572988
3228.759707,-10066.800811,-296.082377,4366.744339
3228.760045,-11473.192101,1924.535449,1608.800546
3228.760382,-11695.253884,2960.823768,-612.876398
3228.760719,-10436.903782,2886.803174,-2374.896044
3228.761057,-8882.471304,2368.659014,-1455.581446
3228.761394,-8364.327145,2072.576638,-689.485948
3228.761731,-8660.409521,444.123565,153.219100
3228.762069,-9474.636058,518.144159,383.047749
3228.762406,-10436.903782,-1332.370696,2298.286494
3228.762743,-9474.636058,0.000000,3447.429741
3228.763081,-11029.068536,962.267725,3217.601092
3228.763418,-11843.295072,2590.720797,-689.485948
3228.763756,-11029.068536,2812.782580,-4366.744339
3228.764093,-10436.903782,814.226536,-3830.477490
3228.764430,-7994.224174,-592.164754,-2451.505594
3228.764768,-7328.038826,-1258.350101,-1762.019645
3228.765105,-8956.491898,-1702.473667,-536.266849
3228.765442,-9844.739029,-3701.029710,0.000000
3228.765780,-10214.842000,-3701.029710,1149.143247
3228.766117,-10584.944971,-3256.906145,3370.820191
3228.766454,-11029.068536,-1628.453072,3907.087040
3228.766792,-11991.336260,296.082377,1225.752797
3228.767129,-11399.171507,592.164754,-1225.752797
3228.767466,-10362.883188,74.020594,-2145.067394
3228.767804,-9252.574275,-296.082377,-995.924147
3228.768141,-8882.471304,0.000000,153.219100
3228.768478,-10140.821405,296.082377,383.047749
3228.768816,-9770.718434,-1850.514855,536.266849
3228.769153,-10510.924376,-1850.514855,2068.457845
3228.769490,-10288.862594,-814.226536,4060.306139
3228.769828,-10362.883188,888.247130,3447.429741
3228.770165,-12213.398043,2368.659014,0.000000
3228.770502,-11103.089130,2442.679609,-3370.820191
3228.770840,-9622.677246,1702.473667,-3140.991542
3228.771177,-9178.553681,814.226536,-1532.190996
3228.771514,-8438.347739,222.061783,-1532.190996
3228.771852,-8956.491898,-370.102971,-1608.800546
3228.772189,-9622.677246,-1924.535449,0.000000
3228.772527,-9622.677246,-2146.597232,2681.334243
3228.772864,-9474.636058,-2072.576638,4290.134789
3228.773201,-10214.842000,370.102971,3370.820191
3228.773539,-11843.295072,1998.556043,842.705048
3228.773876,-10732.986159,2442.679609,-1455.581446
3228.774213,-9770.718434,1480.411884,-1455.581446
3228.774551,-8586.388927,888.247130,-689.485948
3228.774888,-8586.388927,444.123565,0.000000
3228.775225,-9178.553681,222.061783,0.000000
3228.775563,-9474.636058,-2072.576638,689.485948
3228.775900,-9770.718434,-2886.803174,2987.772442
3228.776237,-8956.491898,-2368.659014,4673.182538
3228.776575,-10732.986159,0.000000,3064.381992
3228.776912,-12287.418637,2220.617826,-536.266849
3228.777249,-11695.253884,1258.350101,-3983.696590
3228.777587,-9918.759623,370.102971,-3217.601092
3228.777924,-9030.512492,-1184.329507,-1608.800546
3228.778261,-9030.512492,-1110.308913,-842.705048
3228.778599,-9474.636058,-2812.782580,-2298.286494
3228.778936,-10214.842000,-3775.050304,-919.314598
3228.779273,-10584.944971,-5033.400406,1149.143247
3228.779611,-10436.903782,-3923.091493,3370.820191
3228.779948,-11251.130318,-1554.432478,2757.943793
3228.780285,-12361.439231,-370.102971,536.266849
3228.780623,-11399.171507,74.020594,-1608.800546
3228.780960,-9770.718434,-1036.288319,-2221.676944
3228.781298,-9474.636058,-666.185348,229.828649
3228.781635,-8956.491898,-740.205942,1532.190996
3228.781972,-10066.800811,-74.020594,1991.848295
3228.782310,-10436.903782,-1036.288319,1378.971896
3228.782647,-9770.718434,-1554.432478,2145.067394
3228.782984,-10140.821405,-666.185348,3983.696590
3228.783322,-10288.862594,1036.288319,3370.820191
3228.783659,-10955.047942,2886.803174,306.438199
3228.783996,-10732.986159,3108.864956,-2451.505594
3228.784334,-9178.553681,2220.617826,-3217.601092
3228.784671,-8882.471304,1480.411884,-1991.848295
3228.785008,-8142.265362,1776.494261,-766.095498
3228.785346,-9104.533087,666.185348,-1378.971896
3228.785683,-9548.656652,-1184.329507,306.438199
3228.786020,-9252.574275,-2442.679609,2528.115143
3228.786358,-9474.636058,-1258.350101,3983.696590
3228.786695,-10732.986159,296.082377,2757.943793
3228.787032,-12139.377449,2220.617826,229.828649
3228.787370,-11103.089130,1332.370696,-3294.210641
3228.787707,-9696.697840,370.102971,-2528.115143
3228.788044,-8364.327145,0.000000,-1532.190996
3228.788382,-8142.265362,-370.102971,0.000000
3228.788719,-9548.656652,-666.185348,-612.876398
3228.789057,-10584.944971,-2368.659014,766.095498
3228.789394,-10214.842000,-2442.679609,2451.505594
3228.789731,-10214.842000,-1258.350101,3677.258390
3228.790069,-11325.150913,518.144159,4060.306139
3228.790406,-12435.459826,1554.432478,0.000000
3228.790743,-11103.089130,1998.556043,-3064.381992
3228.791081,-9548.656652,-296.082377,-2681.334243
3228.791418,-8956.491898,-296.082377,-689.485948
3228.791755,-8290.306550,-1036.288319,-842.705048
3228.792093,-10066.800811,-1036.288319,-1685.410096
3228.792430,-9918.759623,-2368.659014,-1532.190996
3228.792767,-10510.924376,-3478.967927,842.705048
3228.793105,-9696.697840,-2368.659014,2987.772442
3228.793442,-10140.821405,-592.164754,1608.800546
3228.793779,-12065.356855,1480.411884,536.266849
3228.794117,-11473.192101,740.205942,-1608.800546
3228.794454,-9252.574275,-148.041188,-1915.238745
3228.794791,-8882.471304,0.000000,306.438199
3228.795129,-8734.430116,148.041188,1225.752797
3228.795466,-10140.821405,148.041188,1072.533697
3228.795803,-10214.842000,-814.226536,1532.190996
3228.796141,-9474.636058,-666.185348,3064.381992
3228.796478,-9326.594869,444.123565,4443.353888
3228.796815,-10807.006753,2368.659014,3447.429741
3228.797153,-12213.398043,3997.112087,612.876398
3228.797490,-10214.842000,3627.009116,-2451.505594
3228.797828,-8956.491898,2368.659014,-1991.848295
3228.798165,-8660.409521,1554.432478,-995.924147
3228.798502,-8660.409521,1036.288319,-229.828649
3228.798840,-9474.636058,0.000000,-689.485948
3228.799177,-9918.759623,-2294.638420,-383.047749
3228.799514,-9622.677246,-2442.679609,1838.629195
3228.799852,-9548.656652,-2294.638420,2987.772442
3228.800189,-10881.027347,-370.102971,1532.190996
3228.800526,-11473.192101,666.185348,-1762.019645
3228.800864,-11251.130318,518.144159,-3294.210641
3228.801201,-10510.924376,-962.267725,-1762.019645
3228.801538,-8734.430116,-1406.391290,-1685.410096
3228.801876,-9326.594869,-1850.514855,0.000000
3228.802213,-10140.821405,-2738.761985,0.000000
3228.802550,-10510.924376,-3034.844362,689.485948
3228.802888,-9992.780217,-3701.029710,2987.772442
3228.803225,-9918.759623,-2590.720797,4290.134789
3228.803562,-11103.089130,-444.123565,2528.115143
3228.803900,-12657.521608,888.247130,383.047749
3228.804237,-10732.986159,1480.411884,-1915.238745
3228.804574,-9548.656652,-518.144159,-1072.533697
3228.804912,-8956.491898,0.000000,766.095498
3228.805249,-8438.347739,222.061783,0.000000
3228.805586,-10288.862594,-518.144159,0.000000
3228.805924,-10955.047942,-2072.576638,153.219100
3228.806261,-9844.739029,-2220.617826,1991.848295
3228.806598,-9918.759623,-740.205942,3140.991542
3228.806935,-9844.739029,0.000000,1838.629195
3228.807272,-11251.130318,1480.411884,-842.705048
3228.807610,-10658.965565,1480.411884,-2451.505594
3228.807947,-9770.718434,1332.370696,-2068.457845
3228.808284,-8734.430116,1036.288319,-919.314598
3228.808621,-8512.368333,518.144159,-383.047749
3228.808958,-9474.636058,-148.041188,919.314598
3228.809296,-9696.697840,-1628.453072,2604.724693
3228.809633,-9030.512492,-740.205942,4519.963438
3228.809970,-9844.739029,148.041188,5362.668486
3228.810307,-11695.253884,2368.659014,3830.477490
3228.810645,-12509.480420,3627.009116,0.000000
3228.810982,-10881.027347,3256.906145,-2528.115143
3228.811319,-9030.512492,1776.494261,-1991.848295
3228.811656,-8142.265362,0.000000,0.000000
3228.811993,-8364.327145,296.082377,0.000000
3228.812331,-8290.306550,-444.123565,-1532.190996
3228.812668,-10140.821405,-1998.556043,76.609550
3228.813005,-11399.171507,-2664.741391,1838.629195
3228.813342,-9992.780217,-1998.556043,2451.505594
3228.813679,-10881.027347,296.082377,1149.143247
3228.814017,-11843.295072,592.164754,-2451.505594
3228.814354,-10955.047942,-370.102971,-3677.258390
3228.814691,-9992.780217,-1480.411884,-2298.286494
3228.815028,-8290.306550,-1702.473667,-1532.190996
3228.815365,-8586.388927,-1184.329507,-1532.190996
3228.815703,-10658.965565,-2516.700203,-842.705048
3228.816040,-10288.862594,-3849.070898,0.000000
3228.816377,-10436.903782,-4219.173869,3217.601092
3228.816714,-10362.883188,-1258.350101,4596.572988
3228.817052,-11473.192101,444.123565,2911.162892
3228.817389,-12583.501014,2368.659014,459.657299
3228.817726,-11103.089130,1850.514855,-1532.190996
3228.818063,-9252.574275,1110.308913,-612.876398
3228.818400,-9030.512492,1184.329507,459.657299
3228.818738,-9178.553681,1184.329507,459.657299
3228.819075,-9918.759623,814.226536,383.047749
3228.819412,-10140.821405,-370.102971,306.438199
3228.819749,-9474.636058,-1258.350101,2298.286494
3228.820086,-9252.574275,-888.247130,3524.039291
3228.820424,-10362.883188,1702.473667,2374.896044
3228.820761,-10955.047942,3182.885551,-1838.629195
3228.821098,-10732.986159,2294.638420,-4443.353888
3228.821435,-9252.574275,1184.329507,-2757.943793
3228.821773,-9104.533087,-370.102971,-689.485948
3228.822110,-7772.162391,296.082377,229.828649
3228.822447,-9326.594869,-1036.288319,-536.266849
3228.822784,-10066.800811,-2886.803174,1838.629195
3228.823121,-9104.533087,-3182.885551,2757.943793
3228.823459,-10066.800811,-2368.659014,4903.011187
3228.823796,-11991.336260,740.205942,3753.867940
3228.824133,-11991.336260,2072.576638,-536.266849
3228.824470,-11029.068536,1776.494261,-2604.724693
3228.824807,-9844.739029,0.000000,-1685.410096
3228.825145,-8290.306550,-296.082377,76.609550
3228.825482,-8882.471304,-444.123565,536.266849
3228.825819,-9548.656652,-1258.350101,0.000000
3228.826156,-11029.068536,-2664.741391,383.047749
3228.826493,-10881.027347,-3182.885551,2145.067394
3228.826831,-10066.800811,-2146.597232,3600.648841
3228.827168,-10881.027347,-814.226536,1149.143247
3228.827505,-11695.253884,370.102971,-1762.019645
3228.827842,-10807.006753,222.061783,-4519.963438
3228.828180,-9770.718434,-962.267725,-3294.210641
3228.828517,-8142.265362,-1406.391290,-842.705048
3228.828854,-8216.285956,-1480.411884,-459.657299
3228.829191,-10510.924376,-1850.514855,76.609550
3228.829528,-10362.883188,-2738.761985,689.485948
3228.829866,-10066.800811,-2738.761985,2298.286494
3228.830203,-9696.697840,-1776.494261,5056.230287
3228.830540,-11473.192101,1036.288319,3983.696590
3228.830877,-12065.356855,2368.659014,612.876398
3228.831214,-10955.047942,2886.803174,-1378.971896
3228.831552,-9400.615463,2146.597232,-919.314598
3228.831889,-8882.471304,1036.288319,0.000000
3228.832226,-8660.409521,1998.556043,1149.143247
3228.832563,-9326.594869,1406.391290,1149.143247
3228.832900,-10066.800811,-444.123565,1455.581446
3228.833238,-9992.780217,-518.144159,2451.505594
3228.833575,-9474.636058,0.000000,4136.915689
3228.833912,-10658.965565,2886.803174,1838.629195
3228.834249,-11473.192101,3478.967927,-2681.334243
3228.834587,-11103.089130,2442.679609,-5286.058936
3228.834924,-9030.512492,296.082377,-4290.134789
3228.835261,-7772.162391,-518.144159,-1991.848295
3228.835598,-7476.080014,-1184.329507,-1225.752797
3228.835935,-9400.615463,-2368.659014,-1685.410096
3228.836273,-10214.842000,-2886.803174,153.219100
3228.836610,-10362.883188,-3182.885551,1838.629195
3228.836947,-9918.759623,-1850.514855,4213.525239
3228.837284,-12065.356855,0.000000,2987.772442
3228.837621,-12287.418637,888.247130,-536.266849
3228.837959,-10955.047942,962.267725,-1838.629195
3228.838296,-10214.842000,0.000000,-995.924147
3228.838633,-8808.450710,-962.267725,-76.609550
3228.838970,-8882.471304,-1036.288319,459.657299
3228.839308,-10362.883188,-518.144159,919.314598
3228.839645,-10584.944971,-2516.700203,1378.971896
3228.839982,-10955.047942,-2220.617826,2911.162892
3228.840319,-9622.677246,-962.267725,3907.087040
3228.840656,-10658.965565,1480.411884,2145.067394
3228.840994,-11325.150913,1924.535449,-1378.971896
3228.841331,-10881.027347,1628.453072,-3830.477490
3228.841668,-9696.697840,222.061783,-2145.067394
3228.842005,-8438.347739,296.082377,-1762.019645
3228.842342,-8438.347739,-740.205942,-1455.581446
3228.842680,-9548.656652,-814.226536,-689.485948
3228.843017,-9474.636058,-2516.700203,1302.362347
3228.843354,-8956.491898,-2516.700203,3370.820191
3228.843691,-9104.533087,-814.226536,4443.353888
3228.844028,-11547.212695,1036.288319,2834.553343
3228.844366,-12435.459826,2442.679609,-612.876398
3228.844703,-10510.924376,2368.659014,-2068.457845
3228.845040,-9252.574275,1776.494261,-995.924147
3228.845377,-9104.533087,1110.308913,536.266849
3228.845715,-8808.450710,962.267725,536.266849
3228.846052,-9326.594869,-740.205942,766.095498
3228.846389,-10436.903782,-2072.576638,2987.772442
3228.846726,-9844.739029,-2368.659014,3524.039291
3228.847063,-10140.821405,-888.247130,4366.744339
3228.847401,-10807.006753,1184.329507,1455.581446
3228.847738,-11029.068536,1776.494261,-2757.943793
3228.848075,-10955.047942,1924.535449,-4903.011187
3228.848412,-9400.615463,-370.102971,-3370.820191
3228.848749,-7698.141797,-1406.391290,-2911.162892
3228.849087,-8438.347739,-2072.576638,-1991.848295
3228.849424,-10288.862594,-3256.906145,-1532.190996
3228.849761,-10214.842000,-4663.297435,0.000000
3228.850098,-10066.800811,-4737.318029,2145.067394
3228.850435,-10288.862594,-3404.947333,3677.258390
3228.850773,-11991.336260,-1184.329507,1838.629195
3228.851110,-12361.439231,370.102971,-1225.752797
3228.851447,-10807.006753,-296.082377,-2374.896044
3228.851784,-9548.656652,-962.267725,-1608.800546
3228.852122,-8808.450710,-814.226536,536.266849
3228.852459,-9178.553681,-666.185348,2221.676944
3228.852796,-10288.862594,-444.123565,2145.067394
3228.853133,-10510.924376,-1776.494261,2681.334243
3228.853470,-11251.130318,-1850.514855,3217.601092
3228.853808,-10436.903782,148.041188,4519.963438
3228.854145,-11621.233289,2294.638420,3140.991542
3228.854482,-10955.047942,3330.926739,-995.924147
3228.854819,-9992.780217,2590.720797,-3677.258390
3228.855156,-8808.450710,2220.617826,-2987.772442
3228.855494,-7920.203579,1628.453072,-2911.162892
3228.855831,-7920.203579,1332.370696,-2068.457845
3228.856168,-9622.677246,-370.102971,-842.705048
3228.856505,-9252.574275,-2294.638420,919.314598
3228.856843,-8512.368333,-1776.494261,3753.867940
3228.857180,-9400.615463,-814.226536,4596.572988
3228.857517,-11769.274478,1850.514855,2374.896044
3228.857854,-12361.439231,3182.885551,-2298.286494
3228.858191,-10584.944971,2886.803174,-3370.820191
3228.858529,-9844.739029,148.041188,-2528.115143
3228.858866,-7920.203579,148.041188,-459.657299
3228.859203,-8068.244768,0.000000,536.266849
3228.859540,-9548.656652,-1628.453072,1149.143247
3228.859877,-9992.780217,-1850.514855,2068.457845
3228.860215,-11029.068536,-2220.617826,4136.915689
3228.860552,-10881.027347,-666.185348,3907.087040
3228.860889,-11399.171507,1332.370696,1685.410096
3228.861226,-12435.459826,2590.720797,-2374.896044
3228.861563,-10955.047942,1554.432478,-3907.087040
3228.861901,-9326.594869,-74.020594,-3830.477490
3228.862238,-7846.182985,-666.185348,-2757.943793
3228.862575,-7698.141797,-962.267725,-2451.505594
3228.862912,-10066.800811,-2664.741391,-1225.752797
3228.863250,-11547.212695,-3849.070898,76.609550
3228.863587,-9178.553681,-4071.132681,1608.800546
3228.863924,-10436.903782,-2664.741391,2987.772442
3228.864261,-11621.233289,-518.144159,2528.115143
3228.864598,-12139.377449,962.267725,-1378.971896
3228.864936,-10510.924376,740.205942,-1838.629195
3228.865273,-9030.512492,0.000000,-1608.800546
3228.865610,-9030.512492,-296.082377,536.266849
3228.865947,-9770.718434,-666.185348,2604.724693
3228.866284,-9770.718434,-1184.329507,3064.381992
3228.866622,-10066.800811,-740.205942,4519.963438
3228.866959,-10436.903782,-1628.453072,4826.401637
3228.867296,-9844.739029,-592.164754,5362.668486
3228.867633,-10955.047942,1998.556043,3677.258390
3228.867970,-11399.171507,3997.112087,-612.876398
3228.868308,-10510.924376,3775.050304,-3217.601092
3228.868645,-8956.491898,2368.659014,-4213.525239
3228.868982,-7920.203579,1332.370696,-2145.067394
3228.869319,-7698.141797,-222.061783,-1915.238745
3228.869657,-8512.368333,-1480.411884,-766.095498
3228.869994,-9844.739029,-2664.741391,1149.143247
3228.870331,-9474.636058,-3552.988522,3524.039291
3228.870668,-9844.739029,-1850.514855,2451.505594
3228.871005,-11325.150913,-148.041188,0.000000
3228.871343,-12509.480420,1776.494261,-2757.943793
3228.871680,-10436.903782,222.061783,-3830.477490
3228.872017,-9474.636058,-592.164754,-2834.553343
3228.872354,-7846.182985,-1332.370696,-2834.553343
3228.872691,-9178.553681,-2368.659014,536.266849
3228.873029,-10881.027347,-3108.864956,1532.190996
3228.873366,-10732.986159,-3997.112087,2528.115143
3228.873703,-11325.150913,-3330.926739,3830.477490
3228.874040,-10955.047942,-1850.514855,4060.306139
3228.874378,-11399.171507,0.000000,2221.676944
3228.874715,-12139.377449,1776.494261,-536.266849
3228.875052,-10658.965565,1332.370696,-2374.896044
3228.875389,-9548.656652,888.247130,-3447.429741
3228.875726,-8216.285956,0.000000,-2528.115143
3228.876064,-8142.265362,-518.144159,-1378.971896
3228.876401,-10288.862594,-1628.453072,0.000000
3228.876738,-10436.903782,-2368.659014,1455.581446
3228.877075,-9622.677246,-2294.638420,2681.334243
3228.877412,-10140.821405,-1184.329507,2911.162892
3228.877750,-11029.068536,666.185348,1302.362347
3228.878087,-11029.068536,2220.617826,-2145.067394
3228.878424,-10362.883188,2146.597232,-1915.238745
3228.878761,-9030.512492,888.247130,-2221.676944
3228.879098,-8068.244768,296.082377,-919.314598
3228.879436,-9030.512492,-370.102971,1225.752797
3228.879773,-9474.636058,-592.164754,2911.162892
3228.880110,-9548.656652,-1628.453072,4290.134789
3228.880447,-10288.862594,-1332.370696,6281.983084
3228.880785,-11399.171507,1480.411884,5975.544884
3228.881122,-11843.295072,2812.782580,2987.772442
3228.881459,-11621.233289,4959.379811,-1302.362347
3228.881796,-10658.965565,3330.926739,-2757.943793
3228.882133,-9400.615463,2220.617826,-2298.286494
3228.882471,-7179.997637,1184.329507,-2145.067394
3228.882808,-8290.306550,0.000000,-1685.410096
3228.883145,-9104.533087,-2294.638420,-842.705048
3228.883482,-10214.842000,-3182.885551,995.924147
3228.883819,-10732.986159,-2664.741391,3524.039291
3228.884157,-10658.965565,-444.123565,2145.067394
3228.884494,-11843.295072,444.123565,-919.314598
3228.884831,-12213.398043,1036.288319,-3677.258390
3228.885168,-10288.862594,-222.061783,-3983.696590
3228.885505,-8734.430116,-1406.391290,-2221.676944
3228.885843,-8586.388927,-2146.597232,-2068.457845
3228.886180,-9474.636058,-2664.741391,-689.485948
3228.886517,-10807.006753,-3552.988522,1072.533697
3228.886854,-10732.986159,-4515.256246,2757.943793
3228.887192,-11177.109724,-3256.906145,3830.477490
3228.887529,-10658.965565,-1924.535449,4443.353888
3228.887866,-11177.109724,1554.432478,2145.067394
3228.888203,-11695.253884,2368.659014,-459.657299
3228.888540,-10955.047942,1850.514855,-1915.238745
3228.888878,-8290.306550,1332.370696,-2757.943793
3228.889215,-8142.265362,740.205942,-1838.629195
3228.889552,-9548.656652,962.267725,229.828649
3228.889889,-9548.656652,-740.205942,689.485948
3228.890226,-10066.800811,-1850.514855,2068.457845
3228.890564,-9918.759623,-1850.514855,2987.772442
3228.890901,-9548.656652,0.000000,3217.601092
3228.891238,-11251.130318,2294.638420,0.000000
3228.891575,-11251.130318,3182.885551,-3217.601092
3228.891913,-9474.636058,1850.514855,-3753.867940
3228.892250,-8586.388927,444.123565,-3064.381992
3228.892587,-7920.203579,222.061783,-995.924147
3228.892924,-9326.594869,-888.247130,0.000000
3228.893261,-9178.553681,-2738.761985,1915.238745
3228.893599,-10140.821405,-3404.947333,4749.792088
3228.893936,-11177.109724,-3256.906145,5745.716235
3228.894273,-10436.903782,-1036.288319,4903.011187
3228.894610,-11843.295072,1110.308913,2298.286494
3228.894947,-11991.336260,2294.638420,-536.266849
3228.895285,-10214.842000,1850.514855,-2451.505594
3228.895622,-9104.533087,74.020594,-2528.115143
3228.895959,-7846.182985,74.020594,-2221.676944
3228.896296,-8808.450710,-1258.350101,-995.924147
3228.896633,-9992.780217,-2146.597232,536.266849
3228.896971,-10658.965565,-3478.967927,1149.143247
3228.897308,-10658.965565,-3330.926739,2987.772442
3228.897645,-10658.965565,-1850.514855,2604.724693
3228.897982,-11695.253884,222.061783,0.000000
3228.898320,-11769.274478,1480.411884,-2757.943793
3228.898657,-10436.903782,222.061783,-3830.477490
3228.898994,-8882.471304,-1332.370696,-3447.429741
3228.899331,-7846.182985,-2146.597232,-1762.019645
3228.899668,-9548.656652,-1258.350101,153.219100
3228.900006,-10288.862594,-2294.638420,1915.238745
3228.900343,-10510.924376,-3404.947333,3217.601092
3228.900680,-10732.986159,-2738.761985,4136.915689
3228.901017,-10955.047942,-518.144159,4136.915689
3228.901354,-10436.903782,2220.617826,2528.115143
3228.901692,-12139.377449,2220.617826,459.657299
3228.902029,-10584.944971,3404.947333,-1532.190996
3228.902366,-8660.409521,2368.659014,-3447.429741
3228.902703,-8512.368333,1998.556043,-1149.143247
3228.903040,-8586.388927,1480.411884,229.828649
3228.903378,-9326.594869,0.000000,1915.238745
3228.903715,-9548.656652,-666.185348,2528.115143
3228.904052,-9474.636058,-74.020594,3294.210641
3228.904389,-10436.903782,1406.391290,2987.772442
3228.904727,-11547.212695,3182.885551,-689.485948
3228.905064,-11029.068536,4293.194464,-3600.648841
3228.905401,-9770.718434,2368.659014,-4519.963438
3228.905738,-8438.347739,0.000000,-3983.696590
3228.906075,-7476.080014,-1110.308913,-2451.505594
3228.906413,-8290.306550,-2072.576638,-1072.533697
3228.906750,-9622.677246,-3182.885551,1838.629195
3228.907087,-10732.986159,-4071.132681,2451.505594
3228.907424,-11103.089130,-3552.988522,4060.306139
3228.907762,-11103.089130,-1480.411884,3217.601092
3228.908099,-11769.274478,518.144159,1685.410096
3228.908436,-12435.459826,1702.473667,-229.828649
3228.908773,-10362.883188,444.123565,-3217.601092
3228.909111,-9178.553681,74.020594,-2757.943793
3228.909448,-8364.327145,-370.102971,-1225.752797
3228.909785,-9918.759623,-888.247130,-153.219100
3228.910122,-10362.883188,-1998.556043,1532.190996
3228.910460,-10955.047942,-2812.782580,2528.115143
3228.910797,-10658.965565,-2442.679609,2834.553343
3228.911134,-11325.150913,-592.164754,2911.162892
3228.911471,-11399.171507,2294.638420,306.438199
3228.911809,-11177.109724,1776.494261,-1915.238745
3228.912146,-9400.615463,962.267725,-3217.601092
3228.912483,-8364.327145,296.082377,-3064.381992
3228.912821,-8438.347739,-740.205942,-1072.533697
3228.913158,-9030.512492,-1258.350101,-612.876398
3228.913495,-9474.636058,-3108.864956,1225.752797
3228.913832,-10066.800811,-2664.741391,2604.724693
3228.914170,-9918.759623,-2664.741391,4290.134789
3228.914507,-9992.780217,-962.267725,3677.258390
3228.914844,-10362.883188,1406.391290,1685.410096
3228.915181,-11547.212695,3108.864956,-306.438199
3228.915519,-10955.047942,2590.720797,-1915.238745
3228.915856,-7846.182985,1850.514855,-2834.553343
3228.916193,-8216.285956,1480.411884,-995.924147
3228.916530,-9326.594869,-148.041188,536.266849
3228.916868,-9474.636058,-962.267725,1915.238745
3228.917205,-10066.800811,-1850.514855,3983.696590
3228.917542,-10362.883188,-1628.453072,4519.963438
3228.917879,-11103.089130,814.226536,2604.724693
3228.918217,-12139.377449,2442.679609,-383.047749
3228.918554,-11325.150913,2738.761985,-3524.039291
3228.918891,-9178.553681,1110.308913,-4443.353888
3228.919228,-8660.409521,-74.020594,-3140.991542
3228.919566,-7920.203579,-1554.432478,-2451.505594
3228.919903,-8882.471304,-1776.494261,-2145.067394
3228.920240,-10436.903782,-3404.947333,306.438199
3228.920577,-11547.212695,-5033.400406,2374.896044
3228.920915,-10658.965565,-4663.297435,3064.381992
3228.921252,-10436.903782,-2220.617826,2451.505594
3228.921589,-11621.233289,-296.082377,1608.800546
3228.921926,-12139.377449,444.123565,-995.924147
3228.922264,-10732.986159,-518.144159,-2604.724693
3228.922601,-8364.327145,592.164754,-2834.553343
3228.922938,-9400.615463,-592.164754,-229.828649
3228.923276,-9770.718434,-740.205942,1455.581446
3228.923613,-9400.615463,-1850.514855,2145.067394
3228.923950,-10510.924376,-1850.514855,3217.601092
3228.924287,-10584.944971,-888.247130,3753.867940
3228.924625,-11399.171507,1110.308913,2987.772442
3228.924962,-11325.150913,2960.823768,459.657299
3228.925299,-10955.047942,3478.967927,-2068.457845
3228.925636,-9104.533087,2886.803174,-3217.601092
3228.925974,-8364.327145,1258.350101,-3294.210641
3228.926311,-7772.162391,1184.329507,-1685.410096
3228.926648,-8882.471304,962.267725,-1149.143247
3228.926985,-9770.718434,-888.247130,1149.143247
3228.927323,-10140.821405,-2590.720797,2604.724693
3228.927660,-9844.739029,-2072.576638,4366.744339
3228.927997,-10140.821405,740.205942,4060.306139
3228.928334,-11325.150913,2220.617826,1302.362347
3228.928672,-11695.253884,2590.720797,-2528.115143
3228.929009,-10436.903782,1776.494261,-3064.381992
3228.929346,-9474.636058,666.185348,-2298.286494
3228.929683,-7698.141797,592.164754,-995.924147
3228.930021,-9400.615463,-666.185348,-306.438199
3228.930358,-9918.759623,-2146.597232,1072.533697
3228.930695,-9918.759623,-2442.679609,2528.115143
3228.931032,-9992.780217,-1480.411884,4443.353888
3228.931370,-11177.109724,0.000000,3217.601092
3228.931707,-12065.356855,2294.638420,-536.266849
3228.932044,-11547.212695,2368.659014,-2911.162892
3228.932381,-10066.800811,888.247130,-2834.553343
3228.932719,-8364.327145,-814.226536,-2221.676944
3228.933056,-8142.265362,-1406.391290,-1455.581446
3228.933393,-9548.656652,-2220.617826,-766.095498
3228.933731,-9992.780217,-3182.885551,0.000000
3228.934068,-11103.089130,-4219.173869,1455.581446
3228.934405,-10510.924376,-3552.988522,2604.724693
3228.934742,-10214.842000,-1998.556043,2145.067394
3228.935080,-11177.109724,518.144159,459.657299
3228.935417,-11547.212695,740.205942,-1378.971896
3228.935754,-9992.780217,296.082377,-2068.457845
3228.936091,-8438.347739,-666.185348,-1608.800546
3228.936429,-8882.471304,-666.185348,689.485948
3228.936766,-10140.821405,-222.061783,2681.334243
3228.937103,-10140.821405,-1480.411884,3677.258390
3228.937440,-9770.718434,-1702.473667,3370.820191
3228.937778,-9844.739029,-814.226536,4366.744339
3228.938115,-10881.027347,1850.514855,3830.477490
3228.938452,-11769.274478,2664.741391,536.266849
3228.938789,-10732.986159,4589.276840,-2528.115143
3228.939127,-9252.574275,3108.864956,-3294.210641
3228.939464,-8364.327145,1776.494261,-2528.115143
3228.939801,-7994.224174,1406.391290,-1915.238745
3228.940138,-8956.491898,-444.123565,-842.705048
3228.940476,-9696.697840,-1850.514855,766.095498
3228.940813,-9992.780217,-3182.885551,2451.505594
3228.941150,-10362.883188,-1554.432478,3983.696590
3228.941487,-9992.780217,-370.102971,2145.067394
3228.941825,-11325.150913,592.164754,-1302.362347
3228.942162,-11325.150913,1110.308913,-2374.896044
3228.942499,-10066.800811,0.000000,-3294.210641
3228.942836,-7920.203579,-962.267725,-2757.943793
3228.943174,-8586.388927,-1850.514855,-2068.457845
3228.943511,-9548.656652,-2590.720797,919.314598
3228.943848,-10807.006753,-3182.885551,2451.505594
3228.944185,-9696.697840,-3923.091493,2681.334243
3228.944523,-9844.739029,-2146.597232,3830.477490
3228.944860,-11325.150913,-518.144159,3524.039291
3228.945197,-12287.418637,1554.432478,306.438199
3228.945535,-11325.150913,1702.473667,-1915.238745
3228.945872,-9622.677246,296.082377,-1378.971896
3228.946209,-8586.388927,0.000000,-1532.190996
3228.946546,-8882.471304,0.000000,-842.705048
3228.946884,-9548.656652,-814.226536,-383.047749
3228.947221,-10288.862594,-2220.617826,459.657299
3228.947558,-10584.944971,-2738.761985,2068.457845
3228.947895,-10436.903782,-1184.329507,1991.848295
3228.948233,-9918.759623,-370.102971,842.705048
3228.948570,-10881.027347,1110.308913,-1072.533697
3228.948907,-11103.089130,1554.432478,-1915.238745
3228.949244,-10066.800811,814.226536,-2145.067394
3228.949582,-8438.347739,888.247130,-1762.019645
3228.949919,-8142.265362,1036.288319,459.657299
3228.950256,-9918.759623,74.020594,1762.019645
3228.950593,-9992.780217,-1628.453072,3217.601092
3228.950931,-9400.615463,-1554.432478,4596.572988
3228.951268,-9548.656652,518.144159,6052.154434
3228.951605,-10955.047942,1850.514855,3753.867940
3228.951942,-12583.501014,3775.050304,612.876398
3228.952280,-11325.150913,4145.153275,-3064.381992
3228.952617,-9918.759623,3256.906145,-2298.286494
3228.952954,-9474.636058,1332.370696,-1378.971896
3228.953291,-7920.203579,740.205942,-1608.800546
3228.953629,-8142.265362,-888.247130,-919.314598
3228.953966,-9548.656652,-2368.659014,766.095498
3228.954303,-10066.800811,-2960.823768,2681.334243
3228.954640,-10584.944971,-1998.556043,3217.601092
3228.954978,-11103.089130,-296.082377,1072.533697
3228.955315,-11325.150913,962.267725,-2068.457845
3228.955652,-11621.233289,740.205942,-2834.553343
3228.955990,-10732.986159,-962.267725,-2834.553343
3228.956327,-8142.265362,-1406.391290,-1302.362347
3228.956664,-8512.368333,-1998.556043,-766.095498
3228.957001,-10288.862594,-2738.761985,0.000000
3228.957339,-10658.965565,-3923.091493,919.314598
3228.957676,-10362.883188,-4293.194464,2681.334243
3228.958013,-9992.780217,-2442.679609,3830.477490
3228.958350,-11177.109724,148.041188,3370.820191
3228.958688,-12435.459826,2220.617826,0.000000
3228.959025,-10955.047942,1702.473667,-1608.800546
3228.959362,-9326.594869,888.247130,-995.924147
3228.959699,-8882.471304,518.144159,229.828649
3228.960037,-9474.636058,888.247130,536.266849
3228.960374,-10436.903782,222.061783,153.219100
3228.960711,-9992.780217,-666.185348,1072.533697
3228.961048,-9992.780217,-2368.659014,2145.067394
3228.961386,-9548.656652,-666.185348,2911.162892
3228.961723,-9770.718434,296.082377,995.924147
3228.962060,-10658.965565,1998.556043,-2068.457845
3228.962397,-10436.903782,1998.556043,-4903.011187
3228.962735,-9844.739029,1110.308913,-3677.258390
3228.963072,-8586.388927,148.041188,-1838.629195
3228.963409,-7698.141797,-296.082377,-842.705048
3228.963746,-9400.615463,-1406.391290,842.705048
3228.964084,-9474.636058,-2294.638420,1991.848295
3228.964421,-10140.821405,-3330.926739,4290.134789
3228.964758,-10214.842000,-1554.432478,5439.278036
3228.965095,-11251.130318,740.205942,3140.991542
3228.965433,-13101.645173,2886.803174,0.000000
3228.965770,-11473.192101,2590.720797,-2528.115143
3228.966107,-9252.574275,666.185348,-2221.676944
3228.966445,-8512.368333,-74.020594,-229.828649
3228.966782,-8882.471304,0.000000,383.047749
3228.967119,-9696.697840,-296.082377,0.000000
3228.967456,-10436.903782,-2368.659014,1072.533697
3228.967794,-11177.109724,-2738.761985,2451.505594
3228.968131,-10288.862594,-1850.514855,3447.429741
3228.968468,-11251.130318,0.000000,2145.067394
3228.968805,-11769.274478,1332.370696,-766.095498
3228.969143,-11251.130318,444.123565,-3140.991542
3228.969480,-10362.883188,-444.123565,-2987.772442
3228.969817,-8586.388927,-1702.473667,-1762.019645
3228.970154,-8068.244768,-1554.432478,0.000000
3228.970492,-9770.718434,-2146.597232,153.219100
3228.970829,-10584.944971,-3108.864956,1915.238745
3228.971166,-10066.800811,-3182.885551,3064.381992
3228.971503,-9918.759623,-1554.432478,4060.306139
3228.971841,-11547.212695,740.205942,1838.629195
3228.972178,-11547.212695,2368.659014,-459.657299
3228.972515,-10362.883188,2664.741391,-1149.143247
3228.972852,-9252.574275,1554.432478,-689.485948
3228.973190,-7772.162391,666.185348,-76.609550
3228.973527,-8882.471304,888.247130,1072.533697
3228.973864,-9992.780217,1036.288319,536.266849
3228.974201,-9548.656652,0.000000,1149.143247
3228.974539,-9770.718434,-740.205942,2604.724693
3228.974876,-9918.759623,0.000000,3447.429741
3228.975213,-10066.800811,2294.638420,1302.362347
3228.975550,-11695.253884,3478.967927,-2451.505594
3228.975888,-10881.027347,3182.885551,-5132.839837
3228.976225,-10066.800811,962.267725,-3600.648841
3228.976562,-8956.491898,0.000000,-2298.286494
3228.976900,-7698.141797,-1036.288319,-1991.848295
3228.977237,-9030.512492,-2146.597232,-383.047749
3228.977574,-10140.821405,-3849.070898,1378.971896
3228.977911,-9548.656652,-3849.070898,2834.553343
3228.978249,-10214.842000,-2738.761985,3753.867940
3228.978586,-11769.274478,0.000000,2451.505594
3228.978923,-12731.542202,888.247130,0.000000
3228.979260,-11029.068536,962.267725,-1685.410096
3228.979598,-9474.636058,74.020594,-1302.362347
3228.979935,-8364.327145,-962.267725,229.828649
3228.980272,-9030.512492,-1184.329507,306.438199
3228.980609,-10436.903782,-1850.514855,919.314598
3228.980947,-10140.821405,-2960.823768,1532.190996
3228.981284,-10214.842000,-2146.597232,2451.505594
3228.981621,-10732.986159,-2664.741391,4060.306139
3228.981958,-10732.986159,740.205942,1915.238745
3228.982296,-11251.130318,1258.350101,-1762.019645
3228.982633,-10584.944971,1628.453072,-2757.943793
3228.982970,-9326.594869,0.000000,-3064.381992
3228.983307,-8882.471304,-740.205942,-1072.533697
3228.983645,-8586.388927,-592.164754,-995.924147
3228.983982,-9474.636058,-1702.473667,-689.485948
3228.984319,-10362.883188,-2664.741391,1149.143247
3228.984656,-9696.697840,-2812.782580,2987.772442
3228.984994,-9326.594869,-1184.329507,4136.915689
3228.985331,-10584.944971,666.185348,2451.505594
3228.985668,-11325.150913,2960.823768,-995.924147
3228.986005,-11251.130318,2516.700203,-2221.676944
3228.986343,-9622.677246,1776.494261,-919.314598
3228.986680,-8142.265362,1554.432478,76.609550
3228.987017,-8586.388927,1406.391290,76.609550
3228.987355,-9696.697840,296.082377,1608.800546
3228.987692,-9696.697840,-1628.453072,2145.067394
3228.988029,-10214.842000,-1184.329507,3677.258390
3228.988366,-10510.924376,0.000000,4903.011187
3228.988704,-10732.986159,1776.494261,919.314598
3228.989041,-11251.130318,2960.823768,-2451.505594
3228.989378,-10436.903782,2072.576638,-4596.572988
3228.989715,-8660.409521,0.000000,-3983.696590
3228.990053,-8142.265362,-74.020594,-2145.067394
3228.990390,-8364.327145,-888.247130,-1608.800546
3228.990727,-9770.718434,-2368.659014,-1991.848295
3228.991064,-10436.903782,-4441.235652,0.000000
3228.991402,-10214.842000,-3256.906145,2911.162892
3228.991739,-10214.842000,-2960.823768,4060.306139
3228.992076,-10955.047942,-1184.329507,1915.238745
3228.992413,-12139.377449,592.164754,-919.314598
3228.992751,-11843.295072,296.082377,-1302.362347
3228.993088,-9696.697840,-518.144159,-1072.533697
3228.993425,-8512.368333,-1406.391290,0.000000
3228.993762,-8956.491898,-296.082377,919.314598
3228.994100,-10214.842000,-962.267725,1532.190996
3228.994437,-10140.821405,-1850.514855,2068.457845
3228.994774,-9844.739029,-1924.535449,2987.772442
3228.995111,-10510.924376,74.020594,4136.915689
3228.995449,-12213.398043,2072.576638,2374.896044
3228.995786,-11251.130318,2960.823768,-1302.362347
3228.996123,-9844.739029,2368.659014,-2757.943793
3228.996460,-9178.553681,518.144159,-2451.505594
3228.996798,-7846.182985,740.205942,-1072.533697
3228.997135,-8660.409521,518.144159,-1685.410096
3228.997472,-9474.636058,-962.267725,-1532.190996
3228.997809,-10066.800811,-1554.432478,229.828649
3228.998147,-9252.574275,-2368.659014,2834.553343
3228.998484,-9252.574275,-962.267725,4673.182538
3228.998821,-10881.027347,1184.329507,2068.457845
3228.999159,-12065.356855,2442.679609,-1225.752797
3228.999496,-11029.068536,1480.411884,-2834.553343
3228.999833,-9474.636058,592.164754,-766.095498
3229.000170,-9252.574275,148.041188,1149.143247
3229.000508,-9474.636058,-444.123565,842.705048
3229.000845,-9622.677246,-1332.370696,612.876398
3229.001182,-9992.780217,-2516.700203,2221.676944
3229.001519,-9770.718434,-2812.782580,3830.477490
3229.001857,-10288.862594,-962.267725,4366.744339
3229.002194,-11325.150913,74.020594,2528.115143
3229.002531,-11843.295072,2664.741391,-919.314598
3229.002868,-11325.150913,1480.411884,-3217.601092
3229.003206,-9844.739029,148.041188,-2987.772442
3229.003543,-8290.306550,-1332.370696,-1455.581446
3229.003880,-7994.224174,-962.267725,-842.705048
3229.004217,-9252.574275,-2442.679609,-1608.800546
3229.004555,-9696.697840,-4145.153275,-1149.143247
3229.004892,-10510.924376,-4145.153275,1378.971896
3229.005229,-10288.862594,-3108.864956,2911.162892
3229.005566,-11473.192101,0.000000,919.314598
3229.005904,-11991.336260,740.205942,-2145.067394
3229.006241,-11029.068536,666.185348,-1685.410096
3229.006578,-9400.615463,-444.123565,-1455.581446
3229.006915,-8364.327145,-962.267725,229.828649
3229.007253,-9696.697840,0.000000,1838.629195
3229.007590,-10510.924376,-1406.391290,2145.067394
3229.007928,-10362.883188,-1110.308913,1915.238745
3229.008266,-9844.739029,-1036.288319,3370.820191
3229.008603,-10066.800811,518.144159,4213.525239
3229.008941,-11473.192101,2442.679609,2604.724693
3229.009278,-11251.130318,3256.906145,-536.266849
3229.009615,-10066.800811,2812.782580,-3600.648841
3229.009953,-8956.491898,2590.720797,-2987.772442
3229.010290,-8068.244768,1480.411884,-1608.800546
3229.010628,-7402.059420,518.144159,-1838.629195
3229.010965,-8956.491898,-740.205942,-536.266849
3229.011303,-9918.759623,-2368.659014,1149.143247
3229.011640,-9178.553681,-2368.659014,2911.162892
3229.011977,-10140.821405,-1406.391290,4213.525239
3229.012315,-11695.253884,148.041188,995.924147
3229.012652,-11547.212695,1554.432478,-2681.334243
3229.012990,-10732.986159,814.226536,-2987.772442
3229.013327,-9326.594869,-888.247130,-1532.190996
3229.013665,-7328.038826,-1554.432478,0.000000
3229.014002,-9030.512492,-1998.556043,689.485948
3229.014339,-10510.924376,-1554.432478,1608.800546
3229.014677,-11399.171507,-3256.906145,1762.019645
3229.015014,-11177.109724,-2368.659014,3677.258390
3229.015352,-10510.924376,-1036.288319,4136.915689
3229.015689,-11695.253884,814.226536,3524.039291
3229.016027,-11991.336260,1850.514855,153.219100
3229.016364,-10732.986159,1258.350101,-2528.115143
3229.016701,-10066.800811,740.205942,-1762.019645
3229.017039,-8956.491898,-592.164754,-1225.752797
3229.017376,-8068.244768,74.020594,-1991.848295
3229.017714,-9400.615463,-2072.576638,-1072.533697
3229.018051,-10066.800811,-2220.617826,536.266849
3229.018388,-9622.677246,-2442.679609,1685.410096
3229.018726,-10214.842000,-666.185348,1915.238745
3229.019063,-11399.171507,222.061783,-153.219100
3229.019401,-11325.150913,1036.288319,-2757.943793
3229.019738,-9844.739029,1702.473667,-2911.162892
3229.020076,-9252.574275,148.041188,-842.705048
3229.020413,-8068.244768,0.000000,-536.266849
3229.020750,-8808.450710,-370.102971,0.000000
3229.021088,-10436.903782,-740.205942,1762.019645
3229.021425,-10140.821405,-1332.370696,2374.896044
3229.021763,-10584.944971,-1332.370696,3983.696590
3229.022100,-10214.842000,740.205942,5286.058936
3229.022438,-11103.089130,3034.844362,2451.505594
3229.022775,-12065.356855,3849.070898,-229.828649
3229.023112,-11251.130318,3256.906145,-3753.867940
3229.023450,-8882.471304,1850.514855,-2987.772442
3229.023787,-9030.512492,962.267725,-1302.362347
3229.024125,-7624.121203,-444.123565,-1302.362347
3229.024462,-8438.347739,-1850.514855,-766.095498
3229.024800,-9548.656652,-3849.070898,766.095498
3229.025137,-9178.553681,-2960.823768,3064.381992
3229.025474,-10288.862594,-1850.514855,2911.162892
3229.025812,-12065.356855,0.000000,153.219100
3229.026149,-11843.295072,222.061783,-3294.210641
3229.026487,-10510.924376,-592.164754,-2374.896044
3229.026824,-9104.533087,-1332.370696,-1149.143247
3229.027162,-7698.141797,-2368.659014,229.828649
3229.027499,-9030.512492,-2812.782580,459.657299
3229.027836,-10140.821405,-3775.050304,1302.362347
3229.028174,-11029.068536,-4811.338623,2298.286494
3229.028511,-10288.862594,-3701.029710,3983.696590
3229.028849,-11177.109724,-1554.432478,5056.230287
3229.029186,-12213.398043,444.123565,3294.210641
3229.029523,-11621.233289,2146.597232,-383.047749
3229.029861,-10214.842000,1776.494261,-1762.019645
3229.030198,-9548.656652,666.185348,-1149.143247
3229.030536,-8808.450710,1036.288319,-766.095498
3229.030873,-9474.636058,666.185348,-383.047749
3229.031211,-10066.800811,0.000000,-612.876398
3229.031548,-9548.656652,-1628.453072,536.266849
3229.031885,-10140.821405,-1184.329507,2834.553343
3229.032223,-9474.636058,0.000000,2528.115143
3229.032560,-10881.027347,2072.576638,0.000000
3229.032898,-11621.233289,2960.823768,-3447.429741
3229.033235,-9770.718434,2664.741391,-4596.572988
3229.033573,-9030.512492,592.164754,-2528.115143
3229.033910,-7920.203579,592.164754,-1225.752797
3229.034247,-7920.203579,0.000000,0.000000
3229.034585,-9474.636058,-1184.329507,2145.067394
3229.034922,-10658.965565,-3034.844362,3677.258390
3229.035260,-9474.636058,-2072.576638,4826.401637
3229.035597,-10436.903782,222.061783,5132.839837
3229.035935,-12805.562797,2442.679609,2221.676944
3229.036272,-11917.315666,3552.988522,-1685.410096
3229.036609,-10140.821405,2220.617826,-3447.429741
3229.036947,-8512.368333,962.267725,-2221.676944
3229.037284,-7550.100608,0.000000,-842.705048
3229.037622,-9104.533087,-888.247130,0.000000
3229.037959,-9548.656652,-1702.473667,76.609550
3229.038297,-10362.883188,-3256.906145,1149.143247
3229.038634,-10732.986159,-2294.638420,3140.991542
3229.038971,-10658.965565,-1554.432478,3064.381992
3229.039309,-11769.274478,592.164754,459.657299
3229.039646,-11695.253884,1110.308913,-3677.258390
3229.039984,-9844.739029,74.020594,-4749.792088
3229.040321,-9252.574275,-1258.350101,-3370.820191
3229.040658,-7624.121203,-1776.494261,-1072.533697
3229.040996,-9178.553681,-2738.761985,-76.609550
3229.041333,-9844.739029,-2960.823768,1762.019645
3229.041671,-11251.130318,-3849.070898,2604.724693
3229.042008,-10362.883188,-2738.761985,4213.525239
3229.042346,-10658.965565,-1184.329507,3600.648841
3229.042683,-12139.377449,1998.556043,3447.429741
3229.043020,-12361.439231,2516.700203,0.000000
3229.043358,-9992.780217,2516.700203,-2451.505594
3229.043695,-8956.491898,1110.308913,-1455.581446
3229.044033,-8142.265362,1776.494261,-153.219100
3229.044370,-9474.636058,1110.308913,153.219100
3229.044708,-9326.594869,296.082377,689.485948
3229.045045,-9918.759623,-1258.350101,766.095498
3229.045382,-9474.636058,-888.247130,3677.258390
3229.045720,-9622.677246,1110.308913,3677.258390
3229.046057,-11399.171507,2442.679609,459.657299
3229.046395,-11621.233289,3256.906145,-3677.258390
3229.046732,-9992.780217,2442.679609,-4826.401637
3229.047070,-9104.533087,592.164754,-2757.943793
3229.047407,-7994.224174,-888.247130,-1608.800546
3229.047744,-7994.224174,-1924.535449,-76.609550
3229.048082,-9104.533087,-3034.844362,1225.752797
3229.048419,-10881.027347,-4071.132681,2987.772442
3229.048757,-9326.594869,-3256.906145,3983.696590
3229.049094,-11103.089130,-2072.576638,3983.696590
3229.049431,-12583.501014,518.144159,2681.334243
3229.049769,-11695.253884,1554.432478,-1532.190996
3229.050106,-10658.965565,1628.453072,-1762.019645
3229.050444,-9770.718434,148.041188,-2451.505594
3229.050781,-8438.347739,-666.185348,-383.047749
3229.051119,-9252.574275,-1480.411884,0.000000
3229.051456,-9252.574275,-1998.556043,1072.533697
3229.051793,-11103.089130,-3552.988522,1762.019645
3229.052131,-10288.862594,-2590.720797,2681.334243
3229.052468,-10362.883188,-962.267725,2757.943793
3229.052806,-12065.356855,1332.370696,612.876398
3229.053143,-11843.295072,1998.556043,-3140.991542
3229.053481,-9770.718434,962.267725,-4060.306139
3229.053818,-9400.615463,-74.020594,-3524.039291
3229.054155,-7476.080014,-740.205942,-1915.238745
3229.054493,-9104.533087,-1554.432478,-919.314598
3229.054830,-9770.718434,-2812.782580,995.924147
3229.055168,-10807.006753,-2960.823768,2068.457845
3229.055505,-9844.739029,-2368.659014,4443.353888
3229.055843,-10066.800811,-444.123565,3983.696590
3229.056180,-11843.295072,1924.535449,2834.553343
3229.056517,-12213.398043,2886.803174,-1455.581446
3229.056855,-10362.883188,2960.823768,-2528.115143
3229.057192,-9844.739029,2812.782580,-1302.362347
3229.057530,-8438.347739,1998.556043,-459.657299
3229.057867,-8290.306550,1110.308913,536.266849
3229.058205,-8512.368333,-962.267725,1838.629195
3229.058542,-9696.697840,-1110.308913,3064.381992
3229.058879,-9844.739029,-814.226536,4749.792088
3229.059217,-10955.047942,1110.308913,3753.867940
3229.059554,-11843.295072,2960.823768,76.609550
3229.059892,-11547.212695,3627.009116,-4903.011187
3229.060229,-9770.718434,2294.638420,-4826.401637
3229.060566,-8438.347739,-148.041188,-3217.601092
3229.060904,-6735.874072,-1110.308913,-1455.581446
3229.061241,-7920.203579,-1776.494261,-1762.019645
3229.061579,-10510.924376,-3923.091493,842.705048
3229.061916,-11177.109724,-4293.194464,1915.238745
3229.062254,-10140.821405,-3849.070898,3524.039291
3229.062591,-10881.027347,-2072.576638,3370.820191
3229.062928,-11843.295072,0.000000,1072.533697
3229.063266,-11843.295072,666.185348,-1532.190996
3229.063603,-11029.068536,148.041188,-2604.724693
3229.063941,-8882.471304,-296.082377,-2298.286494
3229.064278,-9474.636058,-740.205942,0.000000
3229.064616,-10214.842000,-1036.288319,689.485948
3229.064953,-9474.636058,-2368.659014,1915.238745
3229.065290,-10510.924376,-2886.803174,2528.115143
3229.065628,-10658.965565,-1332.370696,3447.429741
3229.065965,-11695.253884,814.226536,3370.820191
3229.066303,-12805.562797,2442.679609,919.314598
3229.066640,-11177.109724,3108.864956,-3294.210641
3229.066978,-9178.553681,1998.556043,-3907.087040
3229.067315,-8734.430116,740.205942,-1608.800546
3229.067652,-7698.141797,0.000000,-1072.533697
3229.067990,-8512.368333,-518.144159,-1225.752797
3229.068327,-9252.574275,-2368.659014,383.047749
3229.068665,-9844.739029,-3330.926739,2298.286494
3229.069002,-9548.656652,-1480.411884,5209.449386
3229.069340,-9770.718434,-370.102971,4136.915689
3229.069677,-11177.109724,1406.391290,689.485948
3229.070014,-11103.089130,3108.864956,-2068.457845
3229.070352,-10658.965565,2072.576638,-1915.238745
3229.070689,-9474.636058,1036.288319,-1608.800546
3229.071027,-7772.162391,0.000000,0.000000
3229.071364,-8882.471304,962.267725,1072.533697
3229.071701,-9992.780217,-2294.638420,1685.410096
3229.072039,-9992.780217,-2516.700203,2451.505594
3229.072376,-9770.718434,-1776.494261,3830.477490
3229.072714,-11621.233289,370.102971,3830.477490
3229.073051,-12731.542202,2664.741391,0.000000
3229.073389,-12139.377449,2220.617826,-3753.867940
3229.073726,-9696.697840,1258.350101,-3677.258390
3229.074063,-8660.409521,-1110.308913,-2528.115143
3229.074401,-7994.224174,-1480.411884,-1378.971896
3229.074738,-8734.430116,-2442.679609,-2298.286494
3229.075076,-10066.800811,-3775.050304,306.438199
3229.075413,-11177.109724,-5329.482782,689.485948
3229.075751,-9992.780217,-3997.112087,2451.505594
3229.076088,-10807.006753,-1776.494261,2451.505594
3229.076425,-12139.377449,-296.082377,76.609550
3229.076763,-11399.171507,1110.308913,-2221.676944
3229.077100,-10066.800811,-222.061783,-3064.381992
3229.077438,-8216.285956,-592.164754,-1838.629195
3229.077775,-9104.533087,-1110.308913,612.876398
3229.078113,-9844.739029,-888.247130,2451.505594
3229.078450,-10066.800811,-1554.432478,2451.505594
3229.078787,-10066.800811,-1406.391290,2145.067394
3229.079125,-10807.006753,-444.123565,4826.401637
3229.079462,-11325.150913,962.267725,4749.792088
3229.079800,-11621.233289,3923.091493,383.047749
3229.080137,-11103.089130,4737.318029,-3370.820191
3229.080475,-9918.759623,3701.029710,-3447.429741
3229.080812,-8364.327145,1776.494261,-2145.067394
3229.081149,-7772.162391,1184.329507,-1225.752797
3229.081487,-7846.182985,962.267725,-919.314598
3229.081824,-9474.636058,-1628.453072,459.657299
3229.082162,-9844.739029,-2960.823768,3677.258390
3229.082499,-9252.574275,-1332.370696,4673.182538
3229.082836,-10288.862594,-370.102971,4136.915689
3229.083174,-12139.377449,2442.679609,-612.876398
3229.083511,-11103.089130,1850.514855,-3830.477490
3229.083849,-10658.965565,1110.308913,-3140.991542
3229.084186,-7698.141797,-592.164754,-2604.724693
3229.084524,-7254.018232,-1332.370696,-612.876398
3229.084861,-9918.759623,-1998.556043,1149.143247
3229.085198,-10436.903782,-3552.988522,2451.505594
3229.085536,-10807.006753,-2738.761985,2681.334243
3229.085873,-10288.862594,-1924.535449,3753.867940
3229.086211,-11473.192101,444.123565,3983.696590
3229.086548,-12805.562797,1332.370696,1149.143247
3229.086886,-11769.274478,2072.576638,-2298.286494
3229.087223,-9622.677246,1406.391290,-3217.601092
3229.087560,-8808.450710,0.000000,-2451.505594
3229.087898,-8438.347739,-444.123565,-1225.752797
3229.088235,-9474.636058,-1850.514855,-919.314598
3229.088573,-9474.636058,-2886.803174,459.657299
3229.088910,-10510.924376,-3330.926739,1225.752797
3229.089248,-10066.800811,-2368.659014,2221.676944
3229.089585,-10584.944971,-592.164754,1762.019645
3229.089922,-11547.212695,1258.350101,-1149.143247
3229.090260,-11325.150913,1776.494261,-2987.772442
3229.090597,-9548.656652,296.082377,-2987.772442
3229.090935,-8216.285956,0.000000,-1608.800546
3229.091272,-8438.347739,-296.082377,0.000000
3229.091610,-9548.656652,-592.164754,1455.581446
3229.091947,-10288.862594,-1480.411884,2298.286494
3229.092284,-10436.903782,-2368.659014,3370.820191
3229.092622,-9770.718434,0.000000,4979.620737
3229.092959,-10658.965565,1924.535449,4826.401637
3229.093297,-12065.356855,3997.112087,689.485948
3229.093634,-11177.109724,4145.153275,-3140.991542
3229.093971,-9844.739029,2738.761985,-2911.162892
3229.094309,-8956.491898,1850.514855,-1302.362347
3229.094646,-7698.141797,814.226536,-1072.533697
3229.094984,-8364.327145,-370.102971,-536.266849
3229.095321,-9326.594869,-2960.823768,383.047749
3229.095659,-9474.636058,-3108.864956,2681.334243
3229.095996,-9400.615463,-2368.659014,4060.306139
3229.096333,-10732.986159,-740.205942,2298.286494
3229.096671,-11843.295072,1036.288319,-1608.800546
3229.097008,-11843.295072,444.123565,-4060.306139
3229.097346,-9992.780217,222.061783,-2757.943793
3229.097683,-7772.162391,-2294.638420,-1915.238745
3229.098021,-8290.306550,-1628.453072,-612.876398
3229.098358,-9770.718434,-3552.988522,383.047749
3229.098695,-11251.130318,-3849.070898,2374.896044
3229.099033,-10955.047942,-4145.153275,2987.772442
3229.099370,-10362.883188,-2812.782580,4366.744339
3229.099708,-11547.212695,0.000000,3907.087040
3229.100045,-12953.603985,1702.473667,2068.457845
3229.100383,-11547.212695,2294.638420,-1685.410096
3229.100720,-9474.636058,1110.308913,-2145.067394
3229.101057,-9252.574275,148.041188,-306.438199
3229.101395,-8956.491898,1184.329507,459.657299
3229.101732,-10658.965565,-222.061783,229.828649
3229.102070,-9844.739029,-1332.370696,689.485948
3229.102407,-9844.739029,-2220.617826,1838.629195
3229.102744,-10066.800811,-1036.288319,4443.353888
3229.103082,-10362.883188,740.205942,2145.067394
3229.103419,-11103.089130,2368.659014,-1685.410096
3229.103757,-11103.089130,2072.576638,-4443.353888
3229.104094,-9400.615463,1036.288319,-3447.429741
3229.104432,-8068.244768,888.247130,-1991.848295
3229.104769,-7254.018232,592.164754,-229.828649
3229.105106,-9030.512492,-296.082377,0.000000
3229.105444,-10288.862594,-2294.638420,1685.410096
3229.105781,-9770.718434,-2368.659014,3600.648841
3229.106119,-9474.636058,-592.164754,5209.449386
3229.106456,-11547.212695,1110.308913,4290.134789
3229.106794,-12805.562797,3701.029710,459.657299
3229.107131,-11177.109724,3034.844362,-4060.306139
3229.107469,-9400.615463,1850.514855,-2528.115143
3229.107806,-8068.244768,74.020594,-1225.752797
3229.108144,-8216.285956,74.020594,-306.438199
3229.108481,-8956.491898,-1110.308913,-995.924147
3229.108818,-10140.821405,-2220.617826,-306.438199
3229.109156,-10436.903782,-3182.885551,1762.019645
3229.109493,-10362.883188,-2442.679609,2987.772442
3229.109831,-10584.944971,0.000000,1608.800546
3229.110168,-11769.274478,1110.308913,-1838.629195
3229.110506,-11621.233289,592.164754,-4903.011187
3229.110843,-10140.821405,-1554.432478,-4213.525239
3229.111181,-8364.327145,-2072.576638,-2451.505594
3229.111518,-7698.141797,-1554.432478,-1225.752797
3229.111856,-10584.944971,-3108.864956,459.657299
3229.112193,-10288.862594,-4145.153275,689.485948
3229.112530,-10510.924376,-4071.132681,2757.943793
3229.112868,-10214.842000,-2146.597232,5286.058936
3229.113205,-11251.130318,370.102971,3600.648841
3229.113543,-12583.501014,2072.576638,1608.800546
3229.113880,-11547.212695,2368.659014,-1072.533697
3229.114218,-8734.430116,1406.391290,-919.314598
3229.114555,-9104.533087,1406.391290,1225.752797
3229.114893,-9474.636058,1184.329507,1762.019645
3229.115230,-9400.615463,518.144159,689.485948
3229.115568,-9770.718434,-814.226536,1149.143247
3229.115905,-9548.656652,-1406.391290,2757.943793
3229.116243,-9030.512492,0.000000,5132.839837
3229.116580,-10732.986159,1406.391290,2987.772442
3229.116917,-11029.068536,3034.844362,-1225.752797
3229.117255,-10288.862594,3478.967927,-5362.668486
3229.117592,-9548.656652,1406.391290,-3447.429741
3229.117930,-8512.368333,0.000000,-2451.505594
3229.118267,-7179.997637,-518.144159,-1225.752797
3229.118605,-8364.327145,-1924.535449,-459.657299
3229.118942,-9548.656652,-4145.153275,1532.190996
3229.119280,-9474.636058,-3404.947333,3600.648841
3229.119617,-9844.739029,-2960.823768,3907.087040
3229.119955,-11695.253884,0.000000,2834.553343
3229.120292,-12509.480420,1776.494261,-689.485948
3229.120629,-11843.295072,1776.494261,-2451.505594
3229.120967,-9770.718434,148.041188,-1915.238745
3229.121304,-8290.306550,0.000000,-995.924147
3229.121642,-9696.697840,-444.123565,919.314598
3229.121979,-10066.800811,-1036.288319,383.047749
3229.122317,-10510.924376,-2738.761985,0.000000
3229.122654,-10732.986159,-2812.782580,2145.067394
3229.122992,-10510.924376,-1850.514855,3294.210641
3229.123329,-11103.089130,0.000000,1762.019645
3229.123667,-12065.356855,666.185348,-1378.971896
3229.124004,-10881.027347,1406.391290,-4903.011187
3229.124341,-9400.615463,-296.082377,-4213.525239
3229.124679,-8586.388927,-518.144159,-2374.896044
3229.125016,-7994.224174,-1110.308913,-1455.581446
3229.125354,-9696.697840,-2072.576638,-459.657299
3229.125691,-10584.944971,-2960.823768,1072.533697
3229.126029,-8882.471304,-3404.947333,2451.505594
3229.126366,-9696.697840,-1554.432478,4290.134789
3229.126704,-10807.006753,148.041188,3370.820191
3229.127041,-11769.274478,2294.638420,0.000000
3229.127379,-10881.027347,2738.761985,-1302.362347
3229.127716,-9622.677246,1924.535449,-536.266849
3229.128054,-8808.450710,1702.473667,306.438199
3229.128391,-9030.512492,1702.473667,1455.581446
3229.128728,-9326.594869,1628.453072,919.314598
3229.129066,-9548.656652,-962.267725,1302.362347
3229.129403,-9770.718434,-592.164754,3524.039291
3229.129741,-9548.656652,0.000000,4443.353888
3229.130078,-11399.171507,2368.659014,2681.334243
3229.130416,-12213.398043,3552.988522,-1915.238745
3229.130753,-11547.212695,2886.803174,-4979.620737
3229.131091,-9474.636058,740.205942,-3983.696590
3229.131428,-7254.018232,296.082377,-2374.896044
3229.131766,-7846.182985,-1480.411884,-995.924147
3229.132103,-8882.471304,-2812.782580,-1378.971896
3229.132440,-10214.842000,-4145.153275,0.000000
3229.132778,-10362.883188,-3775.050304,2911.162892
3229.133115,-10214.842000,-2738.761985,4290.134789
3229.133453,-11473.192101,-1110.308913,2757.943793
3229.133790,-12583.501014,370.102971,-612.876398
3229.134128,-11177.109724,0.000000,-1991.848295
3229.134465,-9696.697840,-1110.308913,-1302.362347
3229.134803,-8586.388927,-1332.370696,306.438199
3229.135140,-9770.718434,-740.205942,1225.752797
3229.135478,-10214.842000,-2220.617826,2068.457845
3229.135815,-9992.780217,-2664.741391,842.705048
3229.136152,-10140.821405,-2664.741391,2757.943793
3229.136490,-10436.903782,-740.205942,3907.087040
3229.136827,-11473.192101,1258.350101,2145.067394
3229.137165,-12139.377449,2516.700203,-1302.362347
3229.137502,-10658.965565,1998.556043,-3753.867940
3229.137840,-9474.636058,814.226536,-2911.162892
3229.138177,-8290.306550,74.020594,-1838.629195
3229.138515,-8068.244768,0.000000,-1149.143247
3229.138852,-9326.594869,-1480.411884,-1532.190996
3229.139190,-9918.759623,-2516.700203,229.828649
3229.139527,-9104.533087,-2516.700203,3064.381992
3229.139865,-9474.636058,-1480.411884,4443.353888
3229.140202,-11103.089130,1702.473667,2528.115143
3229.140539,-12213.398043,2738.761985,-1378.971896
3229.140877,-10955.047942,2146.597232,-2911.162892
3229.141214,-9252.574275,1702.473667,-1225.752797
3229.141552,-9030.512492,518.144159,995.924147
3229.141889,-8660.409521,1036.288319,919.314598
3229.142227,-9992.780217,-740.205942,612.876398
3229.142564,-9918.759623,-2146.597232,2145.067394
3229.142902,-9104.533087,-1850.514855,3524.039291
3229.143239,-10362.883188,-296.082377,4519.963438
3229.143577,-11695.253884,1998.556043,1991.848295
3229.143914,-11547.212695,2738.761985,-2604.724693
3229.144251,-10732.986159,1850.514855,-4979.620737
3229.144589,-9252.574275,444.123565,-3600.648841
3229.144926,-7476.080014,-1036.288319,-1532.190996
3229.145264,-8290.306550,-1776.494261,-995.924147
3229.145601,-9104.533087,-2738.761985,-1532.190996
3229.145939,-10362.883188,-4145.153275,-766.095498
3229.146276,-10214.842000,-4293.194464,1685.410096
3229.146614,-10362.883188,-3034.844362,3370.820191
3229.146951,-11695.253884,-962.267725,1991.848295
3229.147289,-11917.315666,222.061783,-689.485948
3229.147626,-10732.986159,0.000000,-2451.505594
3229.147963,-9548.656652,-1258.350101,-1072.533697
3229.148301,-8660.409521,-1258.350101,1608.800546
3229.148638,-9474.636058,-1184.329507,2145.067394
3229.148976,-10288.862594,-1036.288319,2757.943793
3229.149313,-11103.089130,-1110.308913,2451.505594
3229.149651,-10362.883188,-1628.453072,2528.115143
3229.149988,-10140.821405,222.061783,4136.915689
3229.150326,-11843.295072,2368.659014,3907.087040
3229.150663,-11769.274478,3404.947333,76.609550
3229.151001,-10066.800811,2590.720797,-3140.991542
3229.151338,-8956.491898,2294.638420,-2757.943793
3229.151676,-8216.285956,740.205942,-1762.019645
3229.152013,-7846.182985,814.226536,-1915.238745
3229.152350,-8882.471304,0.000000,-1532.190996
3229.152688,-9474.636058,-2146.597232,0.000000
3229.153025,-8068.244768,-2146.597232,2604.724693
3229.153363,-9622.677246,-1332.370696,3983.696590
3229.153700,-10807.006753,1036.288319,1455.581446
3229.154038,-11843.295072,2220.617826,-3064.381992
3229.154375,-10955.047942,1480.411884,-3830.477490
3229.154713,-9252.574275,74.020594,-1532.190996
3229.155050,-7698.141797,-962.267725,0.000000
3229.155388,-8660.409521,-1702.473667,766.095498
3229.155725,-10288.862594,-1776.494261,1072.533697
3229.156062,-11177.109724,-2368.659014,1762.019645
3229.156400,-11029.068536,-2812.782580,2528.115143
3229.156737,-10436.903782,-888.247130,3983.696590
3229.157075,-12361.439231,1036.288319,2987.772442
3229.157412,-12583.501014,2368.659014,-536.266849
3229.157750,-11399.171507,1332.370696,-3370.820191
3229.158087,-9474.636058,222.061783,-3217.601092
3229.158425,-8512.368333,-1184.329507,-1072.533697
3229.158762,-7920.203579,-1110.308913,-1685.410096
3229.159100,-9622.677246,-1924.535449,-1225.752797
3229.159437,-10732.986159,-3849.070898,-919.314598
3229.159774,-9104.533087,-3256.906145,919.314598
3229.160112,-9474.636058,-1998.556043,2681.334243
3229.160449,-11547.212695,-444.123565,1685.410096
3229.160787,-11621.233289,666.185348,-1378.971896
3229.161124,-10584.944971,0.000000,-1762.019645
3229.161462,-8660.409521,-296.082377,76.609550
3229.161799,-8364.327145,-740.205942,689.485948
3229.162137,-9622.677246,-666.185348,2145.067394
3229.162474,-10288.862594,-444.123565,1455.581446
3229.162812,-9622.677246,-1406.391290,3064.381992
3229.163149,-9918.759623,-888.247130,4366.744339
3229.163487,-9326.594869,666.185348,4826.401637
3229.163824,-11103.089130,2664.741391,3524.039291
3229.164161,-11991.336260,3627.009116,-612.876398
3229.164499,-10436.903782,3923.091493,-3447.429741
3229.164836,-9326.594869,3108.864956,-2681.334243
3229.165174,-8956.491898,1702.473667,-1225.752797
3229.165511,-8068.244768,962.267725,-1302.362347
3229.165849,-8956.491898,-1480.411884,-1532.190996
3229.166186,-9474.636058,-1850.514855,306.438199
3229.166524,-9474.636058,-2368.659014,1991.848295
3229.166861,-10584.944971,-592.164754,2604.724693
3229.167199,-11991.336260,518.144159,-1072.533697
3229.167536,-11769.274478,962.267725,-3983.696590
3229.167873,-10510.924376,74.020594,-3140.991542
3229.168211,-9104.533087,-1554.432478,-1225.752797
3229.168548,-7402.059420,-2072.576638,-459.657299
3229.168886,-9030.512492,-2368.659014,229.828649
3229.169223,-10288.862594,-3404.947333,919.314598
3229.169561,-10807.006753,-4145.153275,2145.067394
3229.169898,-11029.068536,-3923.091493,3830.477490
3229.170236,-10732.986159,-1480.411884,4443.353888
3229.170573,-11769.274478,444.123565,2681.334243
3229.170911,-12065.356855,1628.453072,842.705048
3229.171248,-10955.047942,518.144159,-1608.800546
3229.171585,-9178.553681,518.144159,-1608.800546
3229.171923,-8660.409521,148.041188,-536.266849
3229.172260,-9400.615463,-222.061783,-306.438199
3229.172598,-9474.636058,-1036.288319,-1072.533697
3229.172935,-9844.739029,-2146.597232,-459.657299
3229.173273,-9474.636058,-1554.432478,2298.286494
3229.173610,-10288.862594,74.020594,3064.381992
3229.173948,-11769.274478,1406.391290,995.924147
3229.174285,-11325.150913,2220.617826,-2834.553343
3229.174623,-10288.862594,1480.411884,-2757.943793
3229.174960,-9474.636058,888.247130,-306.438199
3229.175298,-7994.224174,148.041188,229.828649
3229.175635,-8586.388927,74.020594,306.438199
3229.175972,-9622.677246,-518.144159,459.657299
3229.176310,-10066.800811,-1924.535449,1838.629195
3229.176647,-9918.759623,-1850.514855,4136.915689
3229.176985,-10584.944971,74.020594,5439.278036
3229.177322,-11399.171507,3182.885551,2911.162892
3229.177660,-12139.377449,3701.029710,-1608.800546
3229.177997,-10732.986159,3478.967927,-3753.867940
3229.178335,-9252.574275,1036.288319,-2221.676944
3229.178672,-7772.162391,592.164754,-689.485948
3229.179010,-7772.162391,-148.041188,-689.485948
3229.179347,-9622.677246,-1924.535449,-919.314598
3229.179684,-9474.636058,-2812.782580,-153.219100
3229.180022,-9474.636058,-3034.844362,2451.505594
3229.180359,-11177.109724,-1036.288319,3447.429741
3229.180697,-11843.295072,666.185348,76.609550
3229.181034,-11991.336260,740.205942,-3140.991542
3229.181372,-10584.944971,-444.123565,-3983.696590
3229.181709,-9252.574275,-2220.617826,-995.924147
3229.182047,-7994.224174,-2442.679609,306.438199
3229.182384,-9178.553681,-2812.782580,306.438199
3229.182722,-10288.862594,-3849.070898,842.705048
3229.183059,-11177.109724,-4441.235652,1532.190996
3229.183396,-10732.986159,-3256.906145,3677.258390
3229.183734,-11029.068536,-1406.391290,5056.230287
3229.184071,-12139.377449,814.226536,2911.162892
3229.184409,-11917.315666,2294.638420,459.657299
3229.184746,-11029.068536,2368.659014,-1915.238745
3229.185084,-9178.553681,1332.370696,-995.924147
3229.185421,-8068.244768,666.185348,76.609550
3229.185759,-9474.636058,962.267725,995.924147
3229.186096,-9400.615463,0.000000,0.000000
3229.186434,-9622.677246,-1184.329507,76.609550
3229.186771,-8512.368333,-1332.370696,2757.943793
3229.187109,-9474.636058,296.082377,3294.210641
3229.187446,-11325.150913,2886.803174,1302.362347
3229.187783,-11177.109724,3330.926739,-4136.915689
3229.188121,-9992.780217,2220.617826,-4519.963438
3229.188458,-9030.512492,222.061783,-2451.505594
3229.188796,-7994.224174,888.247130,-153.219100
3229.189133,-7994.224174,-666.185348,-689.485948
3229.189471,-9474.636058,-2368.659014,383.047749
3229.189808,-10066.800811,-2960.823768,1762.019645
3229.190146,-9326.594869,-3034.844362,2451.505594
3229.190483,-11103.089130,-962.267725,4060.306139
3229.190821,-12435.459826,1332.370696,2298.286494
3229.191158,-12953.603985,2072.576638,-995.924147
3229.191495,-10807.006753,2294.638420,-3064.381992
3229.191833,-9770.718434,-370.102971,-2068.457845
3229.192170,-7846.182985,74.020594,-689.485948
3229.192508,-8734.430116,-1110.308913,0.000000
3229.192845,-10214.842000,-2442.679609,153.219100
3229.193183,-10066.800811,-2960.823768,229.828649
3229.193520,-9770.718434,-3108.864956,2374.896044
3229.193858,-11103.089130,-1110.308913,3524.039291
3229.194195,-11621.233289,0.000000,612.876398
3229.194533,-11769.274478,1776.494261,-2374.896044
3229.194870,-10436.903782,444.123565,-3600.648841
3229.195207,-8512.368333,-962.267725,-2451.505594
3229.195545,-8216.285956,-1998.556043,-612.876398
3229.195882,-8660.409521,-2220.617826,0.000000
3229.196220,-10066.800811,-2072.576638,842.705048
3229.196557,-10732.986159,-3404.947333,1378.971896
3229.196895,-9918.759623,-2442.679609,3524.039291
3229.197232,-10436.903782,-592.164754,4596.572988
3229.197570,-11769.274478,1776.494261,3447.429741
3229.197907,-12065.356855,2886.803174,-766.095498
3229.198245,-10658.965565,2516.700203,-1838.629195
3229.198582,-9178.553681,2368.659014,-1532.190996
3229.198920,-8142.265362,1702.473667,0.000000
3229.199257,-9030.512492,1554.432478,459.657299
3229.199594,-9474.636058,74.020594,536.266849
3229.199932,-9326.594869,-1110.308913,1532.190996
3229.200269,-8808.450710,-296.082377,3830.477490
3229.200607,-10584.944971,1628.453072,4673.182538
3229.200944,-12065.356855,3108.864956,842.705048
3229.201282,-12139.377449,4071.132681,-4213.525239
3229.201619,-10732.986159,2442.679609,-4290.134789
3229.201957,-8882.471304,296.082377,-2221.676944
3229.202294,-6883.915261,-1406.391290,-1302.362347
3229.202632,-7254.018232,-2220.617826,-229.828649
3229.202969,-9548.656652,-3923.091493,229.828649
3229.203306,-10214.842000,-3775.050304,612.876398
3229.203644,-10436.903782,-4145.153275,3217.601092
3229.203981,-10955.047942,-1480.411884,3753.867940
3229.204319,-11917.315666,-518.144159,2145.067394
3229.204656,-12361.439231,888.247130,-995.924147
3229.204994,-11029.068536,370.102971,-3064.381992
3229.205331,-9696.697840,-1110.308913,-2298.286494
3229.205669,-8438.347739,-740.205942,-383.047749
3229.206006,-9178.553681,-1998.556043,76.609550
3229.206344,-9992.780217,-2368.659014,1532.190996
3229.206681,-10658.965565,-3552.988522,1225.752797
3229.207018,-9992.780217,-2220.617826,2528.115143
3229.207356,-10658.965565,0.000000,3524.039291
3229.207693,-12731.542202,1924.535449,1685.410096
3229.208031,-11843.295072,2738.761985,-2681.334243
3229.208368,-10214.842000,1480.411884,-3600.648841
3229.208706,-8438.347739,370.102971,-2451.505594
3229.209043,-7624.121203,-296.082377,-1072.533697
3229.209381,-9104.533087,-296.082377,-383.047749
3229.209718,-9178.553681,-2516.700203,-306.438199
3229.210056,-9474.636058,-2960.823768,1455.581446
3229.210393,-9252.574275,-2368.659014,3907.087040
3229.210731,-9844.739029,0.000000,4519.963438
3229.211068,-11621.233289,888.247130,1685.410096
3229.211406,-11769.274478,3108.864956,-2068.457845
3229.211743,-10807.006753,2664.741391,-2451.505594
3229.212080,-9030.512492,2590.720797,-1378.971896
3229.212418,-7698.141797,1406.391290,0.000000
3229.212755,-8734.430116,518.144159,153.219100
3229.213093,-9178.553681,-1480.411884,689.485948
3229.213430,-9696.697840,-1702.473667,2298.286494
3229.213768,-9770.718434,-1480.411884,3983.696590
3229.214105,-11325.150913,962.267725,4136.915689
3229.214443,-12731.542202,2886.803174,995.924147
3229.214780,-11843.295072,3108.864956,-4136.915689
3229.215118,-10066.800811,2294.638420,-4443.353888
3229.215455,-8734.430116,-370.102971,-1685.410096
3229.215793,-7550.100608,-962.267725,-995.924147
3229.216130,-8512.368333,-2072.576638,-1302.362347
3229.216468,-9770.718434,-3552.988522,-995.924147
3229.216805,-10510.924376,-4885.359217,995.924147
3229.217142,-10807.006753,-4589.276840,3600.648841
3229.217480,-11029.068536,-1776.494261,4366.744339
3229.217817,-11917.315666,-666.185348,1378.971896
3229.218155,-12139.377449,74.020594,-1455.581446
3229.218492,-10881.027347,-370.102971,-2451.505594
3229.218830,-8882.471304,-962.267725,-1991.848295
3229.219167,-7550.100608,-740.205942,153.219100
3229.219505,-9030.512492,-1406.391290,1838.629195
3229.219842,-9548.656652,-2072.576638,1762.019645
3229.220180,-9770.718434,-1924.535449,1915.238745
3229.220517,-9918.759623,-740.205942,3983.696590
3229.220855,-11769.274478,1036.288319,4290.134789
3229.221192,-12509.480420,3478.967927,1225.752797
3229.221529,-11843.295072,3627.009116,-2604.724693
3229.221867,-9474.636058,3256.906145,-3524.039291
3229.222204,-8586.388927,1554.432478,-2451.505594
3229.222542,-7624.121203,1110.308913,-1378.971896
3229.222879,-7920.203579,0.000000,-1378.971896
3229.223217,-9770.718434,-296.082377,-383.047749
3229.223554,-9770.718434,-2072.576638,1685.410096
3229.223892,-9622.677246,-1776.494261,3677.258390
3229.224229,-10510.924376,0.000000,4519.963438
3229.224567,-11843.295072,1850.514855,459.657299
3229.224904,-11917.315666,3034.844362,-2451.505594
3229.225242,-11177.109724,1850.514855,-3294.210641
3229.225579,-8586.388927,148.041188,-2451.505594
3229.225917,-6883.915261,-740.205942,-995.924147
3229.226254,-8142.265362,-1776.494261,-153.219100
3229.226591,-9548.656652,-3108.864956,1149.143247
3229.226929,-10140.821405,-3552.988522,2298.286494
3229.227266,-9696.697840,-2442.679609,4136.915689
3229.227604,-11547.212695,74.020594,4136.915689
3229.227941,-13323.706956,2146.597232,1762.019645
3229.228279,-12361.439231,2442.679609,-2221.676944
3229.228616,-10288.862594,1184.329507,-3830.477490
3229.228954,-8660.409521,-444.123565,-1762.019645
3229.229291,-7624.121203,-1406.391290,-766.095498
3229.229629,-8512.368333,-2442.679609,-1455.581446
3229.229966,-9400.615463,-3404.947333,-383.047749
3229.230304,-10658.965565,-3849.070898,1225.752797
3229.230641,-11103.089130,-3478.967927,2068.457845
3229.230979,-10732.986159,-1776.494261,2298.286494
3229.231316,-11843.295072,518.144159,459.657299
3229.231653,-11843.295072,518.144159,-612.876398
3229.231991,-10436.903782,740.205942,-2221.676944
3229.232328,-8142.265362,0.000000,-2451.505594
3229.232666,-7846.182985,-592.164754,0.000000
3229.233003,-9474.636058,-1258.350101,1685.410096
3229.233341,-10288.862594,-1850.514855,2451.505594
3229.233678,-9474.636058,-1702.473667,3447.429741
3229.234016,-9844.739029,-740.205942,4903.011187
3229.234353,-11103.089130,888.247130,4903.011187
3229.234691,-12139.377449,3775.050304,1608.800546
3229.235028,-11843.295072,4959.379811,-1608.800546
3229.235366,-9918.759623,3404.947333,-3370.820191
3229.235703,-8068.244768,2368.659014,-2528.115143
3229.236040,-7846.182985,1406.391290,-995.924147
3229.236378,-8068.244768,74.020594,-842.705048
3229.236715,-9104.533087,-1332.370696,459.657299
3229.237053,-9770.718434,-2664.741391,2451.505594
3229.237390,-9992.780217,-2072.576638,3677.258390
3229.237728,-10436.903782,0.000000,2451.505594
3229.238065,-11917.315666,1776.494261,-995.924147
3229.238403,-11843.295072,1184.329507,-3064.381992
3229.238740,-10066.800811,370.102971,-3524.039291
3229.239078,-8290.306550,-518.144159,-2604.724693
3229.239415,-6883.915261,-1776.494261,-1915.238745
3229.239753,-8808.450710,-2664.741391,-1072.533697
3229.240090,-11251.130318,-3627.009116,1302.362347
3229.240428,-10807.006753,-3775.050304,2451.505594
3229.240765,-10288.862594,-2442.679609,3524.039291
3229.241102,-12065.356855,-1332.370696,4290.134789
3229.241440,-13101.645173,1628.453072,1991.848295
3229.241777,-11843.295072,1554.432478,-1608.800546
3229.242115,-9844.739029,1110.308913,-2298.286494
3229.242452,-8216.285956,444.123565,-2451.505594
3229.242790,-8438.347739,-888.247130,0.000000
3229.243127,-9178.553681,-1110.308913,153.219100
3229.243465,-9326.594869,-1702.473667,0.000000
3229.243802,-10658.965565,-2294.638420,1685.410096
3229.244140,-10510.924376,-1776.494261,2374.896044
3229.244477,-10732.986159,148.041188,2834.553343
3229.244815,-11473.192101,1850.514855,153.219100
3229.245152,-11695.253884,2220.617826,-2068.457845
3229.245490,-9696.697840,814.226536,-2911.162892
3229.245827,-8512.368333,0.000000,-2221.676944
3229.246164,-7698.141797,1406.391290,-153.219100
3229.246502,-8808.450710,-74.020594,536.266849
3229.246839,-10140.821405,-1776.494261,2681.334243
3229.247177,-9474.636058,-1702.473667,3524.039291
3229.247514,-9474.636058,-814.226536,4596.572988
3229.247852,-11621.233289,1924.535449,5362.668486
3229.248189,-12805.562797,3182.885551,1991.848295
3229.248527,-11769.274478,4145.153275,-1991.848295
3229.248864,-9252.574275,2960.823768,-3140.991542
3229.249202,-8734.430116,1110.308913,-1455.581446
3229.249539,-7698.141797,444.123565,-612.876398
3229.249877,-8216.285956,-1258.350101,-1149.143247
3229.250214,-8512.368333,-2664.741391,0.000000
3229.250551,-9844.739029,-3849.070898,1762.019645
3229.250889,-10807.006753,-1850.514855,3600.648841
3229.251226,-11843.295072,-740.205942,1762.019645
3229.251564,-11695.253884,1924.535449,-1915.238745
3229.251901,-12509.480420,592.164754,-4213.525239
3229.252239,-10732.986159,-962.267725,-3217.601092
3229.252576,-8364.327145,-1776.494261,-2911.162892
3229.252914,-7550.100608,-2368.659014,-1532.190996
3229.253251,-9030.512492,-2738.761985,-995.924147
3229.253589,-10362.883188,-4441.235652,-76.609550
3229.253926,-11251.130318,-4737.318029,2604.724693
3229.254264,-10288.862594,-3256.906145,3294.210641
3229.254601,-11399.171507,-814.226536,3983.696590
3229.254939,-13545.768739,2072.576638,1608.800546
3229.255276,-12213.398043,2294.638420,-1378.971896
3229.255613,-9770.718434,1702.473667,-2145.067394
3229.255951,-8216.285956,370.102971,-612.876398
3229.256288,-7994.224174,444.123565,1072.533697
3229.256626,-9326.594869,222.061783,536.266849
3229.256963,-9918.759623,-962.267725,919.314598
3229.257301,-9474.636058,-1850.514855,1149.143247
3229.257638,-10066.800811,-962.267725,3447.429741
3229.257976,-10881.027347,1406.391290,3753.867940
3229.258313,-10955.047942,2886.803174,306.438199
3229.258651,-10881.027347,3256.906145,-3830.477490
3229.258988,-9400.615463,1258.350101,-4290.134789
3229.259326,-7846.182985,370.102971,-2298.286494
3229.259663,-6883.915261,518.144159,-1225.752797
3229.260001,-9030.512492,-1036.288319,-306.438199
3229.260338,-9400.615463,-2146.597232,1225.752797
3229.260675,-9400.615463,-2960.823768,2681.334243
3229.261013,-10658.965565,-1554.432478,5515.887586
3229.261350,-11917.315666,888.247130,4290.134789
3229.261688,-13619.789333,2368.659014,1302.362347
3229.262025,-12139.377449,3552.988522,-1762.019645
3229.262363,-9992.780217,1628.453072,-2681.334243
3229.262700,-7920.203579,0.000000,-689.485948
3229.263038,-8364.327145,-444.123565,-383.047749
3229.263375,-9178.553681,-666.185348,-229.828649
3229.263713,-10510.924376,-1924.535449,0.000000
3229.264050,-11177.109724,-3034.844362,1608.800546
3229.264388,-10510.924376,-2294.638420,2911.162892
3229.264725,-11251.130318,0.000000,2298.286494
3229.265062,-12065.356855,1480.411884,-919.314598
3229.265400,-11621.233289,740.205942,-3983.696590
3229.265737,-9992.780217,-296.082377,-3983.696590
3229.266075,-7402.059420,-1776.494261,-3140.991542
3229.266412,-6957.935855,-1998.556043,-1915.238745
3229.266750,-9104.533087,-2442.679609,-689.485948
3229.267087,-9918.759623,-3923.091493,76.609550
3229.267425,-9844.739029,-3923.091493,2681.334243
3229.267762,-9844.739029,-2294.638420,3983.696590
3229.268100,-11769.274478,518.144159,3677.258390
3229.268437,-13027.624579,1924.535449,1225.752797
3229.268775,-11769.274478,2664.741391,-536.266849
3229.269112,-9474.636058,1702.473667,-919.314598
3229.269450,-7920.203579,814.226536,0.000000
3229.269787,-8068.244768,1110.308913,842.705048
3229.270124,-9844.739029,0.000000,1455.581446
3229.270462,-9992.780217,74.020594,1532.190996
3229.270799,-10066.800811,-1036.288319,2145.067394
3229.271137,-10436.903782,-740.205942,4290.134789
3229.271474,-10732.986159,2368.659014,3447.429741
3229.271812,-12509.480420,3182.885551,-306.438199
3229.272149,-11029.068536,3701.029710,-4213.525239
3229.272487,-9770.718434,1258.350101,-4903.011187
3229.272824,-8512.368333,-888.247130,-2451.505594
3229.273162,-6883.915261,-1554.432478,-2068.457845
3229.273499,-7846.182985,-2664.741391,-919.314598
3229.273837,-9622.677246,-3552.988522,1072.533697
3229.274174,-9844.739029,-4441.235652,2451.505594
3229.274512,-10214.842000,-2368.659014,3830.477490
3229.274849,-11917.315666,-1258.350101,2987.772442
3229.275186,-13175.665768,1258.350101,0.000000
3229.275524,-11843.295072,962.267725,-2145.067394
3229.275861,-9696.697840,-592.164754,-2068.457845
3229.276199,-7772.162391,-1184.329507,76.609550
3229.276536,-8290.306550,-1184.329507,306.438199
3229.276874,-10362.883188,-1332.370696,459.657299
3229.277211,-10510.924376,-3034.844362,612.876398
3229.277549,-10510.924376,-2590.720797,2451.505594
3229.277886,-10807.006753,-1258.350101,2987.772442
3229.278224,-11695.253884,1110.308913,2451.505594
3229.278561,-11843.295072,2146.597232,-459.657299
3229.278899,-11251.130318,1554.432478,-3217.601092
3229.279236,-9326.594869,1110.308913,-3140.991542
3229.279573,-7772.162391,-74.020594,-2987.772442
3229.279911,-7920.203579,-518.144159,-2374.896044
3229.280248,-9104.533087,-1184.329507,-1302.362347
3229.280586,-10140.821405,-2072.576638,766.095498
3229.280923,-9474.636058,-2960.823768,2757.943793
3229.281261,-9474.636058,-962.267725,3294.210641
3229.281598,-11029.068536,814.226536,3217.601092
3229.281936,-12509.480420,2738.761985,689.485948
3229.282273,-11251.130318,2368.659014,-1378.971896
3229.282611,-8956.491898,1480.411884,-1072.533697
3229.282948,-7698.141797,962.267725,536.266849
3229.283286,-7994.224174,1628.453072,842.705048
3229.283623,-9622.677246,444.123565,1302.362347
3229.283961,-9992.780217,-370.102971,1378.971896
3229.284298,-9770.718434,-1776.494261,3217.601092
3229.284635,-10881.027347,148.041188,5056.230287
3229.284973,-11399.171507,2146.597232,3140.991542
3229.285310,-12213.398043,3256.906145,-306.438199
3229.285648,-11103.089130,2516.700203,-3983.696590
3229.285985,-9474.636058,222.061783,-3753.867940
3229.286323,-8142.265362,-370.102971,-1072.533697
3229.286660,-7920.203579,-888.247130,-1302.362347
3229.286998,-9104.533087,-1628.453072,-2374.896044
3229.287335,-10140.821405,-3478.967927,-1378.971896
3229.287673,-10881.027347,-4293.194464,1302.362347
3229.288010,-10362.883188,-2442.679609,2987.772442
3229.288348,-11843.295072,-888.247130,2681.334243
3229.288685,-13101.645173,444.123565,-766.095498
3229.289023,-11621.233289,-444.123565,-2451.505594
3229.289360,-10140.821405,-666.185348,-1225.752797
3229.289697,-7846.182985,-2220.617826,689.485948
3229.290035,-8660.409521,-1554.432478,1915.238745
3229.290372,-10214.842000,-1480.411884,2374.896044
3229.290710,-10288.862594,-1776.494261,1378.971896
3229.291047,-10214.842000,-2294.638420,2374.896044
3229.291385,-10658.965565,-296.082377,3753.867940
3229.291722,-11917.315666,1480.411884,3064.381992
3229.292060,-11769.274478,3108.864956,76.609550
3229.292397,-10140.821405,2220.617826,-3140.991542
3229.292735,-8734.430116,1184.329507,-2528.115143
3229.293072,-7328.038826,0.000000,-2145.067394
3229.293410,-7476.080014,592.164754,-1302.362347
3229.293747,-9326.594869,-444.123565,-1762.019645
3229.294084,-10140.821405,-1924.535449,-1455.581446
3229.294422,-9104.533087,-2072.576638,1532.190996
3229.294759,-9474.636058,-888.247130,3294.210641
3229.295097,-11177.109724,1480.411884,2604.724693
3229.295434,-13175.665768,1702.473667,-766.095498
3229.295772,-11547.212695,2146.597232,-3140.991542
3229.296109,-9178.553681,-148.041188,-1455.581446
3229.296447,-8882.471304,-444.123565,1149.143247
3229.296784,-8586.388927,-666.185348,1302.362347
3229.297122,-10362.883188,-1036.288319,229.828649
3229.297459,-10881.027347,-2220.617826,1072.533697
3229.297797,-10140.821405,-2220.617826,2604.724693
3229.298134,-10362.883188,-222.061783,4749.792088
3229.298472,-12139.377449,962.267725,3600.648841
3229.298809,-11917.315666,1850.514855,-383.047749
3229.299146,-11251.130318,1480.411884,-3370.820191
3229.299484,-9474.636058,-148.041188,-2681.334243
3229.299821,-7476.080014,-1628.453072,-612.876398
3229.300159,-7698.141797,-1776.494261,-612.876398
3229.300496,-9252.574275,-1998.556043,-1915.238745
3229.300834,-10510.924376,-3701.029710,-2221.676944
3229.301171,-10066.800811,-3256.906145,76.609550
3229.301509,-10658.965565,-2590.720797,2374.896044
3229.301846,-11029.068536,-296.082377,1838.629195
3229.302184,-11843.295072,518.144159,-995.924147
3229.302521,-11251.130318,148.041188,-1608.800546
3229.302859,-9030.512492,-1036.288319,-459.657299
3229.303196,-8290.306550,-1258.350101,1149.143247
3229.303534,-9252.574275,-592.164754,2298.286494
3229.303871,-11103.089130,74.020594,1915.238745
3229.304208,-11251.130318,-814.226536,2451.505594
3229.304546,-10658.965565,-370.102971,3447.429741
3229.304883,-10584.944971,1332.370696,4366.744339
3229.305221,-11843.295072,2664.741391,3294.210641
3229.305558,-11917.315666,3997.112087,76.609550
3229.305896,-10140.821405,2960.823768,-2528.115143
3229.306233,-8956.491898,2590.720797,-2145.067394
3229.306571,-7402.059420,1776.494261,-995.924147
3229.306908,-7328.038826,1184.329507,-1455.581446
3229.307246,-9030.512492,-592.164754,-995.924147
3229.307583,-9030.512492,-1332.370696,-612.876398
3229.307921,-8882.471304,-1554.432478,1762.019645
3229.308258,-9548.656652,-740.205942,3370.820191
3229.308595,-10881.027347,296.082377,229.828649
3229.308933,-11399.171507,1036.288319,-2834.553343
3229.309270,-11029.068536,740.205942,-3447.429741
3229.309608,-8512.368333,-1554.432478,-2068.457845
3229.309945,-7179.997637,-1702.473667,-306.438199
3229.310283,-8734.430116,-1850.514855,995.924147
3229.310620,-10881.027347,-1998.556043,612.876398
3229.310957,-11103.089130,-2664.741391,612.876398
3229.311295,-11621.233289,-2442.679609,2834.553343
3229.311632,-11251.130318,-1480.411884,4673.182538
3229.311970,-12509.480420,1110.308913,2834.553343
3229.312307,-11991.336260,1332.370696,0.000000
3229.312645,-11103.089130,814.226536,-2298.286494
3229.312982,-9400.615463,-222.061783,-1838.629195
3229.313320,-9030.512492,-888.247130,-689.485948
3229.313657,-8364.327145,0.000000,-766.095498
3229.313994,-9770.718434,-1184.329507,-1838.629195
3229.314332,-10362.883188,-2368.659014,-1225.752797
3229.314669,-9474.636058,-2072.576638,919.314598
3229.315007,-10140.821405,-740.205942,2834.553343
3229.315344,-11473.192101,222.061783,766.095498
3229.315682,-11473.192101,814.226536,-1455.581446
3229.316019,-10214.842000,0.000000,-1762.019645
3229.316356,-8438.347739,-1332.370696,76.609550
3229.316694,-7476.080014,-666.185348,612.876398
3229.317031,-8808.450710,-666.185348,1225.752797
3229.317369,-10510.924376,-1776.494261,1072.533697
3229.317706,-10140.821405,-2590.720797,2068.457845
3229.318044,-9696.697840,-592.164754,3830.477490
3229.318381,-10510.924376,296.082377,5439.278036
3229.318718,-11399.171507,2294.638420,2451.505594
3229.319056,-11843.295072,3108.864956,153.219100
3229.319393,-11399.171507,2590.720797,-1608.800546
3229.319731,-9178.553681,1776.494261,-2068.457845
3229.320068,-8882.471304,740.205942,-306.438199
3229.320406,-9030.512492,666.185348,-689.485948
3229.320743,-9326.594869,-222.061783,-2451.505594
3229.321081,-9622.677246,-2664.741391,-612.876398
3229.321418,-9400.615463,-1998.556043,2068.457845
3229.321755,-10584.944971,-1036.288319,2681.334243
3229.322093,-11917.315666,1184.329507,536.266849
3229.322430,-12139.377449,1850.514855,-4213.525239
3229.322768,-11029.068536,-148.041188,-3600.648841
3229.323105,-9178.553681,-1554.432478,-1915.238745
3229.323443,-7179.997637,-2220.617826,0.000000
3229.323780,-8438.347739,-1998.556043,153.219100
3229.324117,-10436.903782,-2886.803174,-536.266849
3229.324455,-10807.006753,-4145.153275,229.828649
3229.324792,-10732.986159,-3256.906145,2911.162892
3229.325130,-11325.150913,-962.267725,4903.011187
3229.325467,-11843.295072,1036.288319,2911.162892
3229.325805,-11769.274478,1776.494261,0.000000
3229.326142,-10288.862594,1480.411884,-1302.362347
3229.326479,-9252.574275,222.061783,-995.924147
3229.326817,-8068.244768,444.123565,536.266849
3229.327154,-8956.491898,592.164754,459.657299
3229.327492,-10066.800811,0.000000,-383.047749
3229.327829,-9696.697840,-1036.288319,-536.266849
3229.328167,-9178.553681,-1554.432478,1378.971896
3229.328504,-9474.636058,-296.082377,3524.039291
3229.328842,-11769.274478,1776.494261,1915.238745
3229.329179,-11843.295072,2442.679609,-2528.115143
3229.329516,-10214.842000,1850.514855,-4366.744339
3229.329854,-9400.615463,888.247130,-1915.238745
3229.330191,-8290.306550,0.000000,459.657299
3229.330529,-7994.224174,-74.020594,229.828649
3229.330866,-9474.636058,-814.226536,689.485948
3229.331204,-10584.944971,-2442.679609,1302.362347
3229.331541,-9770.718434,-1776.494261,3907.087040
3229.331878,-11177.109724,-518.144159,4903.011187
3229.332216,-12583.501014,1702.473667,3370.820191
3229.332553,-12287.418637,2812.782580,-689.485948
3229.332891,-10510.924376,1554.432478,-2681.334243
3229.333228,-8586.388927,0.000000,-1685.410096
3229.333566,-7328.038826,-296.082377,-612.876398
3229.333903,-8364.327145,0.000000,0.000000
3229.334240,-9844.739029,-1036.288319,-1762.019645
3229.334578,-10140.821405,-2516.700203,-1149.143247
3229.334915,-9844.739029,-1998.556043,1838.629195
3229.335253,-10658.965565,-814.226536,2911.162892
3229.335590,-11473.192101,666.185348,919.314598
3229.335928,-11917.315666,592.164754,-3600.648841
3229.336265,-10807.006753,0.000000,-4136.915689
3229.336603,-9252.574275,-1332.370696,-2298.286494
3229.336940,-7698.141797,-2368.659014,0.000000
3229.337277,-8068.244768,-2368.659014,-459.657299
3229.337615,-10288.862594,-3404.947333,229.828649
3229.337952,-10658.965565,-3330.926739,1149.143247
3229.338290,-10066.800811,-3256.906145,2604.724693
3229.338627,-11103.089130,-962.267725,4290.134789
3229.338965,-12805.562797,888.247130,2911.162892
3229.339302,-11991.336260,1998.556043,536.266849
3229.339639,-10288.862594,1480.411884,-1072.533697
3229.339977,-8882.471304,518.144159,-306.438199
3229.340314,-7920.203579,444.123565,1302.362347
3229.340652,-8808.450710,814.226536,1072.533697
3229.340989,-9992.780217,740.205942,995.924147
3229.341327,-9992.780217,-740.205942,229.828649
3229.341664,-9104.533087,-1258.350101,2451.505594
3229.342001,-10066.800811,888.247130,4213.525239
3229.342339,-11547.212695,2516.700203,1455.581446
3229.342676,-11547.212695,3775.050304,-2681.334243
3229.343014,-10658.965565,2072.576638,-4903.011187
3229.343351,-8586.388927,666.185348,-2757.943793
3229.343689,-8290.306550,-518.144159,-1225.752797
3229.344026,-7698.141797,-1332.370696,-1072.533697
3229.344364,-8586.388927,-2516.700203,-766.095498
3229.344701,-9770.718434,-3775.050304,1302.362347
3229.345038,-10066.800811,-2812.782580,3370.820191
3229.345376,-11177.109724,-1406.391290,4060.306139
3229.345713,-13101.645173,518.144159,2757.943793
3229.346051,-12435.459826,1406.391290,-1149.143247
3229.346388,-10658.965565,1110.308913,-1838.629195
3229.346726,-9400.615463,-222.061783,-1149.143247
3229.347063,-8068.244768,-1036.288319,-153.219100
3229.347400,-8290.306550,-518.144159,76.609550
3229.347738,-10362.883188,-1776.494261,76.609550
3229.348075,-10807.006753,-1850.514855,383.047749
3229.348413,-10658.965565,-1998.556043,2145.067394
3229.348750,-11029.068536,222.061783,2911.162892
3229.349088,-12065.356855,1036.288319,1072.533697
3229.349425,-12065.356855,2072.576638,-1838.629195
3229.349762,-10066.800811,1110.308913,-3294.210641
3229.350100,-8660.409521,-518.144159,-1991.848295
3229.350437,-7550.100608,-962.267725,-842.705048
3229.350775,-8438.347739,-1184.329507,-1225.752797
3229.351112,-10214.842000,-2146.597232,0.000000
3229.351450,-9400.615463,-2368.659014,995.924147
3229.351787,-9992.780217,-3182.885551,3217.601092
3229.352125,-10288.862594,-296.082377,4213.525239
3229.352462,-11843.295072,1406.391290,2145.067394
3229.352799,-12583.501014,1776.494261,306.438199
3229.353137,-10732.986159,1480.411884,-1915.238745
3229.353474,-8882.471304,1480.411884,-153.219100
3229.353812,-8290.306550,1406.391290,536.266849
3229.354149,-7994.224174,0.000000,766.095498
3229.354487,-9326.594869,-444.123565,766.095498
3229.354824,-10066.800811,-1554.432478,1225.752797
3229.355161,-9548.656652,-518.144159,3217.601092
3229.355499,-11695.253884,962.267725,4443.353888
3229.355836,-12583.501014,3108.864956,842.705048
3229.356174,-11621.233289,3256.906145,-3294.210641
3229.356511,-9844.739029,1850.514855,-4903.011187
3229.356849,-8142.265362,148.041188,-1915.238745
3229.357186,-7550.100608,-1628.453072,-1762.019645
3229.357523,-7994.224174,-1554.432478,-919.314598
3229.357861,-9252.574275,-2590.720797,-1532.190996
3229.358198,-10140.821405,-3701.029710,689.485948
3229.358536,-11251.130318,-3849.070898,2987.772442
3229.358873,-11251.130318,-1998.556043,3753.867940
3229.359211,-12213.398043,-148.041188,1915.238745
3229.359548,-12361.439231,666.185348,-689.485948
3229.359886,-11473.192101,-74.020594,-1838.629195
3229.360223,-9030.512492,-1258.350101,-1225.752797
3229.360560,-7772.162391,-1036.288319,0.000000
3229.360898,-8586.388927,-1702.473667,459.657299
3229.361235,-10066.800811,-1776.494261,459.657299
3229.361573,-10362.883188,-2368.659014,1608.800546
3229.361910,-10214.842000,-1480.411884,2604.724693
3229.362248,-11177.109724,592.164754,3600.648841
3229.362585,-12879.583391,2812.782580,2221.676944
3229.362922,-12361.439231,2886.803174,-1225.752797
3229.363260,-9474.636058,1924.535449,-3064.381992
3229.363597,-7846.182985,296.082377,-1685.410096
3229.363935,-7476.080014,222.061783,-1072.533697
3229.364272,-8290.306550,-518.144159,-1455.581446
3229.364610,-9696.697840,-1258.350101,-842.705048
3229.364947,-9104.533087,-3182.885551,459.657299
3229.365284,-9622.677246,-1554.432478,3677.258390
3229.365622,-11103.089130,-74.020594,4290.134789
3229.365959,-11843.295072,888.247130,1838.629195
3229.366297,-12213.398043,2812.782580,-1149.143247
3229.366634,-10955.047942,1628.453072,-2451.505594
3229.366972,-8660.409521,814.226536,-1072.533697
3229.367309,-8142.265362,-222.061783,0.000000
3229.367647,-7846.182985,-1110.308913,76.609550
3229.367984,-9548.656652,-1628.453072,229.828649
3229.368321,-10066.800811,-2960.823768,1838.629195
3229.368659,-9548.656652,-1776.494261,3217.601092
3229.368996,-11325.150913,-222.061783,3983.696590
3229.369334,-12953.603985,2664.741391,1915.238745
3229.369671,-12509.480420,2886.803174,-2221.676944
3229.370009,-10362.883188,1924.535449,-3600.648841
3229.370346,-8586.388927,-666.185348,-2221.676944
3229.370683,-7550.100608,-1110.308913,-383.047749
3229.371021,-7994.224174,-2072.576638,-995.924147
3229.371358,-9474.636058,-2368.659014,-1149.143247
3229.371696,-10510.924376,-4219.173869,153.219100
3229.372033,-10584.944971,-3108.864956,1838.629195
3229.372371,-11399.171507,-1702.473667,2681.334243
3229.372708,-12139.377449,444.123565,1225.752797
3229.373045,-11621.233289,962.267725,-1455.581446
3229.373383,-10288.862594,148.041188,-2374.896044
3229.373720,-8364.327145,-666.185348,-1532.190996
3229.374058,-7624.121203,-740.205942,229.828649
3229.374395,-9474.636058,-1036.288319,1608.800546
3229.374733,-10214.842000,-1480.411884,1991.848295
3229.375070,-10066.800811,-1258.350101,2298.286494
3229.375408,-10214.842000,-1184.329507,4060.306139
3229.375745,-11177.109724,1776.494261,4443.353888
3229.376082,-12583.501014,2812.782580,2528.115143
3229.376420,-12139.377449,4145.153275,-1149.143247
3229.376757,-9770.718434,3775.050304,-3830.477490
3229.377095,-8808.450710,2220.617826,-2604.724693
3229.377432,-7476.080014,740.205942,-1378.971896
3229.377770,-7254.018232,-222.061783,-995.924147
3229.378107,-8808.450710,-740.205942,0.000000
3229.378444,-9844.739029,-2368.659014,1608.800546
3229.378782,-9770.718434,-2072.576638,3294.210641
3229.379119,-11547.212695,-592.164754,3907.087040
3229.379457,-12435.459826,1184.329507,766.095498
3229.379794,-11843.295072,2146.597232,-2604.724693
3229.380132,-10510.924376,592.164754,-2911.162892
3229.380469,-7994.224174,-666.185348,-1762.019645
3229.380807,-6513.812290,-1998.556043,-919.314598
3229.381144,-8438.347739,-2220.617826,0.000000
3229.381481,-10066.800811,-3108.864956,689.485948
3229.381819,-10510.924376,-3552.988522,1608.800546
3229.382156,-10436.903782,-2368.659014,3830.477490
3229.382494,-11695.253884,-222.061783,4826.401637
3229.382831,-12879.583391,1406.391290,2604.724693
3229.383169,-12213.398043,1480.411884,-1455.581446
3229.383506,-10807.006753,740.205942,-2604.724693
3229.383843,-8586.388927,-74.020594,-2145.067394
3229.384181,-7698.141797,-1184.329507,-919.314598
3229.384518,-8290.306550,-1850.514855,-1225.752797
3229.384856,-9400.615463,-2590.720797,-689.485948
3229.385193,-10140.821405,-3034.844362,689.485948
3229.385531,-10807.006753,-2220.617826,1915.238745
3229.385868,-11473.192101,-592.164754,2298.286494
3229.386205,-12287.418637,740.205942,306.438199
3229.386543,-12065.356855,1184.329507,-1532.190996
3229.386880,-10658.965565,1036.288319,-1915.238745
3229.387218,-8364.327145,-592.164754,-1915.238745
3229.387555,-7105.977043,-740.205942,-1225.752797
3229.387893,-8438.347739,-1258.350101,459.657299
3229.388230,-9400.615463,-1184.329507,2911.162892
3229.388568,-9844.739029,-2368.659014,2834.553343
3229.388905,-9844.739029,-740.205942,4596.572988
3229.389242,-11547.212695,1998.556043,5056.230287
3229.389580,-13027.624579,3034.844362,2451.505594
3229.389917,-11917.315666,4293.194464,-1072.533697
3229.390255,-10066.800811,3404.947333,-2451.505594
3229.390592,-8512.368333,2294.638420,-1455.581446
3229.390930,-7105.977043,666.185348,-1455.581446
3229.391267,-7624.121203,0.000000,-536.266849
3229.391604,-9104.533087,-2072.576638,0.000000
3229.391942,-9178.553681,-2590.720797,1455.581446
3229.392279,-9696.697840,-1924.535449,3830.477490
3229.392617,-11843.295072,296.082377,3447.429741
3229.392954,-12287.418637,2220.617826,-383.047749
3229.393292,-12287.418637,1332.370696,-4060.306139
3229.393629,-10140.821405,518.144159,-2757.943793
3229.393966,-8290.306550,-740.205942,-1991.848295
3229.394304,-6735.874072,-1850.514855,-1455.581446
3229.394641,-8068.244768,-2294.638420,-1302.362347
3229.394979,-10362.883188,-3701.029710,842.705048
3229.395316,-10881.027347,-3552.988522,1302.362347
