#time,accel_x,accel_y,accel_z
3060.406692,-9844.739029,-740.205942,1149.143247
3060.407029,-9770.718434,-518.144159,919.314598
3060.407367,-10140.821405,-592.164754,1072.533697
3060.407704,-10362.883188,0.000000,1685.410096
3060.408041,-9844.739029,-74.020594,1378.971896
3060.408378,-10288.862594,666.185348,2221.676944
3060.408715,-10362.883188,666.185348,1072.533697
3060.409053,-9918.759623,518.144159,1455.581446
3060.409390,-9770.718434,1184.329507,766.095498
3060.409727,-9844.739029,1184.329507,-766.095498
3060.410064,-9548.656652,1332.370696,0.000000
3060.410402,-9918.759623,740.205942,0.000000
3060.410739,-9474.636058,1036.288319,-612.876398
3060.411076,-9770.718434,1406.391290,-1302.362347
3060.411413,-10288.862594,444.123565,-1149.143247
3060.411751,-9992.780217,-518.144159,-1532.190996
3060.412088,-9918.759623,-1480.411884,-1225.752797
3060.412425,-9252.574275,-740.205942,-842.705048
3060.412762,-9400.615463,-1258.350101,-1225.752797
3060.413099,-9770.718434,-1554.432478,-995.924147
3060.413437,-10436.903782,-2590.720797,-536.266849
3060.413774,-10658.965565,-2442.679609,0.000000
3060.414111,-9844.739029,-1628.453072,0.000000
3060.414448,-10066.800811,-1480.411884,0.000000
3060.414786,-10658.965565,-1554.432478,229.828649
3060.415123,-11177.109724,-2146.597232,229.828649
3060.415460,-10214.842000,-1554.432478,1149.143247
3060.415797,-9474.636058,-444.123565,689.485948
3060.416134,-10732.986159,-74.020594,919.314598
3060.416472,-11177.109724,-740.205942,153.219100
3060.416809,-10658.965565,-1184.329507,-383.047749
3060.417146,-9770.718434,444.123565,0.000000
3060.417483,-9622.677246,0.000000,-612.876398
3060.417821,-10066.800811,74.020594,-919.314598
3060.418158,-10066.800811,-1036.288319,-1838.629195
3060.418495,-9548.656652,-1110.308913,-995.924147
3060.418832,-8956.491898,-962.267725,0.000000
3060.419170,-9844.739029,-296.082377,229.828649
3060.419507,-10584.944971,0.000000,-1378.971896
3060.419844,-10066.800811,-222.061783,-4060.306139
3060.420181,-9770.718434,-2072.576638,-2221.676944
3060.420518,-9474.636058,-1628.453072,76.609550
3060.420856,-9030.512492,-2072.576638,-919.314598
3060.421193,-9844.739029,-740.205942,-1915.238745
3060.421530,-9622.677246,-1480.411884,-2604.724693
3060.421867,-9918.759623,-2294.638420,-536.266849
3060.422205,-9770.718434,-2220.617826,-229.828649
3060.422542,-9918.759623,-888.247130,-1378.971896
3060.422879,-11843.295072,-1036.288319,-2145.067394
3060.423216,-11399.171507,-2072.576638,-3140.991542
3060.423554,-8808.450710,-2886.803174,-4060.306139
3060.423891,-8882.471304,-3849.070898,-2604.724693
3060.424228,-8956.491898,-2738.761985,-1225.752797
3060.424565,-9400.615463,-3034.844362,-2374.896044
3060.424902,-10584.944971,-2812.782580,-2604.724693
3060.425240,-9548.656652,-2664.741391,-3064.381992
3060.425577,-10807.006753,-3478.967927,-3140.991542
3060.425914,-11103.089130,-4219.173869,-3753.867940
3060.426251,-10140.821405,-6365.771101,-4596.572988
3060.426589,-9548.656652,-6291.750507,-3677.258390
3060.426926,-8734.430116,-7105.977043,-3294.210641
3060.427263,-8216.285956,-6365.771101,-2221.676944
3060.427600,-9548.656652,-5995.668130,-1838.629195
3060.427937,-10362.883188,-4737.318029,-1225.752797
3060.428275,-11251.130318,-3627.009116,-2451.505594
3060.428612,-10732.986159,-3627.009116,-3524.039291
3060.428949,-11029.068536,-4071.132681,-1915.238745
3060.429286,-11769.274478,-5107.421000,-383.047749
3060.429624,-10140.821405,-3849.070898,383.047749
3060.429961,-9474.636058,-3108.864956,1302.362347
3060.430298,-9770.718434,-2738.761985,689.485948
3060.430635,-9696.697840,-3034.844362,-306.438199
3060.430973,-10066.800811,-2368.659014,-306.438199
3060.431310,-9252.574275,-1184.329507,229.828649
3060.431647,-9474.636058,888.247130,536.266849
3060.431984,-11103.089130,1776.494261,0.000000
3060.432321,-11399.171507,518.144159,-2757.943793
3060.432659,-11399.171507,-814.226536,-2987.772442
3060.432996,-9770.718434,-2146.597232,-1991.848295
3060.433333,-8808.450710,-2146.597232,-766.095498
3060.433670,-8586.388927,-2368.659014,-2145.067394
3060.434008,-8290.306550,-2960.823768,-2911.162892
3060.434345,-8808.450710,-2442.679609,-3064.381992
3060.434682,-9104.533087,-1480.411884,-1762.019645
3060.435019,-9548.656652,444.123565,-1532.190996
3060.435357,-10288.862594,592.164754,-2145.067394
3060.435694,-12435.459826,222.061783,-1685.410096
3060.436031,-12805.562797,-370.102971,-1915.238745
3060.436368,-9326.594869,-1406.391290,-1915.238745
3060.436705,-7624.121203,-2664.741391,306.438199
3060.437043,-8956.491898,-3478.967927,1838.629195
3060.437380,-9696.697840,-2072.576638,-76.609550
3060.437717,-9474.636058,-518.144159,-2451.505594
3060.438054,-10436.903782,-2146.597232,-1378.971896
3060.438392,-11843.295072,-888.247130,-2604.724693
3060.438729,-11769.274478,-592.164754,-5362.668486
3060.439066,-10140.821405,-666.185348,-3907.087040
3060.439403,-7624.121203,-1628.453072,-2068.457845
3060.439740,-8882.471304,-1480.411884,-1532.190996
3060.440078,-11029.068536,-2368.659014,-2834.553343
3060.440415,-11843.295072,-2590.720797,-3140.991542
3060.440752,-10066.800811,-3627.009116,-2987.772442
3060.441089,-9474.636058,-3552.988522,-1762.019645
3060.441427,-10066.800811,-2368.659014,-536.266849
3060.441764,-10510.924376,-2072.576638,-1455.581446
3060.442101,-11177.109724,-1628.453072,-2757.943793
3060.442438,-11325.150913,-2146.597232,-3447.429741
3060.442776,-11177.109724,-2368.659014,-2604.724693
3060.443113,-9918.759623,-2368.659014,-1532.190996
3060.443450,-8808.450710,-2812.782580,-1915.238745
3060.443787,-8586.388927,-2516.700203,-536.266849
3060.444124,-9548.656652,-2738.761985,-612.876398
3060.444462,-8808.450710,-1702.473667,76.609550
3060.444799,-9104.533087,-1036.288319,1762.019645
3060.445136,-10584.944971,0.000000,1149.143247
3060.445473,-11325.150913,666.185348,-536.266849
3060.445811,-11103.089130,222.061783,-1838.629195
3060.446148,-10362.883188,-1258.350101,-3447.429741
3060.446485,-9252.574275,-2812.782580,-3140.991542
3060.446822,-9178.553681,-3034.844362,-2757.943793
3060.447160,-8290.306550,-3849.070898,-3140.991542
3060.447497,-9252.574275,-5107.421000,-3753.867940
3060.447834,-8882.471304,-4589.276840,-3447.429741
3060.448171,-9770.718434,-4737.318029,-1149.143247
3060.448508,-9548.656652,-2664.741391,-612.876398
3060.448846,-9548.656652,-1924.535449,-995.924147
3060.449183,-11991.336260,-2738.761985,-842.705048
3060.449520,-11399.171507,-3701.029710,-2911.162892
3060.449857,-11103.089130,-5699.585753,-1455.581446
3060.450195,-10214.842000,-5921.647536,-1685.410096
3060.450532,-7994.224174,-6735.874072,-1532.190996
3060.450869,-8068.244768,-7179.997637,-1225.752797
3060.451206,-8882.471304,-4811.338623,-383.047749
3060.451543,-9844.739029,-3330.926739,-1378.971896
3060.451881,-11399.171507,-1924.535449,-2374.896044
3060.452218,-11029.068536,-1036.288319,-2451.505594
3060.452555,-12805.562797,-74.020594,-1685.410096
3060.452892,-13249.686362,-1480.411884,-2834.553343
3060.453230,-9918.759623,-2812.782580,-2528.115143
3060.453567,-9400.615463,-4293.194464,-536.266849
3060.453904,-8956.491898,-4737.318029,76.609550
3060.454241,-9178.553681,-3108.864956,-1072.533697
3060.454579,-8882.471304,-2146.597232,-2911.162892
3060.454916,-9400.615463,-2368.659014,-3294.210641
3060.455253,-10066.800811,-1480.411884,-3907.087040
3060.455590,-10584.944971,-814.226536,-4443.353888
3060.455927,-9696.697840,-1036.288319,-3753.867940
3060.456265,-8882.471304,-1628.453072,-2834.553343
3060.456602,-9030.512492,-666.185348,-766.095498
3060.456939,-10288.862594,0.000000,0.000000
3060.457276,-9992.780217,-1406.391290,229.828649
3060.457614,-10658.965565,-2146.597232,-459.657299
3060.457951,-9696.697840,-2368.659014,-306.438199
3060.458288,-9030.512492,-1702.473667,-229.828649
3060.458625,-8956.491898,-1332.370696,842.705048
3060.458963,-9400.615463,888.247130,0.000000
3060.459300,-11547.212695,1332.370696,-1532.190996
3060.459637,-12583.501014,2664.741391,-3370.820191
3060.459974,-11621.233289,1184.329507,-4136.915689
3060.460311,-11621.233289,-962.267725,-4366.744339
3060.460649,-8290.306550,-3108.864956,-4213.525239
3060.460986,-7994.224174,-4441.235652,-1455.581446
3060.461323,-7550.100608,-4737.318029,229.828649
3060.461660,-8586.388927,-3701.029710,-842.705048
3060.461998,-10140.821405,-2072.576638,-2298.286494
3060.462335,-11917.315666,-3256.906145,-3600.648841
3060.462672,-12065.356855,-3108.864956,-2528.115143
3060.463009,-10881.027347,-3108.864956,-2528.115143
3060.463347,-9400.615463,-3404.947333,-995.924147
3060.463684,-8956.491898,-3923.091493,-995.924147
3060.464021,-9696.697840,-4071.132681,-1685.410096
3060.464358,-10436.903782,-3997.112087,-2298.286494
3060.464695,-10881.027347,-4811.338623,-1915.238745
3060.465033,-9918.759623,-4071.132681,-459.657299
3060.465370,-10732.986159,-2072.576638,-229.828649
3060.465707,-11251.130318,-1554.432478,-842.705048
3060.466045,-10658.965565,-814.226536,-995.924147
3060.466382,-10658.965565,-814.226536,-919.314598
3060.466719,-10362.883188,-1628.453072,-842.705048
3060.467056,-11325.150913,-1036.288319,0.000000
3060.467394,-10288.862594,-592.164754,0.000000
3060.467731,-9474.636058,-962.267725,-1532.190996
3060.468068,-9474.636058,-1480.411884,-2757.943793
3060.468406,-10436.903782,-1924.535449,-2681.334243
3060.468743,-9696.697840,-2590.720797,-2834.553343
3060.469080,-8660.409521,-1924.535449,-3830.477490
3060.469417,-8216.285956,-1998.556043,-2911.162892
3060.469755,-9104.533087,-1850.514855,-2987.772442
3060.470092,-9252.574275,-1998.556043,-2451.505594
3060.470429,-10807.006753,-1406.391290,-1532.190996
3060.470767,-10214.842000,-1258.350101,-1302.362347
3060.471104,-9474.636058,-2442.679609,0.000000
3060.471441,-10288.862594,-2516.700203,536.266849
3060.471778,-9622.677246,-3330.926739,-459.657299
3060.472116,-9548.656652,-4071.132681,766.095498
3060.472453,-9992.780217,-2812.782580,459.657299
3060.472790,-9252.574275,-1184.329507,-1532.190996
3060.473128,-9844.739029,-1332.370696,-2068.457845
3060.473465,-11325.150913,-2146.597232,-1915.238745
3060.473802,-10881.027347,-1332.370696,-2604.724693
3060.474139,-11251.130318,-1036.288319,-3064.381992
3060.474477,-9400.615463,-1332.370696,-2987.772442
3060.474814,-10214.842000,-3775.050304,-995.924147
3060.475151,-10214.842000,-3330.926739,0.000000
3060.475489,-9104.533087,-4145.153275,919.314598
3060.475826,-11547.212695,-3923.091493,919.314598
3060.476163,-11473.192101,-3552.988522,-2374.896044
3060.476500,-10732.986159,-4737.318029,-2221.676944
3060.476838,-9030.512492,-4071.132681,-1378.971896
3060.477175,-7550.100608,-2812.782580,-919.314598
3060.477512,-9548.656652,-1776.494261,-842.705048
3060.477850,-9844.739029,-1332.370696,-3064.381992
3060.478187,-11177.109724,-2886.803174,-1838.629195
3060.478524,-10658.965565,-2220.617826,995.924147
3060.478861,-9548.656652,-1110.308913,2298.286494
3060.479199,-11399.171507,-666.185348,4136.915689
3060.479536,-9548.656652,-666.185348,306.438199
3060.479873,-8808.450710,-518.144159,1455.581446
3060.480211,-10658.965565,740.205942,1838.629195
3060.480548,-8142.265362,1258.350101,1149.143247
3060.480885,-11177.109724,1110.308913,1225.752797
3060.481222,-11991.336260,1628.453072,-306.438199
3060.481560,-10658.965565,1850.514855,-1838.629195
3060.481897,-8660.409521,1332.370696,-689.485948
3060.482234,-8068.244768,-370.102971,919.314598
3060.482572,-9400.615463,1036.288319,536.266849
3060.482909,-10955.047942,1924.535449,-1838.629195
3060.483246,-10214.842000,518.144159,-1149.143247
3060.483583,-9918.759623,-1628.453072,-1225.752797
3060.483921,-10288.862594,-1110.308913,919.314598
3060.484258,-10140.821405,-370.102971,229.828649
3060.484595,-8660.409521,0.000000,-536.266849
3060.484933,-8882.471304,-740.205942,-1225.752797
3060.485270,-10066.800811,-1702.473667,-995.924147
3060.485607,-11103.089130,-1628.453072,76.609550
3060.485944,-10140.821405,-1258.350101,1532.190996
3060.486282,-9696.697840,-888.247130,2451.505594
3060.486619,-8882.471304,222.061783,1532.190996
3060.486956,-10362.883188,1406.391290,995.924147
3060.487294,-12139.377449,-296.082377,1455.581446
3060.487631,-12213.398043,222.061783,-459.657299
3060.487968,-10955.047942,518.144159,383.047749
3060.488305,-10732.986159,370.102971,383.047749
3060.488643,-9622.677246,-1480.411884,0.000000
3060.488980,-8956.491898,-2664.741391,-229.828649
3060.489317,-8438.347739,-1924.535449,459.657299
3060.489655,-9252.574275,-740.205942,1225.752797
3060.489992,-10362.883188,518.144159,1455.581446
3060.490329,-12065.356855,370.102971,-995.924147
3060.490666,-11843.295072,-222.061783,-2145.067394
3060.491004,-10436.903782,296.082377,-306.438199
3060.491341,-8216.285956,-740.205942,383.047749
3060.491678,-9474.636058,-1924.535449,612.876398
3060.492016,-8956.491898,-2442.679609,383.047749
3060.492353,-8882.471304,-1850.514855,995.924147
3060.492690,-10362.883188,-666.185348,3830.477490
3060.493027,-9770.718434,814.226536,2834.553343
3060.493365,-10362.883188,1406.391290,2145.067394
3060.493702,-10362.883188,2516.700203,919.314598
3060.494039,-11325.150913,1702.473667,1302.362347
3060.494377,-11917.315666,2146.597232,76.609550
3060.494714,-9548.656652,0.000000,-612.876398
3060.495051,-9622.677246,0.000000,612.876398
3060.495388,-9474.636058,-740.205942,-76.609550
3060.495726,-7698.141797,-1036.288319,-842.705048
3060.496063,-8438.347739,-1702.473667,1838.629195
3060.496400,-9992.780217,-1332.370696,1455.581446
3060.496738,-11399.171507,74.020594,-766.095498
3060.497075,-11251.130318,222.061783,-3294.210641
3060.497412,-9918.759623,-1554.432478,-2911.162892
3060.497749,-9326.594869,-2072.576638,-1532.190996
3060.498087,-9178.553681,-2886.803174,-1072.533697
3060.498424,-8882.471304,-2516.700203,0.000000
3060.498761,-8956.491898,-2886.803174,-1072.533697
3060.499099,-9844.739029,-3552.988522,-536.266849
3060.499436,-10732.986159,-3552.988522,995.924147
3060.499773,-11843.295072,-1628.453072,1532.190996
3060.500110,-11251.130318,-1036.288319,1149.143247
3060.500448,-10955.047942,148.041188,0.000000
3060.500785,-11251.130318,-592.164754,-689.485948
3060.501122,-10807.006753,-1036.288319,306.438199
3060.501460,-9844.739029,-1110.308913,1072.533697
3060.501797,-10362.883188,-1036.288319,1762.019645
3060.502134,-10955.047942,222.061783,1149.143247
3060.502471,-9326.594869,74.020594,0.000000
3060.502809,-9548.656652,740.205942,766.095498
3060.503146,-10214.842000,1258.350101,229.828649
3060.503483,-10140.821405,962.267725,0.000000
3060.503821,-10658.965565,1036.288319,-76.609550
3060.504158,-9770.718434,-296.082377,-1532.190996
3060.504495,-9326.594869,444.123565,-766.095498
3060.504832,-8364.327145,-592.164754,612.876398
3060.505170,-7920.203579,0.000000,1302.362347
3060.505507,-8808.450710,-666.185348,306.438199
3060.505844,-10066.800811,-666.185348,1455.581446
3060.506181,-11325.150913,666.185348,919.314598
3060.506519,-9548.656652,1480.411884,0.000000
3060.506856,-10955.047942,962.267725,1302.362347
3060.507193,-9770.718434,1036.288319,1072.533697
3060.507531,-9992.780217,-74.020594,1991.848295
3060.507868,-9474.636058,74.020594,2987.772442
3060.508205,-9918.759623,74.020594,2528.115143
3060.508542,-10510.924376,1554.432478,689.485948
3060.508880,-11621.233289,1406.391290,-995.924147
3060.509217,-10584.944971,222.061783,-459.657299
3060.509554,-10436.903782,222.061783,-153.219100
3060.509892,-8808.450710,0.000000,536.266849
3060.510229,-9474.636058,0.000000,842.705048
3060.510566,-11103.089130,-518.144159,229.828649
3060.510903,-11843.295072,-1258.350101,-995.924147
3060.511241,-11177.109724,-1110.308913,-383.047749
3060.511578,-10140.821405,-1924.535449,-842.705048
3060.511915,-9104.533087,-4515.256246,-612.876398
3060.512253,-7105.977043,-3849.070898,-689.485948
3060.512590,-7254.018232,-3478.967927,766.095498
3060.512927,-10066.800811,-888.247130,766.095498
3060.513264,-11843.295072,148.041188,-1225.752797
3060.513602,-13175.665768,-1036.288319,-2374.896044
3060.513939,-11473.192101,-1480.411884,-1838.629195
3060.514276,-8512.368333,-222.061783,1838.629195
3060.514614,-8290.306550,-74.020594,3983.696590
3060.514951,-10140.821405,-1258.350101,2987.772442
3060.515288,-10658.965565,-148.041188,766.095498
3060.515625,-11547.212695,222.061783,612.876398
3060.515963,-11621.233289,888.247130,1302.362347
3060.516300,-9696.697840,1998.556043,689.485948
3060.516637,-10140.821405,3404.947333,153.219100
3060.516975,-9844.739029,2442.679609,-1378.971896
3060.517312,-11325.150913,2072.576638,-1378.971896
3060.517649,-10288.862594,1554.432478,-1915.238745
3060.517986,-8660.409521,1036.288319,-1378.971896
3060.518324,-9400.615463,296.082377,-689.485948
3060.518661,-9918.759623,-74.020594,-153.219100
3060.518998,-9622.677246,-444.123565,383.047749
3060.519336,-7772.162391,-1184.329507,229.828649
3060.519673,-8586.388927,-888.247130,1149.143247
3060.520010,-10140.821405,-740.205942,1225.752797
3060.520347,-11177.109724,-518.144159,0.000000
3060.520685,-10140.821405,-1480.411884,459.657299
3060.521022,-8660.409521,-740.205942,536.266849
3060.521359,-8882.471304,-666.185348,1302.362347
3060.521697,-9992.780217,-1184.329507,1225.752797
3060.522034,-10658.965565,-1110.308913,1608.800546
3060.522371,-9696.697840,-666.185348,1302.362347
3060.522708,-10584.944971,-222.061783,1762.019645
3060.523046,-10955.047942,-666.185348,1302.362347
3060.523383,-11769.274478,-1184.329507,536.266849
3060.523720,-11177.109724,-1628.453072,-689.485948
3060.524058,-9326.594869,-296.082377,0.000000
3060.524395,-10732.986159,74.020594,1378.971896
3060.524732,-10658.965565,-1036.288319,-306.438199
3060.525069,-10732.986159,-1036.288319,-1991.848295
3060.525407,-11177.109724,-962.267725,-1608.800546
3060.525744,-9992.780217,-1332.370696,-306.438199
3060.526081,-9474.636058,-2442.679609,76.609550
3060.526419,-9252.574275,-740.205942,689.485948
3060.526756,-10362.883188,-1258.350101,919.314598
3060.527093,-9622.677246,-74.020594,459.657299
3060.527430,-9252.574275,-740.205942,536.266849
3060.527768,-8882.471304,-370.102971,919.314598
3060.528105,-10584.944971,-1480.411884,689.485948
3060.528442,-10288.862594,74.020594,1378.971896
3060.528780,-7846.182985,592.164754,766.095498
3060.529117,-8068.244768,740.205942,2451.505594
3060.529454,-9918.759623,1332.370696,1838.629195
3060.529791,-10140.821405,1036.288319,536.266849
3060.530129,-10807.006753,1480.411884,153.219100
3060.530466,-9178.553681,2220.617826,612.876398
3060.530803,-10807.006753,2368.659014,1378.971896
3060.531141,-11251.130318,1702.473667,0.000000
3060.531478,-10732.986159,222.061783,-1378.971896
3060.531815,-9992.780217,444.123565,-995.924147
3060.532152,-8660.409521,1406.391290,-766.095498
3060.532490,-9400.615463,370.102971,-76.609550
3060.532827,-11399.171507,-962.267725,-1608.800546
3060.533164,-11621.233289,-1406.391290,-2068.457845
3060.533502,-10288.862594,-666.185348,-1455.581446
3060.533839,-8586.388927,370.102971,306.438199
3060.534176,-9474.636058,444.123565,383.047749
3060.534513,-12213.398043,-2220.617826,-612.876398
3060.534851,-11621.233289,-3108.864956,-383.047749
3060.535188,-9178.553681,-1332.370696,689.485948
3060.535525,-7994.224174,-1036.288319,2374.896044
3060.535863,-9474.636058,-1258.350101,1915.238745
3060.536200,-11325.150913,-1776.494261,0.000000
3060.536537,-9992.780217,-370.102971,536.266849
3060.536874,-8882.471304,1406.391290,536.266849
3060.537212,-9844.739029,2072.576638,1762.019645
3060.537549,-12583.501014,296.082377,-306.438199
3060.537886,-11547.212695,0.000000,-1378.971896
3060.538224,-10362.883188,-1036.288319,995.924147
3060.538561,-8142.265362,222.061783,3294.210641
3060.538898,-7994.224174,1110.308913,2374.896044
3060.539235,-9992.780217,-296.082377,-153.219100
3060.539573,-11917.315666,-1036.288319,-1608.800546
3060.539910,-9770.718434,148.041188,-919.314598
3060.540247,-9400.615463,1702.473667,536.266849
3060.540585,-9844.739029,740.205942,153.219100
3060.540922,-10584.944971,0.000000,-1225.752797
3060.541259,-10658.965565,0.000000,0.000000
3060.541596,-8438.347739,1110.308913,995.924147
3060.541934,-8290.306550,814.226536,4060.306139
3060.542271,-10140.821405,370.102971,2528.115143
3060.542608,-11769.274478,-1406.391290,306.438199
3060.542946,-11843.295072,-592.164754,766.095498
3060.543283,-8660.409521,1110.308913,2451.505594
3060.543620,-7624.121203,1628.453072,2068.457845
3060.543957,-9178.553681,962.267725,153.219100
3060.544295,-11621.233289,-518.144159,-1378.971896
3060.544632,-10955.047942,-74.020594,-995.924147
3060.544969,-9918.759623,0.000000,-536.266849
3060.545307,-9548.656652,222.061783,612.876398
3060.545644,-10288.862594,-1554.432478,-1991.848295
3060.545981,-10881.027347,-2146.597232,-842.705048
3060.546318,-8586.388927,-1924.535449,-306.438199
3060.546656,-8364.327145,-962.267725,1455.581446
3060.546993,-10510.924376,-592.164754,0.000000
3060.547330,-12805.562797,-3108.864956,-1378.971896
3060.547668,-12657.521608,-2516.700203,-2987.772442
3060.548005,-8438.347739,-2146.597232,-1685.410096
3060.548342,-7476.080014,0.000000,1991.848295
3060.548679,-9400.615463,-1036.288319,306.438199
3060.549017,-12213.398043,-1554.432478,-1149.143247
3060.549354,-11843.295072,-740.205942,153.219100
3060.549691,-10214.842000,740.205942,2298.286494
3060.550029,-10584.944971,1110.308913,3294.210641
3060.550366,-10807.006753,518.144159,536.266849
3060.550703,-10807.006753,-444.123565,-459.657299
3060.551040,-8882.471304,1332.370696,919.314598
3060.551378,-7624.121203,2368.659014,2451.505594
3060.551715,-9400.615463,3552.988522,1838.629195
3060.552052,-11769.274478,1554.432478,-1149.143247
3060.552389,-11399.171507,888.247130,-2987.772442
3060.552727,-8882.471304,1110.308913,-919.314598
3060.553064,-7402.059420,1776.494261,2451.505594
3060.553401,-7624.121203,1110.308913,1762.019645
3060.553739,-11251.130318,0.000000,0.000000
3060.554076,-11399.171507,148.041188,-1302.362347
3060.554413,-9622.677246,-296.082377,-229.828649
3060.554750,-8438.347739,74.020594,2757.943793
3060.555088,-9030.512492,-1332.370696,1225.752797
3060.555425,-10732.986159,-962.267725,-459.657299
3060.555762,-10436.903782,-296.082377,-1455.581446
3060.556100,-9770.718434,-296.082377,306.438199
3060.556437,-10584.944971,0.000000,1838.629195
3060.556774,-10288.862594,0.000000,842.705048
3060.557111,-11251.130318,74.020594,842.705048
3060.557449,-11399.171507,-1776.494261,1225.752797
3060.557786,-10066.800811,-518.144159,2221.676944
3060.558123,-9844.739029,-1036.288319,1915.238745
3060.558461,-10658.965565,-370.102971,689.485948
3060.558798,-11103.089130,-222.061783,-536.266849
3060.559135,-10955.047942,-962.267725,-612.876398
3060.559472,-9252.574275,0.000000,-306.438199
3060.559810,-9474.636058,0.000000,0.000000
3060.560147,-10658.965565,-1332.370696,-536.266849
3060.560484,-10362.883188,-2294.638420,-2298.286494
3060.560822,-9252.574275,-1702.473667,-1455.581446
3060.561159,-7772.162391,-1036.288319,459.657299
3060.561496,-8734.430116,-444.123565,76.609550
3060.561833,-11029.068536,-1702.473667,-459.657299
3060.562171,-11103.089130,-1332.370696,-766.095498
3060.562508,-10658.965565,222.061783,1762.019645
3060.562845,-9030.512492,1184.329507,842.705048
3060.563183,-9400.615463,1480.411884,-306.438199
3060.563520,-11029.068536,-370.102971,-153.219100
3060.563857,-9030.512492,222.061783,-842.705048
3060.564194,-8364.327145,1554.432478,2145.067394
3060.564532,-8586.388927,1850.514855,3907.087040
3060.564869,-12213.398043,1850.514855,2987.772442
3060.565206,-12879.583391,2072.576638,0.000000
3060.565544,-11621.233289,2072.576638,-919.314598
3060.565881,-9770.718434,1480.411884,612.876398
3060.566218,-8290.306550,888.247130,383.047749
3060.566555,-8290.306550,370.102971,229.828649
3060.566892,-8956.491898,-666.185348,-766.095498
3060.567229,-9548.656652,-888.247130,-459.657299
3060.567567,-10584.944971,74.020594,-842.705048
3060.567904,-11917.315666,0.000000,76.609550
3060.568241,-10362.883188,0.000000,-1532.190996
3060.568578,-8956.491898,-1628.453072,-1991.848295
3060.568915,-8956.491898,-1554.432478,536.266849
3060.569252,-8364.327145,-2368.659014,536.266849
3060.569590,-9770.718434,-2664.741391,306.438199
3060.569927,-10881.027347,-3330.926739,612.876398
3060.570264,-10214.842000,-2072.576638,1072.533697
3060.570601,-10955.047942,-1332.370696,2298.286494
3060.570938,-9548.656652,-518.144159,2221.676944
3060.571275,-9400.615463,74.020594,2068.457845
3060.571613,-11399.171507,-370.102971,229.828649
3060.571950,-11325.150913,148.041188,536.266849
3060.572287,-10807.006753,74.020594,919.314598
3060.572624,-11029.068536,0.000000,1838.629195
3060.572961,-11843.295072,-370.102971,766.095498
3060.573298,-9548.656652,518.144159,842.705048
3060.573636,-8586.388927,592.164754,1455.581446
3060.573973,-7994.224174,-148.041188,1455.581446
3060.574310,-12065.356855,666.185348,612.876398
3060.574647,-13101.645173,444.123565,0.000000
3060.574984,-9918.759623,1036.288319,-3600.648841
3060.575321,-8734.430116,888.247130,-2221.676944
3060.575659,-7328.038826,444.123565,-842.705048
3060.575996,-8438.347739,-888.247130,-766.095498
3060.576333,-9696.697840,-518.144159,-1378.971896
3060.576670,-8660.409521,-444.123565,-383.047749
3060.577007,-10214.842000,-592.164754,1608.800546
3060.577345,-11917.315666,0.000000,1532.190996
3060.577682,-10436.903782,444.123565,995.924147
3060.578019,-9844.739029,0.000000,229.828649
3060.578356,-8734.430116,1110.308913,1915.238745
3060.578693,-9622.677246,296.082377,0.000000
3060.579030,-10881.027347,-518.144159,612.876398
3060.579368,-10955.047942,-222.061783,-766.095498
3060.579705,-9992.780217,-1184.329507,-1608.800546
3060.580042,-8364.327145,-1110.308913,-1225.752797
3060.580379,-8882.471304,-962.267725,306.438199
3060.580716,-9548.656652,0.000000,-229.828649
3060.581053,-11029.068536,-666.185348,-919.314598
3060.581391,-11843.295072,-296.082377,-2604.724693
3060.581728,-11399.171507,-2294.638420,-2374.896044
3060.582065,-10732.986159,-3108.864956,0.000000
3060.582402,-7698.141797,-3478.967927,383.047749
3060.582739,-6291.750507,-3478.967927,383.047749
3060.583076,-8956.491898,-1776.494261,1378.971896
3060.583414,-10881.027347,-2738.761985,459.657299
3060.583751,-12657.521608,-1998.556043,153.219100
3060.584088,-12435.459826,-2072.576638,1072.533697
3060.584425,-10955.047942,-666.185348,2681.334243
3060.584762,-9770.718434,0.000000,3830.477490
3060.585099,-9400.615463,0.000000,2681.334243
3060.585437,-11547.212695,1110.308913,2451.505594
3060.585774,-11621.233289,2664.741391,536.266849
3060.586111,-10658.965565,2960.823768,536.266849
3060.586448,-10807.006753,1554.432478,1455.581446
3060.586785,-9844.739029,1924.535449,1302.362347
3060.587122,-10140.821405,3552.988522,1532.190996
3060.587460,-10214.842000,2072.576638,766.095498
3060.587797,-8660.409521,1998.556043,153.219100
3060.588134,-9918.759623,814.226536,766.095498
3060.588471,-10066.800811,666.185348,1225.752797
3060.588808,-9400.615463,814.226536,0.000000
3060.589145,-9104.533087,-444.123565,-306.438199
3060.589483,-8068.244768,-740.205942,-1838.629195
3060.589820,-7254.018232,-1332.370696,-2298.286494
3060.590157,-8512.368333,-1776.494261,-689.485948
3060.590494,-8882.471304,-1702.473667,306.438199
3060.590831,-8882.471304,-74.020594,-1072.533697
3060.591168,-9770.718434,0.000000,-842.705048
3060.591506,-12065.356855,-1850.514855,0.000000
3060.591843,-11177.109724,-2664.741391,0.000000
3060.592180,-9992.780217,-2294.638420,766.095498
3060.592517,-9178.553681,-370.102971,2068.457845
3060.592854,-9992.780217,-740.205942,1838.629195
3060.593191,-11917.315666,-296.082377,0.000000
3060.593529,-12879.583391,-1184.329507,-1225.752797
3060.593866,-12361.439231,0.000000,-919.314598
3060.594203,-11325.150913,814.226536,-1378.971896
3060.594540,-9844.739029,-1332.370696,-1378.971896
3060.594877,-10881.027347,-2294.638420,-383.047749
3060.595214,-9252.574275,-1184.329507,0.000000
3060.595552,-8882.471304,0.000000,-689.485948
3060.595889,-10288.862594,-148.041188,-1302.362347
3060.596226,-10955.047942,-1480.411884,-1838.629195
3060.596563,-11325.150913,-888.247130,-153.219100
3060.596900,-10288.862594,-740.205942,306.438199
3060.597237,-8438.347739,0.000000,153.219100
3060.597575,-8290.306550,-1184.329507,1455.581446
3060.597912,-8808.450710,-1480.411884,1149.143247
3060.598249,-10214.842000,-2738.761985,2145.067394
3060.598586,-9474.636058,-1110.308913,2834.553343
3060.598923,-7846.182985,592.164754,2145.067394
3060.599260,-10288.862594,1480.411884,2451.505594
3060.599598,-10955.047942,518.144159,459.657299
3060.599935,-8956.491898,1184.329507,919.314598
3060.600272,-8808.450710,1924.535449,1455.581446
3060.600609,-9178.553681,2738.761985,1991.848295
3060.600946,-11103.089130,1998.556043,919.314598
3060.601283,-11843.295072,1998.556043,459.657299
3060.601621,-10584.944971,1184.329507,-76.609550
3060.601958,-9030.512492,444.123565,1149.143247
3060.602295,-9622.677246,-1036.288319,2374.896044
3060.602632,-10584.944971,-1554.432478,1072.533697
3060.602969,-10881.027347,-592.164754,153.219100
3060.603307,-10288.862594,-370.102971,0.000000
3060.603644,-10732.986159,222.061783,-995.924147
3060.603981,-10732.986159,-814.226536,-1991.848295
3060.604318,-10658.965565,-1480.411884,-2987.772442
3060.604655,-10066.800811,-3478.967927,-1072.533697
3060.604992,-9474.636058,-3997.112087,536.266849
3060.605330,-8956.491898,-2294.638420,1225.752797
3060.605667,-8364.327145,-1554.432478,-459.657299
3060.606004,-9992.780217,-2442.679609,-995.924147
3060.606341,-11695.253884,-3849.070898,229.828649
3060.606678,-9992.780217,-2294.638420,1302.362347
3060.607015,-8512.368333,-518.144159,1378.971896
3060.607353,-8734.430116,-1036.288319,1915.238745
3060.607690,-11325.150913,-1332.370696,1225.752797
3060.608027,-12435.459826,-370.102971,612.876398
3060.608364,-10436.903782,1036.288319,459.657299
3060.608701,-9400.615463,740.205942,-153.219100
3060.609038,-10955.047942,-666.185348,-306.438199
3060.609376,-11177.109724,-518.144159,-2528.115143
3060.609713,-9104.533087,592.164754,-2987.772442
3060.610050,-7920.203579,1628.453072,-1915.238745
3060.610387,-10140.821405,296.082377,-1685.410096
3060.610724,-11177.109724,0.000000,-1991.848295
3060.611061,-11029.068536,444.123565,-842.705048
3060.611399,-9844.739029,1554.432478,306.438199
3060.611736,-9030.512492,1480.411884,1302.362347
3060.612073,-10658.965565,592.164754,2374.896044
3060.612410,-10807.006753,-888.247130,1455.581446
3060.612747,-11177.109724,-1702.473667,1685.410096
3060.613084,-9104.533087,592.164754,1608.800546
3060.613422,-8142.265362,-962.267725,1532.190996
3060.613759,-8586.388927,-740.205942,1915.238745
3060.614096,-8438.347739,0.000000,306.438199
3060.614433,-9326.594869,1480.411884,-383.047749
3060.614770,-10732.986159,962.267725,-229.828649
3060.615107,-11103.089130,1110.308913,-306.438199
3060.615445,-10807.006753,-888.247130,-612.876398
3060.615782,-9918.759623,-2590.720797,306.438199
3060.616119,-7105.977043,-1702.473667,1762.019645
3060.616456,-7179.997637,-666.185348,2145.067394
3060.616793,-9844.739029,-1480.411884,1302.362347
3060.617130,-11769.274478,-2664.741391,-1072.533697
3060.617468,-14804.118840,-2590.720797,76.609550
3060.617805,-11843.295072,296.082377,-689.485948
3060.618142,-9696.697840,-296.082377,-1455.581446
3060.618479,-9992.780217,-814.226536,0.000000
3060.618816,-10658.965565,-2960.823768,0.000000
3060.619153,-10807.006753,-3404.947333,1685.410096
3060.619491,-9252.574275,-1332.370696,3064.381992
3060.619828,-11177.109724,-296.082377,3830.477490
3060.620165,-13767.830521,518.144159,1838.629195
3060.620502,-12361.439231,148.041188,-689.485948
3060.620839,-9770.718434,0.000000,1455.581446
3060.621176,-7254.018232,370.102971,2451.505594
3060.621514,-7698.141797,1998.556043,1608.800546
3060.621851,-10732.986159,1184.329507,76.609550
3060.622188,-11399.171507,-666.185348,-1532.190996
3060.622525,-9326.594869,370.102971,-995.924147
3060.622862,-8068.244768,2590.720797,-766.095498
3060.623199,-6439.791695,1702.473667,-459.657299
3060.623537,-8142.265362,-1628.453072,0.000000
3060.623874,-10658.965565,-1554.432478,536.266849
3060.624211,-10140.821405,666.185348,-229.828649
3060.624548,-10732.986159,1332.370696,-459.657299
3060.624885,-10732.986159,222.061783,-1838.629195
3060.625222,-9992.780217,-1702.473667,-3064.381992
3060.625560,-9326.594869,-1702.473667,-1378.971896
3060.625897,-7031.956449,-444.123565,76.609550
3060.626234,-8290.306550,-296.082377,-153.219100
3060.626571,-13175.665768,-740.205942,-842.705048
3060.626908,-15396.283594,-666.185348,-1378.971896
3060.627245,-11547.212695,-296.082377,-689.485948
3060.627583,-8734.430116,1184.329507,2145.067394
3060.627920,-9030.512492,888.247130,3907.087040
3060.628257,-11473.192101,-518.144159,2068.457845
3060.628594,-13693.809927,-1332.370696,-229.828649
3060.628931,-12509.480420,-1184.329507,-689.485948
3060.629269,-10066.800811,-592.164754,76.609550
3060.629606,-8290.306550,-666.185348,229.828649
3060.629943,-7920.203579,-1554.432478,0.000000
3060.630280,-8142.265362,-1036.288319,-995.924147
3060.630617,-8364.327145,-296.082377,-1378.971896
3060.630954,-10881.027347,370.102971,-766.095498
3060.631292,-11769.274478,-518.144159,-2068.457845
3060.631629,-11325.150913,-2960.823768,-1915.238745
3060.631966,-8808.450710,-3627.009116,306.438199
3060.632303,-4959.379811,-2368.659014,2451.505594
3060.632640,-6957.935855,-1554.432478,5592.497135
3060.632977,-10066.800811,-1850.514855,2757.943793
3060.633315,-11991.336260,-814.226536,306.438199
3060.633652,-12953.603985,148.041188,919.314598
3060.633989,-11843.295072,962.267725,2604.724693
3060.634326,-8882.471304,2146.597232,1225.752797
3060.634663,-10214.842000,2220.617826,1302.362347
3060.635000,-10066.800811,592.164754,-306.438199
3060.635338,-9178.553681,1258.350101,842.705048
3060.635675,-9770.718434,2886.803174,2757.943793
3060.636012,-11325.150913,1776.494261,2221.676944
3060.636349,-13397.727550,666.185348,536.266849
3060.636686,-11769.274478,222.061783,536.266849
3060.637023,-9252.574275,222.061783,153.219100
3060.637361,-8808.450710,0.000000,1378.971896
3060.637698,-8290.306550,592.164754,0.000000
3060.638035,-10732.986159,-2146.597232,-612.876398
3060.638372,-11029.068536,-2072.576638,-2757.943793
3060.638709,-9326.594869,-1924.535449,-2834.553343
3060.639046,-7031.956449,-962.267725,-1915.238745
3060.639384,-7254.018232,-2738.761985,-1455.581446
3060.639721,-9844.739029,-3108.864956,-919.314598
3060.640058,-10066.800811,-2072.576638,-766.095498
3060.640395,-11325.150913,-2220.617826,-766.095498
3060.640732,-10066.800811,-2368.659014,536.266849
3060.641069,-11029.068536,-2738.761985,1455.581446
3060.641407,-10732.986159,-2072.576638,1072.533697
3060.641744,-8586.388927,-1702.473667,842.705048
3060.642081,-8956.491898,666.185348,1532.190996
3060.642418,-11251.130318,740.205942,766.095498
3060.642755,-13175.665768,296.082377,-306.438199
3060.643092,-12583.501014,814.226536,-995.924147
3060.643430,-11917.315666,1036.288319,76.609550
3060.643767,-10658.965565,2220.617826,1685.410096
3060.644104,-9474.636058,1110.308913,459.657299
3060.644441,-10510.924376,296.082377,689.485948
3060.644778,-10510.924376,0.000000,-612.876398
3060.645115,-10584.944971,740.205942,-689.485948
3060.645453,-9400.615463,444.123565,-1072.533697
3060.645790,-8142.265362,0.000000,-995.924147
3060.646127,-9474.636058,0.000000,-76.609550
3060.646464,-9622.677246,0.000000,0.000000
3060.646801,-7994.224174,0.000000,689.485948
3060.647138,-8364.327145,74.020594,1072.533697
3060.647476,-9400.615463,148.041188,1302.362347
3060.647813,-8808.450710,-592.164754,1149.143247
3060.648150,-8660.409521,-1258.350101,1991.848295
3060.648487,-8512.368333,-370.102971,3447.429741
3060.648824,-10066.800811,74.020594,2757.943793
3060.649161,-11769.274478,666.185348,2451.505594
3060.649499,-11769.274478,888.247130,1149.143247
3060.649836,-10362.883188,2072.576638,536.266849
3060.650173,-9844.739029,2368.659014,0.000000
3060.650510,-11029.068536,0.000000,-459.657299
3060.650847,-11695.253884,-592.164754,-306.438199
3060.651184,-9844.739029,-296.082377,-1225.752797
3060.651522,-9918.759623,296.082377,153.219100
3060.651859,-11769.274478,518.144159,2298.286494
3060.652196,-12509.480420,-222.061783,-766.095498
3060.652533,-11399.171507,-888.247130,-1991.848295
3060.652870,-10436.903782,-2368.659014,-1455.581446
3060.653207,-9548.656652,-2738.761985,612.876398
3060.653545,-9104.533087,-2812.782580,-383.047749
3060.653882,-9252.574275,-3182.885551,-689.485948
3060.654219,-9252.574275,-2812.782580,0.000000
3060.654556,-8808.450710,-1776.494261,0.000000
3060.654893,-9178.553681,-666.185348,153.219100
3060.655231,-9992.780217,-666.185348,1302.362347
3060.655568,-10955.047942,-666.185348,1685.410096
3060.655905,-9918.759623,222.061783,459.657299
3060.656242,-10140.821405,296.082377,1991.848295
3060.656579,-9326.594869,-370.102971,2987.772442
3060.656916,-9548.656652,1258.350101,919.314598
3060.657254,-9400.615463,1850.514855,-919.314598
3060.657591,-10584.944971,2368.659014,-1225.752797
3060.657928,-9992.780217,518.144159,-766.095498
3060.658265,-9918.759623,740.205942,-689.485948
3060.658602,-10510.924376,1924.535449,76.609550
3060.658939,-10066.800811,2812.782580,-536.266849
3060.659277,-10288.862594,592.164754,-536.266849
3060.659614,-9770.718434,1332.370696,-1378.971896
3060.659951,-10436.903782,0.000000,-459.657299
3060.660288,-11843.295072,-148.041188,0.000000
3060.660625,-9622.677246,-1110.308913,-1302.362347
3060.660962,-8586.388927,-1332.370696,0.000000
3060.661300,-8512.368333,-1184.329507,2145.067394
3060.661637,-9178.553681,-1184.329507,1225.752797
3060.661974,-10510.924376,-370.102971,919.314598
3060.662311,-11769.274478,-1332.370696,766.095498
3060.662648,-11251.130318,-1110.308913,459.657299
3060.662985,-9030.512492,-1480.411884,459.657299
3060.663323,-8068.244768,-1184.329507,1838.629195
3060.663660,-7624.121203,-1110.308913,2068.457845
3060.663997,-9400.615463,-1332.370696,1915.238745
3060.664334,-11399.171507,-74.020594,1302.362347
3060.664671,-12583.501014,-666.185348,612.876398
3060.665008,-11843.295072,740.205942,612.876398
3060.665346,-9696.697840,1110.308913,0.000000
3060.665683,-9918.759623,592.164754,-306.438199
3060.666020,-8808.450710,-1184.329507,-919.314598
3060.666357,-9548.656652,-1184.329507,-842.705048
3060.666694,-10140.821405,-666.185348,0.000000
3060.667031,-11621.233289,-740.205942,-76.609550
3060.667369,-11177.109724,-666.185348,612.876398
3060.667706,-10658.965565,0.000000,0.000000
3060.668043,-11843.295072,-592.164754,2068.457845
3060.668380,-9178.553681,666.185348,1072.533697
3060.668718,-8586.388927,592.164754,229.828649
3060.669055,-10658.965565,74.020594,1608.800546
3060.669392,-11547.212695,-444.123565,612.876398
3060.669729,-10214.842000,592.164754,842.705048
3060.670067,-8956.491898,1110.308913,459.657299
3060.670404,-7476.080014,888.247130,612.876398
3060.670741,-7698.141797,518.144159,1378.971896
3060.671078,-8438.347739,-296.082377,2374.896044
3060.671416,-10584.944971,1850.514855,2221.676944
3060.671753,-12879.583391,2294.638420,536.266849
3060.672090,-11621.233289,1628.453072,-1685.410096
3060.672427,-8882.471304,-666.185348,-1838.629195
3060.672765,-7920.203579,-592.164754,-383.047749
3060.673102,-7328.038826,370.102971,0.000000
3060.673439,-8364.327145,0.000000,-1532.190996
3060.673776,-11029.068536,0.000000,-2451.505594
3060.674114,-13027.624579,-1850.514855,-3830.477490
3060.674451,-11325.150913,-1332.370696,-2451.505594
3060.674788,-10732.986159,-1554.432478,-383.047749
3060.675125,-8290.306550,-370.102971,919.314598
3060.675463,-8512.368333,-2146.597232,459.657299
3060.675800,-11325.150913,-2886.803174,1991.848295
3060.676137,-11547.212695,-2664.741391,766.095498
3060.676474,-10732.986159,-592.164754,459.657299
3060.676812,-11325.150913,592.164754,612.876398
3060.677149,-11843.295072,-1554.432478,0.000000
3060.677486,-10584.944971,-1480.411884,0.000000
3060.677823,-8068.244768,-296.082377,1838.629195
3060.678161,-8734.430116,962.267725,3140.991542
3060.678498,-10140.821405,666.185348,2374.896044
3060.678835,-11695.253884,148.041188,229.828649
3060.679172,-13175.665768,-814.226536,536.266849
3060.679510,-9474.636058,74.020594,-536.266849
3060.679847,-5847.626942,1998.556043,-536.266849
3060.680184,-7402.059420,1702.473667,-306.438199
3060.680521,-9696.697840,-444.123565,-1225.752797
3060.680859,-11769.274478,-222.061783,-1532.190996
3060.681196,-9696.697840,1184.329507,-842.705048
3060.681533,-8808.450710,2146.597232,766.095498
3060.681870,-10658.965565,444.123565,1532.190996
3060.682208,-11177.109724,-1480.411884,919.314598
3060.682545,-9178.553681,-666.185348,1225.752797
3060.682882,-7402.059420,222.061783,3064.381992
3060.683219,-8068.244768,1332.370696,4213.525239
3060.683557,-12213.398043,0.000000,2145.067394
3060.683894,-14730.098246,74.020594,153.219100
3060.684231,-10955.047942,444.123565,-1149.143247
3060.684568,-7994.224174,1850.514855,306.438199
3060.684906,-7105.977043,518.144159,536.266849
3060.685243,-8734.430116,-1554.432478,153.219100
3060.685580,-11029.068536,-1332.370696,0.000000
3060.685917,-10214.842000,-222.061783,-229.828649
3060.686255,-10140.821405,740.205942,1532.190996
3060.686592,-11843.295072,74.020594,1455.581446
3060.686929,-11621.233289,-740.205942,-1225.752797
3060.687266,-10658.965565,-2516.700203,-1915.238745
3060.687604,-8808.450710,-888.247130,-1838.629195
3060.687941,-7328.038826,-1924.535449,0.000000
3060.688278,-10066.800811,-2516.700203,-1455.581446
3060.688615,-11029.068536,-3182.885551,-2298.286494
3060.688953,-11991.336260,-2220.617826,-1762.019645
3060.689290,-9696.697840,-518.144159,-1072.533697
3060.689627,-8068.244768,-814.226536,306.438199
3060.689964,-10436.903782,-1036.288319,2068.457845
3060.690302,-11769.274478,-1184.329507,306.438199
3060.690639,-11769.274478,296.082377,1302.362347
3060.690976,-11695.253884,888.247130,2068.457845
3060.691313,-9622.677246,592.164754,1991.848295
3060.691651,-9844.739029,222.061783,1072.533697
3060.691988,-9622.677246,296.082377,766.095498
3060.692325,-8586.388927,888.247130,1378.971896
3060.692662,-8512.368333,3552.988522,919.314598
3060.693000,-10214.842000,3997.112087,-612.876398
3060.693337,-12805.562797,2072.576638,-2298.286494
3060.693674,-11177.109724,962.267725,-1838.629195
3060.694011,-8512.368333,518.144159,0.000000
3060.694349,-6661.853478,2368.659014,1838.629195
3060.694686,-7254.018232,740.205942,536.266849
3060.695023,-9548.656652,-962.267725,-306.438199
3060.695360,-10658.965565,-1036.288319,-229.828649
3060.695698,-10658.965565,518.144159,229.828649
3060.696035,-10732.986159,1184.329507,306.438199
3060.696372,-9770.718434,-518.144159,-536.266849
3060.696709,-9770.718434,-2368.659014,306.438199
3060.697047,-8512.368333,-1776.494261,459.657299
3060.697384,-8216.285956,444.123565,1302.362347
3060.697721,-9548.656652,0.000000,1455.581446
3060.698058,-12065.356855,-1998.556043,0.000000
3060.698396,-13101.645173,-3034.844362,1608.800546
3060.698733,-11029.068536,-1110.308913,2604.724693
3060.699070,-8142.265362,0.000000,3217.601092
3060.699407,-9548.656652,0.000000,3294.210641
3060.699745,-12435.459826,0.000000,1455.581446
3060.700082,-13693.809927,-518.144159,-1685.410096
3060.700419,-10955.047942,0.000000,-2604.724693
3060.700756,-9252.574275,-962.267725,-1608.800546
3060.701094,-8364.327145,-2146.597232,-1455.581446
3060.701431,-9104.533087,-3775.050304,-1072.533697
3060.701768,-8438.347739,-1924.535449,0.000000
3060.702105,-9622.677246,-666.185348,383.047749
3060.702443,-11621.233289,518.144159,1149.143247
3060.702780,-11843.295072,-592.164754,-306.438199
3060.703117,-11991.336260,-1702.473667,0.000000
3060.703454,-11029.068536,-1184.329507,1072.533697
3060.703792,-7550.100608,0.000000,229.828649
3060.704129,-6217.729913,1406.391290,612.876398
3060.704466,-8956.491898,0.000000,0.000000
3060.704803,-12213.398043,148.041188,-689.485948
3060.705141,-10362.883188,1776.494261,-689.485948
3060.705478,-9918.759623,3108.864956,1378.971896
3060.705815,-9548.656652,1850.514855,2374.896044
3060.706152,-10214.842000,1480.411884,842.705048
3060.706490,-10436.903782,1554.432478,1149.143247
3060.706827,-9770.718434,2072.576638,919.314598
3060.707164,-9326.594869,2294.638420,536.266849
3060.707501,-11399.171507,666.185348,-76.609550
3060.707839,-11325.150913,-962.267725,-383.047749
3060.708176,-9178.553681,-740.205942,-689.485948
3060.708513,-7402.059420,592.164754,-919.314598
3060.708850,-8364.327145,888.247130,-1762.019645
3060.709188,-10436.903782,-1924.535449,-3294.210641
3060.709525,-11991.336260,-2812.782580,-2528.115143
3060.709862,-9474.636058,-3330.926739,-1455.581446
3060.710199,-8438.347739,-2442.679609,1072.533697
3060.710537,-8364.327145,-2072.576638,2068.457845
3060.710874,-9178.553681,-1480.411884,459.657299
3060.711211,-11843.295072,-2220.617826,76.609550
3060.711548,-11843.295072,-1702.473667,306.438199
3060.711886,-10955.047942,-1258.350101,1608.800546
3060.712223,-11399.171507,-2072.576638,2604.724693
3060.712560,-11695.253884,-1702.473667,2681.334243
3060.712897,-9474.636058,-888.247130,2068.457845
3060.713235,-9252.574275,222.061783,2221.676944
3060.713572,-9474.636058,0.000000,2528.115143
3060.713909,-11251.130318,592.164754,919.314598
3060.714246,-12287.418637,592.164754,-459.657299
3060.714584,-11547.212695,74.020594,-1149.143247
3060.714921,-9622.677246,1998.556043,-766.095498
3060.715258,-7698.141797,1776.494261,-612.876398
3060.715595,-8364.327145,1036.288319,0.000000
3060.715933,-9918.759623,518.144159,-766.095498
3060.716270,-10658.965565,-74.020594,-919.314598
3060.716607,-10955.047942,-740.205942,1225.752797
3060.716944,-8882.471304,-518.144159,689.485948
3060.717282,-7772.162391,-1036.288319,1685.410096
3060.717619,-8882.471304,-222.061783,1915.238745
3060.717956,-8364.327145,740.205942,842.705048
3060.718293,-10066.800811,888.247130,689.485948
3060.718631,-10214.842000,1332.370696,-766.095498
3060.718968,-10584.944971,296.082377,229.828649
3060.719305,-12361.439231,666.185348,306.438199
3060.719642,-9252.574275,296.082377,-689.485948
3060.719980,-6365.771101,74.020594,919.314598
3060.720317,-8290.306550,-370.102971,1225.752797
3060.720654,-10658.965565,-1554.432478,766.095498
3060.720991,-11325.150913,0.000000,536.266849
3060.721329,-11769.274478,666.185348,612.876398
3060.721666,-11399.171507,370.102971,-689.485948
3060.722003,-11843.295072,-444.123565,-766.095498
3060.722340,-9326.594869,-1110.308913,-1915.238745
3060.722678,-8290.306550,-1628.453072,-1149.143247
3060.723015,-9622.677246,-1406.391290,-1455.581446
3060.723352,-10510.924376,-1998.556043,-2221.676944
3060.723689,-12435.459826,-3182.885551,-1991.848295
3060.724027,-10510.924376,-3182.885551,-2451.505594
3060.724364,-9474.636058,-2220.617826,-536.266849
3060.724701,-8142.265362,-740.205942,919.314598
3060.725038,-9400.615463,-2146.597232,1149.143247
3060.725376,-11177.109724,-2146.597232,1991.848295
3060.725713,-10955.047942,-1998.556043,1838.629195
3060.726050,-10362.883188,148.041188,1838.629195
3060.726387,-9844.739029,518.144159,2681.334243
3060.726725,-9770.718434,-740.205942,1762.019645
3060.727062,-9844.739029,-222.061783,612.876398
3060.727399,-8438.347739,518.144159,536.266849
3060.727736,-8068.244768,2516.700203,1762.019645
3060.728074,-10807.006753,1554.432478,1608.800546
3060.728411,-11399.171507,2220.617826,76.609550
3060.728748,-10140.821405,2072.576638,-1378.971896
3060.729085,-9474.636058,1406.391290,229.828649
3060.729423,-7550.100608,1258.350101,1532.190996
3060.729760,-8956.491898,1332.370696,2145.067394
3060.730097,-12509.480420,962.267725,1072.533697
3060.730434,-11473.192101,296.082377,-1455.581446
3060.730772,-10362.883188,-592.164754,-383.047749
3060.731109,-9474.636058,-592.164754,689.485948
3060.731446,-8586.388927,-962.267725,0.000000
3060.731783,-9992.780217,-666.185348,153.219100
3060.732121,-9178.553681,-1554.432478,-995.924147
3060.732458,-9104.533087,-1998.556043,1762.019645
3060.732795,-10510.924376,-666.185348,2681.334243
3060.733132,-11177.109724,-444.123565,1532.190996
3060.733470,-11103.089130,-370.102971,306.438199
3060.733807,-12509.480420,-666.185348,1072.533697
3060.734144,-10955.047942,-666.185348,306.438199
3060.734481,-8290.306550,-1776.494261,-383.047749
3060.734819,-7846.182985,-2516.700203,153.219100
3060.735156,-8808.450710,-1554.432478,306.438199
3060.735493,-10140.821405,-148.041188,-1149.143247
3060.735830,-10510.924376,370.102971,-2221.676944
3060.736168,-11547.212695,0.000000,-1915.238745
3060.736505,-11917.315666,-444.123565,-995.924147
3060.736842,-11695.253884,-370.102971,-1762.019645
3060.737179,-9104.533087,-1480.411884,-383.047749
3060.737517,-8808.450710,-1628.453072,919.314598
3060.737854,-9178.553681,-2368.659014,536.266849
3060.738191,-11177.109724,-1110.308913,76.609550
3060.738528,-10732.986159,-962.267725,-1532.190996
3060.738866,-9770.718434,370.102971,-766.095498
3060.739203,-10584.944971,518.144159,-1302.362347
3060.739540,-10066.800811,592.164754,-459.657299
3060.739877,-9326.594869,1036.288319,1149.143247
3060.740215,-9474.636058,814.226536,1225.752797
3060.740552,-10584.944971,370.102971,1149.143247
3060.740889,-10881.027347,666.185348,1838.629195
3060.741226,-9474.636058,-296.082377,3140.991542
3060.741564,-8882.471304,-222.061783,3140.991542
3060.741901,-8364.327145,740.205942,1762.019645
3060.742238,-8586.388927,962.267725,766.095498
3060.742575,-8882.471304,1036.288319,229.828649
3060.742913,-10436.903782,1406.391290,0.000000
3060.743250,-11621.233289,962.267725,-2528.115143
3060.743587,-11103.089130,518.144159,-2221.676944
3060.743924,-9030.512492,-1702.473667,-2374.896044
3060.744262,-7550.100608,-888.247130,0.000000
3060.744599,-8068.244768,-2664.741391,1915.238745
3060.744936,-9918.759623,-2146.597232,1685.410096
3060.745273,-11473.192101,-2072.576638,1302.362347
3060.745611,-12139.377449,-1628.453072,919.314598
3060.745948,-12213.398043,-444.123565,153.219100
3060.746285,-10955.047942,-592.164754,0.000000
3060.746622,-10362.883188,-518.144159,0.000000
3060.746960,-10288.862594,-1628.453072,229.828649
3060.747297,-9770.718434,-1998.556043,1991.848295
3060.747634,-10955.047942,-666.185348,3064.381992
3060.747971,-11399.171507,-1924.535449,2834.553343
3060.748309,-10732.986159,-1036.288319,1302.362347
3060.748646,-10140.821405,-1480.411884,76.609550
3060.748983,-9326.594869,-1406.391290,1762.019645
3060.749320,-9548.656652,-518.144159,612.876398
3060.749658,-8216.285956,888.247130,0.000000
3060.749995,-8956.491898,1258.350101,-2145.067394
3060.750332,-10510.924376,148.041188,-3753.867940
3060.750669,-11251.130318,-444.123565,-2145.067394
3060.751007,-8808.450710,-444.123565,-1608.800546
3060.751344,-7105.977043,370.102971,0.000000
3060.751681,-8586.388927,-1036.288319,459.657299
3060.752018,-10066.800811,-518.144159,0.000000
3060.752356,-11029.068536,-592.164754,0.000000
3060.752693,-10807.006753,-740.205942,229.828649
3060.753030,-9770.718434,814.226536,0.000000
3060.753367,-9548.656652,370.102971,-842.705048
3060.753705,-10362.883188,148.041188,689.485948
3060.754042,-9548.656652,592.164754,-229.828649
3060.754379,-8882.471304,2368.659014,-612.876398
3060.754716,-10658.965565,2220.617826,76.609550
3060.755054,-11399.171507,74.020594,-842.705048
3060.755391,-12583.501014,-518.144159,1685.410096
3060.755728,-10955.047942,444.123565,1838.629195
3060.756065,-7846.182985,518.144159,-383.047749
3060.756403,-8512.368333,0.000000,766.095498
3060.756740,-9104.533087,-666.185348,1608.800546
3060.757077,-12139.377449,-1406.391290,612.876398
3060.757414,-11399.171507,-888.247130,-1455.581446
3060.757752,-8882.471304,1850.514855,-2298.286494
3060.758089,-9918.759623,-1776.494261,-2145.067394
3060.758426,-10732.986159,-3256.906145,-1991.848295
3060.758763,-8438.347739,-3034.844362,-1225.752797
3060.759101,-7328.038826,-1702.473667,995.924147
3060.759438,-8660.409521,-1036.288319,1072.533697
3060.759775,-11917.315666,-2146.597232,459.657299
3060.760112,-13027.624579,-2886.803174,229.828649
3060.760450,-11547.212695,-3034.844362,1762.019645
3060.760787,-9622.677246,-666.185348,2834.553343
3060.761124,-9326.594869,0.000000,2987.772442
3060.761461,-10214.842000,-148.041188,2451.505594
3060.761799,-11103.089130,-1406.391290,2145.067394
3060.762136,-11843.295072,444.123565,2451.505594
3060.762473,-11621.233289,1776.494261,1991.848295
3060.762810,-10955.047942,592.164754,689.485948
3060.763148,-10140.821405,1184.329507,383.047749
3060.763485,-9918.759623,592.164754,919.314598
3060.763822,-8956.491898,1110.308913,1532.190996
3060.764159,-8660.409521,2072.576638,1991.848295
3060.764497,-10881.027347,1406.391290,1225.752797
3060.764834,-12213.398043,592.164754,-1378.971896
3060.765171,-10140.821405,222.061783,-1608.800546
3060.765508,-7846.182985,740.205942,153.219100
3060.765846,-7772.162391,-740.205942,-383.047749
3060.766183,-8660.409521,-370.102971,-2145.067394
3060.766520,-9474.636058,-222.061783,-1608.800546
3060.766857,-8734.430116,-962.267725,-842.705048
3060.767195,-8660.409521,0.000000,0.000000
3060.767532,-10584.944971,518.144159,229.828649
3060.767869,-11325.150913,-592.164754,536.266849
3060.768206,-11621.233289,0.000000,153.219100
3060.768544,-10140.821405,-592.164754,0.000000
3060.768881,-8956.491898,666.185348,1915.238745
3060.769218,-10362.883188,-444.123565,1915.238745
3060.769555,-10584.944971,-888.247130,-689.485948
3060.769893,-10436.903782,-1480.411884,-1072.533697
3060.770230,-10658.965565,148.041188,-612.876398
3060.770567,-10066.800811,1554.432478,-2451.505594
3060.770905,-11547.212695,-740.205942,-3294.210641
3060.771242,-10362.883188,-1702.473667,-2604.724693
3060.771579,-10214.842000,-2220.617826,-842.705048
3060.771916,-10214.842000,-814.226536,383.047749
3060.772254,-9622.677246,-1850.514855,0.000000
3060.772591,-10288.862594,-1998.556043,-689.485948
3060.772928,-11695.253884,-3108.864956,-612.876398
3060.773265,-9770.718434,-3034.844362,766.095498
3060.773603,-9030.512492,-1406.391290,2374.896044
3060.773940,-9104.533087,-666.185348,1072.533697
3060.774277,-10214.842000,0.000000,0.000000
3060.774614,-11621.233289,-1184.329507,0.000000
3060.774952,-10362.883188,-592.164754,459.657299
3060.775289,-8808.450710,74.020594,919.314598
3060.775626,-8586.388927,370.102971,1991.848295
3060.775963,-8586.388927,-296.082377,2757.943793
3060.776301,-9252.574275,148.041188,3677.258390
3060.776638,-10140.821405,1184.329507,4136.915689
3060.776975,-10066.800811,2516.700203,3294.210641
3060.777313,-10510.924376,2886.803174,1838.629195
3060.777650,-11991.336260,1406.391290,919.314598
3060.777987,-10807.006753,1554.432478,229.828649
3060.778324,-8660.409521,1776.494261,306.438199
3060.778662,-7550.100608,666.185348,0.000000
3060.778999,-9030.512492,-592.164754,-842.705048
3060.779336,-11547.212695,-962.267725,-689.485948
3060.779673,-10436.903782,-1332.370696,-766.095498
3060.780011,-9030.512492,814.226536,0.000000
3060.780348,-9400.615463,666.185348,-1378.971896
3060.780685,-10732.986159,444.123565,-1685.410096
3060.781022,-11991.336260,-2072.576638,-689.485948
3060.781360,-11399.171507,-2960.823768,229.828649
3060.781697,-9252.574275,-1776.494261,766.095498
3060.782034,-9622.677246,-1924.535449,2221.676944
3060.782372,-11251.130318,-2738.761985,2681.334243
3060.782709,-11399.171507,-3256.906145,1762.019645
3060.783046,-9696.697840,-1110.308913,766.095498
3060.783383,-9178.553681,-666.185348,0.000000
3060.783721,-9548.656652,-962.267725,-919.314598
3060.784058,-9844.739029,-1924.535449,-1608.800546
3060.784395,-10436.903782,-296.082377,-1149.143247
3060.784732,-9696.697840,370.102971,-1302.362347
3060.785070,-8290.306550,1554.432478,-2298.286494
3060.785407,-9622.677246,0.000000,-1378.971896
3060.785744,-10881.027347,-2072.576638,-229.828649
3060.786081,-9474.636058,0.000000,0.000000
3060.786419,-10066.800811,740.205942,919.314598
3060.786756,-11473.192101,222.061783,76.609550
3060.787093,-11177.109724,-1258.350101,-1455.581446
3060.787430,-10214.842000,-666.185348,-1378.971896
3060.787768,-8068.244768,518.144159,536.266849
3060.788105,-9770.718434,666.185348,1072.533697
3060.788442,-9474.636058,1480.411884,-919.314598
3060.788780,-9992.780217,222.061783,-1225.752797
3060.789117,-11547.212695,222.061783,1072.533697
3060.789454,-8142.265362,2220.617826,0.000000
3060.789791,-8142.265362,1406.391290,1685.410096
3060.790129,-11029.068536,962.267725,2451.505594
3060.790466,-10955.047942,-888.247130,1072.533697
3060.790803,-11473.192101,74.020594,2604.724693
3060.791140,-9326.594869,1110.308913,3524.039291
3060.791478,-9326.594869,1776.494261,2757.943793
3060.791815,-10732.986159,2294.638420,383.047749
3060.792152,-11325.150913,296.082377,-995.924147
3060.792489,-9474.636058,148.041188,-1378.971896
3060.792827,-9104.533087,-296.082377,-766.095498
3060.793164,-9400.615463,518.144159,-842.705048
3060.793501,-10807.006753,-148.041188,-2374.896044
3060.793839,-11251.130318,-1702.473667,-612.876398
3060.794176,-10584.944971,-1554.432478,306.438199
3060.794513,-9474.636058,-2812.782580,1532.190996
3060.794850,-9104.533087,-2368.659014,1149.143247
3060.795188,-10436.903782,-3256.906145,2145.067394
3060.795525,-10807.006753,-3552.988522,1455.581446
3060.795862,-10140.821405,-2590.720797,1378.971896
3060.796199,-9844.739029,0.000000,1532.190996
3060.796537,-9178.553681,-666.185348,1149.143247
3060.796874,-11547.212695,-1184.329507,0.000000
3060.797211,-10732.986159,-1480.411884,-383.047749
3060.797548,-9548.656652,518.144159,1072.533697
3060.797886,-8882.471304,0.000000,1532.190996
3060.798223,-10288.862594,740.205942,1149.143247
3060.798560,-10214.842000,148.041188,229.828649
3060.798897,-10362.883188,962.267725,1762.019645
3060.799235,-11695.253884,1776.494261,2068.457845
3060.799572,-10510.924376,1850.514855,-153.219100
3060.799909,-10807.006753,444.123565,-689.485948
3060.800247,-11103.089130,296.082377,-1532.190996
3060.800584,-7402.059420,740.205942,-2604.724693
3060.800921,-8290.306550,888.247130,-919.314598
3060.801258,-8512.368333,0.000000,-766.095498
3060.801596,-9696.697840,-1184.329507,-1532.190996
3060.801933,-10584.944971,148.041188,-612.876398
3060.802270,-10288.862594,0.000000,0.000000
3060.802607,-11251.130318,1110.308913,919.314598
3060.802945,-11029.068536,666.185348,-1225.752797
3060.803282,-9326.594869,-1036.288319,-612.876398
3060.803619,-9474.636058,-1702.473667,919.314598
3060.803956,-8586.388927,-2072.576638,1991.848295
3060.804294,-7846.182985,0.000000,1225.752797
3060.804631,-10955.047942,74.020594,766.095498
3060.804968,-12065.356855,592.164754,-1072.533697
3060.805306,-11695.253884,1184.329507,-3140.991542
3060.805643,-9400.615463,1184.329507,-1685.410096
3060.805980,-8734.430116,222.061783,-995.924147
3060.806317,-9844.739029,-1184.329507,-229.828649
3060.806655,-10362.883188,-1184.329507,0.000000
3060.806992,-9918.759623,-1480.411884,842.705048
3060.807329,-9992.780217,-1036.288319,1532.190996
3060.807666,-9992.780217,148.041188,-766.095498
3060.808004,-10881.027347,-1628.453072,459.657299
3060.808341,-11177.109724,-2442.679609,1072.533697
3060.808678,-9178.553681,-1110.308913,1455.581446
3060.809015,-9696.697840,-592.164754,919.314598
3060.809353,-9844.739029,-814.226536,0.000000
3060.809690,-10214.842000,-1258.350101,612.876398
3060.810027,-10510.924376,-1480.411884,1991.848295
3060.810364,-8438.347739,-518.144159,2374.896044
3060.810702,-8956.491898,444.123565,2834.553343
3060.811039,-11029.068536,1184.329507,2834.553343
3060.811376,-11325.150913,1776.494261,1608.800546
3060.811714,-11621.233289,518.144159,2374.896044
3060.812051,-10066.800811,444.123565,3677.258390
3060.812388,-8512.368333,814.226536,2757.943793
3060.812725,-9474.636058,666.185348,1915.238745
3060.813063,-9548.656652,740.205942,-229.828649
3060.813400,-9622.677246,370.102971,-1225.752797
3060.813737,-9548.656652,1110.308913,-766.095498
3060.814074,-8882.471304,1036.288319,-612.876398
3060.814412,-9844.739029,962.267725,-1149.143247
3060.814749,-11029.068536,148.041188,-3064.381992
3060.815086,-10066.800811,222.061783,-3524.039291
3060.815423,-9770.718434,-1258.350101,-2298.286494
3060.815761,-9770.718434,-2294.638420,-383.047749
3060.816098,-9844.739029,-1258.350101,-306.438199
3060.816435,-9474.636058,-74.020594,536.266849
3060.816773,-11103.089130,-962.267725,1149.143247
3060.817110,-11695.253884,-2738.761985,383.047749
3060.817447,-12287.418637,-2368.659014,1149.143247
3060.817784,-11769.274478,-1036.288319,919.314598
3060.818122,-10288.862594,-1110.308913,76.609550
3060.818459,-9178.553681,-518.144159,-612.876398
3060.818796,-8438.347739,370.102971,-459.657299
3060.819133,-9474.636058,1110.308913,-995.924147
3060.819471,-10955.047942,740.205942,-2374.896044
3060.819808,-10807.006753,0.000000,-1762.019645
3060.820145,-10362.883188,-370.102971,-612.876398
3060.820482,-9178.553681,0.000000,536.266849
3060.820820,-9474.636058,1554.432478,2681.334243
3060.821157,-9844.739029,1110.308913,919.314598
3060.821494,-10510.924376,-74.020594,-766.095498
3060.821831,-9992.780217,-1332.370696,-995.924147
3060.822169,-9770.718434,-2146.597232,306.438199
3060.822506,-9400.615463,-1406.391290,919.314598
3060.822843,-8512.368333,0.000000,-766.095498
3060.823181,-7994.224174,1776.494261,-689.485948
3060.823518,-9918.759623,740.205942,459.657299
3060.823855,-10807.006753,518.144159,1378.971896
3060.824192,-10807.006753,1332.370696,1685.410096
3060.824530,-11251.130318,1110.308913,2145.067394
3060.824867,-11843.295072,-370.102971,1685.410096
3060.825204,-11251.130318,-740.205942,2451.505594
3060.825541,-8364.327145,-888.247130,3753.867940
3060.825879,-8142.265362,74.020594,4136.915689
3060.826216,-9326.594869,2146.597232,2681.334243
3060.826553,-12065.356855,814.226536,229.828649
3060.826890,-12435.459826,-370.102971,-919.314598
3060.827228,-10436.903782,74.020594,-995.924147
3060.827565,-9030.512492,1184.329507,-536.266849
3060.827902,-8882.471304,-592.164754,-919.314598
3060.828239,-8956.491898,-1850.514855,-1149.143247
3060.828577,-9178.553681,-1480.411884,-612.876398
3060.828914,-8438.347739,-1480.411884,-229.828649
3060.829251,-9400.615463,-1184.329507,306.438199
3060.829589,-10955.047942,-814.226536,0.000000
3060.829926,-12435.459826,-2072.576638,0.000000
3060.830263,-11843.295072,-1332.370696,0.000000
3060.830600,-8586.388927,-592.164754,766.095498
3060.830938,-8364.327145,-814.226536,306.438199
3060.831275,-9844.739029,-2960.823768,-153.219100
3060.831612,-11177.109724,-1924.535449,0.000000
3060.831949,-11029.068536,-592.164754,76.609550
3060.832287,-9844.739029,962.267725,383.047749
3060.832624,-9252.574275,1702.473667,1225.752797
3060.832961,-10362.883188,814.226536,2221.676944
3060.833298,-12213.398043,740.205942,2681.334243
3060.833636,-11991.336260,1110.308913,1532.190996
3060.833973,-10881.027347,2072.576638,612.876398
3060.834310,-10510.924376,962.267725,-689.485948
3060.834648,-9400.615463,740.205942,-1378.971896
3060.834985,-8068.244768,-296.082377,-1455.581446
3060.835322,-8734.430116,-74.020594,0.000000
3060.835659,-8734.430116,1110.308913,-1149.143247
3060.835997,-8882.471304,666.185348,-2604.724693
3060.836334,-11769.274478,0.000000,-1225.752797
3060.836671,-10732.986159,-444.123565,-153.219100
3060.837008,-10214.842000,1998.556043,-459.657299
3060.837346,-11029.068536,1036.288319,-766.095498
3060.837683,-8068.244768,-1036.288319,-2068.457845
3060.838020,-9030.512492,-3849.070898,76.609550
3060.838357,-9992.780217,-2738.761985,2451.505594
3060.838695,-8512.368333,-962.267725,2145.067394
3060.839032,-10140.821405,0.000000,1838.629195
3060.839369,-11621.233289,-222.061783,-76.609550
3060.839706,-11547.212695,0.000000,0.000000
3060.840044,-10362.883188,74.020594,459.657299
3060.840381,-8586.388927,814.226536,1225.752797
3060.840718,-9992.780217,-888.247130,76.609550
3060.841056,-11843.295072,-1554.432478,1455.581446
3060.841393,-10658.965565,-592.164754,1685.410096
3060.841730,-8142.265362,-518.144159,229.828649
3060.842067,-8290.306550,148.041188,-229.828649
3060.842405,-11029.068536,-1258.350101,153.219100
3060.842742,-11769.274478,-1110.308913,0.000000
3060.843079,-9844.739029,-1184.329507,612.876398
3060.843416,-9992.780217,-296.082377,1072.533697
3060.843754,-9696.697840,-1110.308913,153.219100
3060.844091,-10140.821405,-1184.329507,306.438199
3060.844428,-9400.615463,-2442.679609,1838.629195
3060.844765,-8808.450710,-2442.679609,2528.115143
3060.845103,-8586.388927,740.205942,1991.848295
3060.845440,-10658.965565,-222.061783,842.705048
3060.845777,-11843.295072,-1406.391290,229.828649
3060.846115,-10436.903782,-814.226536,919.314598
3060.846452,-9178.553681,296.082377,2528.115143
3060.846789,-9252.574275,1406.391290,2451.505594
3060.847126,-8808.450710,370.102971,229.828649
3060.847464,-9844.739029,0.000000,-689.485948
3060.847801,-10362.883188,148.041188,766.095498
3060.848138,-10881.027347,1332.370696,1608.800546
3060.848475,-9844.739029,1776.494261,-459.657299
3060.848813,-9622.677246,1702.473667,-1991.848295
3060.849150,-11325.150913,0.000000,-2068.457845
3060.849487,-10658.965565,0.000000,-1915.238745
3060.849824,-9030.512492,1480.411884,-2451.505594
3060.850162,-9918.759623,888.247130,-3370.820191
3060.850499,-10436.903782,-1628.453072,-3753.867940
3060.850836,-10584.944971,-2294.638420,-1991.848295
3060.851173,-9622.677246,-2368.659014,1149.143247
3060.851511,-10214.842000,-814.226536,2221.676944
3060.851848,-10288.862594,-888.247130,459.657299
3060.852185,-11473.192101,-1406.391290,0.000000
3060.852523,-11621.233289,-1850.514855,612.876398
3060.852860,-9992.780217,-888.247130,1762.019645
3060.853197,-9178.553681,962.267725,919.314598
3060.853534,-9474.636058,592.164754,-1149.143247
3060.853872,-10584.944971,-370.102971,-1915.238745
3060.854209,-10732.986159,-888.247130,-536.266849
3060.854546,-8956.491898,0.000000,689.485948
3060.854883,-9104.533087,1480.411884,1455.581446
3060.855221,-10362.883188,518.144159,1225.752797
3060.855558,-10807.006753,-1480.411884,459.657299
3060.855895,-9548.656652,-1332.370696,919.314598
3060.856232,-7476.080014,222.061783,2145.067394
3060.856570,-8956.491898,518.144159,2834.553343
3060.856907,-11473.192101,962.267725,536.266849
3060.857244,-11399.171507,-740.205942,-919.314598
3060.857582,-11029.068536,-370.102971,-459.657299
3060.857919,-9252.574275,-592.164754,1838.629195
3060.858256,-9696.697840,0.000000,2068.457845
3060.858593,-9326.594869,-370.102971,306.438199
3060.858931,-8660.409521,-1480.411884,536.266849
3060.859268,-9770.718434,370.102971,2068.457845
3060.859605,-10288.862594,740.205942,2374.896044
3060.859942,-11251.130318,0.000000,1378.971896
3060.860280,-12657.521608,370.102971,612.876398
3060.860617,-11103.089130,1258.350101,919.314598
3060.860954,-10066.800811,2072.576638,1378.971896
3060.861291,-8364.327145,740.205942,1072.533697
3060.861629,-8068.244768,-666.185348,-842.705048
3060.861966,-10140.821405,-1258.350101,-689.485948
3060.862303,-10140.821405,-1184.329507,-689.485948
3060.862640,-9104.533087,0.000000,0.000000
3060.862978,-8438.347739,0.000000,-459.657299
3060.863315,-8142.265362,-666.185348,-2298.286494
3060.863652,-9696.697840,-1036.288319,-1991.848295
3060.863990,-10584.944971,-1258.350101,-1072.533697
3060.864327,-9696.697840,-1110.308913,-1378.971896
3060.864664,-9844.739029,-2072.576638,-1532.190996
3060.865001,-11251.130318,-2812.782580,-1302.362347
3060.865339,-11177.109724,-2738.761985,0.000000
3060.865676,-9548.656652,-1110.308913,0.000000
3060.866013,-8512.368333,-666.185348,0.000000
3060.866350,-9770.718434,-1258.350101,-306.438199
3060.866688,-12583.501014,-1628.453072,153.219100
3060.867025,-13249.686362,-962.267725,536.266849
3060.867362,-11473.192101,222.061783,995.924147
3060.867699,-9548.656652,2368.659014,2145.067394
3060.868037,-9918.759623,0.000000,2374.896044
3060.868374,-10732.986159,-1776.494261,3064.381992
3060.868711,-10658.965565,296.082377,1991.848295
3060.869049,-10881.027347,1480.411884,995.924147
3060.869385,-9400.615463,1702.473667,-306.438199
3060.869722,-9770.718434,888.247130,-766.095498
3060.870060,-9178.553681,740.205942,-766.095498
3060.870397,-7846.182985,222.061783,-1149.143247
3060.870734,-8882.471304,740.205942,1149.143247
3060.871072,-9770.718434,222.061783,229.828649
3060.871409,-9770.718434,74.020594,0.000000
3060.871747,-10362.883188,-1554.432478,229.828649
3060.872084,-10140.821405,-666.185348,612.876398
3060.872421,-8512.368333,-666.185348,459.657299
3060.872759,-9178.553681,-518.144159,689.485948
3060.873096,-9104.533087,-1036.288319,919.314598
3060.873434,-9992.780217,-370.102971,1608.800546
3060.873771,-11399.171507,370.102971,-306.438199
3060.874109,-10436.903782,444.123565,-1072.533697
3060.874446,-10510.924376,-222.061783,0.000000
3060.874783,-10955.047942,-518.144159,1225.752797
3060.875121,-10140.821405,0.000000,1149.143247
3060.875458,-9400.615463,962.267725,2145.067394
3060.875796,-10510.924376,-370.102971,2068.457845
3060.876133,-11843.295072,-666.185348,153.219100
3060.876471,-11177.109724,-296.082377,-459.657299
3060.876808,-10066.800811,-444.123565,-689.485948
3060.877145,-9104.533087,-666.185348,-766.095498
3060.877483,-9030.512492,666.185348,-2451.505594
3060.877820,-9400.615463,-1702.473667,-1685.410096
3060.878158,-9326.594869,-1776.494261,-1225.752797
3060.878495,-9696.697840,-1776.494261,229.828649
3060.878832,-10807.006753,-1628.453072,1532.190996
3060.879170,-10584.944971,-1850.514855,383.047749
3060.879507,-9548.656652,-1776.494261,0.000000
3060.879845,-9844.739029,-2146.597232,612.876398
3060.880182,-9326.594869,-1332.370696,383.047749
3060.880520,-8586.388927,-444.123565,842.705048
3060.880857,-10510.924376,0.000000,76.609550
3060.881194,-11325.150913,-814.226536,0.000000
3060.881532,-11177.109724,-740.205942,919.314598
3060.881869,-9474.636058,518.144159,2681.334243
3060.882207,-8808.450710,666.185348,2374.896044
3060.882544,-10807.006753,888.247130,1685.410096
3060.882882,-10955.047942,1036.288319,0.000000
3060.883219,-10881.027347,1036.288319,766.095498
3060.883556,-10732.986159,2220.617826,229.828649
3060.883894,-10955.047942,1628.453072,-536.266849
3060.884231,-10881.027347,962.267725,-1608.800546
3060.884569,-9844.739029,296.082377,-2834.553343
3060.884906,-9178.553681,0.000000,-2604.724693
3060.885243,-8068.244768,592.164754,-1685.410096
3060.885581,-8512.368333,-1184.329507,-1225.752797
3060.885918,-10066.800811,-1776.494261,0.000000
3060.886256,-11399.171507,-1776.494261,842.705048
3060.886593,-11325.150913,-1776.494261,1762.019645
3060.886931,-9400.615463,-1776.494261,995.924147
3060.887268,-8956.491898,-1406.391290,1455.581446
3060.887605,-9622.677246,-814.226536,1072.533697
3060.887943,-9326.594869,-1406.391290,153.219100
3060.888280,-8586.388927,-814.226536,0.000000
3060.888618,-9918.759623,-962.267725,1302.362347
3060.888955,-11029.068536,-1110.308913,1685.410096
3060.889293,-10658.965565,-444.123565,0.000000
3060.889630,-9770.718434,148.041188,612.876398
3060.889967,-9104.533087,666.185348,1455.581446
3060.890305,-10362.883188,74.020594,1915.238745
3060.890642,-10955.047942,148.041188,1532.190996
3060.890980,-10807.006753,0.000000,612.876398
3060.891317,-11029.068536,444.123565,919.314598
3060.891654,-11103.089130,148.041188,76.609550
3060.891992,-9844.739029,0.000000,-76.609550
3060.892329,-9770.718434,370.102971,-995.924147
3060.892667,-9844.739029,-518.144159,-1532.190996
3060.893004,-9844.739029,-1110.308913,-383.047749
3060.893342,-9400.615463,-1332.370696,-383.047749
3060.893679,-9030.512492,-74.020594,0.000000
3060.894016,-9770.718434,-592.164754,612.876398
3060.894354,-10140.821405,74.020594,0.000000
3060.894691,-10214.842000,-888.247130,1149.143247
3060.895029,-9622.677246,0.000000,1072.533697
3060.895366,-9992.780217,740.205942,1915.238745
3060.895704,-10955.047942,888.247130,1149.143247
3060.896041,-9622.677246,1628.453072,-842.705048
3060.896378,-10140.821405,222.061783,536.266849
3060.896716,-11251.130318,222.061783,306.438199
3060.897053,-8586.388927,814.226536,-766.095498
3060.897391,-8438.347739,-222.061783,-842.705048
3060.897728,-9400.615463,-518.144159,-229.828649
3060.898065,-9918.759623,-592.164754,-1532.190996
3060.898403,-10658.965565,0.000000,-766.095498
3060.898740,-9918.759623,296.082377,-612.876398
3060.899078,-10362.883188,0.000000,-153.219100
3060.899415,-11695.253884,222.061783,-1225.752797
3060.899753,-9696.697840,-1702.473667,-2221.676944
3060.900090,-10066.800811,-2294.638420,689.485948
3060.900427,-9474.636058,-1850.514855,383.047749
3060.900765,-10066.800811,-1554.432478,-919.314598
3060.901102,-11029.068536,-1850.514855,-995.924147
3060.901440,-10732.986159,-2294.638420,76.609550
3060.901777,-10510.924376,-2738.761985,1608.800546
3060.902115,-10510.924376,-1702.473667,2068.457845
3060.902452,-9178.553681,444.123565,2757.943793
3060.902789,-10214.842000,-592.164754,2681.334243
3060.903127,-10955.047942,-666.185348,1455.581446
3060.903464,-9844.739029,0.000000,1455.581446
3060.903802,-10288.862594,1036.288319,3294.210641
3060.904139,-9622.677246,1110.308913,1838.629195
3060.904476,-10807.006753,-370.102971,842.705048
3060.904814,-10732.986159,592.164754,1072.533697
3060.905151,-8660.409521,962.267725,612.876398
3060.905489,-9178.553681,1702.473667,229.828649
3060.905826,-8808.450710,296.082377,-383.047749
3060.906164,-10732.986159,-518.144159,153.219100
3060.906501,-10732.986159,148.041188,0.000000
3060.906838,-8290.306550,222.061783,-919.314598
3060.907176,-7920.203579,0.000000,2221.676944
3060.907513,-11547.212695,0.000000,1455.581446
3060.907851,-10955.047942,888.247130,1149.143247
3060.908188,-11325.150913,1110.308913,-766.095498
3060.908525,-10140.821405,148.041188,-2068.457845
3060.908863,-10362.883188,-814.226536,-995.924147
3060.909200,-9400.615463,-2368.659014,-689.485948
3060.909538,-8882.471304,-1554.432478,842.705048
3060.909875,-7105.977043,-148.041188,1149.143247
3060.910213,-10807.006753,1332.370696,1225.752797
3060.910550,-13619.789333,1776.494261,-536.266849
3060.910887,-12287.418637,222.061783,-1378.971896
3060.911225,-10807.006753,0.000000,459.657299
3060.911562,-10140.821405,222.061783,1685.410096
3060.911900,-8882.471304,592.164754,536.266849
3060.912237,-8586.388927,-592.164754,-1991.848295
3060.912575,-9696.697840,-962.267725,-2451.505594
3060.912912,-10881.027347,-1924.535449,-919.314598
3060.913249,-10658.965565,-1480.411884,-1149.143247
3060.913587,-7698.141797,-592.164754,-1838.629195
3060.913924,-10140.821405,-962.267725,-2451.505594
3060.914262,-10658.965565,-888.247130,-1762.019645
3060.914599,-9474.636058,-1924.535449,-1532.190996
3060.914936,-9548.656652,-962.267725,-306.438199
3060.915274,-9252.574275,-1554.432478,459.657299
3060.915611,-11325.150913,-1850.514855,1225.752797
3060.915949,-11103.089130,-1776.494261,1532.190996
3060.916286,-9770.718434,-1924.535449,2681.334243
3060.916624,-9992.780217,-592.164754,2604.724693
3060.916961,-10066.800811,-148.041188,1762.019645
3060.917298,-11103.089130,0.000000,1991.848295
3060.917636,-10066.800811,962.267725,1608.800546
3060.917973,-10881.027347,2220.617826,1838.629195
3060.918311,-11473.192101,2812.782580,1072.533697
3060.918648,-11029.068536,1406.391290,-306.438199
3060.918986,-10732.986159,1554.432478,0.000000
3060.919323,-9696.697840,1258.350101,-229.828649
3060.919660,-8586.388927,1332.370696,76.609550
3060.919998,-9030.512492,592.164754,536.266849
3060.920335,-8660.409521,-1110.308913,-842.705048
3060.920673,-9770.718434,-1924.535449,842.705048
3060.921010,-10362.883188,-2072.576638,1378.971896
3060.921347,-9548.656652,-814.226536,2451.505594
3060.921685,-9770.718434,-962.267725,1302.362347
3060.922022,-9622.677246,-592.164754,766.095498
3060.922360,-9326.594869,-1184.329507,842.705048
3060.922697,-10066.800811,-1406.391290,1149.143247
3060.923035,-9474.636058,0.000000,383.047749
3060.923372,-9474.636058,-2072.576638,-229.828649
3060.923709,-11621.233289,-1406.391290,459.657299
3060.924047,-9474.636058,-1184.329507,-536.266849
3060.924384,-9030.512492,-370.102971,383.047749
3060.924722,-9326.594869,444.123565,1685.410096
3060.925059,-9844.739029,296.082377,76.609550
3060.925397,-12805.562797,-518.144159,0.000000
3060.925734,-11695.253884,-148.041188,1149.143247
3060.926071,-10066.800811,1110.308913,1302.362347
3060.926409,-9548.656652,74.020594,536.266849
3060.926746,-12213.398043,-592.164754,-536.266849
3060.927084,-11399.171507,-1850.514855,-1838.629195
3060.927421,-8808.450710,-888.247130,-2681.334243
3060.927758,-7105.977043,1332.370696,-1455.581446
3060.928096,-9400.615463,518.144159,-1685.410096
3060.928433,-12361.439231,0.000000,-2834.553343
3060.928771,-11177.109724,-1406.391290,-4136.915689
3060.929108,-9844.739029,-962.267725,-842.705048
3060.929446,-8438.347739,370.102971,1302.362347
3060.929783,-9178.553681,0.000000,2757.943793
3060.930120,-10214.842000,74.020594,1532.190996
3060.930458,-9252.574275,-1036.288319,0.000000
3060.930795,-11399.171507,-518.144159,2757.943793
3060.931133,-10510.924376,740.205942,2145.067394
3060.931470,-8660.409521,592.164754,766.095498
3060.931808,-9548.656652,0.000000,1072.533697
3060.932145,-9844.739029,962.267725,0.000000
3060.932482,-8734.430116,4071.132681,-995.924147
3060.932820,-9992.780217,1480.411884,-536.266849
3060.933157,-9844.739029,814.226536,-612.876398
3060.933495,-11251.130318,-666.185348,-612.876398
3060.933832,-11103.089130,-666.185348,1455.581446
3060.934169,-8290.306550,666.185348,1149.143247
3060.934507,-9104.533087,-814.226536,1225.752797
3060.934844,-10955.047942,-592.164754,153.219100
3060.935182,-10362.883188,-1998.556043,-612.876398
3060.935519,-9992.780217,-1036.288319,306.438199
3060.935857,-9844.739029,-740.205942,995.924147
3060.936194,-11103.089130,-740.205942,689.485948
3060.936531,-11621.233289,-1036.288319,0.000000
3060.936869,-9400.615463,-962.267725,459.657299
3060.937206,-8808.450710,-592.164754,2681.334243
3060.937544,-9326.594869,-370.102971,2757.943793
3060.937881,-11843.295072,-814.226536,3064.381992
3060.938218,-12583.501014,-1110.308913,2298.286494
3060.938556,-10288.862594,-1184.329507,536.266849
3060.938893,-8216.285956,370.102971,2987.772442
3060.939231,-7328.038826,592.164754,3217.601092
3060.939568,-9326.594869,1406.391290,1991.848295
3060.939906,-13175.665768,518.144159,-536.266849
3060.940243,-11769.274478,888.247130,-2911.162892
3060.940580,-9326.594869,814.226536,-1225.752797
3060.940918,-9474.636058,-444.123565,-76.609550
3060.941255,-7846.182985,-740.205942,-1455.581446
3060.941593,-8660.409521,-962.267725,-383.047749
3060.941930,-9474.636058,74.020594,306.438199
3060.942268,-9474.636058,518.144159,-383.047749
3060.942605,-11843.295072,814.226536,0.000000
3060.942942,-12139.377449,-370.102971,-1149.143247
3060.943280,-10955.047942,-370.102971,-1072.533697
3060.943617,-9622.677246,370.102971,-766.095498
3060.943955,-7772.162391,-1036.288319,-536.266849
3060.944292,-8660.409521,-740.205942,-153.219100
3060.944629,-11325.150913,-2072.576638,-306.438199
3060.944967,-10807.006753,-592.164754,-919.314598
3060.945304,-10658.965565,-296.082377,0.000000
3060.945642,-9918.759623,740.205942,1072.533697
3060.945979,-9770.718434,-148.041188,459.657299
3060.946317,-10066.800811,-148.041188,306.438199
3060.946654,-9030.512492,666.185348,229.828649
3060.946991,-10362.883188,888.247130,76.609550
3060.947329,-10732.986159,0.000000,-995.924147
3060.947666,-11325.150913,-962.267725,-1915.238745
3060.948004,-10732.986159,-1628.453072,-1532.190996
3060.948341,-8512.368333,-370.102971,-1838.629195
3060.948679,-8808.450710,-1036.288319,-612.876398
3060.949016,-9474.636058,-1184.329507,-1072.533697
3060.949353,-8956.491898,-1998.556043,-1072.533697
3060.949691,-10510.924376,-1554.432478,0.000000
3060.950028,-10807.006753,-1258.350101,1685.410096
3060.950366,-10881.027347,-814.226536,1225.752797
3060.950703,-11843.295072,74.020594,1685.410096
3060.951040,-9770.718434,-1184.329507,919.314598
3060.951378,-10066.800811,-814.226536,2834.553343
3060.951715,-10362.883188,-1258.350101,3677.258390
3060.952053,-9104.533087,296.082377,2451.505594
3060.952390,-11103.089130,592.164754,2221.676944
3060.952728,-11251.130318,370.102971,1378.971896
3060.953065,-8956.491898,1776.494261,1225.752797
3060.953402,-8364.327145,1406.391290,2604.724693
3060.953740,-9474.636058,1480.411884,2068.457845
3060.954077,-9844.739029,1998.556043,0.000000
3060.954415,-11695.253884,1776.494261,-459.657299
3060.954752,-9918.759623,1184.329507,-459.657299
3060.955090,-9326.594869,370.102971,306.438199
3060.955427,-9326.594869,666.185348,459.657299
3060.955764,-9030.512492,-1332.370696,-766.095498
3060.956102,-9252.574275,-2220.617826,0.000000
3060.956439,-8956.491898,-2146.597232,536.266849
3060.956777,-8216.285956,-1850.514855,383.047749
3060.957114,-10066.800811,-814.226536,995.924147
3060.957451,-11251.130318,-518.144159,0.000000
3060.957789,-12213.398043,-296.082377,-1532.190996
3060.958126,-10362.883188,-814.226536,-1225.752797
3060.958464,-9474.636058,-1036.288319,76.609550
3060.958801,-9474.636058,-1184.329507,536.266849
3060.959139,-10140.821405,-1776.494261,229.828649
3060.959476,-11177.109724,-1628.453072,76.609550
3060.959813,-10066.800811,0.000000,153.219100
3060.960151,-10066.800811,148.041188,-536.266849
3060.960488,-11325.150913,74.020594,995.924147
3060.960826,-11029.068536,148.041188,536.266849
3060.961163,-10955.047942,148.041188,76.609550
3060.961501,-10732.986159,1554.432478,0.000000
3060.961838,-9474.636058,592.164754,-1225.752797
3060.962175,-10140.821405,148.041188,-766.095498
3060.962513,-10807.006753,222.061783,-1762.019645
3060.962850,-9400.615463,0.000000,-3140.991542
3060.963188,-8734.430116,-370.102971,-1762.019645
3060.963525,-8586.388927,0.000000,-1225.752797
3060.963862,-8068.244768,0.000000,-842.705048
3060.964200,-10436.903782,-518.144159,0.000000
3060.964537,-10510.924376,-1332.370696,612.876398
3060.964875,-9252.574275,-1036.288319,1225.752797
3060.965212,-9178.553681,-296.082377,3524.039291
3060.965550,-9696.697840,592.164754,3140.991542
3060.965887,-10066.800811,370.102971,766.095498
3060.966224,-9770.718434,592.164754,919.314598
3060.966562,-10510.924376,0.000000,2068.457845
3060.966899,-9770.718434,444.123565,2068.457845
3060.967237,-9252.574275,148.041188,1991.848295
3060.967574,-9770.718434,666.185348,1915.238745
3060.967911,-10436.903782,74.020594,919.314598
3060.968249,-11695.253884,1628.453072,0.000000
3060.968586,-9474.636058,296.082377,-76.609550
3060.968924,-10288.862594,-370.102971,0.000000
3060.969261,-8956.491898,-1480.411884,1685.410096
3060.969599,-9770.718434,-444.123565,766.095498
3060.969936,-11399.171507,74.020594,919.314598
3060.970273,-11325.150913,-370.102971,-1991.848295
3060.970611,-10658.965565,-1480.411884,-2451.505594
3060.970948,-9918.759623,-2220.617826,-766.095498
3060.971286,-9030.512492,-2368.659014,612.876398
3060.971623,-9548.656652,-2368.659014,1378.971896
3060.971960,-9918.759623,-740.205942,-766.095498
3060.972298,-9252.574275,-1184.329507,-2145.067394
3060.972635,-10658.965565,-1998.556043,766.095498
3060.972973,-10436.903782,-1702.473667,2604.724693
3060.973310,-10214.842000,-518.144159,3600.648841
3060.973647,-10288.862594,1406.391290,1455.581446
3060.973985,-9474.636058,888.247130,-76.609550
3060.974322,-11029.068536,370.102971,0.000000
3060.974660,-10658.965565,-592.164754,766.095498
3060.974997,-8364.327145,592.164754,1455.581446
3060.975334,-8956.491898,1924.535449,919.314598
3060.975672,-10140.821405,2220.617826,306.438199
3060.976009,-10807.006753,2072.576638,-919.314598
3060.976347,-11177.109724,1628.453072,0.000000
3060.976684,-9030.512492,1702.473667,76.609550
3060.977021,-10140.821405,3108.864956,0.000000
3060.977359,-10436.903782,1406.391290,0.000000
3060.977696,-9696.697840,0.000000,0.000000
3060.978034,-9030.512492,-1258.350101,1072.533697
3060.978371,-8586.388927,1258.350101,1532.190996
3060.978709,-8956.491898,2220.617826,1302.362347
3060.979046,-11769.274478,222.061783,1608.800546
3060.979383,-11547.212695,0.000000,1149.143247
3060.979721,-9400.615463,222.061783,1762.019645
3060.980058,-10510.924376,1406.391290,3064.381992
3060.980396,-9474.636058,814.226536,1685.410096
3060.980733,-10436.903782,148.041188,2221.676944
3060.981070,-9400.615463,-148.041188,2451.505594
3060.981408,-8734.430116,1258.350101,3217.601092
3060.981745,-9474.636058,1776.494261,3140.991542
3060.982083,-9992.780217,1554.432478,1608.800546
3060.982420,-11843.295072,592.164754,1149.143247
3060.982757,-10881.027347,296.082377,1762.019645
3060.983095,-8882.471304,148.041188,3370.820191
3060.983432,-9548.656652,666.185348,3907.087040
3060.983770,-9844.739029,1480.411884,1685.410096
3060.984107,-11769.274478,370.102971,0.000000
3060.984444,-10658.965565,-666.185348,0.000000
3060.984782,-8808.450710,-592.164754,3217.601092
3060.985119,-9030.512492,1332.370696,4979.620737
3060.985457,-10066.800811,1998.556043,2681.334243
3060.985794,-12139.377449,2368.659014,842.705048
3060.986132,-12287.418637,1702.473667,689.485948
3060.986469,-10510.924376,222.061783,3830.477490
3060.986806,-9104.533087,1554.432478,5975.544884
3060.987144,-9030.512492,3775.050304,5439.278036
3060.987481,-11251.130318,3034.844362,3370.820191
3060.987819,-12287.418637,2590.720797,1991.848295
3060.988156,-9770.718434,3108.864956,2145.067394
3060.988493,-8956.491898,2368.659014,3830.477490
3060.988831,-8808.450710,4219.173869,3983.696590
3060.989168,-9178.553681,4737.318029,3064.381992
3060.989506,-10362.883188,4663.297435,1072.533697
3060.989843,-9548.656652,2960.823768,689.485948
3060.990180,-9918.759623,2146.597232,1762.019645
3060.990518,-9252.574275,2368.659014,2451.505594
3060.990855,-9030.512492,2590.720797,766.095498
3060.991193,-9030.512492,2368.659014,-919.314598
3060.991530,-8882.471304,1110.308913,-306.438199
3060.991867,-9474.636058,222.061783,1149.143247
3060.992205,-8882.471304,0.000000,1915.238745
3060.992542,-9770.718434,1406.391290,2528.115143
3060.992880,-11621.233289,1776.494261,2451.505594
3060.993217,-12361.439231,1036.288319,1608.800546
3060.993554,-12139.377449,74.020594,2374.896044
3060.993892,-10436.903782,-148.041188,3217.601092
3060.994229,-10140.821405,666.185348,3524.039291
3060.994567,-10658.965565,1036.288319,3677.258390
3060.994904,-11029.068536,1776.494261,2451.505594
3060.995242,-11473.192101,1628.453072,1685.410096
3060.995579,-11621.233289,1332.370696,995.924147
3060.995916,-10955.047942,888.247130,1762.019645
3060.996254,-10140.821405,1184.329507,2374.896044
3060.996591,-8586.388927,1850.514855,2911.162892
3060.996929,-9400.615463,2960.823768,3064.381992
3060.997266,-10436.903782,1406.391290,2681.334243
3060.997603,-10510.924376,1776.494261,1072.533697
3060.997941,-10658.965565,1110.308913,1532.190996
3060.998278,-9400.615463,1332.370696,2221.676944
3060.998616,-8290.306550,1036.288319,1838.629195
3060.998953,-9474.636058,74.020594,3294.210641
3060.999290,-8734.430116,444.123565,2757.943793
3060.999628,-9030.512492,1776.494261,1685.410096
3060.999965,-8956.491898,2960.823768,2145.067394
3061.000303,-9400.615463,2960.823768,1608.800546
3061.000640,-10881.027347,2590.720797,2987.772442
3061.000977,-11621.233289,2812.782580,2911.162892
3061.001315,-10066.800811,2960.823768,2451.505594
3061.001652,-9918.759623,3552.988522,4443.353888
3061.001990,-9770.718434,3478.967927,4749.792088
3061.002327,-9844.739029,4219.173869,3983.696590
3061.002665,-10584.944971,3701.029710,2681.334243
3061.003002,-10881.027347,3034.844362,1915.238745
3061.003339,-10881.027347,3256.906145,1455.581446
3061.003677,-10510.924376,2960.823768,1455.581446
3061.004014,-8808.450710,2738.761985,1838.629195
3061.004352,-8882.471304,1776.494261,2145.067394
3061.004689,-10807.006753,1184.329507,1915.238745
3061.005026,-10362.883188,740.205942,459.657299
3061.005364,-10436.903782,592.164754,689.485948
3061.005701,-9696.697840,-962.267725,919.314598
3061.006039,-9918.759623,-2220.617826,1608.800546
3061.006376,-8882.471304,-1924.535449,2374.896044
3061.006713,-8290.306550,-1258.350101,2451.505594
3061.007051,-8364.327145,-370.102971,3064.381992
3061.007388,-10955.047942,592.164754,2528.115143
3061.007726,-11103.089130,1406.391290,2604.724693
3061.008063,-12065.356855,1924.535449,2221.676944
3061.008400,-11547.212695,1406.391290,2834.553343
3061.008738,-12287.418637,1480.411884,3907.087040
3061.009075,-11177.109724,518.144159,3830.477490
3061.009413,-8882.471304,592.164754,3600.648841
3061.009750,-9474.636058,370.102971,4749.792088
3061.010088,-9918.759623,1480.411884,4519.963438
3061.010425,-10066.800811,3404.947333,3830.477490
3061.010762,-10214.842000,4811.338623,2757.943793
3061.011100,-10732.986159,6809.894666,1149.143247
3061.011437,-11917.315666,5403.503377,689.485948
3061.011775,-12879.583391,4219.173869,459.657299
3061.012112,-9400.615463,2368.659014,995.924147
3061.012449,-8808.450710,1850.514855,1991.848295
3061.012787,-7402.059420,1332.370696,2145.067394
3061.013124,-7402.059420,0.000000,1685.410096
3061.013462,-8660.409521,814.226536,2834.553343
3061.013799,-7624.121203,666.185348,2374.896044
3061.014136,-8956.491898,3552.988522,3217.601092
3061.014474,-9770.718434,4737.318029,2145.067394
3061.014811,-11029.068536,4367.215058,1302.362347
3061.015149,-11695.253884,3552.988522,1149.143247
3061.015486,-10807.006753,2442.679609,1608.800546
3061.015823,-10066.800811,1332.370696,2528.115143
3061.016161,-9030.512492,814.226536,2604.724693
3061.016498,-9104.533087,296.082377,3370.820191
3061.016836,-10066.800811,296.082377,2068.457845
3061.017173,-9104.533087,296.082377,2528.115143
3061.017510,-10362.883188,2072.576638,2604.724693
3061.017848,-9696.697840,3256.906145,2451.505594
3061.018185,-10732.986159,4071.132681,1378.971896
3061.018523,-13175.665768,4145.153275,1455.581446
3061.018860,-13323.706956,3404.947333,536.266849
3061.019198,-12139.377449,1628.453072,-766.095498
3061.019535,-10955.047942,-518.144159,383.047749
3061.019872,-9474.636058,-2368.659014,1302.362347
3061.020210,-8290.306550,-2886.803174,2145.067394
3061.020547,-6735.874072,-2664.741391,2451.505594
3061.020885,-7846.182985,-1184.329507,3370.820191
3061.021222,-9696.697840,1406.391290,2757.943793
3061.021559,-10362.883188,3108.864956,1378.971896
3061.021897,-10955.047942,3404.947333,3064.381992
3061.022234,-11621.233289,2886.803174,4903.011187
3061.022572,-12213.398043,2812.782580,5822.325785
3061.022909,-11473.192101,3256.906145,4290.134789
3061.023246,-9918.759623,962.267725,4060.306139
3061.023584,-9178.553681,222.061783,5669.106685
3061.023921,-8290.306550,74.020594,5822.325785
3061.024259,-7920.203579,2442.679609,4673.182538
3061.024596,-7772.162391,3849.070898,2451.505594
3061.024933,-9696.697840,4293.194464,153.219100
3061.025271,-11843.295072,5329.482782,383.047749
3061.025608,-11621.233289,5329.482782,0.000000
3061.025946,-10436.903782,5625.565159,612.876398
3061.026283,-10362.883188,4071.132681,536.266849
3061.026621,-11547.212695,1998.556043,1378.971896
3061.026958,-10807.006753,-666.185348,76.609550
3061.027295,-8364.327145,-2368.659014,2221.676944
3061.027633,-7254.018232,-888.247130,3753.867940
3061.027970,-8660.409521,0.000000,3677.258390
3061.028308,-10807.006753,1406.391290,1915.238745
3061.028645,-11325.150913,1480.411884,-536.266849
3061.028982,-10955.047942,1628.453072,383.047749
3061.029320,-10510.924376,1702.473667,1915.238745
3061.029657,-9622.677246,2442.679609,2987.772442
3061.029995,-10214.842000,2442.679609,3600.648841
3061.030332,-11325.150913,1406.391290,2451.505594
3061.030669,-10955.047942,148.041188,2145.067394
3061.031007,-9844.739029,-444.123565,2451.505594
3061.031344,-8882.471304,-222.061783,3600.648841
3061.031682,-8068.244768,-296.082377,1991.848295
3061.032019,-9252.574275,740.205942,2451.505594
3061.032356,-9622.677246,2072.576638,2221.676944
3061.032694,-9622.677246,3330.926739,1302.362347
3061.033031,-10362.883188,5107.421000,1225.752797
3061.033369,-11325.150913,4071.132681,919.314598
3061.033706,-12065.356855,2886.803174,1762.019645
3061.034043,-11547.212695,1554.432478,1838.629195
3061.034381,-9918.759623,444.123565,2987.772442
3061.034718,-8290.306550,0.000000,4213.525239
3061.035056,-8290.306550,-222.061783,3983.696590
3061.035393,-8882.471304,1036.288319,4136.915689
3061.035731,-9178.553681,2072.576638,2528.115143
3061.036068,-10658.965565,3478.967927,2221.676944
3061.036405,-11251.130318,4885.359217,2145.067394
3061.036743,-11177.109724,5181.441594,1455.581446
3061.037080,-11473.192101,5551.544565,2068.457845
3061.037418,-10807.006753,4071.132681,2298.286494
3061.037755,-9770.718434,3182.885551,2911.162892
3061.038092,-9178.553681,1036.288319,3600.648841
3061.038430,-9030.512492,1258.350101,3294.210641
3061.038767,-8882.471304,1776.494261,2068.457845
3061.039105,-9770.718434,1776.494261,306.438199
3061.039442,-10362.883188,2072.576638,-383.047749
3061.039779,-9474.636058,1628.453072,-1532.190996
3061.040117,-9030.512492,1850.514855,0.000000
3061.040454,-9992.780217,1702.473667,-229.828649
3061.040792,-9696.697840,962.267725,306.438199
3061.041129,-10288.862594,0.000000,689.485948
3061.041466,-11029.068536,-592.164754,1685.410096
3061.041804,-10066.800811,-962.267725,2221.676944
3061.042141,-10214.842000,-1184.329507,2604.724693
3061.042479,-10140.821405,-1924.535449,2757.943793
3061.042816,-10510.924376,-1406.391290,3064.381992
3061.043154,-10732.986159,-888.247130,4136.915689
3061.043491,-10214.842000,1258.350101,3294.210641
3061.043828,-10955.047942,1480.411884,3983.696590
3061.044166,-11325.150913,2960.823768,3370.820191
3061.044503,-11473.192101,2368.659014,3064.381992
3061.044841,-11251.130318,2294.638420,3677.258390
3061.045178,-9696.697840,1554.432478,4366.744339
3061.045515,-9178.553681,1776.494261,4673.182538
3061.045853,-9178.553681,2368.659014,4443.353888
3061.046190,-9548.656652,2886.803174,4749.792088
3061.046528,-10066.800811,3627.009116,4136.915689
3061.046865,-10288.862594,3701.029710,2911.162892
3061.047202,-10362.883188,3775.050304,2528.115143
3061.047540,-10288.862594,3256.906145,1762.019645
3061.047877,-8956.491898,2220.617826,1762.019645
3061.048215,-8364.327145,2072.576638,2604.724693
3061.048552,-7920.203579,1628.453072,3600.648841
3061.048889,-7994.224174,3701.029710,5132.839837
3061.049227,-9992.780217,3849.070898,3983.696590
3061.049564,-10510.924376,4589.276840,2374.896044
3061.049902,-11547.212695,3478.967927,2145.067394
3061.050239,-11843.295072,2664.741391,3217.601092
3061.050577,-9918.759623,2664.741391,3217.601092
3061.050914,-10214.842000,2812.782580,4213.525239
3061.051251,-9622.677246,3627.009116,3370.820191
3061.051589,-10066.800811,3478.967927,1991.848295
3061.051926,-10510.924376,3404.947333,2068.457845
3061.052264,-10584.944971,2590.720797,2374.896044
3061.052601,-10658.965565,3997.112087,2681.334243
3061.052938,-11473.192101,5181.441594,1455.581446
3061.053276,-11399.171507,4145.153275,-1149.143247
3061.053613,-11325.150913,2072.576638,-1608.800546
3061.053951,-10362.883188,-296.082377,-995.924147
3061.054288,-9104.533087,74.020594,689.485948
3061.054625,-8290.306550,666.185348,229.828649
3061.054963,-8512.368333,1480.411884,-383.047749
3061.055300,-9992.780217,-222.061783,-689.485948
3061.055638,-10362.883188,0.000000,842.705048
3061.055975,-8734.430116,1776.494261,1762.019645
3061.056312,-9178.553681,2590.720797,2604.724693
3061.056650,-10066.800811,1924.535449,2834.553343
3061.056987,-11991.336260,1110.308913,2911.162892
3061.057325,-12065.356855,444.123565,2757.943793
3061.057662,-9474.636058,1776.494261,2911.162892
3061.057999,-9770.718434,888.247130,5362.668486
3061.058337,-9696.697840,2072.576638,4673.182538
3061.058674,-9696.697840,2294.638420,2145.067394
3061.059012,-9474.636058,1998.556043,1915.238745
3061.059349,-9548.656652,2294.638420,3524.039291
3061.059687,-11103.089130,3182.885551,3217.601092
3061.060024,-9622.677246,4737.318029,3217.601092
3061.060361,-9770.718434,4441.235652,2451.505594
3061.060699,-11325.150913,3552.988522,3524.039291
3061.061036,-12287.418637,2294.638420,2145.067394
3061.061374,-10362.883188,2072.576638,2221.676944
3061.061711,-8882.471304,666.185348,2451.505594
3061.062048,-9474.636058,-370.102971,2681.334243
3061.062386,-9474.636058,-740.205942,3447.429741
3061.062723,-9622.677246,-370.102971,2068.457845
3061.063061,-7994.224174,0.000000,1915.238745
3061.063398,-8808.450710,-370.102971,1225.752797
3061.063735,-9844.739029,74.020594,1915.238745
3061.064073,-9844.739029,592.164754,1838.629195
3061.064410,-9770.718434,1332.370696,3447.429741
3061.064748,-10807.006753,2072.576638,4290.134789
3061.065085,-11621.233289,1480.411884,3370.820191
3061.065422,-10881.027347,1258.350101,4060.306139
3061.065760,-9770.718434,1184.329507,4596.572988
3061.066097,-10510.924376,1036.288319,4903.011187
3061.066435,-10732.986159,1184.329507,2834.553343
3061.066772,-11251.130318,888.247130,1608.800546
3061.067110,-10658.965565,592.164754,766.095498
3061.067447,-9474.636058,1184.329507,153.219100
3061.067784,-9104.533087,2220.617826,842.705048
3061.068122,-8734.430116,2812.782580,1225.752797
3061.068459,-9400.615463,2886.803174,612.876398
3061.068797,-11251.130318,3034.844362,0.000000
3061.069134,-11843.295072,2812.782580,459.657299
3061.069472,-10584.944971,2516.700203,536.266849
3061.069809,-10066.800811,1036.288319,1762.019645
3061.070147,-9178.553681,814.226536,1762.019645
3061.070484,-9918.759623,-740.205942,2528.115143
3061.070822,-8882.471304,592.164754,3447.429741
3061.071159,-7920.203579,1110.308913,2834.553343
3061.071496,-8956.491898,3478.967927,3064.381992
3061.071834,-9400.615463,4071.132681,3370.820191
3061.072171,-11029.068536,4663.297435,2834.553343
3061.072509,-11251.130318,6069.688724,2681.334243
3061.072846,-10732.986159,5181.441594,1762.019645
3061.073184,-10955.047942,4515.256246,1991.848295
3061.073521,-10584.944971,2294.638420,2604.724693
3061.073859,-10140.821405,1776.494261,2451.505594
3061.074196,-7698.141797,2220.617826,2298.286494
3061.074534,-8068.244768,1998.556043,3140.991542
3061.074871,-9548.656652,3108.864956,2681.334243
3061.075209,-10658.965565,2664.741391,689.485948
3061.075546,-10658.965565,4071.132681,612.876398
3061.075884,-10436.903782,2442.679609,842.705048
3061.076221,-11473.192101,2220.617826,1838.629195
3061.076559,-11177.109724,1480.411884,2145.067394
3061.076896,-9696.697840,962.267725,2528.115143
3061.077233,-8734.430116,-222.061783,3370.820191
3061.077571,-9918.759623,518.144159,2911.162892
3061.077908,-10066.800811,0.000000,2221.676944
3061.078246,-9252.574275,222.061783,2451.505594
3061.078583,-9474.636058,0.000000,3524.039291
3061.078921,-10658.965565,1998.556043,4443.353888
3061.079258,-10807.006753,2368.659014,4443.353888
3061.079596,-10510.924376,2960.823768,4596.572988
3061.079933,-10658.965565,2664.741391,4443.353888
3061.080271,-10881.027347,2442.679609,3600.648841
3061.080608,-10362.883188,1332.370696,3753.867940
3061.080946,-9252.574275,1258.350101,3140.991542
3061.081283,-9770.718434,2368.659014,3140.991542
3061.081621,-9844.739029,1924.535449,2145.067394
3061.081958,-8956.491898,2960.823768,1608.800546
3061.082296,-9178.553681,2368.659014,1378.971896
3061.082633,-9474.636058,2738.761985,995.924147
3061.082971,-11029.068536,2516.700203,919.314598
3061.083308,-11251.130318,1924.535449,-383.047749
3061.083645,-10288.862594,1776.494261,383.047749
3061.083983,-10436.903782,592.164754,1225.752797
3061.084320,-9474.636058,1480.411884,1685.410096
3061.084658,-9252.574275,148.041188,2068.457845
3061.084995,-9030.512492,518.144159,1762.019645
3061.085333,-9178.553681,296.082377,1762.019645
3061.085670,-10214.842000,888.247130,2374.896044
3061.086008,-10732.986159,1406.391290,3217.601092
3061.086345,-10881.027347,2516.700203,2528.115143
3061.086683,-11177.109724,2294.638420,2068.457845
3061.087020,-10510.924376,592.164754,2374.896044
3061.087358,-10140.821405,1036.288319,3370.820191
3061.087695,-10066.800811,518.144159,2757.943793
3061.088033,-10140.821405,1184.329507,1378.971896
3061.088370,-10214.842000,592.164754,0.000000
3061.088708,-9400.615463,-444.123565,-229.828649
3061.089045,-8660.409521,-296.082377,536.266849
3061.089382,-8512.368333,592.164754,1532.190996
3061.089720,-9474.636058,1258.350101,1991.848295
3061.090057,-11103.089130,2146.597232,1455.581446
3061.090395,-13027.624579,1406.391290,842.705048
3061.090732,-12657.521608,1776.494261,766.095498
3061.091070,-10214.842000,370.102971,1762.019645
3061.091407,-9844.739029,-592.164754,3677.258390
3061.091745,-9622.677246,-592.164754,3983.696590
3061.092082,-9474.636058,0.000000,3140.991542
3061.092420,-9474.636058,888.247130,3140.991542
3061.092757,-9104.533087,1850.514855,2221.676944
3061.093095,-10066.800811,2886.803174,2911.162892
3061.093432,-11695.253884,2960.823768,4443.353888
3061.093770,-10955.047942,4293.194464,3524.039291
3061.094107,-11029.068536,4441.235652,3677.258390
3061.094445,-10658.965565,4293.194464,2451.505594
3061.094782,-9696.697840,2812.782580,2528.115143
3061.095119,-9326.594869,1480.411884,3064.381992
3061.095457,-6809.894666,1184.329507,3370.820191
3061.095794,-7031.956449,1554.432478,3370.820191
3061.096132,-10140.821405,2886.803174,1838.629195
3061.096469,-10807.006753,2368.659014,-383.047749
3061.096807,-10807.006753,1850.514855,-1149.143247
3061.097144,-8586.388927,1554.432478,-383.047749
3061.097482,-8882.471304,1110.308913,1149.143247
3061.097819,-9696.697840,1036.288319,995.924147
3061.098157,-10140.821405,-148.041188,-383.047749
3061.098494,-11547.212695,-1332.370696,153.219100
3061.098832,-9844.739029,-740.205942,1072.533697
3061.099169,-9104.533087,-740.205942,2451.505594
3061.099507,-10807.006753,148.041188,2145.067394
3061.099844,-10955.047942,-888.247130,229.828649
3061.100182,-11843.295072,-814.226536,766.095498
3061.100519,-10436.903782,-740.205942,612.876398
3061.100857,-10140.821405,222.061783,1685.410096
3061.101194,-11473.192101,1332.370696,536.266849
3061.101531,-10214.842000,222.061783,-306.438199
3061.101869,-11325.150913,0.000000,-766.095498
3061.102206,-10584.944971,148.041188,-919.314598
3061.102544,-9992.780217,0.000000,-306.438199
3061.102881,-9474.636058,-222.061783,-919.314598
3061.103219,-9474.636058,0.000000,-919.314598
3061.103556,-10732.986159,0.000000,-1302.362347
3061.103894,-9696.697840,-222.061783,-1225.752797
3061.104231,-9474.636058,-740.205942,-995.924147
3061.104569,-9918.759623,-518.144159,-536.266849
3061.104906,-10214.842000,222.061783,-689.485948
3061.105244,-10732.986159,0.000000,153.219100
3061.105581,-9918.759623,74.020594,919.314598
3061.105919,-8808.450710,-444.123565,153.219100
3061.106256,-9918.759623,370.102971,1149.143247
3061.106594,-10214.842000,222.061783,919.314598
3061.106931,-9696.697840,74.020594,153.219100
3061.107268,-9844.739029,0.000000,1608.800546
3061.107606,-9622.677246,888.247130,1455.581446
3061.107943,-10584.944971,2368.659014,1991.848295
3061.108281,-10214.842000,888.247130,383.047749
3061.108618,-9770.718434,888.247130,0.000000
3061.108956,-9770.718434,-148.041188,2298.286494
3061.109293,-11177.109724,0.000000,2528.115143
3061.109631,-10140.821405,518.144159,76.609550
3061.109968,-9030.512492,0.000000,-1608.800546
3061.110306,-9474.636058,222.061783,-2604.724693
3061.110643,-8734.430116,-1628.453072,-3217.601092
3061.110981,-9178.553681,-2664.741391,-1915.238745
3061.111318,-7476.080014,-2886.803174,0.000000
3061.111656,-8660.409521,-3256.906145,1378.971896
3061.111993,-11695.253884,-2146.597232,2374.896044
3061.112331,-11473.192101,-2960.823768,919.314598
3061.112668,-10584.944971,-2368.659014,689.485948
3061.113006,-9918.759623,-2368.659014,1072.533697
3061.113343,-10288.862594,-2516.700203,536.266849
3061.113680,-10362.883188,-2294.638420,842.705048
3061.114018,-10214.842000,-2664.741391,1149.143247
3061.114355,-10658.965565,-1332.370696,612.876398
3061.114693,-11325.150913,-1184.329507,1838.629195
3061.115030,-11177.109724,-370.102971,1762.019645
3061.115368,-10214.842000,-296.082377,1225.752797
3061.115705,-10436.903782,444.123565,2834.553343
3061.116043,-10658.965565,1184.329507,1838.629195
3061.116380,-10436.903782,1998.556043,76.609550
3061.116718,-11473.192101,1924.535449,-612.876398
3061.117055,-11251.130318,888.247130,76.609550
3061.117393,-10955.047942,296.082377,0.000000
3061.117730,-9400.615463,1480.411884,-612.876398
3061.118068,-8734.430116,296.082377,-1838.629195
3061.118405,-8290.306550,-296.082377,-1685.410096
3061.118743,-7920.203579,-1110.308913,-1991.848295
3061.119080,-8216.285956,1036.288319,-306.438199
3061.119417,-9326.594869,814.226536,0.000000
3061.119755,-10436.903782,74.020594,-536.266849
3061.120092,-10288.862594,518.144159,76.609550
3061.120430,-9178.553681,444.123565,-612.876398
3061.120767,-9252.574275,0.000000,1302.362347
3061.121105,-9474.636058,-222.061783,1915.238745
3061.121442,-10288.862594,74.020594,0.000000
3061.121780,-10584.944971,-888.247130,306.438199
3061.122117,-10955.047942,-740.205942,153.219100
3061.122455,-9474.636058,-592.164754,-459.657299
3061.122792,-9400.615463,0.000000,0.000000
3061.123130,-9400.615463,1110.308913,0.000000
3061.123467,-10362.883188,814.226536,-766.095498
3061.123805,-11769.274478,1036.288319,-1762.019645
3061.124142,-11769.274478,-666.185348,-766.095498
3061.124480,-11991.336260,-1332.370696,0.000000
3061.124817,-10362.883188,-1702.473667,0.000000
3061.125154,-9252.574275,-1850.514855,-383.047749
3061.125492,-9104.533087,-814.226536,76.609550
3061.125829,-9844.739029,-1480.411884,-383.047749
3061.126167,-11103.089130,-1332.370696,-1072.533697
3061.126504,-10584.944971,-1036.288319,0.000000
3061.126842,-10955.047942,-1480.411884,306.438199
3061.127179,-9918.759623,-888.247130,1532.190996
3061.127517,-9474.636058,-148.041188,766.095498
3061.127854,-8882.471304,-814.226536,1532.190996
3061.128192,-9918.759623,-592.164754,2987.772442
3061.128529,-9844.739029,296.082377,2528.115143
3061.128867,-10288.862594,1036.288319,3294.210641
3061.129204,-10732.986159,1924.535449,2451.505594
3061.129542,-10807.006753,814.226536,1838.629195
3061.129879,-10140.821405,666.185348,2145.067394
3061.130217,-8734.430116,1110.308913,1378.971896
3061.130554,-7994.224174,2072.576638,1225.752797
3061.130892,-10066.800811,2146.597232,612.876398
3061.131229,-9918.759623,518.144159,-536.266849
3061.131566,-11029.068536,0.000000,0.000000
3061.131904,-9844.739029,444.123565,0.000000
3061.132241,-7920.203579,0.000000,-1225.752797
3061.132579,-8660.409521,0.000000,-536.266849
3061.132916,-10214.842000,-592.164754,-536.266849
3061.133254,-11843.295072,148.041188,-1608.800546
3061.133591,-11769.274478,0.000000,-1991.848295
3061.133929,-11251.130318,-2738.761985,-1838.629195
3061.134266,-10288.862594,-3627.009116,153.219100
3061.134604,-8808.450710,-3627.009116,1991.848295
3061.134941,-8734.430116,-1554.432478,2451.505594
3061.135279,-9400.615463,-1480.411884,2145.067394
3061.135616,-12139.377449,-1480.411884,-383.047749
3061.135954,-12361.439231,-1110.308913,-1302.362347
3061.136291,-11547.212695,-1036.288319,-612.876398
3061.136629,-9474.636058,-1480.411884,-76.609550
3061.136966,-8734.430116,-1332.370696,-229.828649
3061.137303,-8512.368333,-1628.453072,-995.924147
3061.137641,-10066.800811,-1406.391290,-612.876398
3061.137978,-11177.109724,-1702.473667,-689.485948
3061.138316,-9326.594869,-370.102971,-459.657299
3061.138653,-10881.027347,-444.123565,-536.266849
3061.138991,-11251.130318,-1184.329507,-919.314598
3061.139328,-9696.697840,-1110.308913,-842.705048
3061.139666,-9400.615463,-666.185348,229.828649
3061.140003,-10066.800811,-444.123565,612.876398
3061.140341,-10584.944971,370.102971,-1838.629195
3061.140678,-11843.295072,-296.082377,-1149.143247
3061.141016,-9252.574275,-888.247130,-1838.629195
3061.141353,-8660.409521,592.164754,306.438199
3061.141691,-8364.327145,888.247130,1991.848295
3061.142028,-9474.636058,962.267725,689.485948
3061.142366,-11029.068536,518.144159,2528.115143
3061.142703,-11325.150913,962.267725,2604.724693
3061.143041,-10214.842000,2220.617826,3830.477490
3061.143378,-9326.594869,2368.659014,3140.991542
3061.143715,-9696.697840,1776.494261,2528.115143
3061.144053,-10066.800811,296.082377,1455.581446
3061.144390,-10955.047942,1110.308913,1378.971896
3061.144728,-8512.368333,1628.453072,383.047749
3061.145065,-7994.224174,222.061783,-842.705048
3061.145403,-9252.574275,-666.185348,0.000000
3061.145740,-9252.574275,-370.102971,153.219100
3061.146078,-8660.409521,148.041188,-76.609550
3061.146415,-9548.656652,370.102971,536.266849
3061.146753,-11251.130318,-962.267725,-612.876398
3061.147090,-10066.800811,-1924.535449,-1455.581446
3061.147428,-11621.233289,-3330.926739,995.924147
3061.147765,-10436.903782,-1480.411884,2911.162892
3061.148103,-10510.924376,-2146.597232,1532.190996
3061.148440,-10362.883188,-1406.391290,-536.266849
3061.148778,-9696.697840,-1850.514855,0.000000
3061.149115,-12065.356855,-2368.659014,1762.019645
3061.149452,-11695.253884,-1480.411884,919.314598
3061.149790,-10214.842000,-962.267725,0.000000
3061.150127,-9770.718434,666.185348,76.609550
3061.150465,-10436.903782,-740.205942,0.000000
3061.150802,-11325.150913,-518.144159,536.266849
3061.151140,-8808.450710,222.061783,1532.190996
3061.151477,-9622.677246,888.247130,1455.581446
3061.151815,-11547.212695,592.164754,229.828649
3061.152152,-11399.171507,444.123565,-1378.971896
3061.152490,-10510.924376,296.082377,-536.266849
3061.152827,-7698.141797,444.123565,-1915.238745
3061.153165,-7550.100608,740.205942,-1991.848295
3061.153502,-9992.780217,-148.041188,-1608.800546
3061.153840,-9696.697840,-1776.494261,-1915.238745
3061.154177,-9622.677246,0.000000,-995.924147
3061.154515,-9474.636058,518.144159,153.219100
3061.154852,-9474.636058,1258.350101,-689.485948
3061.155189,-10066.800811,518.144159,0.000000
3061.155527,-10658.965565,148.041188,842.705048
3061.155864,-10140.821405,0.000000,766.095498
3061.156202,-9992.780217,740.205942,229.828649
3061.156539,-10658.965565,1258.350101,-153.219100
3061.156877,-10881.027347,-888.247130,-995.924147
3061.157214,-9696.697840,-370.102971,-536.266849
3061.157552,-8586.388927,592.164754,1378.971896
3061.157889,-9696.697840,370.102971,1838.629195
3061.158227,-10436.903782,814.226536,1149.143247
3061.158564,-11103.089130,-1332.370696,0.000000
3061.158902,-11177.109724,-370.102971,1378.971896
3061.159239,-10214.842000,-1036.288319,1378.971896
3061.159577,-9474.636058,-740.205942,306.438199
3061.159914,-8364.327145,-2072.576638,76.609550
3061.160252,-9548.656652,-3182.885551,-229.828649
3061.160589,-9770.718434,-2738.761985,459.657299
3061.160927,-10140.821405,-1850.514855,229.828649
3061.161264,-11177.109724,-1702.473667,0.000000
3061.161601,-10436.903782,-3330.926739,-1302.362347
3061.161939,-10288.862594,-1332.370696,766.095498
3061.162276,-9178.553681,-814.226536,766.095498
3061.162614,-9326.594869,-1110.308913,1378.971896
3061.162951,-10881.027347,-1480.411884,2145.067394
3061.163289,-12509.480420,-2220.617826,2451.505594
3061.163626,-12287.418637,-666.185348,3370.820191
3061.163964,-9992.780217,-296.082377,2911.162892
3061.164301,-9400.615463,888.247130,2987.772442
3061.164639,-9770.718434,0.000000,995.924147
3061.164976,-10214.842000,0.000000,229.828649
3061.165314,-9844.739029,1702.473667,612.876398
3061.165651,-8660.409521,1332.370696,-229.828649
3061.165989,-9918.759623,2146.597232,-995.924147
3061.166326,-10584.944971,1110.308913,-995.924147
3061.166664,-9030.512492,1184.329507,-1455.581446
3061.167001,-8660.409521,1628.453072,76.609550
3061.167338,-9400.615463,1702.473667,-459.657299
3061.167676,-9918.759623,1258.350101,-1685.410096
3061.168013,-11177.109724,-1184.329507,-1455.581446
3061.168351,-11103.089130,-1332.370696,-842.705048
3061.168688,-7772.162391,-1036.288319,0.000000
3061.169026,-7772.162391,-222.061783,842.705048
3061.169363,-9696.697840,-74.020594,612.876398
3061.169701,-11843.295072,-1110.308913,-1685.410096
3061.170038,-11029.068536,222.061783,-1378.971896
3061.170376,-10140.821405,-666.185348,-306.438199
3061.170713,-10362.883188,0.000000,153.219100
3061.171051,-10066.800811,-666.185348,-306.438199
3061.171388,-10807.006753,-518.144159,-306.438199
3061.171725,-9474.636058,-1184.329507,1149.143247
3061.172063,-10436.903782,-148.041188,1149.143247
3061.172400,-11029.068536,-222.061783,459.657299
3061.172738,-10732.986159,-888.247130,-689.485948
3061.173075,-10807.006753,-666.185348,-766.095498
3061.173413,-10066.800811,-1480.411884,-459.657299
3061.173750,-9326.594869,-1184.329507,153.219100
3061.174088,-9474.636058,-1480.411884,459.657299
3061.174425,-9622.677246,-1628.453072,-76.609550
3061.174763,-9622.677246,-1258.350101,-383.047749
3061.175100,-8956.491898,-296.082377,0.000000
3061.175437,-10807.006753,-666.185348,842.705048
3061.175775,-10214.842000,-1258.350101,536.266849
3061.176112,-9030.512492,-1184.329507,-995.924147
3061.176450,-9992.780217,-1258.350101,1991.848295
3061.176787,-9474.636058,-814.226536,2374.896044
3061.177125,-10140.821405,-74.020594,3064.381992
3061.177462,-11251.130318,-444.123565,3600.648841
3061.177800,-10584.944971,444.123565,2068.457845
3061.178137,-10807.006753,1036.288319,2757.943793
3061.178475,-9992.780217,814.226536,2451.505594
3061.178812,-8512.368333,1924.535449,2757.943793
3061.179149,-10584.944971,1110.308913,2374.896044
3061.179487,-11325.150913,2664.741391,536.266849
3061.179824,-11029.068536,1554.432478,459.657299
3061.180162,-10881.027347,2516.700203,-536.266849
3061.180499,-7550.100608,1480.411884,-1608.800546
3061.180837,-9622.677246,296.082377,-842.705048
3061.181174,-9844.739029,-370.102971,-612.876398
3061.181512,-10510.924376,-1924.535449,-1302.362347
3061.181849,-9474.636058,-888.247130,-383.047749
3061.182187,-8364.327145,-2590.720797,0.000000
3061.182524,-9622.677246,-1184.329507,76.609550
3061.182861,-9918.759623,-1036.288319,-1608.800546
3061.183199,-10584.944971,-1184.329507,-1532.190996
3061.183536,-11547.212695,-962.267725,-1685.410096
3061.183874,-10214.842000,-962.267725,-1838.629195
3061.184211,-9770.718434,-444.123565,-1225.752797
3061.184549,-10214.842000,-2738.761985,153.219100
3061.184886,-11029.068536,-2220.617826,306.438199
3061.185224,-9696.697840,-1036.288319,766.095498
3061.185561,-9030.512492,-962.267725,1685.410096
3061.185899,-9918.759623,-814.226536,1685.410096
3061.186236,-10955.047942,518.144159,919.314598
3061.186573,-12139.377449,1776.494261,-153.219100
3061.186911,-12139.377449,962.267725,-766.095498
3061.187248,-10658.965565,370.102971,-766.095498
3061.187586,-9696.697840,518.144159,-1838.629195
3061.187923,-9104.533087,0.000000,-842.705048
3061.188261,-8882.471304,962.267725,-995.924147
3061.188598,-9548.656652,-1110.308913,-919.314598
3061.188936,-10362.883188,0.000000,-612.876398
3061.189273,-9844.739029,296.082377,0.000000
3061.189611,-9696.697840,-962.267725,459.657299
3061.189948,-9696.697840,-1406.391290,1685.410096
3061.190285,-8734.430116,-518.144159,1455.581446
3061.190623,-8734.430116,1258.350101,2298.286494
3061.190960,-9770.718434,962.267725,766.095498
3061.191298,-9622.677246,296.082377,-1302.362347
3061.191635,-10807.006753,-1628.453072,0.000000
3061.191973,-10288.862594,0.000000,2298.286494
3061.192310,-7920.203579,444.123565,2298.286494
3061.192648,-8956.491898,1332.370696,2374.896044
3061.192985,-9178.553681,1036.288319,1685.410096
3061.193323,-10807.006753,592.164754,1838.629195
3061.193660,-12213.398043,1258.350101,1838.629195
3061.193997,-11473.192101,-814.226536,1302.362347
3061.194335,-10881.027347,-222.061783,1072.533697
3061.194672,-10658.965565,-962.267725,1455.581446
3061.195010,-8660.409521,-962.267725,0.000000
3061.195347,-8290.306550,-814.226536,-459.657299
3061.195685,-10066.800811,-1036.288319,-536.266849
3061.196022,-10955.047942,-1036.288319,-1608.800546
3061.196360,-11843.295072,-962.267725,-2145.067394
3061.196697,-11103.089130,-666.185348,-2068.457845
3061.197035,-10066.800811,-962.267725,-1149.143247
3061.197372,-9252.574275,-1480.411884,-153.219100
3061.197709,-9548.656652,-1776.494261,76.609550
3061.198047,-10288.862594,-2590.720797,766.095498
3061.198384,-9696.697840,-2294.638420,1685.410096
3061.198722,-9770.718434,-1332.370696,2528.115143
3061.199059,-11029.068536,-1850.514855,3217.601092
3061.199397,-10140.821405,-962.267725,1608.800546
3061.199734,-9770.718434,-962.267725,1378.971896
3061.200072,-10362.883188,1406.391290,1072.533697
3061.200409,-9178.553681,2220.617826,-612.876398
3061.200747,-9474.636058,2220.617826,-2604.724693
3061.201084,-10436.903782,1554.432478,-2451.505594
3061.201421,-9696.697840,592.164754,-2068.457845
3061.201759,-8068.244768,1850.514855,-1762.019645
3061.202096,-7698.141797,1850.514855,-1991.848295
3061.202434,-8808.450710,888.247130,-383.047749
3061.202771,-11917.315666,-1184.329507,612.876398
3061.203109,-10584.944971,0.000000,459.657299
3061.203446,-10140.821405,666.185348,1455.581446
3061.203784,-10732.986159,1480.411884,1378.971896
3061.204121,-10955.047942,74.020594,-612.876398
3061.204459,-11621.233289,-296.082377,-306.438199
3061.204796,-9178.553681,-222.061783,-919.314598
3061.205133,-8882.471304,-74.020594,-766.095498
3061.205471,-9252.574275,-1184.329507,-612.876398
3061.205808,-9400.615463,-1776.494261,-153.219100
3061.206146,-8734.430116,-962.267725,229.828649
3061.206483,-9104.533087,74.020594,1838.629195
3061.206821,-10288.862594,666.185348,1991.848295
3061.207158,-11325.150913,0.000000,1685.410096
3061.207496,-11547.212695,-814.226536,1455.581446
3061.207833,-11029.068536,-740.205942,2298.286494
3061.208171,-10807.006753,-370.102971,2604.724693
3061.208508,-8660.409521,-962.267725,1915.238745
3061.208845,-10140.821405,-1332.370696,1149.143247
3061.209183,-9844.739029,-1554.432478,153.219100
3061.209520,-9992.780217,-1184.329507,-306.438199
3061.209858,-9178.553681,0.000000,-842.705048
3061.210195,-9548.656652,0.000000,-1225.752797
3061.210533,-10732.986159,-148.041188,-2221.676944
3061.210870,-10732.986159,-592.164754,-1378.971896
3061.211208,-10288.862594,-814.226536,153.219100
3061.211545,-10732.986159,-740.205942,1838.629195
3061.211883,-9770.718434,-740.205942,919.314598
3061.212220,-10066.800811,-2072.576638,2374.896044
3061.212557,-10955.047942,-1628.453072,4136.915689
3061.212895,-9770.718434,-296.082377,3370.820191
3061.213232,-9696.697840,2072.576638,2451.505594
3061.213570,-10807.006753,1554.432478,0.000000
3061.213907,-11251.130318,0.000000,-612.876398
3061.214245,-9622.677246,1110.308913,-689.485948
3061.214582,-7772.162391,1850.514855,459.657299
3061.214920,-7254.018232,2294.638420,-1072.533697
3061.215257,-10066.800811,666.185348,-2451.505594
3061.215595,-11177.109724,-518.144159,-1915.238745
3061.215932,-8956.491898,-740.205942,-1225.752797
3061.216269,-7254.018232,0.000000,689.485948
3061.216607,-8586.388927,222.061783,766.095498
3061.216944,-10658.965565,-444.123565,-536.266849
3061.217282,-11991.336260,-740.205942,-1455.581446
3061.217619,-11103.089130,0.000000,-1149.143247
3061.217957,-9326.594869,74.020594,-1608.800546
3061.218294,-10140.821405,-666.185348,-1991.848295
3061.218632,-10732.986159,-1702.473667,-153.219100
3061.218969,-9622.677246,-1480.411884,-229.828649
3061.219307,-9548.656652,148.041188,0.000000
3061.219644,-10140.821405,518.144159,-306.438199
3061.219981,-12065.356855,-740.205942,-153.219100
3061.220319,-13767.830521,-1776.494261,766.095498
3061.220656,-12583.501014,-518.144159,1762.019645
3061.220994,-9474.636058,444.123565,2451.505594
3061.221331,-8512.368333,-296.082377,2221.676944
3061.221669,-9696.697840,-1184.329507,2068.457845
3061.222006,-10658.965565,-370.102971,1378.971896
3061.222344,-10066.800811,222.061783,1455.581446
3061.222681,-9326.594869,444.123565,689.485948
3061.223019,-9474.636058,0.000000,-459.657299
3061.223356,-9622.677246,-1480.411884,-459.657299
3061.223693,-8438.347739,-1850.514855,306.438199
3061.224031,-7254.018232,-444.123565,1225.752797
3061.224368,-8142.265362,222.061783,1532.190996
3061.224706,-11029.068536,-962.267725,1302.362347
3061.225043,-11621.233289,-1406.391290,689.485948
3061.225381,-10658.965565,-1776.494261,2221.676944
3061.225718,-9770.718434,148.041188,3370.820191
3061.226056,-7772.162391,1406.391290,766.095498
3061.226393,-9178.553681,1554.432478,0.000000
3061.226731,-11769.274478,0.000000,-383.047749
3061.227068,-11621.233289,0.000000,-689.485948
3061.227405,-11177.109724,740.205942,1378.971896
3061.227743,-10732.986159,1628.453072,842.705048
3061.228080,-10436.903782,370.102971,0.000000
3061.228418,-9622.677246,-74.020594,0.000000
3061.228755,-8734.430116,74.020594,1378.971896
3061.229093,-8734.430116,0.000000,2681.334243
3061.229430,-11103.089130,518.144159,1378.971896
3061.229768,-12731.542202,74.020594,-1225.752797
3061.230105,-12361.439231,-1332.370696,-1149.143247
3061.230443,-9252.574275,-148.041188,-1302.362347
3061.230780,-6069.688724,666.185348,-2298.286494
