#time,accel_x,accel_y,accel_z
3281.583462,-9474.636058,-444.123565,689.485948
3281.583800,-9400.615463,-740.205942,536.266849
3281.584138,-9104.533087,-1480.411884,0.000000
3281.584475,-8660.409521,-2220.617826,766.095498
3281.584813,-8956.491898,-2294.638420,1991.848295
3281.585151,-9770.718434,-3034.844362,2451.505594
3281.585488,-10066.800811,-2146.597232,2145.067394
3281.585826,-10214.842000,-2294.638420,1302.362347
3281.586164,-10436.903782,-1480.411884,1455.581446
3281.586502,-10066.800811,-1036.288319,919.314598
3281.586839,-10288.862594,-888.247130,995.924147
3281.587177,-10732.986159,-666.185348,1149.143247
3281.587515,-10510.924376,-1258.350101,612.876398
3281.587852,-10732.986159,-888.247130,1532.190996
3281.588190,-10807.006753,-1184.329507,1991.848295
3281.588528,-10436.903782,-1184.329507,2757.943793
3281.588866,-10881.027347,-666.185348,2681.334243
3281.589203,-11029.068536,-518.144159,2757.943793
3281.589541,-10584.944971,296.082377,2068.457845
3281.589879,-10214.842000,74.020594,1455.581446
3281.590217,-10214.842000,-740.205942,1838.629195
3281.590554,-10362.883188,-1924.535449,1915.238745
3281.590892,-9548.656652,-2220.617826,2145.067394
3281.591230,-9252.574275,-2516.700203,2834.553343
3281.591567,-9178.553681,-3034.844362,3753.867940
3281.591905,-9474.636058,-3552.988522,4213.525239
3281.592243,-9992.780217,-3478.967927,4596.572988
3281.592581,-9992.780217,-3108.864956,3830.477490
3281.592918,-9918.759623,-2516.700203,3140.991542
3281.593256,-9992.780217,-2664.741391,2911.162892
3281.593594,-8734.430116,-2960.823768,2298.286494
3281.593931,-8956.491898,-3182.885551,3677.258390
3281.594269,-9622.677246,-3256.906145,5209.449386
3281.594607,-9400.615463,-4071.132681,4673.182538
3281.594945,-10362.883188,-3034.844362,5132.839837
3281.595282,-11177.109724,-3404.947333,5132.839837
3281.595620,-10881.027347,-2664.741391,3907.087040
3281.595958,-10584.944971,-2664.741391,2757.943793
3281.596296,-9696.697840,-2368.659014,1915.238745
3281.596633,-9548.656652,-2368.659014,1532.190996
3281.596971,-10807.006753,-4367.215058,2068.457845
3281.597309,-10584.944971,-4811.338623,2068.457845
3281.597646,-9992.780217,-4959.379811,1532.190996
3281.597984,-9918.759623,-4293.194464,919.314598
3281.598322,-10214.842000,-4811.338623,0.000000
3281.598660,-9548.656652,-6143.709319,306.438199
3281.598997,-8956.491898,-6217.729913,1685.410096
3281.599335,-9178.553681,-5995.668130,2451.505594
3281.599673,-10584.944971,-3923.091493,2374.896044
3281.600010,-11547.212695,-4219.173869,1302.362347
3281.600348,-11177.109724,-4737.318029,1685.410096
3281.600686,-9992.780217,-5329.482782,2757.943793
3281.601024,-10584.944971,-3849.070898,3983.696590
3281.601361,-9770.718434,-2442.679609,3064.381992
3281.601699,-9474.636058,-2516.700203,1225.752797
3281.602037,-10658.965565,-3404.947333,2068.457845
3281.602375,-10436.903782,-2960.823768,2834.553343
3281.602712,-8438.347739,-1480.411884,3370.820191
3281.603050,-7920.203579,74.020594,3294.210641
3281.603388,-10881.027347,0.000000,2528.115143
3281.603725,-11917.315666,-296.082377,1532.190996
3281.604063,-10066.800811,370.102971,0.000000
3281.604401,-8586.388927,2072.576638,766.095498
3281.604739,-10362.883188,740.205942,1838.629195
3281.605076,-11843.295072,0.000000,842.705048
3281.605414,-8438.347739,-1184.329507,-612.876398
3281.605752,-6883.915261,-1628.453072,2757.943793
3281.606089,-9474.636058,-1332.370696,5898.935335
3281.606427,-11695.253884,-1036.288319,2681.334243
3281.606765,-11029.068536,1110.308913,-536.266849
3281.607103,-10140.821405,1036.288319,459.657299
3281.607440,-11177.109724,444.123565,1685.410096
3281.607778,-10584.944971,0.000000,1685.410096
3281.608116,-8882.471304,370.102971,2374.896044
3281.608454,-9326.594869,-444.123565,2451.505594
3281.608791,-11547.212695,-666.185348,1762.019645
3281.609129,-11177.109724,0.000000,1455.581446
3281.609467,-9252.574275,74.020594,1685.410096
3281.609804,-8882.471304,0.000000,1685.410096
3281.610142,-9770.718434,-666.185348,2221.676944
3281.610480,-10955.047942,-74.020594,3294.210641
3281.610818,-10658.965565,-74.020594,2681.334243
3281.611155,-11103.089130,740.205942,1302.362347
3281.611493,-11547.212695,1110.308913,0.000000
3281.611831,-11177.109724,-592.164754,-842.705048
3281.612169,-9770.718434,-2220.617826,-306.438199
3281.612506,-8290.306550,-1924.535449,459.657299
3281.612844,-8808.450710,-1776.494261,-76.609550
3281.613182,-9844.739029,-1924.535449,-1072.533697
3281.613519,-10584.944971,-1184.329507,-995.924147
3281.613857,-10658.965565,-1554.432478,-919.314598
3281.614195,-9474.636058,-1924.535449,459.657299
3281.614533,-8808.450710,-740.205942,3064.381992
3281.614870,-10881.027347,740.205942,4136.915689
3281.615208,-12509.480420,148.041188,1455.581446
3281.615546,-12287.418637,1110.308913,-612.876398
3281.615883,-10732.986159,148.041188,153.219100
3281.616221,-9326.594869,-1036.288319,2681.334243
3281.616559,-9030.512492,-1406.391290,2987.772442
3281.616897,-8068.244768,444.123565,919.314598
3281.617234,-7920.203579,1036.288319,-995.924147
3281.617572,-10288.862594,592.164754,-1302.362347
3281.617910,-11029.068536,-444.123565,-1838.629195
3281.618248,-9622.677246,-222.061783,-766.095498
3281.618585,-9252.574275,518.144159,459.657299
3281.618923,-9400.615463,814.226536,383.047749
3281.619261,-10881.027347,0.000000,-1685.410096
3281.619598,-10732.986159,-2072.576638,-2681.334243
3281.619936,-9326.594869,-3478.967927,-1915.238745
3281.620274,-9104.533087,-4737.318029,459.657299
3281.620612,-9400.615463,-4515.256246,1072.533697
3281.620949,-9252.574275,-3330.926739,0.000000
3281.621287,-9474.636058,-3108.864956,-1225.752797
3281.621625,-9696.697840,-3034.844362,-1685.410096
3281.621963,-10214.842000,-2886.803174,229.828649
3281.622300,-10807.006753,-1776.494261,1915.238745
3281.622638,-10955.047942,-296.082377,2604.724693
3281.622976,-13175.665768,148.041188,2298.286494
3281.623313,-12139.377449,-1702.473667,76.609550
3281.623651,-9770.718434,-2516.700203,766.095498
3281.623989,-8734.430116,-3330.926739,2604.724693
3281.624327,-9104.533087,-2368.659014,2604.724693
3281.624664,-9844.739029,-814.226536,1072.533697
3281.625002,-9770.718434,-518.144159,-153.219100
3281.625340,-9474.636058,-222.061783,-995.924147
3281.625677,-11103.089130,-740.205942,0.000000
3281.626015,-10510.924376,296.082377,995.924147
3281.626353,-8956.491898,1406.391290,1225.752797
3281.626691,-10955.047942,2516.700203,919.314598
3281.627028,-11325.150913,1110.308913,-1762.019645
3281.627366,-9844.739029,0.000000,-1915.238745
3281.627704,-9474.636058,-1702.473667,1225.752797
3281.628042,-8660.409521,-1850.514855,2298.286494
3281.628379,-8438.347739,0.000000,1762.019645
3281.628717,-9178.553681,592.164754,306.438199
3281.629055,-9474.636058,1332.370696,-229.828649
3281.629392,-11325.150913,518.144159,612.876398
3281.629730,-11399.171507,2146.597232,1838.629195
3281.630068,-10584.944971,2516.700203,2374.896044
3281.630406,-10658.965565,4071.132681,1991.848295
3281.630743,-11029.068536,3701.029710,459.657299
3281.631081,-9844.739029,1406.391290,-229.828649
3281.631419,-9548.656652,0.000000,1149.143247
3281.631757,-9030.512492,-1332.370696,1455.581446
3281.632094,-9770.718434,-592.164754,1455.581446
3281.632432,-9400.615463,1554.432478,-995.924147
3281.632770,-9992.780217,1036.288319,-2374.896044
3281.633107,-10658.965565,-444.123565,-3064.381992
3281.633445,-10288.862594,-444.123565,-2911.162892
3281.633783,-9844.739029,-592.164754,-612.876398
3281.634121,-9474.636058,592.164754,-1149.143247
3281.634458,-10955.047942,-370.102971,-1915.238745
3281.634796,-10807.006753,-1628.453072,-1915.238745
3281.635134,-9474.636058,-2812.782580,-1915.238745
3281.635471,-10214.842000,-4071.132681,1455.581446
3281.635809,-9992.780217,-2960.823768,1455.581446
3281.636147,-9622.677246,-2072.576638,459.657299
3281.636485,-10510.924376,-1258.350101,229.828649
3281.636822,-10436.903782,-1184.329507,0.000000
3281.637160,-11029.068536,-888.247130,0.000000
3281.637498,-10955.047942,-592.164754,2145.067394
3281.637836,-9992.780217,1406.391290,2681.334243
3281.638173,-10584.944971,1924.535449,1762.019645
3281.638511,-10881.027347,1554.432478,0.000000
3281.638849,-9844.739029,444.123565,-1378.971896
3281.639186,-9770.718434,-1480.411884,536.266849
3281.639524,-9030.512492,-962.267725,2374.896044
3281.639862,-9104.533087,-444.123565,1149.143247
3281.640200,-9252.574275,888.247130,-383.047749
3281.640537,-8660.409521,-296.082377,-2145.067394
3281.640875,-10584.944971,-740.205942,-995.924147
3281.641213,-10955.047942,-962.267725,842.705048
3281.641551,-9178.553681,222.061783,1302.362347
3281.641888,-9474.636058,888.247130,1532.190996
3281.642226,-10510.924376,222.061783,76.609550
3281.642564,-9474.636058,-1406.391290,0.000000
3281.642901,-9178.553681,-2738.761985,459.657299
3281.643239,-8808.450710,-4145.153275,2834.553343
3281.643577,-10140.821405,-2368.659014,2987.772442
3281.643915,-10214.842000,-740.205942,995.924147
3281.644252,-10066.800811,518.144159,-612.876398
3281.644590,-11177.109724,-370.102971,-612.876398
3281.644928,-10658.965565,-1110.308913,229.828649
3281.645266,-9252.574275,-444.123565,1149.143247
3281.645603,-10436.903782,518.144159,2374.896044
3281.645941,-10955.047942,444.123565,0.000000
3281.646279,-11103.089130,-1406.391290,-1685.410096
3281.646616,-10066.800811,-2664.741391,-1225.752797
3281.646954,-9030.512492,-4071.132681,536.266849
3281.647292,-9622.677246,-2664.741391,1838.629195
3281.647630,-10140.821405,-1850.514855,-76.609550
3281.647967,-9622.677246,-814.226536,-1838.629195
3281.648305,-10955.047942,-1332.370696,-2987.772442
3281.648643,-11473.192101,-2812.782580,-1378.971896
3281.648980,-10436.903782,-1554.432478,459.657299
3281.649318,-9844.739029,-962.267725,1915.238745
3281.649656,-9992.780217,592.164754,842.705048
3281.649994,-10214.842000,-148.041188,-995.924147
3281.650331,-10288.862594,-1036.288319,-1149.143247
3281.650669,-9844.739029,-2220.617826,1149.143247
3281.651007,-9474.636058,-1258.350101,3064.381992
3281.651345,-9844.739029,1628.453072,2451.505594
3281.651682,-9918.759623,2812.782580,919.314598
3281.652020,-9844.739029,2368.659014,-383.047749
3281.652358,-10436.903782,1924.535449,-536.266849
3281.652695,-11251.130318,2220.617826,2068.457845
3281.653033,-9992.780217,3256.906145,1608.800546
3281.653371,-9474.636058,4219.173869,0.000000
3281.653709,-9918.759623,3182.885551,-919.314598
3281.654046,-8734.430116,1036.288319,-1915.238745
3281.654384,-8216.285956,370.102971,0.000000
3281.654722,-9178.553681,-740.205942,1149.143247
3281.655060,-9104.533087,740.205942,76.609550
3281.655397,-10362.883188,814.226536,-1915.238745
3281.655735,-11029.068536,814.226536,-2145.067394
3281.656073,-10362.883188,-296.082377,-2221.676944
3281.656410,-10584.944971,-1776.494261,229.828649
3281.656748,-9474.636058,-888.247130,1225.752797
3281.657086,-9622.677246,0.000000,1685.410096
3281.657424,-10955.047942,-370.102971,1532.190996
3281.657761,-10955.047942,-1332.370696,-229.828649
3281.658099,-10732.986159,-2886.803174,-306.438199
3281.658437,-9992.780217,-2368.659014,2757.943793
3281.658774,-9696.697840,-2146.597232,2528.115143
3281.659112,-10584.944971,222.061783,1762.019645
3281.659450,-10584.944971,222.061783,-153.219100
3281.659788,-10436.903782,592.164754,-1532.190996
3281.660125,-12139.377449,-814.226536,-689.485948
3281.660463,-10807.006753,-814.226536,1532.190996
3281.660801,-9104.533087,296.082377,1302.362347
3281.661139,-9844.739029,888.247130,689.485948
3281.661476,-9770.718434,0.000000,-919.314598
3281.661814,-9474.636058,-2146.597232,-2451.505594
3281.662152,-9252.574275,-2738.761985,-229.828649
3281.662489,-8882.471304,-1998.556043,1225.752797
3281.662827,-9696.697840,-1110.308913,1608.800546
3281.663165,-9622.677246,148.041188,-153.219100
3281.663503,-10214.842000,222.061783,-1225.752797
3281.663840,-10584.944971,-370.102971,229.828649
3281.664178,-9770.718434,-1332.370696,1455.581446
3281.664516,-9474.636058,0.000000,2681.334243
3281.664854,-10066.800811,1776.494261,2528.115143
3281.665191,-10214.842000,962.267725,1455.581446
3281.665529,-9992.780217,296.082377,76.609550
3281.665867,-9400.615463,-1184.329507,536.266849
3281.666204,-8808.450710,-518.144159,2834.553343
3281.666542,-9992.780217,-74.020594,2528.115143
3281.666880,-10436.903782,1998.556043,0.000000
3281.667218,-11251.130318,2072.576638,-1838.629195
3281.667555,-11547.212695,444.123565,-1762.019645
3281.667893,-10510.924376,-1480.411884,-536.266849
3281.668231,-9474.636058,-1480.411884,766.095498
3281.668568,-8882.471304,-666.185348,459.657299
3281.668906,-8956.491898,-1480.411884,-459.657299
3281.669244,-9770.718434,-2812.782580,-1685.410096
3281.669582,-9770.718434,-4441.235652,-1685.410096
3281.669919,-9696.697840,-4885.359217,383.047749
3281.670257,-9844.739029,-3182.885551,1685.410096
3281.670595,-9696.697840,-2146.597232,0.000000
3281.670933,-9918.759623,-1480.411884,-459.657299
3281.671270,-10658.965565,-2220.617826,-689.485948
3281.671608,-11177.109724,-2590.720797,536.266849
3281.671946,-11251.130318,-2146.597232,2987.772442
3281.672283,-10436.903782,0.000000,2681.334243
3281.672621,-10807.006753,1036.288319,2068.457845
3281.672959,-10732.986159,962.267725,383.047749
3281.673297,-10362.883188,-888.247130,459.657299
3281.673634,-10362.883188,-1480.411884,1532.190996
3281.673972,-9474.636058,444.123565,3140.991542
3281.674310,-10214.842000,2368.659014,2145.067394
3281.674648,-10732.986159,2738.761985,-612.876398
3281.674985,-9696.697840,2516.700203,-1991.848295
3281.675323,-10658.965565,1480.411884,-689.485948
3281.675661,-10288.862594,2072.576638,612.876398
3281.675998,-8956.491898,1924.535449,459.657299
3281.676336,-9400.615463,3701.029710,0.000000
3281.676674,-8956.491898,2220.617826,-2298.286494
3281.677012,-9252.574275,148.041188,-2374.896044
3281.677349,-9030.512492,-1036.288319,-459.657299
3281.677687,-7772.162391,-592.164754,2528.115143
3281.678025,-8808.450710,1184.329507,2221.676944
3281.678362,-10584.944971,1998.556043,612.876398
3281.678700,-10732.986159,2368.659014,-1532.190996
3281.679038,-11029.068536,814.226536,-459.657299
3281.679376,-11325.150913,444.123565,2145.067394
3281.679713,-9474.636058,740.205942,1838.629195
3281.680051,-9474.636058,1628.453072,1685.410096
3281.680389,-9548.656652,1332.370696,1149.143247
3281.680727,-9252.574275,-444.123565,-1302.362347
3281.681064,-10214.842000,-666.185348,-842.705048
3281.681402,-10510.924376,-1480.411884,689.485948
3281.681740,-9992.780217,-962.267725,1302.362347
3281.682077,-10658.965565,-518.144159,0.000000
3281.682415,-10362.883188,962.267725,-1149.143247
3281.682753,-10732.986159,-962.267725,-1455.581446
3281.683091,-11029.068536,-1924.535449,-995.924147
3281.683428,-10362.883188,-1924.535449,0.000000
3281.683766,-10214.842000,-1480.411884,536.266849
3281.684104,-9844.739029,-962.267725,459.657299
3281.684442,-10140.821405,-1924.535449,-689.485948
3281.684779,-10140.821405,-3034.844362,-1378.971896
3281.685117,-9474.636058,-3182.885551,0.000000
3281.685455,-8882.471304,-3108.864956,2374.896044
3281.685792,-9770.718434,-1036.288319,3447.429741
3281.686130,-10658.965565,444.123565,2298.286494
3281.686468,-10955.047942,0.000000,229.828649
3281.686806,-10436.903782,222.061783,1378.971896
3281.687143,-10288.862594,296.082377,3294.210641
3281.687481,-9918.759623,1628.453072,3524.039291
3281.687819,-9844.739029,2368.659014,2374.896044
3281.688156,-9696.697840,1776.494261,536.266849
3281.688494,-9696.697840,592.164754,-1455.581446
3281.688832,-8808.450710,-148.041188,-153.219100
3281.689170,-7920.203579,0.000000,1378.971896
3281.689507,-9252.574275,370.102971,995.924147
3281.689845,-10214.842000,2220.617826,-1608.800546
3281.690183,-10658.965565,1776.494261,-2068.457845
3281.690521,-10807.006753,0.000000,-1685.410096
3281.690858,-10362.883188,-814.226536,-306.438199
3281.691196,-9844.739029,-518.144159,536.266849
3281.691534,-9844.739029,0.000000,383.047749
3281.691871,-9844.739029,-1554.432478,-76.609550
3281.692209,-10214.842000,-2738.761985,-689.485948
3281.692547,-9622.677246,-3849.070898,-995.924147
3281.692885,-9252.574275,-3849.070898,919.314598
3281.693222,-9918.759623,-3034.844362,2604.724693
3281.693560,-10288.862594,-444.123565,1455.581446
3281.693898,-10807.006753,-370.102971,383.047749
3281.694236,-10510.924376,-222.061783,-229.828649
3281.694573,-10807.006753,-1702.473667,842.705048
3281.694911,-11547.212695,-1184.329507,2145.067394
3281.695249,-9548.656652,74.020594,1225.752797
3281.695586,-9770.718434,962.267725,383.047749
3281.695924,-10288.862594,-370.102971,-1608.800546
3281.696262,-10214.842000,-1850.514855,-2451.505594
3281.696600,-9474.636058,-2368.659014,-612.876398
3281.696937,-9326.594869,-1406.391290,1072.533697
3281.697275,-10066.800811,444.123565,995.924147
3281.697613,-10807.006753,518.144159,-1532.190996
3281.697951,-10066.800811,666.185348,-1685.410096
3281.698288,-10362.883188,0.000000,-306.438199
3281.698626,-10658.965565,444.123565,2068.457845
3281.698964,-10288.862594,1628.453072,2068.457845
3281.699301,-10066.800811,1924.535449,689.485948
3281.699639,-10066.800811,1702.473667,0.000000
3281.699977,-9918.759623,962.267725,-306.438199
3281.700315,-9548.656652,0.000000,1072.533697
3281.700652,-7920.203579,148.041188,2681.334243
3281.700990,-8956.491898,2072.576638,2604.724693
3281.701328,-9696.697840,3256.906145,919.314598
3281.701665,-9918.759623,4367.215058,-612.876398
3281.702003,-10881.027347,3478.967927,-383.047749
3281.702341,-11621.233289,2368.659014,842.705048
3281.702679,-9844.739029,2368.659014,153.219100
3281.703016,-9474.636058,2738.761985,0.000000
3281.703354,-9252.574275,1554.432478,-689.485948
3281.703691,-9326.594869,-74.020594,-2451.505594
3281.704028,-9474.636058,-1554.432478,-2911.162892
3281.704366,-9178.553681,-1850.514855,-1072.533697
3281.704703,-9326.594869,-1554.432478,-306.438199
3281.705041,-10436.903782,-1184.329507,153.219100
3281.705378,-9918.759623,0.000000,-1608.800546
3281.705716,-10881.027347,-1110.308913,-1149.143247
3281.706053,-12065.356855,-1702.473667,1072.533697
3281.706391,-11251.130318,-1628.453072,1225.752797
3281.706728,-10658.965565,-666.185348,1915.238745
3281.707065,-10658.965565,-1036.288319,1838.629195
3281.707403,-10214.842000,-1924.535449,612.876398
3281.707740,-10362.883188,-3108.864956,229.828649
3281.708078,-10066.800811,-3552.988522,1302.362347
3281.708415,-9030.512492,-2146.597232,3140.991542
3281.708753,-10140.821405,-814.226536,3294.210641
3281.709090,-11917.315666,1776.494261,1455.581446
3281.709428,-9844.739029,518.144159,-229.828649
3281.709765,-9770.718434,666.185348,-536.266849
3281.710102,-10955.047942,-148.041188,1762.019645
3281.710440,-9918.759623,74.020594,2145.067394
3281.710777,-8956.491898,1406.391290,306.438199
3281.711115,-9770.718434,222.061783,-536.266849
3281.711452,-10140.821405,-888.247130,-2451.505594
3281.711790,-9252.574275,-2368.659014,-2528.115143
3281.712127,-8068.244768,-2368.659014,919.314598
3281.712465,-8216.285956,-888.247130,1532.190996
3281.712802,-10140.821405,296.082377,612.876398
3281.713139,-9918.759623,1702.473667,-1608.800546
3281.713477,-10140.821405,1036.288319,-2221.676944
3281.713814,-11399.171507,-222.061783,1455.581446
3281.714152,-9844.739029,-592.164754,2374.896044
3281.714489,-9104.533087,888.247130,2374.896044
3281.714827,-10510.924376,666.185348,2298.286494
3281.715164,-10214.842000,-370.102971,-459.657299
3281.715502,-10362.883188,-1628.453072,-1685.410096
3281.715839,-9400.615463,-1924.535449,-383.047749
3281.716176,-9178.553681,-814.226536,842.705048
3281.716514,-10214.842000,0.000000,-306.438199
3281.716851,-10510.924376,1702.473667,-1608.800546
3281.717189,-10214.842000,814.226536,-3064.381992
3281.717526,-10807.006753,-814.226536,-995.924147
3281.717864,-10955.047942,-1628.453072,383.047749
3281.718201,-9918.759623,-814.226536,306.438199
3281.718539,-9770.718434,-222.061783,-153.219100
3281.718876,-10066.800811,-1850.514855,-2374.896044
3281.719213,-10214.842000,-4219.173869,-2681.334243
3281.719551,-9474.636058,-4515.256246,-689.485948
3281.719888,-8364.327145,-2664.741391,1991.848295
3281.720226,-10362.883188,-1184.329507,1532.190996
3281.720563,-10436.903782,0.000000,0.000000
3281.720901,-10436.903782,222.061783,-689.485948
3281.721238,-10658.965565,-814.226536,842.705048
3281.721576,-10510.924376,148.041188,2528.115143
3281.721913,-10510.924376,888.247130,3677.258390
3281.722251,-11251.130318,2368.659014,3524.039291
3281.722588,-9326.594869,2072.576638,995.924147
3281.722925,-10140.821405,592.164754,0.000000
3281.723263,-9696.697840,-444.123565,612.876398
3281.723600,-8808.450710,222.061783,2681.334243
3281.723938,-10362.883188,2294.638420,2604.724693
3281.724275,-9918.759623,3256.906145,-1149.143247
3281.724613,-9696.697840,3552.988522,-1608.800546
3281.724950,-10584.944971,3034.844362,-1225.752797
3281.725288,-10362.883188,1776.494261,-306.438199
3281.725625,-9992.780217,2072.576638,76.609550
3281.725962,-9326.594869,1554.432478,-229.828649
3281.726300,-9252.574275,1332.370696,-153.219100
3281.726637,-9622.677246,-1332.370696,-1302.362347
3281.726975,-9548.656652,-2072.576638,-1302.362347
3281.727312,-8882.471304,-2368.659014,0.000000
3281.727650,-9844.739029,-1924.535449,536.266849
3281.727987,-10214.842000,-222.061783,842.705048
3281.728325,-10140.821405,296.082377,-689.485948
3281.728662,-10436.903782,666.185348,-459.657299
3281.728999,-11843.295072,-518.144159,306.438199
3281.729337,-11177.109724,-888.247130,1991.848295
3281.729674,-10288.862594,148.041188,1455.581446
3281.730012,-9992.780217,296.082377,1072.533697
3281.730349,-9622.677246,-518.144159,-536.266849
3281.730687,-10362.883188,-2590.720797,-2145.067394
3281.731024,-9992.780217,-2812.782580,-995.924147
3281.731362,-9474.636058,-2220.617826,383.047749
3281.731699,-10584.944971,-222.061783,919.314598
3281.732036,-10658.965565,-222.061783,-1838.629195
3281.732374,-9474.636058,148.041188,-2911.162892
3281.732711,-10732.986159,-888.247130,-689.485948
3281.733049,-11029.068536,-1776.494261,229.828649
3281.733386,-9770.718434,-1406.391290,306.438199
3281.733724,-9992.780217,0.000000,383.047749
3281.734061,-9548.656652,-592.164754,-153.219100
3281.734399,-9770.718434,-1998.556043,-1072.533697
3281.734736,-9992.780217,-3256.906145,536.266849
3281.735073,-8956.491898,-2220.617826,2374.896044
3281.735411,-9400.615463,-1258.350101,3370.820191
3281.735748,-10658.965565,2146.597232,2374.896044
3281.736086,-10732.986159,2886.803174,-229.828649
3281.736423,-11325.150913,1258.350101,0.000000
3281.736761,-11251.130318,1554.432478,1532.190996
3281.737098,-9400.615463,1258.350101,2298.286494
3281.737436,-9326.594869,2442.679609,2681.334243
3281.737773,-9104.533087,962.267725,1302.362347
3281.738110,-9474.636058,296.082377,-1455.581446
3281.738448,-10066.800811,-1184.329507,-1608.800546
3281.738785,-9030.512492,-2072.576638,153.219100
3281.739123,-8956.491898,-962.267725,1378.971896
3281.739460,-10362.883188,74.020594,459.657299
3281.739798,-9252.574275,962.267725,-2298.286494
3281.740135,-9992.780217,-370.102971,-3677.258390
3281.740473,-10658.965565,-1406.391290,-383.047749
3281.740810,-11325.150913,-2516.700203,1072.533697
3281.741147,-9770.718434,-814.226536,2374.896044
3281.741485,-9696.697840,-1184.329507,0.000000
3281.741822,-10214.842000,-1850.514855,-1302.362347
3281.742160,-10584.944971,-4219.173869,-1378.971896
3281.742497,-9400.615463,-4145.153275,612.876398
3281.742835,-10140.821405,-3552.988522,3677.258390
3281.743172,-9844.739029,-1480.411884,3140.991542
3281.743510,-10214.842000,740.205942,689.485948
3281.743847,-11325.150913,592.164754,-536.266849
3281.744184,-10584.944971,0.000000,0.000000
3281.744522,-10584.944971,0.000000,2451.505594
3281.744859,-10214.842000,370.102971,2987.772442
3281.745197,-9696.697840,2294.638420,2068.457845
3281.745534,-10140.821405,1332.370696,-536.266849
3281.745872,-10510.924376,0.000000,-2068.457845
3281.746209,-10066.800811,-1332.370696,-1762.019645
3281.746547,-8956.491898,-1998.556043,1608.800546
3281.746884,-8512.368333,-222.061783,1149.143247
3281.747222,-9474.636058,1480.411884,-383.047749
3281.747559,-10140.821405,1406.391290,-1915.238745
3281.747896,-10362.883188,444.123565,-2298.286494
3281.748234,-10955.047942,296.082377,76.609550
3281.748571,-9992.780217,814.226536,1762.019645
3281.748909,-8956.491898,1702.473667,1302.362347
3281.749246,-9252.574275,1036.288319,689.485948
3281.749584,-9992.780217,-592.164754,-536.266849
3281.749921,-9844.739029,-1480.411884,-153.219100
3281.750259,-9622.677246,-1406.391290,1608.800546
3281.750596,-9844.739029,-518.144159,2757.943793
3281.750933,-10214.842000,888.247130,1225.752797
3281.751271,-10584.944971,1998.556043,-1149.143247
3281.751608,-10140.821405,1406.391290,-1532.190996
3281.751946,-10732.986159,-740.205942,-306.438199
3281.752283,-9622.677246,0.000000,995.924147
3281.752621,-9548.656652,-444.123565,612.876398
3281.752958,-9548.656652,888.247130,-153.219100
3281.753296,-9622.677246,-1628.453072,-2681.334243
3281.753633,-10658.965565,-3034.844362,-2681.334243
3281.753970,-9844.739029,-3923.091493,-1838.629195
3281.754308,-9992.780217,-3034.844362,153.219100
3281.754645,-10510.924376,-1924.535449,459.657299
3281.754983,-10510.924376,-592.164754,-1302.362347
3281.755320,-10807.006753,-1184.329507,-1532.190996
3281.755658,-11547.212695,-1850.514855,0.000000
3281.755995,-10881.027347,-2220.617826,2604.724693
3281.756333,-10658.965565,-1406.391290,3294.210641
3281.756670,-10288.862594,370.102971,3600.648841
3281.757007,-10066.800811,666.185348,2068.457845
3281.757345,-10658.965565,-814.226536,612.876398
3281.757682,-10658.965565,-1850.514855,689.485948
3281.758020,-9474.636058,-962.267725,2451.505594
3281.758357,-9474.636058,666.185348,2987.772442
3281.758695,-9030.512492,1776.494261,536.266849
3281.759032,-9474.636058,2368.659014,-1149.143247
3281.759370,-9992.780217,1628.453072,-1149.143247
3281.759707,-9992.780217,814.226536,-766.095498
3281.760044,-9696.697840,1184.329507,1149.143247
3281.760382,-9474.636058,2146.597232,1302.362347
3281.760719,-8586.388927,518.144159,-383.047749
3281.761057,-8808.450710,370.102971,-1608.800546
3281.761394,-9548.656652,-1776.494261,-1302.362347
3281.761732,-9400.615463,-2368.659014,153.219100
3281.762069,-9474.636058,-1850.514855,1762.019645
3281.762407,-10140.821405,222.061783,766.095498
3281.762744,-10881.027347,666.185348,-1532.190996
3281.763081,-10362.883188,-148.041188,-2987.772442
3281.763419,-10436.903782,-1850.514855,-842.705048
3281.763756,-11177.109724,-2220.617826,2451.505594
3281.764094,-9622.677246,74.020594,2911.162892
3281.764431,-10807.006753,148.041188,1915.238745
3281.764769,-11251.130318,0.000000,-153.219100
3281.765106,-11251.130318,-2368.659014,-995.924147
3281.765444,-10658.965565,-3552.988522,919.314598
3281.765781,-9548.656652,-2812.782580,2604.724693
3281.766118,-9918.759623,-1184.329507,1532.190996
3281.766456,-9400.615463,-296.082377,-1532.190996
3281.766793,-9622.677246,-74.020594,-2911.162892
3281.767131,-10658.965565,-1110.308913,-1685.410096
3281.767468,-11029.068536,-1924.535449,229.828649
3281.767806,-9548.656652,-888.247130,153.219100
3281.768143,-9474.636058,444.123565,0.000000
3281.768481,-9770.718434,0.000000,-995.924147
3281.768818,-9918.759623,-888.247130,-2681.334243
3281.769155,-9474.636058,-2072.576638,-1072.533697
3281.769493,-9918.759623,-2442.679609,2604.724693
3281.769830,-9548.656652,-814.226536,2528.115143
3281.770168,-9844.739029,1184.329507,766.095498
3281.770505,-9918.759623,888.247130,229.828649
3281.770843,-10066.800811,666.185348,229.828649
3281.771180,-11029.068536,1184.329507,2451.505594
3281.771518,-10807.006753,2294.638420,3907.087040
3281.771855,-9770.718434,3701.029710,2145.067394
3281.772193,-9992.780217,3775.050304,689.485948
3281.772530,-9770.718434,2664.741391,-919.314598
3281.772867,-9548.656652,222.061783,-995.924147
3281.773205,-9400.615463,-740.205942,1838.629195
3281.773542,-9474.636058,592.164754,2374.896044
3281.773880,-9770.718434,1480.411884,766.095498
3281.774217,-9844.739029,2072.576638,-2528.115143
3281.774555,-9178.553681,666.185348,-3524.039291
3281.774892,-10807.006753,-1036.288319,-2068.457845
3281.775230,-10066.800811,-1258.350101,0.000000
3281.775567,-8660.409521,-666.185348,383.047749
3281.775904,-9104.533087,-148.041188,-612.876398
3281.776242,-10510.924376,-1702.473667,-2068.457845
3281.776579,-10732.986159,-3627.009116,-2298.286494
3281.776917,-9400.615463,-4811.338623,229.828649
3281.777254,-9622.677246,-4219.173869,2911.162892
3281.777592,-10510.924376,-2664.741391,2068.457845
3281.777929,-9844.739029,-1406.391290,76.609550
3281.778267,-10214.842000,-1036.288319,-612.876398
3281.778604,-11547.212695,-1702.473667,459.657299
3281.778941,-11399.171507,-962.267725,1532.190996
3281.779279,-10807.006753,-74.020594,2374.896044
3281.779616,-10288.862594,1406.391290,1915.238745
3281.779954,-10510.924376,592.164754,459.657299
3281.780291,-10807.006753,-592.164754,-1149.143247
3281.780629,-10214.842000,-2368.659014,-842.705048
3281.780966,-9622.677246,-1850.514855,1685.410096
3281.781304,-9992.780217,-370.102971,1838.629195
3281.781641,-9474.636058,962.267725,-153.219100
3281.781978,-9770.718434,1480.411884,-1302.362347
3281.782316,-10584.944971,0.000000,-1072.533697
3281.782653,-10658.965565,-222.061783,-766.095498
3281.782991,-9992.780217,518.144159,689.485948
3281.783328,-9474.636058,1924.535449,2068.457845
3281.783666,-8956.491898,666.185348,229.828649
3281.784003,-9474.636058,74.020594,-612.876398
3281.784341,-9326.594869,-1480.411884,-612.876398
3281.784678,-8586.388927,-2146.597232,2145.067394
3281.785015,-9622.677246,-1258.350101,3677.258390
3281.785353,-9400.615463,74.020594,1532.190996
3281.785690,-8882.471304,2146.597232,-306.438199
3281.786028,-10140.821405,1258.350101,-612.876398
3281.786365,-11325.150913,814.226536,0.000000
3281.786703,-11177.109724,1406.391290,766.095498
3281.787040,-10214.842000,2072.576638,689.485948
3281.787378,-9918.759623,1628.453072,229.828649
3281.787715,-9844.739029,74.020594,-1838.629195
3281.788052,-10214.842000,-1628.453072,-1378.971896
3281.788390,-9548.656652,-2738.761985,-766.095498
3281.788727,-10140.821405,-2368.659014,1378.971896
3281.789065,-10881.027347,-962.267725,306.438199
3281.789402,-9474.636058,-592.164754,-2451.505594
3281.789740,-9770.718434,-888.247130,-3140.991542
3281.790077,-11103.089130,-2590.720797,-1302.362347
3281.790415,-11251.130318,-2072.576638,1072.533697
3281.790752,-9178.553681,-2072.576638,1685.410096
3281.791089,-9474.636058,-592.164754,2145.067394
3281.791427,-10658.965565,-888.247130,689.485948
3281.791764,-11103.089130,-1702.473667,-766.095498
3281.792102,-10807.006753,-3034.844362,1532.190996
3281.792439,-9622.677246,-2368.659014,2987.772442
3281.792777,-9622.677246,-592.164754,3370.820191
3281.793114,-9400.615463,1480.411884,1149.143247
3281.793452,-9696.697840,1850.514855,-536.266849
3281.793789,-10510.924376,888.247130,229.828649
3281.794126,-11177.109724,1110.308913,1378.971896
3281.794464,-9992.780217,2812.782580,1915.238745
3281.794801,-9844.739029,3627.009116,1378.971896
3281.795139,-10658.965565,3775.050304,153.219100
3281.795476,-9696.697840,1628.453072,-2528.115143
3281.795814,-9474.636058,370.102971,-1149.143247
3281.796151,-8734.430116,-888.247130,459.657299
3281.796489,-8438.347739,-962.267725,1302.362347
3281.796826,-9400.615463,444.123565,0.000000
3281.797164,-9474.636058,148.041188,-919.314598
3281.797501,-10140.821405,814.226536,-1762.019645
3281.797838,-11251.130318,0.000000,-1149.143247
3281.798176,-10955.047942,0.000000,612.876398
3281.798513,-9622.677246,888.247130,1838.629195
3281.798851,-9548.656652,666.185348,1072.533697
3281.799188,-9844.739029,0.000000,0.000000
3281.799526,-9992.780217,-2664.741391,-612.876398
3281.799863,-10066.800811,-2220.617826,1838.629195
3281.800201,-10732.986159,-2220.617826,2451.505594
3281.800538,-9844.739029,-1184.329507,1225.752797
3281.800875,-9474.636058,-518.144159,-842.705048
3281.801213,-10214.842000,-444.123565,-1225.752797
3281.801550,-10732.986159,-962.267725,-919.314598
3281.801888,-10955.047942,-1184.329507,153.219100
3281.802225,-10510.924376,-296.082377,1532.190996
3281.802563,-9474.636058,666.185348,153.219100
3281.802900,-11325.150913,-592.164754,-612.876398
3281.803238,-10584.944971,-1850.514855,-2374.896044
3281.803575,-9474.636058,-3330.926739,-1532.190996
3281.803912,-9770.718434,-3997.112087,1915.238745
3281.804250,-9992.780217,-2738.761985,1302.362347
3281.804587,-9326.594869,-888.247130,-153.219100
3281.804924,-10288.862594,-222.061783,-1149.143247
3281.805262,-10584.944971,-1184.329507,-919.314598
3281.805599,-10732.986159,-814.226536,689.485948
3281.805936,-9844.739029,-518.144159,2757.943793
3281.806273,-9400.615463,1850.514855,2451.505594
3281.806611,-9918.759623,1924.535449,1991.848295
3281.806948,-10584.944971,1702.473667,1149.143247
3281.807285,-10066.800811,-74.020594,995.924147
3281.807623,-9770.718434,-296.082377,3370.820191
3281.807960,-8808.450710,0.000000,3370.820191
3281.808297,-8956.491898,1628.453072,1225.752797
3281.808635,-9474.636058,2886.803174,-383.047749
3281.808972,-10881.027347,1480.411884,-1991.848295
3281.809309,-10362.883188,1406.391290,-1762.019645
3281.809646,-10436.903782,888.247130,-612.876398
3281.809984,-10066.800811,2368.659014,383.047749
3281.810321,-9252.574275,1628.453072,-842.705048
3281.810658,-9770.718434,-370.102971,-2068.457845
3281.810996,-9696.697840,-1924.535449,-1762.019645
3281.811333,-9252.574275,-3775.050304,229.828649
3281.811670,-9992.780217,-2294.638420,1991.848295
3281.812007,-10214.842000,-2146.597232,76.609550
3281.812345,-9548.656652,-888.247130,-1225.752797
3281.812682,-10140.821405,-1406.391290,-1072.533697
3281.813019,-11103.089130,-1036.288319,306.438199
3281.813357,-11399.171507,-1628.453072,1685.410096
3281.813694,-10658.965565,-222.061783,2451.505594
3281.814031,-10362.883188,1110.308913,2451.505594
3281.814369,-10584.944971,444.123565,-459.657299
3281.814706,-9918.759623,-740.205942,-536.266849
3281.815043,-10584.944971,-2220.617826,1149.143247
3281.815380,-9844.739029,-2072.576638,2528.115143
3281.815718,-10214.842000,0.000000,766.095498
3281.816055,-9548.656652,666.185348,-919.314598
3281.816392,-9844.739029,1332.370696,-1378.971896
3281.816730,-10658.965565,296.082377,-995.924147
3281.817067,-10584.944971,148.041188,0.000000
3281.817404,-9770.718434,814.226536,766.095498
3281.817742,-9918.759623,1776.494261,1225.752797
3281.818079,-9844.739029,1776.494261,-995.924147
3281.818416,-9696.697840,222.061783,-1838.629195
3281.818753,-9548.656652,-1110.308913,76.609550
3281.819091,-8882.471304,-1850.514855,1991.848295
3281.819428,-9474.636058,-888.247130,3524.039291
3281.819765,-9030.512492,518.144159,1072.533697
3281.820103,-8956.491898,1036.288319,-306.438199
3281.820440,-10955.047942,1776.494261,-76.609550
3281.820777,-10732.986159,888.247130,842.705048
3281.821114,-10140.821405,1258.350101,2681.334243
3281.821452,-9622.677246,2368.659014,3064.381992
3281.821789,-9992.780217,3404.947333,1532.190996
3281.822126,-10584.944971,1184.329507,-919.314598
3281.822464,-9400.615463,148.041188,-1455.581446
3281.822801,-9474.636058,-1924.535449,842.705048
3281.823138,-9770.718434,-1924.535449,2068.457845
3281.823476,-9474.636058,-148.041188,0.000000
3281.823813,-9844.739029,-148.041188,-1838.629195
3281.824150,-9474.636058,518.144159,-3294.210641
3281.824487,-10955.047942,-1924.535449,-2987.772442
3281.824825,-11325.150913,-2220.617826,-306.438199
3281.825162,-9844.739029,-1702.473667,612.876398
3281.825499,-9992.780217,-888.247130,689.485948
3281.825837,-10214.842000,-962.267725,-612.876398
3281.826174,-9992.780217,-2960.823768,-1455.581446
3281.826511,-9844.739029,-4737.318029,459.657299
3281.826848,-10288.862594,-4515.256246,2528.115143
3281.827186,-9918.759623,-2812.782580,3064.381992
3281.827523,-10214.842000,-740.205942,1455.581446
3281.827860,-9844.739029,222.061783,0.000000
3281.828198,-10807.006753,-814.226536,76.609550
3281.828535,-10584.944971,-296.082377,2145.067394
3281.828872,-9548.656652,1110.308913,3677.258390
3281.829210,-9844.739029,1998.556043,3217.601092
3281.829547,-11029.068536,2516.700203,1378.971896
3281.829884,-10436.903782,1406.391290,-1762.019645
3281.830221,-9696.697840,148.041188,-1149.143247
3281.830559,-8438.347739,-1258.350101,1532.190996
3281.830896,-8734.430116,-814.226536,2451.505594
3281.831233,-9030.512492,1258.350101,306.438199
3281.831571,-9326.594869,2220.617826,-2221.676944
3281.831908,-10362.883188,666.185348,-2757.943793
3281.832245,-10732.986159,370.102971,-2068.457845
3281.832582,-10881.027347,592.164754,689.485948
3281.832920,-10066.800811,2368.659014,1455.581446
3281.833257,-9326.594869,1776.494261,-306.438199
3281.833594,-9474.636058,444.123565,-689.485948
3281.833932,-9548.656652,-1776.494261,-383.047749
3281.834269,-9918.759623,-3108.864956,2068.457845
3281.834606,-10214.842000,-2072.576638,3600.648841
3281.834944,-10584.944971,-592.164754,1838.629195
3281.835281,-9326.594869,888.247130,0.000000
3281.835618,-9844.739029,148.041188,-919.314598
3281.835955,-10362.883188,-222.061783,-842.705048
3281.836293,-11177.109724,-740.205942,842.705048
3281.836630,-10807.006753,962.267725,2145.067394
3281.836967,-9844.739029,1406.391290,76.609550
3281.837305,-10288.862594,666.185348,-1838.629195
3281.837642,-9696.697840,-1406.391290,-2834.553343
3281.837979,-9400.615463,-4071.132681,-689.485948
3281.838316,-9548.656652,-2960.823768,1685.410096
3281.838654,-10214.842000,-2146.597232,1072.533697
3281.838991,-10140.821405,-518.144159,-995.924147
3281.839328,-10732.986159,-962.267725,-1838.629195
3281.839666,-11029.068536,-1924.535449,-995.924147
3281.840003,-10658.965565,-1258.350101,1455.581446
3281.840340,-10066.800811,0.000000,2911.162892
3281.840678,-9548.656652,1036.288319,1762.019645
3281.841015,-10362.883188,740.205942,153.219100
3281.841352,-10658.965565,666.185348,0.000000
3281.841689,-10584.944971,-888.247130,842.705048
3281.842027,-9696.697840,-1628.453072,3907.087040
3281.842364,-9622.677246,222.061783,4136.915689
3281.842701,-9400.615463,2220.617826,2987.772442
3281.843039,-9326.594869,2664.741391,76.609550
3281.843376,-10214.842000,2368.659014,-995.924147
3281.843713,-11695.253884,1480.411884,459.657299
3281.844050,-10584.944971,2590.720797,1149.143247
3281.844388,-9178.553681,3108.864956,306.438199
3281.844725,-8808.450710,3256.906145,-766.095498
3281.845062,-9178.553681,1702.473667,-2987.772442
3281.845400,-9400.615463,-888.247130,-2451.505594
3281.845737,-9178.553681,-1628.453072,-612.876398
3281.846074,-9030.512492,-1776.494261,842.705048
3281.846412,-9622.677246,-1184.329507,459.657299
3281.846749,-9474.636058,-370.102971,-1455.581446
3281.847086,-9918.759623,-740.205942,-2451.505594
3281.847423,-11769.274478,-1776.494261,0.000000
3281.847761,-11547.212695,-1776.494261,1149.143247
3281.848098,-10584.944971,-1036.288319,2068.457845
3281.848435,-10362.883188,74.020594,1302.362347
3281.848773,-10362.883188,-592.164754,-1149.143247
3281.849110,-10881.027347,-1702.473667,-1762.019645
3281.849447,-10214.842000,-3627.009116,0.000000
3281.849784,-9252.574275,-3108.864956,1762.019645
3281.850122,-10066.800811,-1258.350101,1608.800546
3281.850459,-10140.821405,518.144159,229.828649
3281.850796,-10288.862594,222.061783,-1838.629195
3281.851134,-11251.130318,-370.102971,-1072.533697
3281.851471,-11843.295072,-740.205942,1608.800546
3281.851808,-9918.759623,-296.082377,2221.676944
3281.852146,-9474.636058,592.164754,1915.238745
3281.852483,-9326.594869,1332.370696,-383.047749
3281.852820,-9918.759623,-740.205942,-1915.238745
3281.853157,-9474.636058,-1998.556043,-1532.190996
3281.853495,-8956.491898,-2664.741391,1455.581446
3281.853832,-8956.491898,-1924.535449,2451.505594
3281.854169,-9252.574275,0.000000,612.876398
3281.854507,-9548.656652,1332.370696,-919.314598
3281.854844,-10214.842000,962.267725,-842.705048
3281.855181,-10436.903782,-74.020594,1915.238745
3281.855518,-10436.903782,148.041188,3064.381992
3281.855856,-9918.759623,2072.576638,3907.087040
3281.856193,-10214.842000,2812.782580,2604.724693
3281.856530,-10362.883188,1406.391290,153.219100
3281.856868,-9844.739029,444.123565,0.000000
3281.857205,-9844.739029,-592.164754,1838.629195
3281.857542,-10214.842000,0.000000,1455.581446
3281.857880,-9548.656652,1258.350101,0.000000
3281.858217,-9252.574275,1332.370696,-1991.848295
3281.858554,-9622.677246,962.267725,-3447.429741
3281.858891,-9548.656652,-814.226536,-2451.505594
3281.859229,-10362.883188,-1628.453072,1149.143247
3281.859566,-10066.800811,-370.102971,1072.533697
3281.859903,-9548.656652,814.226536,-306.438199
3281.860241,-10066.800811,-814.226536,-2374.896044
3281.860578,-10140.821405,-3404.947333,-2987.772442
3281.860915,-10140.821405,-4885.359217,-306.438199
3281.861253,-9474.636058,-4071.132681,2068.457845
3281.861590,-9622.677246,-2516.700203,1455.581446
3281.861927,-9770.718434,-888.247130,-1072.533697
3281.862264,-10584.944971,-888.247130,-1838.629195
3281.862602,-10732.986159,-2146.597232,-995.924147
3281.862939,-11029.068536,-1702.473667,1762.019645
3281.863276,-11325.150913,0.000000,3983.696590
3281.863614,-10436.903782,1036.288319,2834.553343
3281.863951,-9992.780217,1110.308913,1378.971896
3281.864288,-11029.068536,370.102971,0.000000
3281.864625,-10807.006753,-518.144159,383.047749
3281.864963,-10214.842000,-740.205942,2221.676944
3281.865300,-9770.718434,296.082377,2528.115143
3281.865637,-8660.409521,2220.617826,-612.876398
3281.865975,-9178.553681,2220.617826,-2068.457845
3281.866312,-10066.800811,962.267725,-2374.896044
3281.866649,-9770.718434,296.082377,-1378.971896
3281.866987,-9770.718434,370.102971,689.485948
3281.867324,-9178.553681,1776.494261,536.266849
3281.867661,-8438.347739,1702.473667,-1225.752797
3281.867998,-8956.491898,296.082377,-1838.629195
3281.868336,-9548.656652,-1554.432478,-689.485948
3281.868673,-9548.656652,-1702.473667,1838.629195
3281.869010,-10066.800811,-962.267725,1991.848295
3281.869348,-10510.924376,148.041188,1225.752797
3281.869685,-10140.821405,888.247130,-1072.533697
3281.870022,-10140.821405,962.267725,-689.485948
3281.870359,-10510.924376,148.041188,842.705048
3281.870697,-10732.986159,-888.247130,1685.410096
3281.871034,-10658.965565,1332.370696,2757.943793
3281.871371,-10140.821405,1628.453072,919.314598
3281.871709,-10140.821405,888.247130,-919.314598
3281.872046,-10658.965565,-1258.350101,-1378.971896
3281.872383,-10732.986159,-1850.514855,0.000000
3281.872721,-9474.636058,-2368.659014,1991.848295
3281.873058,-9474.636058,-1258.350101,1225.752797
3281.873395,-10066.800811,-296.082377,-459.657299
3281.873732,-10066.800811,-518.144159,-2757.943793
3281.874070,-10807.006753,-1998.556043,-1991.848295
3281.874407,-11177.109724,-2368.659014,0.000000
3281.874744,-10288.862594,-2146.597232,1915.238745
3281.875082,-9252.574275,-962.267725,1532.190996
3281.875419,-8808.450710,-1258.350101,-459.657299
3281.875756,-9844.739029,-1702.473667,-306.438199
3281.876093,-11029.068536,-2590.720797,153.219100
3281.876431,-10066.800811,-3256.906145,2145.067394
3281.876768,-9844.739029,-1332.370696,3140.991542
3281.877105,-9770.718434,370.102971,1991.848295
3281.877443,-9548.656652,1258.350101,-153.219100
3281.877780,-10362.883188,296.082377,153.219100
3281.878117,-10362.883188,370.102971,1991.848295
3281.878455,-10584.944971,1110.308913,2528.115143
3281.878792,-10436.903782,1776.494261,2068.457845
3281.879129,-9844.739029,2960.823768,306.438199
3281.879466,-9844.739029,592.164754,-919.314598
3281.879804,-9474.636058,148.041188,-1302.362347
3281.880141,-9548.656652,-814.226536,536.266849
3281.880478,-9844.739029,0.000000,919.314598
3281.880816,-9696.697840,518.144159,-1225.752797
3281.881153,-10362.883188,1628.453072,-2451.505594
3281.881490,-9622.677246,0.000000,-3447.429741
3281.881827,-10362.883188,-1554.432478,-1915.238745
3281.882165,-10955.047942,-1998.556043,1225.752797
3281.882502,-9474.636058,-814.226536,1072.533697
3281.882839,-9104.533087,0.000000,306.438199
3281.883177,-9770.718434,-1554.432478,-1532.190996
3281.883514,-10362.883188,-2146.597232,-1225.752797
3281.883851,-10732.986159,-3775.050304,1072.533697
3281.884189,-9622.677246,-2590.720797,2298.286494
3281.884526,-9474.636058,-1184.329507,1991.848295
3281.884863,-10066.800811,222.061783,0.000000
3281.885200,-9474.636058,-148.041188,-1532.190996
3281.885538,-10362.883188,-888.247130,-536.266849
3281.885875,-11325.150913,-1036.288319,1991.848295
3281.886212,-10732.986159,0.000000,1762.019645
3281.886550,-10362.883188,962.267725,689.485948
3281.886887,-9696.697840,370.102971,-1149.143247
3281.887224,-10066.800811,-370.102971,-1302.362347
3281.887561,-10658.965565,-1332.370696,-689.485948
3281.887899,-9696.697840,-1406.391290,689.485948
3281.888236,-9918.759623,0.000000,536.266849
3281.888573,-10362.883188,666.185348,-995.924147
3281.888911,-10288.862594,666.185348,-1685.410096
3281.889248,-10140.821405,74.020594,-995.924147
3281.889585,-10362.883188,-962.267725,1762.019645
3281.889923,-10214.842000,74.020594,3140.991542
3281.890260,-9918.759623,1036.288319,1685.410096
3281.890597,-9696.697840,1702.473667,1455.581446
3281.890934,-9696.697840,148.041188,459.657299
3281.891272,-9474.636058,-666.185348,1378.971896
3281.891609,-9474.636058,-296.082377,2911.162892
3281.891946,-9326.594869,518.144159,3370.820191
3281.892284,-10066.800811,1258.350101,995.924147
3281.892621,-9548.656652,2294.638420,-1378.971896
3281.892958,-10214.842000,2516.700203,-1532.190996
3281.893295,-10807.006753,814.226536,-612.876398
3281.893633,-10066.800811,222.061783,842.705048
3281.893970,-9178.553681,518.144159,919.314598
3281.894307,-8956.491898,888.247130,-229.828649
3281.894645,-9252.574275,74.020594,-1302.362347
3281.894982,-11251.130318,-2072.576638,-2298.286494
3281.895319,-10288.862594,-1998.556043,-1378.971896
3281.895657,-9918.759623,-2516.700203,383.047749
3281.895994,-10140.821405,-2072.576638,1302.362347
3281.896331,-9844.739029,-740.205942,-1532.190996
3281.896668,-10288.862594,-814.226536,-1991.848295
3281.897006,-11103.089130,-1554.432478,-766.095498
3281.897343,-11547.212695,-2294.638420,1225.752797
3281.897680,-10955.047942,-1480.411884,2221.676944
3281.898018,-9770.718434,-814.226536,1762.019645
3281.898355,-9474.636058,-222.061783,76.609550
3281.898692,-10658.965565,-1332.370696,-536.266849
3281.899029,-10955.047942,-2146.597232,153.219100
3281.899367,-9622.677246,-1924.535449,2528.115143
3281.899704,-10140.821405,-518.144159,2221.676944
3281.900041,-9696.697840,740.205942,536.266849
3281.900379,-9770.718434,1184.329507,-1225.752797
3281.900716,-10066.800811,518.144159,-612.876398
3281.901053,-10362.883188,-444.123565,1149.143247
3281.901391,-10436.903782,74.020594,1915.238745
3281.901728,-9918.759623,1110.308913,995.924147
3281.902065,-9770.718434,370.102971,-459.657299
3281.902402,-9474.636058,370.102971,-2221.676944
3281.902740,-9104.533087,-1998.556043,-1685.410096
3281.903077,-8512.368333,-2368.659014,995.924147
3281.903414,-8734.430116,-1702.473667,1685.410096
3281.903752,-10214.842000,-148.041188,842.705048
3281.904089,-10436.903782,1480.411884,-995.924147
3281.904426,-9992.780217,444.123565,-1838.629195
3281.904763,-11029.068536,0.000000,995.924147
3281.905101,-10955.047942,-814.226536,2604.724693
3281.905438,-9844.739029,74.020594,3983.696590
3281.905776,-9844.739029,1332.370696,1838.629195
3281.906113,-10140.821405,0.000000,-459.657299
3281.906450,-10732.986159,-1258.350101,-1838.629195
3281.906788,-10436.903782,-2294.638420,0.000000
3281.907125,-8956.491898,-1036.288319,1302.362347
3281.907462,-10066.800811,-370.102971,766.095498
3281.907800,-10362.883188,1110.308913,-1532.190996
3281.908137,-9474.636058,296.082377,-3217.601092
3281.908475,-10140.821405,-296.082377,-1302.362347
3281.908812,-10584.944971,-1998.556043,1149.143247
3281.909149,-10362.883188,-1776.494261,1378.971896
3281.909487,-9400.615463,-592.164754,842.705048
3281.909824,-9474.636058,-814.226536,-689.485948
3281.910162,-10436.903782,-1924.535449,-2451.505594
3281.910499,-10436.903782,-3330.926739,-383.047749
3281.910836,-9548.656652,-3182.885551,2374.896044
3281.911174,-9918.759623,-1850.514855,3294.210641
3281.911511,-10362.883188,148.041188,842.705048
3281.911849,-10584.944971,1184.329507,-536.266849
3281.912186,-10510.924376,370.102971,383.047749
3281.912523,-10288.862594,296.082377,2834.553343
3281.912861,-11473.192101,888.247130,3907.087040
3281.913198,-10214.842000,2664.741391,3447.429741
3281.913535,-10436.903782,2590.720797,1072.533697
3281.913873,-10658.965565,1110.308913,153.219100
3281.914210,-9992.780217,74.020594,-536.266849
3281.914548,-9030.512492,-592.164754,1532.190996
3281.914885,-9178.553681,518.144159,2451.505594
3281.915222,-8734.430116,1702.473667,229.828649
3281.915560,-9844.739029,2886.803174,-3217.601092
3281.915897,-9104.533087,2220.617826,-4519.963438
3281.916235,-10436.903782,518.144159,-2757.943793
3281.916572,-10362.883188,-518.144159,-536.266849
3281.916909,-8586.388927,-296.082377,-229.828649
3281.917247,-8512.368333,518.144159,306.438199
3281.917584,-9474.636058,-1776.494261,-1455.581446
3281.917921,-9548.656652,-3256.906145,-1608.800546
3281.918259,-10066.800811,-4071.132681,306.438199
3281.918596,-10288.862594,-3478.967927,3064.381992
3281.918934,-10658.965565,-1480.411884,1685.410096
3281.919271,-10140.821405,148.041188,-612.876398
3281.919608,-10436.903782,74.020594,-1762.019645
3281.919946,-10214.842000,-740.205942,-612.876398
3281.920283,-11177.109724,-1332.370696,1532.190996
3281.920621,-10732.986159,-444.123565,2145.067394
3281.920958,-10288.862594,222.061783,1225.752797
3281.921295,-10140.821405,444.123565,0.000000
3281.921633,-10732.986159,-370.102971,-1685.410096
3281.921970,-10510.924376,-2516.700203,-1991.848295
3281.922308,-9548.656652,-2072.576638,1378.971896
3281.922645,-9770.718434,-666.185348,2374.896044
3281.922982,-10288.862594,1554.432478,-536.266849
3281.923320,-10066.800811,1258.350101,-2681.334243
3281.923657,-10362.883188,222.061783,-1991.848295
3281.923994,-10584.944971,-962.267725,919.314598
3281.924332,-10066.800811,0.000000,1838.629195
3281.924669,-9178.553681,592.164754,2528.115143
3281.925007,-9104.533087,1258.350101,229.828649
3281.925344,-9104.533087,-296.082377,-1225.752797
3281.925681,-10288.862594,-1406.391290,-229.828649
3281.926019,-9178.553681,-1480.411884,3217.601092
3281.926356,-9252.574275,-888.247130,4673.182538
3281.926694,-9770.718434,1406.391290,2604.724693
3281.927031,-9548.656652,3108.864956,0.000000
3281.927368,-9992.780217,3330.926739,-1225.752797
3281.927706,-11029.068536,1110.308913,229.828649
3281.928043,-10807.006753,888.247130,2221.676944
3281.928380,-10362.883188,2072.576638,1991.848295
3281.928718,-9548.656652,1850.514855,612.876398
3281.929055,-9252.574275,740.205942,-1608.800546
3281.929393,-9622.677246,-1702.473667,-2145.067394
3281.929730,-9474.636058,-2960.823768,-229.828649
3281.930067,-9622.677246,-2442.679609,1072.533697
3281.930405,-10214.842000,0.000000,919.314598
3281.930742,-9992.780217,296.082377,-2528.115143
3281.931080,-10510.924376,-148.041188,-4213.525239
3281.931417,-10807.006753,-1924.535449,-1915.238745
3281.931754,-11029.068536,-2664.741391,229.828649
3281.932092,-10140.821405,-2960.823768,2221.676944
3281.932429,-9326.594869,-1184.329507,1225.752797
3281.932766,-10214.842000,-2072.576638,-153.219100
3281.933104,-10288.862594,-2368.659014,-2145.067394
3281.933441,-10510.924376,-3849.070898,-766.095498
3281.933779,-9992.780217,-3478.967927,2451.505594
3281.934116,-10362.883188,-1554.432478,4136.915689
3281.934453,-9770.718434,814.226536,1378.971896
3281.934791,-9474.636058,1406.391290,-1302.362347
3281.935128,-10732.986159,518.144159,-306.438199
3281.935466,-10881.027347,-148.041188,2298.286494
3281.935803,-10584.944971,444.123565,3140.991542
3281.936140,-10658.965565,2072.576638,2528.115143
3281.936478,-9770.718434,1184.329507,536.266849
3281.936815,-9770.718434,666.185348,-1838.629195
3281.937153,-9252.574275,-962.267725,-1915.238745
3281.937490,-8660.409521,-1628.453072,459.657299
3281.937827,-8438.347739,-888.247130,1915.238745
3281.938165,-10140.821405,814.226536,1225.752797
3281.938502,-10066.800811,1776.494261,-2221.676944
3281.938839,-9844.739029,1480.411884,-3370.820191
3281.939177,-10881.027347,444.123565,0.000000
3281.939514,-11029.068536,-666.185348,2374.896044
3281.939852,-9326.594869,592.164754,2987.772442
3281.940189,-9252.574275,1406.391290,1762.019645
3281.940526,-9918.759623,592.164754,-306.438199
3281.940864,-11029.068536,-888.247130,-1532.190996
3281.941201,-10658.965565,-2072.576638,689.485948
3281.941539,-9400.615463,-1480.411884,2374.896044
3281.941876,-10066.800811,518.144159,2145.067394
3281.942213,-9918.759623,1332.370696,229.828649
3281.942551,-10066.800811,1924.535449,-1991.848295
3281.942888,-10214.842000,0.000000,-1685.410096
3281.943225,-10955.047942,-1036.288319,536.266849
3281.943563,-10732.986159,-1110.308913,2145.067394
3281.943900,-9326.594869,0.000000,1072.533697
3281.944238,-8882.471304,148.041188,-1762.019645
3281.944575,-9622.677246,-1702.473667,-3677.258390
3281.944912,-10140.821405,-3404.947333,-2681.334243
3281.945250,-9474.636058,-3849.070898,383.047749
3281.945587,-10140.821405,-2220.617826,1302.362347
3281.945925,-10362.883188,222.061783,0.000000
3281.946262,-10288.862594,296.082377,-2298.286494
3281.946599,-10732.986159,-888.247130,-1915.238745
3281.946937,-10436.903782,-1406.391290,1302.362347
3281.947274,-10362.883188,-814.226536,4213.525239
3281.947611,-10881.027347,1036.288319,5209.449386
3281.947949,-10658.965565,2368.659014,2681.334243
3281.948286,-10955.047942,1554.432478,229.828649
3281.948624,-10732.986159,222.061783,-1072.533697
3281.948961,-9844.739029,-814.226536,2221.676944
3281.949298,-9474.636058,296.082377,4443.353888
3281.949636,-8882.471304,2664.741391,1378.971896
3281.949973,-8734.430116,3552.988522,-842.705048
3281.950311,-9770.718434,2664.741391,-3064.381992
3281.950648,-9548.656652,814.226536,-2068.457845
3281.950985,-9770.718434,444.123565,0.000000
3281.951323,-9770.718434,1702.473667,2374.896044
3281.951660,-9474.636058,2220.617826,229.828649
3281.951998,-8882.471304,1036.288319,-2145.067394
3281.952335,-9696.697840,-962.267725,-2987.772442
3281.952672,-9474.636058,-3701.029710,0.000000
3281.953010,-9548.656652,-2516.700203,2298.286494
3281.953347,-9696.697840,-1776.494261,1378.971896
3281.953684,-9844.739029,0.000000,-689.485948
3281.954022,-9770.718434,74.020594,-3064.381992
3281.954359,-11325.150913,-1258.350101,-1532.190996
3281.954697,-10955.047942,-1776.494261,2068.457845
3281.955034,-10066.800811,-1184.329507,3217.601092
3281.955371,-10288.862594,74.020594,3217.601092
3281.955709,-9770.718434,0.000000,459.657299
3281.956046,-10881.027347,-1554.432478,-842.705048
3281.956384,-10955.047942,-3330.926739,-1225.752797
3281.956721,-9770.718434,-2442.679609,1838.629195
3281.957058,-11103.089130,-1036.288319,2834.553343
3281.957396,-10140.821405,148.041188,306.438199
3281.957733,-9474.636058,592.164754,-2604.724693
3281.958070,-10510.924376,-1036.288319,-2451.505594
3281.958408,-10955.047942,-1924.535449,766.095498
3281.958745,-10140.821405,-1184.329507,2221.676944
3281.959083,-9622.677246,296.082377,2068.457845
3281.959420,-9844.739029,444.123565,0.000000
3281.959757,-9548.656652,-1184.329507,-3064.381992
3281.960095,-9844.739029,-1776.494261,-1838.629195
3281.960432,-9918.759623,-3034.844362,1225.752797
3281.960770,-9548.656652,-1702.473667,3140.991542
3281.961107,-9030.512492,444.123565,1149.143247
3281.961444,-9030.512492,1258.350101,-842.705048
3281.961782,-9326.594869,1258.350101,-1378.971896
3281.962119,-10288.862594,296.082377,1225.752797
3281.962456,-10732.986159,1554.432478,2834.553343
3281.962794,-9992.780217,2516.700203,2987.772442
3281.963131,-9770.718434,3330.926739,2451.505594
3281.963469,-9770.718434,2516.700203,-842.705048
3281.963806,-10066.800811,296.082377,-842.705048
3281.964143,-9844.739029,0.000000,383.047749
3281.964481,-9844.739029,-444.123565,1225.752797
3281.964818,-10436.903782,0.000000,1149.143247
3281.965156,-9844.739029,1184.329507,-1455.581446
3281.965493,-9104.533087,296.082377,-3983.696590
3281.965830,-10066.800811,-74.020594,-3753.867940
3281.966168,-10807.006753,-1258.350101,-919.314598
3281.966505,-10140.821405,-814.226536,1455.581446
3281.966843,-9918.759623,0.000000,1685.410096
3281.967180,-10362.883188,-296.082377,0.000000
3281.967517,-10881.027347,-2146.597232,-2451.505594
3281.967855,-10807.006753,-3478.967927,-536.266849
3281.968192,-9918.759623,-3923.091493,2068.457845
3281.968529,-10436.903782,-2960.823768,3294.210641
3281.968867,-9770.718434,-518.144159,1378.971896
3281.969204,-9474.636058,-370.102971,-995.924147
3281.969542,-10732.986159,-518.144159,-306.438199
3281.969879,-11103.089130,-888.247130,1378.971896
3281.970216,-10436.903782,518.144159,2834.553343
3281.970554,-9178.553681,1406.391290,2757.943793
3281.970891,-10214.842000,1850.514855,1378.971896
3281.971229,-10658.965565,1628.453072,-229.828649
3281.971566,-10436.903782,0.000000,-1762.019645
3281.971903,-10066.800811,-888.247130,766.095498
3281.972241,-9696.697840,-962.267725,2451.505594
3281.972578,-8956.491898,1554.432478,842.705048
3281.972915,-8808.450710,1776.494261,-1302.362347
3281.973253,-10140.821405,370.102971,-1915.238745
3281.973590,-10436.903782,-370.102971,-1762.019645
3281.973928,-10584.944971,-370.102971,536.266849
3281.974265,-9992.780217,1850.514855,2451.505594
3281.974602,-9326.594869,2294.638420,1302.362347
3281.974940,-10066.800811,1110.308913,-1072.533697
3281.975277,-9326.594869,-592.164754,-1455.581446
3281.975615,-9548.656652,-2368.659014,1455.581446
3281.975952,-10436.903782,-1332.370696,3753.867940
3281.976289,-10436.903782,-444.123565,1762.019645
3281.976627,-9326.594869,1258.350101,76.609550
3281.976964,-9918.759623,740.205942,-919.314598
3281.977301,-9992.780217,-296.082377,0.000000
3281.977639,-10510.924376,-518.144159,689.485948
3281.977976,-9992.780217,222.061783,2221.676944
3281.978314,-9548.656652,1110.308913,1532.190996
3281.978651,-11029.068536,74.020594,-459.657299
3281.978988,-10732.986159,-814.226536,-2068.457845
3281.979326,-9696.697840,-3108.864956,-1915.238745
3281.979663,-9844.739029,-3182.885551,306.438199
3281.980001,-9992.780217,-2220.617826,0.000000
3281.980338,-9326.594869,-1998.556043,-1762.019645
3281.980675,-9252.574275,-2146.597232,-2834.553343
3281.981013,-10807.006753,-2960.823768,-1532.190996
3281.981350,-11325.150913,-2368.659014,766.095498
3281.981688,-10140.821405,-1850.514855,2221.676944
3281.982025,-10066.800811,-666.185348,3140.991542
3281.982362,-10510.924376,74.020594,1225.752797
3281.982700,-10362.883188,-740.205942,0.000000
3281.983037,-10436.903782,-1258.350101,306.438199
3281.983374,-10436.903782,-1406.391290,2451.505594
3281.983712,-10140.821405,0.000000,2834.553343
3281.984049,-9474.636058,888.247130,1455.581446
3281.984387,-8660.409521,1924.535449,306.438199
3281.984724,-10066.800811,1036.288319,536.266849
3281.985061,-10807.006753,666.185348,1149.143247
3281.985399,-10362.883188,1776.494261,1915.238745
3281.985736,-9992.780217,2442.679609,1838.629195
3281.986074,-9770.718434,3404.947333,612.876398
3281.986411,-9474.636058,1850.514855,-2221.676944
3281.986748,-8956.491898,666.185348,-2145.067394
3281.987086,-8734.430116,-1110.308913,-766.095498
3281.987423,-9474.636058,-888.247130,842.705048
3281.987760,-9770.718434,-740.205942,0.000000
3281.988098,-9326.594869,-296.082377,-1225.752797
3281.988435,-9992.780217,814.226536,-1762.019645
3281.988773,-10288.862594,-740.205942,-1378.971896
3281.989110,-10658.965565,-518.144159,536.266849
3281.989447,-9844.739029,-814.226536,2374.896044
3281.989785,-10066.800811,814.226536,2757.943793
3281.990122,-11251.130318,148.041188,536.266849
3281.990460,-10732.986159,-888.247130,-1302.362347
3281.990797,-10214.842000,-2146.597232,-459.657299
3281.991134,-10140.821405,-2368.659014,2451.505594
3281.991472,-10288.862594,-1480.411884,1762.019645
3281.991809,-9178.553681,-222.061783,0.000000
3281.992147,-9548.656652,-370.102971,-766.095498
3281.992484,-11029.068536,222.061783,-1072.533697
3281.992821,-11843.295072,-1406.391290,306.438199
3281.993159,-10066.800811,0.000000,1455.581446
3281.993496,-9326.594869,0.000000,1991.848295
3281.993833,-10214.842000,296.082377,1072.533697
3281.994171,-9696.697840,0.000000,-2528.115143
3281.994508,-9252.574275,-1702.473667,-2374.896044
3281.994846,-10140.821405,-2516.700203,306.438199
3281.995183,-9696.697840,-2294.638420,1378.971896
3281.995520,-9474.636058,-222.061783,842.705048
3281.995858,-9474.636058,370.102971,-766.095498
3281.996195,-10140.821405,148.041188,-842.705048
3281.996533,-10807.006753,-1184.329507,306.438199
3281.996870,-10584.944971,222.061783,2911.162892
3281.997207,-10066.800811,2146.597232,3677.258390
3281.997545,-11029.068536,3034.844362,2987.772442
3281.997882,-10881.027347,2294.638420,0.000000
3281.998219,-9474.636058,444.123565,-2451.505594
3281.998557,-8956.491898,0.000000,76.609550
3281.998894,-8956.491898,-370.102971,1991.848295
3281.999232,-9326.594869,962.267725,612.876398
3281.999569,-9474.636058,1628.453072,-1608.800546
3281.999906,-10214.842000,1924.535449,-2604.724693
3282.000244,-10658.965565,444.123565,-3140.991542
3282.000581,-10881.027347,-444.123565,-1072.533697
3282.000919,-9474.636058,-370.102971,919.314598
3282.001256,-8660.409521,444.123565,1455.581446
3282.001593,-10881.027347,0.000000,-689.485948
3282.001931,-9918.759623,-2146.597232,-3294.210641
3282.002268,-9622.677246,-3330.926739,-2757.943793
3282.002605,-9918.759623,-4219.173869,1072.533697
3282.002943,-10510.924376,-2738.761985,1302.362347
3282.003282,-9548.656652,-1998.556043,-612.876398
3282.003619,-9696.697840,-962.267725,-842.705048
3282.003957,-11251.130318,-1924.535449,-153.219100
3282.004294,-11325.150913,-1628.453072,842.705048
3282.004631,-10955.047942,-1258.350101,3907.087040
3282.004969,-11547.212695,222.061783,4366.744339
3282.005306,-9992.780217,666.185348,3140.991542
3282.005643,-10807.006753,518.144159,919.314598
3282.005980,-10214.842000,-370.102971,-306.438199
3282.006318,-9844.739029,-962.267725,612.876398
3282.006655,-9992.780217,0.000000,1225.752797
3282.006992,-9548.656652,518.144159,0.000000
3282.007329,-9030.512492,1776.494261,-612.876398
3282.007667,-10066.800811,740.205942,-1608.800546
3282.008004,-9844.739029,296.082377,-1072.533697
3282.008341,-9992.780217,0.000000,536.266849
3282.008678,-9622.677246,666.185348,2451.505594
3282.009016,-9770.718434,1258.350101,1608.800546
3282.009353,-10214.842000,370.102971,-229.828649
3282.009690,-8956.491898,0.000000,-2374.896044
3282.010027,-8438.347739,-2072.576638,0.000000
3282.010365,-9400.615463,-1776.494261,2681.334243
3282.010702,-9474.636058,-666.185348,2374.896044
3282.011039,-9622.677246,1110.308913,306.438199
3282.011377,-10510.924376,1554.432478,-842.705048
3282.011714,-11473.192101,592.164754,-766.095498
3282.012051,-10362.883188,-370.102971,919.314598
3282.012388,-9474.636058,370.102971,2374.896044
3282.012726,-9548.656652,296.082377,3753.867940
3282.013063,-10658.965565,962.267725,76.609550
3282.013400,-10214.842000,0.000000,-2374.896044
3282.013737,-10214.842000,-2146.597232,-1378.971896
3282.014075,-9622.677246,-2146.597232,383.047749
3282.014412,-10584.944971,-1406.391290,0.000000
3282.014749,-9622.677246,-740.205942,-1685.410096
3282.015086,-9474.636058,-814.226536,-3140.991542
3282.015424,-10288.862594,-2294.638420,-2604.724693
3282.015761,-10362.883188,-2960.823768,-1378.971896
3282.016098,-9992.780217,-2368.659014,1532.190996
3282.016435,-10362.883188,-1554.432478,3524.039291
3282.016773,-11103.089130,-740.205942,919.314598
3282.017110,-9918.759623,-962.267725,-2068.457845
3282.017447,-9918.759623,-2442.679609,-1455.581446
3282.017785,-10214.842000,-3478.967927,1838.629195
3282.018122,-10214.842000,-1776.494261,3294.210641
3282.018459,-9992.780217,444.123565,1915.238745
3282.018796,-9770.718434,1776.494261,0.000000
3282.019134,-10732.986159,1036.288319,-689.485948
3282.019471,-11251.130318,222.061783,1302.362347
3282.019808,-10510.924376,814.226536,3064.381992
3282.020145,-9844.739029,2590.720797,3907.087040
3282.020483,-9918.759623,3552.988522,1762.019645
3282.020820,-10510.924376,2368.659014,-1149.143247
3282.021157,-9474.636058,1480.411884,-1685.410096
3282.021494,-8882.471304,-444.123565,-612.876398
3282.021832,-8734.430116,-888.247130,1608.800546
3282.022169,-9252.574275,592.164754,1149.143247
3282.022506,-9252.574275,1776.494261,-612.876398
3282.022843,-9474.636058,1776.494261,-3447.429741
3282.023181,-10140.821405,-444.123565,-3140.991542
3282.023518,-10807.006753,-518.144159,766.095498
3282.023855,-9622.677246,-740.205942,2374.896044
3282.024193,-9474.636058,296.082377,2451.505594
3282.024530,-9696.697840,-296.082377,0.000000
3282.024867,-9770.718434,-1628.453072,-1838.629195
3282.025204,-9992.780217,-2590.720797,306.438199
3282.025542,-10955.047942,-2590.720797,2757.943793
3282.025879,-10658.965565,-962.267725,2681.334243
3282.026216,-10288.862594,0.000000,76.609550
3282.026553,-10140.821405,370.102971,-612.876398
3282.026891,-10658.965565,-1110.308913,-1455.581446
3282.027228,-10955.047942,-888.247130,1149.143247
3282.027565,-10732.986159,-962.267725,2298.286494
3282.027902,-9992.780217,0.000000,2221.676944
3282.028240,-10436.903782,222.061783,0.000000
3282.028577,-10362.883188,-370.102971,-2834.553343
3282.028914,-9548.656652,-1480.411884,-2681.334243
3282.029251,-9992.780217,-2738.761985,229.828649
3282.029589,-10362.883188,-1850.514855,919.314598
3282.029926,-9178.553681,-296.082377,-919.314598
3282.030263,-9104.533087,0.000000,-1455.581446
3282.030601,-10140.821405,-1332.370696,-919.314598
3282.030938,-10140.821405,-1924.535449,-76.609550
3282.031275,-10436.903782,-222.061783,2528.115143
3282.031612,-10288.862594,296.082377,2911.162892
3282.031950,-9622.677246,962.267725,1915.238745
3282.032287,-10510.924376,814.226536,0.000000
3282.032624,-9474.636058,222.061783,0.000000
3282.032961,-9326.594869,-666.185348,1532.190996
3282.033299,-9474.636058,-444.123565,3140.991542
3282.033636,-9770.718434,1110.308913,2374.896044
3282.033973,-9030.512492,2664.741391,-383.047749
3282.034310,-10362.883188,2368.659014,-1225.752797
3282.034648,-11103.089130,1554.432478,-1762.019645
3282.034985,-10658.965565,666.185348,0.000000
3282.035322,-9548.656652,1036.288319,1532.190996
3282.035659,-8956.491898,1554.432478,1149.143247
3282.035997,-9622.677246,666.185348,-842.705048
3282.036334,-9696.697840,-888.247130,-3217.601092
3282.036671,-9178.553681,-2442.679609,-3294.210641
3282.037008,-9918.759623,-3108.864956,0.000000
3282.037346,-10510.924376,-2368.659014,1378.971896
3282.037683,-9696.697840,-1110.308913,-842.705048
3282.038020,-9474.636058,-1110.308913,-1302.362347
3282.038358,-10288.862594,-1332.370696,-1072.533697
3282.038695,-10881.027347,-2886.803174,306.438199
3282.039032,-11251.130318,-2220.617826,2834.553343
3282.039369,-10510.924376,-1628.453072,2911.162892
3282.039707,-10584.944971,-592.164754,1225.752797
3282.040044,-9770.718434,-1184.329507,-306.438199
3282.040381,-10362.883188,-2146.597232,-306.438199
3282.040718,-9696.697840,-2146.597232,1838.629195
3282.041056,-10584.944971,-962.267725,2528.115143
3282.041393,-10732.986159,1406.391290,1225.752797
3282.041730,-10362.883188,1998.556043,-1225.752797
3282.042067,-10510.924376,740.205942,-1149.143247
3282.042405,-10066.800811,0.000000,76.609550
3282.042742,-9696.697840,-222.061783,1838.629195
3282.043079,-9548.656652,1406.391290,1991.848295
3282.043416,-9696.697840,1850.514855,0.000000
3282.043754,-9474.636058,1036.288319,-1762.019645
3282.044091,-9548.656652,-296.082377,-2451.505594
3282.044428,-9400.615463,-1998.556043,229.828649
3282.044766,-9030.512492,-1036.288319,2911.162892
3282.045103,-9548.656652,296.082377,1762.019645
3282.045440,-9030.512492,2072.576638,-306.438199
3282.045777,-9770.718434,1850.514855,-1378.971896
3282.046115,-11103.089130,814.226536,76.609550
3282.046452,-11103.089130,-370.102971,1762.019645
3282.046789,-10288.862594,1480.411884,3447.429741
3282.047126,-9844.739029,2442.679609,3447.429741
3282.047464,-9992.780217,1110.308913,-459.657299
3282.047801,-9548.656652,518.144159,-1302.362347
3282.048138,-9770.718434,-1258.350101,-229.828649
3282.048475,-10140.821405,-740.205942,1991.848295
3282.048813,-10584.944971,148.041188,766.095498
3282.049150,-9918.759623,370.102971,-1378.971896
3282.049487,-9252.574275,962.267725,-2834.553343
3282.049824,-10066.800811,-1110.308913,-2221.676944
3282.050162,-10584.944971,-1702.473667,153.219100
3282.050499,-10510.924376,-2072.576638,1532.190996
3282.050836,-10140.821405,-888.247130,1991.848295
3282.051174,-10288.862594,-1184.329507,-842.705048
3282.051511,-9548.656652,-2886.803174,-3064.381992
3282.051848,-10214.842000,-3256.906145,-2298.286494
3282.052185,-10140.821405,-4293.194464,842.705048
3282.052523,-9844.739029,-2664.741391,1762.019645
3282.052860,-9918.759623,-1554.432478,689.485948
3282.053197,-10066.800811,74.020594,0.000000
3282.053534,-10881.027347,-740.205942,-689.485948
3282.053872,-11029.068536,-1258.350101,1532.190996
3282.054209,-11103.089130,-518.144159,4290.134789
3282.054546,-10955.047942,1258.350101,4136.915689
3282.054883,-10362.883188,2146.597232,2834.553343
3282.055221,-10658.965565,1184.329507,-306.438199
3282.055558,-10214.842000,370.102971,-1378.971896
3282.055895,-9844.739029,-1036.288319,306.438199
3282.056232,-9252.574275,-296.082377,2451.505594
3282.056570,-8438.347739,1554.432478,995.924147
3282.056907,-8438.347739,2442.679609,-766.095498
3282.057244,-9548.656652,2072.576638,-2528.115143
3282.057582,-10732.986159,740.205942,-2834.553343
3282.057919,-10510.924376,74.020594,0.000000
3282.058256,-8808.450710,-370.102971,1532.190996
3282.058593,-8882.471304,1258.350101,1762.019645
3282.058931,-9474.636058,296.082377,-612.876398
3282.059268,-9770.718434,-1406.391290,-2528.115143
3282.059605,-9992.780217,-2146.597232,-995.924147
3282.059942,-9918.759623,-2368.659014,1302.362347
3282.060280,-10732.986159,-814.226536,2298.286494
3282.060617,-9548.656652,-444.123565,0.000000
3282.060954,-10066.800811,592.164754,-536.266849
3282.061291,-11103.089130,-814.226536,536.266849
3282.061629,-11399.171507,-666.185348,1838.629195
3282.061966,-11251.130318,-740.205942,2987.772442
3282.062303,-11103.089130,370.102971,2374.896044
3282.062640,-9252.574275,518.144159,0.000000
3282.062978,-10584.944971,-296.082377,-2221.676944
3282.063315,-10510.924376,-2294.638420,-1762.019645
3282.063652,-9474.636058,-2368.659014,0.000000
3282.063989,-10066.800811,-1776.494261,1532.190996
3282.064327,-10362.883188,222.061783,-1072.533697
3282.064664,-9622.677246,0.000000,-2145.067394
3282.065001,-10140.821405,-592.164754,-1991.848295
3282.065339,-10140.821405,-2368.659014,-536.266849
3282.065676,-10214.842000,-1850.514855,1991.848295
3282.066013,-9992.780217,148.041188,2221.676944
3282.066350,-9474.636058,74.020594,919.314598
3282.066688,-9992.780217,296.082377,0.000000
3282.067025,-10288.862594,-1776.494261,-459.657299
3282.067362,-9548.656652,-1628.453072,1685.410096
3282.067699,-9474.636058,-962.267725,3447.429741
3282.068037,-10066.800811,962.267725,3447.429741
3282.068374,-9844.739029,3182.885551,919.314598
3282.068711,-10288.862594,2590.720797,-306.438199
3282.069048,-10881.027347,2368.659014,766.095498
3282.069386,-10807.006753,1480.411884,2681.334243
3282.069723,-10066.800811,3256.906145,1762.019645
3282.070060,-9548.656652,2812.782580,689.485948
3282.070397,-9622.677246,2220.617826,-842.705048
3282.070735,-9326.594869,0.000000,-2374.896044
3282.071072,-9548.656652,-1332.370696,-612.876398
3282.071409,-9178.553681,-814.226536,919.314598
3282.071747,-9548.656652,-370.102971,76.609550
3282.072084,-9326.594869,-296.082377,-2145.067394
3282.072421,-9030.512492,74.020594,-3753.867940
3282.072758,-9844.739029,-1924.535449,-1762.019645
3282.073096,-10510.924376,-2146.597232,536.266849
3282.073433,-9696.697840,-1776.494261,919.314598
3282.073770,-10584.944971,-1628.453072,2145.067394
3282.074107,-9918.759623,-1628.453072,76.609550
3282.074445,-10436.903782,-2146.597232,-995.924147
3282.074782,-10436.903782,-3256.906145,-459.657299
3282.075119,-10066.800811,-2812.782580,1149.143247
3282.075456,-10658.965565,-1406.391290,2681.334243
3282.075794,-10658.965565,0.000000,1225.752797
3282.076131,-10584.944971,1184.329507,-995.924147
3282.076468,-10881.027347,74.020594,76.609550
3282.076805,-11547.212695,518.144159,1455.581446
3282.077143,-10732.986159,370.102971,1838.629195
3282.077480,-10658.965565,962.267725,2145.067394
3282.077817,-9770.718434,1702.473667,153.219100
3282.078155,-9770.718434,518.144159,-1455.581446
3282.078492,-10140.821405,-148.041188,-2145.067394
3282.078829,-9474.636058,-1332.370696,-153.219100
3282.079166,-8882.471304,-592.164754,842.705048
3282.079504,-9030.512492,-518.144159,842.705048
3282.079841,-8882.471304,962.267725,-612.876398
3282.080178,-10140.821405,444.123565,-1532.190996
3282.080515,-10658.965565,0.000000,-536.266849
3282.080853,-9696.697840,0.000000,1455.581446
3282.081190,-8512.368333,0.000000,2068.457845
3282.081527,-8660.409521,1184.329507,1915.238745
3282.081864,-9030.512492,1036.288319,306.438199
3282.082202,-10436.903782,-296.082377,-766.095498
3282.082539,-10288.862594,-592.164754,0.000000
3282.082876,-10362.883188,0.000000,1915.238745
3282.083213,-10362.883188,222.061783,2145.067394
3282.083551,-10066.800811,1480.411884,459.657299
3282.083888,-9992.780217,1776.494261,-383.047749
3282.084225,-10288.862594,1184.329507,-1302.362347
3282.084563,-11621.233289,-296.082377,-229.828649
3282.084900,-11473.192101,-1184.329507,995.924147
3282.085237,-9696.697840,-148.041188,153.219100
3282.085574,-9474.636058,-444.123565,-1225.752797
3282.085912,-9474.636058,-1406.391290,-2757.943793
3282.086249,-10066.800811,-2960.823768,-2604.724693
3282.086586,-10066.800811,-3701.029710,-383.047749
3282.086923,-10140.821405,-3627.009116,919.314598
3282.087261,-9992.780217,-1776.494261,1149.143247
3282.087598,-10584.944971,-1258.350101,229.828649
3282.087935,-10140.821405,-1776.494261,-536.266849
3282.088272,-10140.821405,-2146.597232,689.485948
3282.088610,-10214.842000,-1850.514855,2604.724693
3282.088947,-10140.821405,-592.164754,3600.648841
3282.089284,-10436.903782,0.000000,3140.991542
3282.089621,-10436.903782,148.041188,766.095498
3282.089959,-10362.883188,-74.020594,-1149.143247
3282.090296,-9992.780217,-888.247130,612.876398
3282.090633,-9696.697840,-296.082377,3217.601092
3282.090970,-9770.718434,1036.288319,2221.676944
3282.091308,-9326.594869,2886.803174,153.219100
3282.091645,-9918.759623,2664.741391,-1072.533697
3282.091982,-10732.986159,740.205942,0.000000
3282.092320,-10955.047942,962.267725,689.485948
3282.092657,-9474.636058,1702.473667,689.485948
3282.092994,-9252.574275,2294.638420,0.000000
3282.093331,-8882.471304,1332.370696,-2298.286494
3282.093669,-9326.594869,-740.205942,-2221.676944
3282.094006,-9326.594869,-1258.350101,-1455.581446
3282.094343,-9252.574275,-1702.473667,689.485948
3282.094680,-10732.986159,-888.247130,2068.457845
3282.095018,-10510.924376,296.082377,-229.828649
3282.095355,-9252.574275,222.061783,-1455.581446
3282.095692,-10066.800811,0.000000,-689.485948
3282.096029,-10881.027347,-1554.432478,1915.238745
3282.096367,-10584.944971,-888.247130,2681.334243
3282.096704,-9696.697840,518.144159,2145.067394
3282.097041,-9178.553681,0.000000,-612.876398
3282.097378,-10807.006753,-1184.329507,-1685.410096
3282.097716,-10658.965565,-2294.638420,-1608.800546
3282.098053,-9104.533087,-2368.659014,842.705048
3282.098390,-9918.759623,-962.267725,1532.190996
3282.098728,-10584.944971,296.082377,0.000000
3282.099065,-10436.903782,666.185348,-2298.286494
3282.099402,-10807.006753,-74.020594,-2374.896044
3282.099739,-10584.944971,-962.267725,-306.438199
3282.100077,-10510.924376,-1036.288319,1072.533697
3282.100414,-9622.677246,-296.082377,1149.143247
3282.100751,-9326.594869,370.102971,76.609550
3282.101088,-10362.883188,-962.267725,-1149.143247
3282.101426,-10436.903782,-1924.535449,-766.095498
3282.101763,-10140.821405,-2738.761985,1378.971896
3282.102100,-9770.718434,-1702.473667,3140.991542
3282.102437,-9918.759623,518.144159,2834.553343
3282.102775,-10066.800811,1776.494261,995.924147
3282.103112,-9696.697840,1480.411884,612.876398
3282.103449,-10510.924376,1036.288319,1915.238745
3282.103786,-10955.047942,1036.288319,2987.772442
3282.104124,-9844.739029,2368.659014,2757.943793
3282.104461,-8956.491898,2960.823768,2451.505594
3282.104798,-9400.615463,1924.535449,766.095498
3282.105136,-9252.574275,962.267725,-1532.190996
3282.105473,-9474.636058,-296.082377,-306.438199
3282.105810,-9104.533087,-148.041188,1532.190996
3282.106147,-10066.800811,518.144159,1685.410096
3282.106485,-10436.903782,2146.597232,-919.314598
3282.106822,-9030.512492,1702.473667,-4366.744339
3282.107159,-9844.739029,370.102971,-2528.115143
3282.107496,-10214.842000,-1702.473667,0.000000
3282.107834,-9770.718434,-1554.432478,1302.362347
3282.108171,-9770.718434,-1110.308913,919.314598
3282.108509,-10658.965565,-1776.494261,-306.438199
3282.108846,-10510.924376,-1924.535449,-2757.943793
3282.109183,-10214.842000,-3923.091493,-2145.067394
3282.109521,-9252.574275,-4071.132681,1149.143247
3282.109858,-9992.780217,-2738.761985,2298.286494
3282.110196,-11325.150913,-888.247130,1532.190996
3282.110533,-11251.130318,74.020594,-1378.971896
3282.110870,-10807.006753,-592.164754,-919.314598
3282.111208,-11177.109724,-888.247130,1762.019645
3282.111545,-11399.171507,-888.247130,3140.991542
3282.111883,-10066.800811,0.000000,2374.896044
3282.112220,-9548.656652,370.102971,842.705048
3282.112557,-9622.677246,0.000000,-612.876398
3282.112895,-10288.862594,-1702.473667,-2374.896044
3282.113232,-9474.636058,-2516.700203,-536.266849
3282.113570,-9474.636058,-1406.391290,1762.019645
3282.113907,-9992.780217,814.226536,1072.533697
3282.114244,-9400.615463,2220.617826,-1915.238745
3282.114582,-9474.636058,666.185348,-2757.943793
3282.114919,-9844.739029,-296.082377,-842.705048
3282.115257,-10066.800811,-814.226536,1225.752797
3282.115594,-9474.636058,1110.308913,2298.286494
3282.115931,-8956.491898,1554.432478,1149.143247
3282.116269,-9252.574275,444.123565,-612.876398
3282.116606,-9400.615463,-592.164754,-1149.143247
3282.116944,-9104.533087,-1924.535449,459.657299
3282.117281,-9844.739029,-888.247130,3983.696590
3282.117619,-10658.965565,148.041188,3140.991542
3282.117956,-10658.965565,2886.803174,1378.971896
3282.118293,-10955.047942,3478.967927,-1072.533697
3282.118631,-10658.965565,1702.473667,-1685.410096
3282.118968,-11473.192101,962.267725,766.095498
3282.119306,-10436.903782,74.020594,2068.457845
3282.119643,-8882.471304,814.226536,1455.581446
3282.119980,-8808.450710,0.000000,-1072.533697
3282.120318,-9844.739029,-370.102971,-2374.896044
3282.120655,-10732.986159,-2960.823768,-2451.505594
3282.120993,-9696.697840,-2664.741391,306.438199
3282.121330,-10066.800811,-1554.432478,1685.410096
3282.121667,-10584.944971,-592.164754,-536.266849
3282.122005,-9918.759623,-444.123565,-2451.505594
3282.122342,-10510.924376,-1184.329507,-1915.238745
3282.122680,-10510.924376,-3034.844362,1072.533697
3282.123017,-10584.944971,-1776.494261,2451.505594
3282.123354,-10214.842000,-1332.370696,2987.772442
3282.123692,-9696.697840,-444.123565,919.314598
3282.124029,-9918.759623,-740.205942,-1225.752797
3282.124367,-10584.944971,-1480.411884,-1149.143247
3282.124704,-10066.800811,-1998.556043,536.266849
3282.125041,-9696.697840,-1554.432478,3677.258390
3282.125379,-9918.759623,518.144159,2757.943793
3282.125716,-9474.636058,2590.720797,306.438199
3282.126054,-10214.842000,2664.741391,-383.047749
3282.126391,-10732.986159,592.164754,459.657299
3282.126728,-10436.903782,1184.329507,2451.505594
3282.127066,-10214.842000,1702.473667,2298.286494
3282.127403,-9770.718434,2738.761985,689.485948
3282.127741,-9178.553681,1332.370696,-1991.848295
3282.128078,-9622.677246,148.041188,-3064.381992
3282.128415,-8586.388927,-1332.370696,-2068.457845
3282.128753,-8438.347739,-1924.535449,229.828649
3282.129090,-9770.718434,-222.061783,1762.019645
3282.129428,-9770.718434,370.102971,0.000000
3282.129765,-10362.883188,1554.432478,-2068.457845
3282.130102,-10584.944971,518.144159,-1378.971896
3282.130440,-11103.089130,-1332.370696,1149.143247
3282.130777,-10214.842000,-1184.329507,3140.991542
3282.131115,-9548.656652,-444.123565,3447.429741
3282.131452,-9696.697840,0.000000,612.876398
3282.131790,-9992.780217,-1258.350101,-2451.505594
3282.132127,-10732.986159,-2368.659014,-1991.848295
3282.132464,-10066.800811,-2516.700203,842.705048
3282.132802,-9918.759623,-1258.350101,2604.724693
3282.133139,-10584.944971,592.164754,1302.362347
3282.133477,-10584.944971,1184.329507,-1225.752797
3282.133814,-10584.944971,370.102971,-1762.019645
3282.134151,-11177.109724,-1480.411884,153.219100
3282.134489,-11029.068536,-1776.494261,1991.848295
3282.134826,-9548.656652,-814.226536,1838.629195
3282.135164,-9474.636058,-666.185348,0.000000
3282.135501,-9178.553681,-740.205942,-3370.820191
3282.135838,-9548.656652,-2664.741391,-4290.134789
3282.136176,-9548.656652,-3034.844362,-919.314598
3282.136513,-10066.800811,-2368.659014,1225.752797
3282.136851,-10807.006753,-518.144159,1685.410096
3282.137188,-10288.862594,1036.288319,0.000000
3282.137525,-9918.759623,74.020594,-383.047749
3282.137863,-10214.842000,-444.123565,1685.410096
3282.138200,-11399.171507,-1258.350101,4213.525239
3282.138538,-10584.944971,888.247130,4979.620737
3282.138875,-10214.842000,2590.720797,3600.648841
3282.139212,-10066.800811,2368.659014,1225.752797
3282.139550,-10140.821405,740.205942,-1915.238745
3282.139887,-9474.636058,0.000000,-766.095498
3282.140225,-9252.574275,444.123565,2298.286494
3282.140562,-9918.759623,814.226536,1915.238745
3282.140899,-9474.636058,2738.761985,-306.438199
3282.141237,-9400.615463,1924.535449,-2374.896044
3282.141574,-9474.636058,1702.473667,-2298.286494
3282.141912,-10066.800811,-1036.288319,383.047749
3282.142249,-10510.924376,-592.164754,2145.067394
3282.142586,-8734.430116,-222.061783,1838.629195
3282.142924,-9474.636058,-370.102971,-689.485948
3282.143261,-9474.636058,-1850.514855,-2987.772442
3282.143599,-10066.800811,-3108.864956,-2604.724693
3282.143936,-10288.862594,-3256.906145,536.266849
3282.144273,-10732.986159,-2368.659014,995.924147
3282.144611,-9844.739029,-1036.288319,153.219100
3282.144948,-10732.986159,-148.041188,-919.314598
3282.145286,-10955.047942,-1258.350101,-689.485948
3282.145623,-11991.336260,-1258.350101,2068.457845
3282.145961,-11991.336260,-1702.473667,3524.039291
3282.146298,-11029.068536,-148.041188,3600.648841
3282.146635,-10510.924376,888.247130,1685.410096
3282.146973,-10510.924376,0.000000,-766.095498
3282.147310,-9696.697840,-740.205942,-2834.553343
3282.147648,-9770.718434,-1776.494261,-1072.533697
3282.147985,-9474.636058,-1110.308913,1838.629195
3282.148322,-9474.636058,74.020594,0.000000
3282.148660,-9474.636058,1776.494261,-1455.581446
3282.148997,-9400.615463,1110.308913,-2451.505594
3282.149335,-10288.862594,-1110.308913,-689.485948
3282.149672,-9622.677246,-666.185348,612.876398
3282.150009,-8882.471304,0.000000,2451.505594
3282.150347,-9696.697840,962.267725,2145.067394
3282.150684,-9548.656652,592.164754,-1225.752797
3282.151022,-9622.677246,-370.102971,-2374.896044
3282.151359,-9474.636058,-1702.473667,-612.876398
3282.151696,-9474.636058,-1480.411884,2451.505594
3282.152034,-10066.800811,0.000000,2451.505594
3282.152371,-9548.656652,2072.576638,0.000000
3282.152709,-9918.759623,2368.659014,-689.485948
3282.153046,-11917.315666,1628.453072,689.485948
3282.153383,-11399.171507,888.247130,2451.505594
3282.153721,-11473.192101,1258.350101,3677.258390
3282.154058,-10066.800811,2072.576638,2834.553343
3282.154396,-9548.656652,2220.617826,-459.657299
3282.154733,-9696.697840,74.020594,-2221.676944
3282.155070,-9474.636058,-1554.432478,-2145.067394
3282.155408,-8734.430116,-2516.700203,612.876398
3282.155745,-10288.862594,-1036.288319,689.485948
3282.156083,-9622.677246,-296.082377,-842.705048
3282.156420,-9474.636058,-222.061783,-2834.553343
3282.156757,-9548.656652,-962.267725,-2451.505594
3282.157095,-10584.944971,-2368.659014,-766.095498
3282.157432,-10288.862594,-2220.617826,1838.629195
3282.157770,-9918.759623,-1480.411884,2451.505594
3282.158107,-9918.759623,-1258.350101,1378.971896
3282.158444,-10362.883188,-1850.514855,-1685.410096
3282.158782,-9992.780217,-2812.782580,-1608.800546
3282.159119,-9696.697840,-3478.967927,1149.143247
3282.159457,-10436.903782,-2368.659014,3294.210641
3282.159794,-10658.965565,-74.020594,1455.581446
3282.160132,-10066.800811,1184.329507,-919.314598
3282.160469,-10881.027347,962.267725,-153.219100
3282.160806,-11177.109724,0.000000,1455.581446
3282.161144,-10732.986159,592.164754,3370.820191
3282.161481,-10140.821405,2072.576638,3064.381992
3282.161819,-10140.821405,2664.741391,2145.067394
3282.162156,-10881.027347,1406.391290,153.219100
3282.162493,-9844.739029,1110.308913,-2451.505594
3282.162831,-9770.718434,-962.267725,-995.924147
3282.163168,-9474.636058,-666.185348,842.705048
3282.163506,-8660.409521,74.020594,-536.266849
3282.163843,-8586.388927,962.267725,-1915.238745
3282.164180,-8956.491898,592.164754,-3447.429741
3282.164518,-9622.677246,0.000000,-2987.772442
3282.164855,-11029.068536,-1184.329507,76.609550
3282.165193,-9844.739029,-370.102971,2451.505594
3282.165530,-9474.636058,370.102971,3677.258390
3282.165867,-9918.759623,-444.123565,1608.800546
3282.166205,-9326.594869,-962.267725,-995.924147
3282.166542,-9622.677246,-2590.720797,0.000000
3282.166880,-10362.883188,-2442.679609,2068.457845
3282.167217,-10214.842000,-1480.411884,1608.800546
3282.167554,-9770.718434,-148.041188,0.000000
3282.167892,-9474.636058,74.020594,-1072.533697
3282.168229,-10584.944971,148.041188,-919.314598
3282.168567,-11177.109724,-444.123565,689.485948
3282.168904,-11547.212695,0.000000,1302.362347
3282.169241,-10510.924376,222.061783,2451.505594
3282.169579,-9844.739029,74.020594,536.266849
3282.169916,-10214.842000,-296.082377,-842.705048
3282.170254,-10362.883188,-1554.432478,-2221.676944
3282.170591,-10584.944971,-2516.700203,-1072.533697
3282.170928,-10510.924376,-2738.761985,76.609550
3282.171266,-9696.697840,-1554.432478,-1302.362347
3282.171603,-8882.471304,222.061783,-2374.896044
3282.171941,-9622.677246,-888.247130,-612.876398
3282.172278,-10732.986159,-1110.308913,459.657299
3282.172615,-10362.883188,-1332.370696,2451.505594
3282.172953,-10881.027347,370.102971,3830.477490
3282.173290,-10362.883188,1628.453072,2451.505594
3282.173628,-10140.821405,1110.308913,995.924147
3282.173965,-10140.821405,740.205942,229.828649
3282.174303,-9622.677246,-888.247130,1838.629195
3282.174640,-9770.718434,-592.164754,4060.306139
3282.174977,-9400.615463,592.164754,1838.629195
3282.175315,-8364.327145,1184.329507,-995.924147
3282.175652,-9548.656652,3108.864956,-689.485948
3282.175990,-10362.883188,1628.453072,-459.657299
3282.176327,-10288.862594,1628.453072,229.828649
3282.176664,-10436.903782,1702.473667,1072.533697
3282.177002,-9178.553681,2294.638420,76.609550
3282.177339,-9844.739029,1554.432478,-1149.143247
3282.177677,-9770.718434,-296.082377,-2451.505594
3282.178014,-8512.368333,-2664.741391,-1608.800546
3282.178351,-9326.594869,-3404.947333,919.314598
3282.178689,-10510.924376,-2590.720797,1072.533697
3282.179026,-9696.697840,-1776.494261,-459.657299
3282.179364,-9770.718434,-1184.329507,-2068.457845
3282.179701,-10066.800811,-1184.329507,-1532.190996
3282.180038,-10955.047942,-1998.556043,0.000000
3282.180376,-11325.150913,-1406.391290,1838.629195
3282.180713,-10214.842000,-740.205942,2451.505594
3282.181051,-10214.842000,-592.164754,1608.800546
3282.181388,-10881.027347,-444.123565,-383.047749
3282.181725,-9770.718434,-1850.514855,-306.438199
3282.182063,-10140.821405,-2960.823768,1838.629195
3282.182400,-10584.944971,-1628.453072,2834.553343
3282.182738,-11103.089130,-222.061783,689.485948
3282.183075,-9474.636058,1110.308913,-1225.752797
3282.183412,-10510.924376,1036.288319,-612.876398
3282.183750,-11251.130318,-592.164754,459.657299
3282.184087,-9622.677246,0.000000,995.924147
3282.184425,-8882.471304,296.082377,2221.676944
3282.184762,-10066.800811,1258.350101,842.705048
3282.185099,-9696.697840,1110.308913,-2068.457845
3282.185437,-9474.636058,-444.123565,-2374.896044
3282.185774,-8882.471304,-1776.494261,-842.705048
3282.186112,-9474.636058,-1628.453072,2068.457845
3282.186449,-9992.780217,-1184.329507,1762.019645
3282.186787,-8956.491898,592.164754,-919.314598
3282.187124,-9548.656652,1184.329507,-689.485948
3282.187461,-10881.027347,74.020594,0.000000
3282.187799,-10658.965565,1110.308913,2451.505594
3282.188136,-10214.842000,1776.494261,3677.258390
3282.188474,-9696.697840,2368.659014,3524.039291
3282.188811,-9992.780217,2442.679609,0.000000
3282.189148,-10510.924376,814.226536,-1838.629195
3282.189486,-10140.821405,-666.185348,-536.266849
3282.189823,-9252.574275,-1110.308913,766.095498
3282.190161,-10362.883188,0.000000,1532.190996
3282.190498,-9178.553681,0.000000,-76.609550
3282.190835,-8882.471304,444.123565,-3447.429741
3282.191173,-9622.677246,-296.082377,-2451.505594
3282.191510,-11103.089130,-1184.329507,-1302.362347
3282.191848,-10658.965565,-1406.391290,842.705048
3282.192185,-10436.903782,-814.226536,1685.410096
3282.192522,-10140.821405,-888.247130,383.047749
3282.192860,-9770.718434,-2146.597232,-1838.629195
3282.193197,-9474.636058,-3256.906145,-1915.238745
3282.193535,-9844.739029,-4071.132681,76.609550
3282.193872,-10584.944971,-3923.091493,1762.019645
3282.194209,-10288.862594,-2220.617826,0.000000
3282.194547,-10214.842000,-592.164754,-842.705048
3282.194884,-10658.965565,-518.144159,-229.828649
3282.195222,-10881.027347,-1258.350101,919.314598
3282.195559,-10658.965565,-444.123565,3217.601092
3282.195896,-10214.842000,888.247130,4213.525239
3282.196234,-10510.924376,1998.556043,3677.258390
3282.196571,-11399.171507,2072.576638,842.705048
3282.196909,-9992.780217,1554.432478,-1302.362347
3282.197246,-10140.821405,222.061783,459.657299
3282.197583,-9400.615463,-666.185348,1302.362347
3282.197921,-9030.512492,370.102971,612.876398
3282.198258,-8438.347739,1776.494261,-1149.143247
3282.198596,-9474.636058,1924.535449,-2068.457845
3282.198933,-10288.862594,1628.453072,-1991.848295
3282.199270,-10658.965565,518.144159,-1072.533697
3282.199608,-10362.883188,888.247130,689.485948
3282.199945,-8734.430116,1184.329507,1838.629195
3282.200283,-9104.533087,1480.411884,995.924147
3282.200620,-9178.553681,-370.102971,-1608.800546
3282.200958,-8734.430116,-1184.329507,-842.705048
3282.201295,-9770.718434,-2146.597232,2298.286494
3282.201632,-11103.089130,-1184.329507,2145.067394
3282.201970,-9696.697840,-296.082377,459.657299
3282.202307,-9696.697840,888.247130,-766.095498
3282.202645,-9400.615463,-222.061783,-459.657299
3282.202982,-10140.821405,0.000000,383.047749
3282.203319,-11251.130318,-296.082377,1991.848295
3282.203657,-10436.903782,1036.288319,3140.991542
3282.203994,-11177.109724,592.164754,919.314598
3282.204332,-10807.006753,222.061783,-1072.533697
3282.204669,-9326.594869,-1258.350101,-1991.848295
3282.205006,-9696.697840,-3330.926739,1302.362347
3282.205344,-10436.903782,-3108.864956,1608.800546
3282.205681,-10288.862594,-1184.329507,-842.705048
3282.206018,-10140.821405,-444.123565,-2451.505594
3282.206356,-11251.130318,-1850.514855,-2451.505594
3282.206693,-10140.821405,-2146.597232,-1532.190996
3282.207030,-9622.677246,-2664.741391,766.095498
3282.207368,-9992.780217,-888.247130,2987.772442
3282.207705,-9918.759623,-370.102971,1532.190996
3282.208042,-10362.883188,-296.082377,-842.705048
3282.208380,-9918.759623,-888.247130,-689.485948
3282.208717,-9770.718434,-2368.659014,1455.581446
3282.209054,-10658.965565,-1258.350101,4519.963438
3282.209392,-10362.883188,-814.226536,2528.115143
3282.209729,-8956.491898,1628.453072,-153.219100
3282.210066,-9400.615463,1480.411884,-842.705048
3282.210403,-10066.800811,740.205942,0.000000
3282.210741,-9844.739029,1184.329507,1762.019645
3282.211078,-10362.883188,2516.700203,2451.505594
3282.211415,-9622.677246,3034.844362,383.047749
3282.211753,-9474.636058,2960.823768,-1685.410096
3282.212090,-9548.656652,1184.329507,-1532.190996
3282.212427,-9252.574275,-1184.329507,-306.438199
3282.212765,-9326.594869,-1184.329507,1685.410096
3282.213102,-10584.944971,0.000000,1225.752797
3282.213439,-10214.842000,-222.061783,-995.924147
3282.213777,-9770.718434,0.000000,-2911.162892
3282.214114,-9474.636058,-1110.308913,-2145.067394
3282.214451,-10584.944971,-1480.411884,-383.047749
3282.214788,-10732.986159,-1258.350101,1225.752797
3282.215126,-10140.821405,-814.226536,1608.800546
3282.215463,-9474.636058,0.000000,229.828649
3282.215800,-9696.697840,-1554.432478,-689.485948
3282.216138,-10066.800811,-2368.659014,383.047749
3282.216475,-10140.821405,-3849.070898,2298.286494
3282.216812,-10807.006753,-2368.659014,3830.477490
3282.217150,-9992.780217,-740.205942,1455.581446
3282.217487,-9548.656652,0.000000,-612.876398
3282.217824,-10732.986159,0.000000,-919.314598
3282.218162,-10732.986159,-1406.391290,-153.219100
3282.218499,-10658.965565,0.000000,1532.190996
3282.218836,-10362.883188,444.123565,2451.505594
3282.219174,-9844.739029,1184.329507,919.314598
3282.219511,-9696.697840,370.102971,-1685.410096
3282.219848,-10362.883188,296.082377,-1762.019645
3282.220185,-9918.759623,-1036.288319,-76.609550
3282.220523,-10584.944971,-1850.514855,919.314598
3282.220860,-10140.821405,-296.082377,1072.533697
3282.221197,-9400.615463,148.041188,-919.314598
3282.221535,-9992.780217,1110.308913,-1455.581446
3282.221872,-9844.739029,-518.144159,-1072.533697
3282.222209,-10362.883188,-370.102971,1302.362347
3282.222547,-9474.636058,962.267725,2681.334243
3282.222884,-9178.553681,1998.556043,2528.115143
3282.223221,-9770.718434,2368.659014,612.876398
3282.223559,-9474.636058,1406.391290,-842.705048
3282.223896,-9474.636058,-666.185348,459.657299
3282.224233,-9770.718434,-740.205942,2145.067394
3282.224571,-9844.739029,222.061783,2451.505594
3282.224908,-9918.759623,1406.391290,383.047749
3282.225245,-8882.471304,1110.308913,-2298.286494
3282.225582,-9918.759623,1184.329507,-2528.115143
3282.225920,-9474.636058,-518.144159,-1532.190996
3282.226257,-10436.903782,-370.102971,459.657299
3282.226594,-10288.862594,592.164754,1685.410096
3282.226932,-9844.739029,222.061783,-536.266849
3282.227269,-9918.759623,0.000000,-2604.724693
3282.227606,-9548.656652,-2368.659014,-2681.334243
3282.227944,-10214.842000,-3108.864956,612.876398
3282.228281,-11177.109724,-3034.844362,1608.800546
3282.228618,-10807.006753,-1776.494261,536.266849
3282.228956,-10362.883188,-444.123565,-1532.190996
3282.229293,-10881.027347,-1480.411884,-1608.800546
3282.229630,-9770.718434,-2220.617826,-919.314598
3282.229968,-10436.903782,-2812.782580,2451.505594
3282.230305,-11103.089130,-444.123565,3677.258390
3282.230642,-10288.862594,0.000000,1915.238745
3282.230979,-10288.862594,444.123565,919.314598
3282.231317,-9622.677246,-888.247130,0.000000
3282.231654,-9548.656652,-1406.391290,1072.533697
3282.231991,-10510.924376,-1332.370696,3600.648841
3282.232329,-10807.006753,962.267725,2298.286494
3282.232666,-9178.553681,1924.535449,153.219100
3282.233003,-10658.965565,1998.556043,-1991.848295
3282.233341,-9178.553681,1258.350101,-2145.067394
3282.233678,-9770.718434,74.020594,383.047749
3282.234015,-9696.697840,518.144159,1225.752797
3282.234353,-8808.450710,2146.597232,383.047749
3282.234690,-10362.883188,1776.494261,-1149.143247
3282.235027,-9326.594869,666.185348,-2451.505594
3282.235365,-8364.327145,-1332.370696,-1225.752797
3282.235702,-9696.697840,-1406.391290,2374.896044
3282.236039,-10214.842000,-296.082377,2221.676944
3282.236376,-10140.821405,370.102971,0.000000
3282.236714,-10288.862594,1702.473667,-1149.143247
3282.237051,-9918.759623,370.102971,-1762.019645
3282.237388,-10362.883188,444.123565,536.266849
3282.237726,-11547.212695,-74.020594,2068.457845
3282.238063,-10584.944971,370.102971,1685.410096
3282.238400,-9770.718434,888.247130,-536.266849
3282.238738,-9770.718434,-222.061783,-842.705048
3282.239075,-9252.574275,-1110.308913,-689.485948
3282.239412,-10436.903782,-2664.741391,1608.800546
3282.239750,-10732.986159,-814.226536,2145.067394
3282.240087,-10955.047942,-666.185348,-612.876398
3282.240424,-10584.944971,444.123565,-1378.971896
3282.240761,-9844.739029,-888.247130,-2374.896044
3282.241099,-9548.656652,-1998.556043,-995.924147
3282.241436,-9992.780217,-2072.576638,229.828649
3282.241773,-10436.903782,-1702.473667,995.924147
3282.242111,-9844.739029,-1776.494261,459.657299
3282.242448,-9474.636058,-1776.494261,-1608.800546
3282.242785,-9474.636058,-1702.473667,-1685.410096
3282.243123,-9474.636058,-3182.885551,536.266849
3282.243460,-10955.047942,-1850.514855,2681.334243
3282.243797,-10955.047942,-1702.473667,2604.724693
3282.244135,-10214.842000,370.102971,383.047749
3282.244472,-9622.677246,1036.288319,229.828649
3282.244809,-11251.130318,0.000000,1991.848295
3282.245147,-10436.903782,518.144159,2834.553343
3282.245484,-11029.068536,888.247130,3907.087040
3282.245821,-10362.883188,2442.679609,2145.067394
3282.246158,-9252.574275,3182.885551,-612.876398
3282.246496,-9770.718434,1628.453072,-2298.286494
3282.246833,-9178.553681,518.144159,-1455.581446
3282.247170,-8660.409521,0.000000,0.000000
3282.247508,-10066.800811,1332.370696,536.266849
3282.247845,-9548.656652,1258.350101,-766.095498
3282.248182,-9474.636058,1628.453072,-2451.505594
3282.248520,-9326.594869,1110.308913,-2068.457845
3282.248857,-9844.739029,-444.123565,-995.924147
3282.249194,-10732.986159,-1332.370696,1685.410096
3282.249532,-9770.718434,-1258.350101,1762.019645
3282.249869,-8956.491898,-666.185348,76.609550
3282.250206,-8734.430116,-1110.308913,-1532.190996
3282.250544,-9252.574275,-2368.659014,-1302.362347
3282.250881,-10584.944971,-3182.885551,766.095498
3282.251218,-10955.047942,-2146.597232,1838.629195
3282.251555,-10658.965565,0.000000,766.095498
3282.251893,-9992.780217,148.041188,-383.047749
3282.252230,-10658.965565,74.020594,-689.485948
3282.252567,-10140.821405,-1702.473667,536.266849
3282.252905,-11547.212695,-666.185348,2834.553343
3282.253242,-11399.171507,148.041188,2451.505594
3282.253579,-10955.047942,222.061783,1762.019645
3282.253917,-10140.821405,666.185348,-1302.362347
3282.254254,-9474.636058,-740.205942,-2145.067394
3282.254591,-9844.739029,-1702.473667,689.485948
3282.254929,-10955.047942,-1702.473667,1455.581446
3282.255266,-10881.027347,-1110.308913,-229.828649
3282.255603,-9770.718434,666.185348,-1915.238745
3282.255941,-8956.491898,-444.123565,-2221.676944
3282.256278,-9474.636058,-814.226536,0.000000
3282.256615,-10584.944971,-1184.329507,1685.410096
3282.256952,-10436.903782,-222.061783,2604.724693
3282.257290,-10140.821405,592.164754,1685.410096
3282.257627,-9770.718434,444.123565,306.438199
3282.257964,-9104.533087,-740.205942,-612.876398
3282.258302,-9104.533087,-962.267725,1072.533697
3282.258639,-9474.636058,-1258.350101,3983.696590
3282.258976,-10881.027347,518.144159,3140.991542
3282.259314,-10140.821405,2368.659014,459.657299
3282.259651,-9548.656652,2442.679609,-995.924147
3282.259988,-10362.883188,1924.535449,-383.047749
3282.260326,-10658.965565,1554.432478,842.705048
3282.260663,-10658.965565,1258.350101,1072.533697
3282.261000,-9992.780217,814.226536,995.924147
3282.261337,-8956.491898,666.185348,0.000000
3282.261675,-9400.615463,370.102971,-1455.581446
3282.262012,-9770.718434,-1406.391290,-2221.676944
3282.262349,-9474.636058,-2072.576638,-383.047749
3282.262687,-11029.068536,-1480.411884,306.438199
3282.263024,-10214.842000,-814.226536,-2145.067394
3282.263361,-9548.656652,-148.041188,-3447.429741
3282.263699,-9770.718434,-1850.514855,-2451.505594
3282.264036,-9844.739029,-2664.741391,-459.657299
3282.264373,-10510.924376,-2294.638420,1991.848295
3282.264711,-10955.047942,-1702.473667,2068.457845
3282.265048,-9918.759623,-1480.411884,1225.752797
3282.265385,-10584.944971,-1924.535449,-153.219100
3282.265723,-10066.800811,-1850.514855,-689.485948
3282.266060,-9918.759623,-2368.659014,1608.800546
3282.266397,-10436.903782,-2294.638420,3907.087040
3282.266734,-10584.944971,-370.102971,1915.238745
3282.267072,-10288.862594,1332.370696,76.609550
3282.267409,-10214.842000,1184.329507,-689.485948
3282.267746,-10436.903782,148.041188,612.876398
3282.268084,-10658.965565,0.000000,1838.629195
3282.268421,-10658.965565,740.205942,2068.457845
3282.268758,-9622.677246,1924.535449,-306.438199
3282.269096,-10066.800811,1110.308913,-1149.143247
3282.269433,-9918.759623,0.000000,-1608.800546
3282.269770,-8660.409521,-962.267725,-1685.410096
3282.270108,-9326.594869,-888.247130,306.438199
3282.270445,-10214.842000,-518.144159,1302.362347
3282.270782,-9622.677246,74.020594,-459.657299
3282.271120,-9696.697840,1702.473667,-1072.533697
3282.271457,-10140.821405,1406.391290,-459.657299
3282.271794,-9844.739029,0.000000,383.047749
3282.272131,-10955.047942,-444.123565,1685.410096
3282.272469,-9696.697840,740.205942,2528.115143
3282.272806,-9400.615463,222.061783,1378.971896
3282.273143,-8956.491898,0.000000,-689.485948
3282.273481,-9474.636058,-740.205942,-536.266849
3282.273818,-10362.883188,-1406.391290,2145.067394
3282.274155,-10881.027347,0.000000,1838.629195
3282.274493,-10362.883188,1036.288319,306.438199
3282.274830,-10066.800811,1776.494261,-1378.971896
3282.275167,-10140.821405,814.226536,-1685.410096
3282.275505,-9992.780217,0.000000,-536.266849
3282.275842,-10436.903782,-888.247130,1072.533697
3282.276179,-10584.944971,0.000000,1685.410096
3282.276517,-10288.862594,-592.164754,-383.047749
3282.276854,-9400.615463,-1184.329507,-2681.334243
3282.277191,-9548.656652,-3034.844362,-2298.286494
3282.277528,-9770.718434,-3701.029710,-842.705048
3282.277866,-9918.759623,-2516.700203,1991.848295
3282.278203,-10658.965565,-1850.514855,919.314598
3282.278540,-10214.842000,-666.185348,-1149.143247
3282.278878,-9992.780217,222.061783,-766.095498
3282.279215,-9844.739029,-1332.370696,842.705048
3282.279552,-10584.944971,-1480.411884,3907.087040
3282.279890,-11029.068536,0.000000,3370.820191
3282.280227,-10732.986159,1480.411884,2911.162892
3282.280564,-10362.883188,518.144159,0.000000
3282.280902,-9474.636058,444.123565,-1072.533697
3282.281239,-9622.677246,-592.164754,76.609550
3282.281576,-9474.636058,148.041188,1762.019645
3282.281913,-10510.924376,1036.288319,1149.143247
3282.282251,-10214.842000,2738.761985,-1302.362347
3282.282588,-9400.615463,1998.556043,-2528.115143
3282.282925,-9474.636058,2368.659014,-1991.848295
3282.283263,-10436.903782,740.205942,0.000000
3282.283600,-10732.986159,888.247130,919.314598
3282.283937,-9844.739029,444.123565,1532.190996
3282.284275,-9622.677246,148.041188,-76.609550
3282.284612,-8734.430116,-1036.288319,-1991.848295
3282.284949,-8734.430116,-2146.597232,-1838.629195
3282.285287,-9178.553681,-2590.720797,689.485948
3282.285624,-10362.883188,-1332.370696,2221.676944
3282.285961,-10214.842000,-296.082377,0.000000
3282.286299,-10066.800811,148.041188,-1302.362347
3282.286636,-9622.677246,222.061783,-306.438199
3282.286973,-9918.759623,-1036.288319,2068.457845
3282.287310,-11103.089130,-666.185348,3907.087040
3282.287648,-10732.986159,-370.102971,3753.867940
3282.287985,-10362.883188,0.000000,1685.410096
3282.288322,-10140.821405,-444.123565,0.000000
3282.288660,-10288.862594,-1702.473667,-1608.800546
3282.288997,-10436.903782,-1850.514855,306.438199
3282.289334,-10362.883188,-1702.473667,1149.143247
3282.289672,-10584.944971,-370.102971,536.266849
3282.290009,-10214.842000,740.205942,-1378.971896
3282.290346,-10140.821405,370.102971,-2145.067394
3282.290684,-10066.800811,-740.205942,-229.828649
3282.291021,-10362.883188,-1480.411884,1072.533697
3282.291358,-10140.821405,-1036.288319,1762.019645
3282.291696,-9992.780217,-444.123565,1225.752797
3282.292033,-10066.800811,-296.082377,76.609550
3282.292370,-9474.636058,-1702.473667,-2145.067394
3282.292707,-8956.491898,-2664.741391,-383.047749
3282.293045,-9474.636058,-1924.535449,2451.505594
3282.293382,-10362.883188,-1332.370696,2374.896044
3282.293719,-9844.739029,296.082377,-153.219100
3282.294057,-9548.656652,1776.494261,-842.705048
3282.294394,-9696.697840,1776.494261,459.657299
3282.294731,-10214.842000,1184.329507,2374.896044
3282.295069,-11251.130318,888.247130,3447.429741
3282.295406,-9992.780217,1850.514855,1532.190996
3282.295743,-9400.615463,1776.494261,0.000000
3282.296081,-9844.739029,1184.329507,-919.314598
3282.296418,-9474.636058,-666.185348,-2145.067394
3282.296755,-9474.636058,-1258.350101,0.000000
3282.297093,-10362.883188,-740.205942,459.657299
3282.297430,-10066.800811,222.061783,-766.095498
3282.297767,-9474.636058,1258.350101,-2374.896044
3282.298104,-9400.615463,-148.041188,-3370.820191
3282.298442,-9548.656652,-888.247130,-919.314598
3282.298779,-11399.171507,-1406.391290,919.314598
3282.299116,-10807.006753,-518.144159,2374.896044
3282.299454,-9622.677246,-1258.350101,689.485948
3282.299791,-9770.718434,-1554.432478,-1302.362347
3282.300128,-9474.636058,-2886.803174,-1762.019645
3282.300466,-10140.821405,-3552.988522,766.095498
3282.300803,-10214.842000,-2368.659014,2987.772442
3282.301140,-11177.109724,-1776.494261,2298.286494
3282.301478,-10584.944971,814.226536,0.000000
3282.301815,-9918.759623,666.185348,-536.266849
3282.302152,-10362.883188,-296.082377,2298.286494
3282.302490,-10214.842000,-518.144159,3753.867940
3282.302827,-10807.006753,296.082377,3524.039291
3282.303164,-10436.903782,1480.411884,1838.629195
3282.303501,-9770.718434,1850.514855,-995.924147
3282.303839,-9770.718434,0.000000,-1608.800546
3282.304176,-9326.594869,-1036.288319,-1378.971896
3282.304513,-8882.471304,-1258.350101,919.314598
3282.304851,-10362.883188,-296.082377,383.047749
3282.305188,-8956.491898,518.144159,-1838.629195
3282.305525,-9474.636058,1776.494261,-1608.800546
3282.305863,-9548.656652,888.247130,-1378.971896
3282.306200,-9548.656652,0.000000,919.314598
3282.306537,-11177.109724,444.123565,2834.553343
3282.306875,-9918.759623,296.082377,2374.896044
3282.307212,-9178.553681,888.247130,1302.362347
3282.307549,-9622.677246,-592.164754,-612.876398
3282.307887,-9696.697840,-888.247130,0.000000
3282.308224,-10214.842000,-1554.432478,689.485948
3282.308561,-11547.212695,-222.061783,2374.896044
3282.308899,-10436.903782,1110.308913,-153.219100
3282.309236,-9400.615463,1554.432478,-1838.629195
3282.309574,-9474.636058,1776.494261,-1608.800546
3282.309911,-9696.697840,-74.020594,766.095498
3282.310248,-10881.027347,74.020594,2604.724693
3282.310586,-10807.006753,0.000000,2145.067394
3282.310923,-10510.924376,592.164754,689.485948
3282.311260,-9918.759623,-518.144159,-1685.410096
3282.311598,-9030.512492,-1332.370696,-3677.258390
3282.311935,-9400.615463,-2590.720797,-1225.752797
3282.312273,-10658.965565,-2368.659014,0.000000
3282.312610,-10436.903782,-2146.597232,0.000000
3282.312947,-9770.718434,-444.123565,-2681.334243
3282.313285,-9474.636058,-370.102971,-1915.238745
3282.313622,-10066.800811,-1406.391290,1608.800546
3282.313959,-10510.924376,-2368.659014,2757.943793
3282.314297,-10436.903782,-1480.411884,3524.039291
3282.314634,-10955.047942,148.041188,3370.820191
3282.314972,-10584.944971,592.164754,995.924147
3282.315309,-9918.759623,-888.247130,-919.314598
3282.315646,-10214.842000,-1554.432478,766.095498
3282.315984,-9474.636058,-1332.370696,2451.505594
3282.316321,-10066.800811,-296.082377,2911.162892
3282.316658,-10288.862594,1702.473667,766.095498
3282.316996,-9770.718434,1776.494261,-1915.238745
3282.317333,-9844.739029,2294.638420,-612.876398
3282.317671,-9992.780217,888.247130,1455.581446
3282.318008,-10140.821405,74.020594,2145.067394
3282.318345,-9992.780217,1332.370696,1762.019645
3282.318683,-9770.718434,814.226536,0.000000
3282.319020,-9400.615463,592.164754,-2145.067394
3282.319357,-9474.636058,-1998.556043,-2221.676944
3282.319695,-9326.594869,-1998.556043,306.438199
3282.320032,-10288.862594,-2516.700203,612.876398
3282.320370,-10955.047942,-222.061783,0.000000
3282.320707,-9474.636058,222.061783,-2528.115143
3282.321044,-9326.594869,0.000000,-2145.067394
3282.321382,-9178.553681,-1184.329507,995.924147
3282.321719,-10807.006753,-1850.514855,3140.991542
3282.322056,-10807.006753,-1036.288319,3524.039291
3282.322394,-10214.842000,74.020594,1532.190996
3282.322731,-10362.883188,-148.041188,0.000000
3282.323069,-10066.800811,-1184.329507,-1225.752797
3282.323406,-10584.944971,-1332.370696,76.609550
3282.323743,-11251.130318,-1258.350101,2757.943793
3282.324081,-11103.089130,0.000000,612.876398
3282.324418,-9474.636058,1702.473667,-1991.848295
3282.324755,-10362.883188,1036.288319,-3064.381992
3282.325093,-9104.533087,0.000000,-995.924147
3282.325430,-9844.739029,-1702.473667,1532.190996
3282.325768,-10436.903782,-592.164754,3064.381992
3282.326105,-10732.986159,592.164754,1532.190996
3282.326442,-10436.903782,518.144159,-2068.457845
3282.326780,-9770.718434,-814.226536,-3217.601092
3282.327117,-9326.594869,-2442.679609,-536.266849
3282.327454,-10288.862594,-2294.638420,2528.115143
3282.327792,-10140.821405,-1036.288319,1608.800546
3282.328129,-9844.739029,74.020594,-689.485948
3282.328467,-9474.636058,444.123565,-842.705048
3282.328804,-9548.656652,222.061783,0.000000
3282.329141,-9622.677246,-222.061783,2451.505594
3282.329479,-10955.047942,370.102971,3907.087040
3282.329816,-10436.903782,2072.576638,2911.162892
3282.330153,-9548.656652,2072.576638,459.657299
3282.330491,-9104.533087,1998.556043,-459.657299
3282.330828,-9844.739029,-370.102971,-383.047749
3282.331166,-10140.821405,-592.164754,1532.190996
3282.331503,-11769.274478,814.226536,1532.190996
3282.331840,-10658.965565,888.247130,-689.485948
3282.332178,-9104.533087,1480.411884,-2757.943793
3282.332515,-8586.388927,444.123565,-2528.115143
3282.332852,-8586.388927,-1110.308913,-536.266849
3282.333190,-10288.862594,-1258.350101,1072.533697
3282.333527,-11029.068536,-666.185348,2604.724693
3282.333864,-10658.965565,74.020594,919.314598
3282.334202,-9992.780217,-1110.308913,-2374.896044
3282.334539,-9770.718434,-2072.576638,-2221.676944
3282.334877,-9918.759623,-2664.741391,76.609550
3282.335214,-10658.965565,-2886.803174,2068.457845
3282.335551,-10658.965565,-1850.514855,153.219100
3282.335889,-9474.636058,-888.247130,-1991.848295
3282.336226,-9918.759623,0.000000,-1225.752797
3282.336563,-9992.780217,-1776.494261,919.314598
3282.336901,-9474.636058,-1702.473667,3294.210641
3282.337238,-10362.883188,-370.102971,4826.401637
3282.337576,-11029.068536,814.226536,2987.772442
3282.337913,-10362.883188,962.267725,0.000000
3282.338250,-9844.739029,148.041188,-1302.362347
3282.338588,-9918.759623,-888.247130,-306.438199
3282.338925,-10436.903782,-1184.329507,1532.190996
3282.339262,-11325.150913,-592.164754,919.314598
3282.339600,-9178.553681,370.102971,-2145.067394
3282.339937,-8660.409521,888.247130,-2298.286494
3282.340275,-9474.636058,222.061783,-1149.143247
3282.340612,-9992.780217,-370.102971,-76.609550
3282.340949,-10807.006753,740.205942,1915.238745
3282.341287,-10881.027347,962.267725,2068.457845
3282.341624,-10362.883188,1184.329507,383.047749
3282.341961,-9178.553681,814.226536,-689.485948
3282.342299,-8956.491898,-740.205942,0.000000
3282.342636,-10288.862594,-2072.576638,2757.943793
3282.342974,-11251.130318,-888.247130,2604.724693
3282.343311,-9918.759623,1036.288319,153.219100
3282.343648,-9770.718434,1036.288319,-2298.286494
3282.343986,-9252.574275,518.144159,-1685.410096
3282.344323,-9252.574275,-518.144159,766.095498
3282.344660,-9622.677246,148.041188,2298.286494
3282.344998,-9622.677246,1036.288319,1991.848295
3282.345335,-10807.006753,518.144159,689.485948
3282.345673,-10066.800811,740.205942,-2757.943793
3282.346010,-9474.636058,-1036.288319,-2911.162892
3282.346347,-9474.636058,-2294.638420,0.000000
3282.346685,-9844.739029,-2294.638420,612.876398
3282.347022,-10288.862594,-888.247130,-1225.752797
3282.347359,-9548.656652,0.000000,-3677.258390
3282.347697,-9844.739029,-1258.350101,-3370.820191
3282.348034,-10807.006753,-1850.514855,-995.924147
3282.348372,-10436.903782,-2368.659014,2145.067394
3282.348709,-10510.924376,-740.205942,3447.429741
3282.349046,-10881.027347,-222.061783,2987.772442
3282.349384,-10955.047942,-518.144159,306.438199
3282.349721,-9770.718434,-962.267725,-919.314598
3282.350058,-10214.842000,-2664.741391,1762.019645
3282.350396,-11251.130318,-1554.432478,4596.572988
3282.350733,-10955.047942,-222.061783,2374.896044
3282.351071,-9770.718434,1850.514855,-689.485948
3282.351408,-9844.739029,962.267725,-1608.800546
3282.351745,-9696.697840,666.185348,0.000000
3282.352083,-10214.842000,592.164754,2604.724693
3282.352420,-10214.842000,1850.514855,3677.258390
3282.352757,-9844.739029,1924.535449,1762.019645
3282.353095,-9326.594869,2294.638420,0.000000
3282.353432,-9474.636058,1776.494261,-995.924147
3282.353770,-8808.450710,-222.061783,0.000000
3282.354107,-9326.594869,-740.205942,766.095498
3282.354444,-10807.006753,0.000000,-76.609550
3282.354782,-10066.800811,296.082377,-1532.190996
3282.355119,-9030.512492,666.185348,-2451.505594
3282.355456,-9104.533087,-444.123565,-2987.772442
3282.355794,-9622.677246,-814.226536,-1072.533697
3282.356131,-10658.965565,0.000000,1532.190996
3282.356469,-10288.862594,-814.226536,2757.943793
3282.356806,-10066.800811,-518.144159,1225.752797
3282.357143,-10807.006753,-666.185348,383.047749
3282.357481,-8882.471304,-1036.288319,-766.095498
3282.357818,-10510.924376,-2294.638420,995.924147
3282.358155,-11769.274478,-1924.535449,2451.505594
3282.358493,-10584.944971,-814.226536,0.000000
3282.358830,-9474.636058,888.247130,-1685.410096
3282.359168,-9992.780217,222.061783,-2374.896044
3282.359505,-10658.965565,-1406.391290,-1225.752797
3282.359842,-10288.862594,-962.267725,1149.143247
3282.360180,-9844.739029,-592.164754,2451.505594
3282.360517,-9918.759623,0.000000,1838.629195
3282.360854,-10881.027347,-148.041188,-153.219100
3282.361192,-9992.780217,-814.226536,-1838.629195
3282.361529,-9178.553681,-2368.659014,-919.314598
3282.361866,-10066.800811,-2738.761985,842.705048
3282.362204,-10584.944971,-2146.597232,0.000000
3282.362541,-9104.533087,-1554.432478,-1685.410096
3282.362879,-8808.450710,0.000000,-1608.800546
3282.363216,-9918.759623,-1406.391290,0.000000
3282.363553,-9326.594869,-1184.329507,1608.800546
3282.363891,-10732.986159,-592.164754,3753.867940
3282.364228,-11399.171507,814.226536,3217.601092
3282.364565,-9992.780217,1406.391290,2068.457845
3282.364903,-10066.800811,1332.370696,229.828649
3282.365240,-8808.450710,74.020594,153.219100
3282.365578,-8956.491898,-518.144159,2374.896044
3282.365915,-11399.171507,518.144159,2298.286494
3282.366252,-10955.047942,1924.535449,-1532.190996
3282.366590,-9622.677246,3034.844362,-2757.943793
3282.366927,-9992.780217,1110.308913,-1608.800546
3282.367264,-10066.800811,444.123565,-689.485948
3282.367602,-9326.594869,592.164754,383.047749
3282.367939,-9474.636058,740.205942,1532.190996
3282.368277,-9622.677246,0.000000,689.485948
3282.368614,-10362.883188,-148.041188,-2068.457845
3282.368951,-9178.553681,-1480.411884,-2221.676944
3282.369289,-9030.512492,-2516.700203,153.219100
3282.369626,-10584.944971,-2886.803174,1838.629195
3282.369963,-10288.862594,-1406.391290,-612.876398
3282.370301,-8882.471304,-518.144159,-2604.724693
3282.370638,-9548.656652,-1110.308913,-1225.752797
3282.370976,-10288.862594,-1924.535449,229.828649
3282.371313,-10436.903782,-1850.514855,2221.676944
3282.371650,-10807.006753,-370.102971,4060.306139
3282.371988,-10881.027347,666.185348,4060.306139
3282.372325,-11103.089130,740.205942,766.095498
3282.372662,-9696.697840,-296.082377,-689.485948
3282.373000,-10066.800811,-1258.350101,1685.410096
3282.373337,-11177.109724,-814.226536,3447.429741
3282.373675,-11325.150913,74.020594,919.314598
3282.374012,-10066.800811,962.267725,-2145.067394
3282.374349,-9178.553681,1184.329507,-2528.115143
3282.374687,-9696.697840,222.061783,-1225.752797
3282.375024,-10066.800811,-148.041188,766.095498
3282.375361,-9548.656652,370.102971,1455.581446
3282.375699,-9918.759623,1480.411884,1455.581446
3282.376036,-10658.965565,1776.494261,-306.438199
3282.376374,-9770.718434,148.041188,-2145.067394
3282.376711,-8660.409521,-1480.411884,-689.485948
3282.377048,-9030.512492,-2072.576638,2145.067394
3282.377386,-9622.677246,-1258.350101,2221.676944
3282.377723,-9918.759623,74.020594,-229.828649
3282.378060,-9548.656652,222.061783,-1838.629195
3282.378398,-9918.759623,148.041188,-1072.533697
3282.378735,-10436.903782,-296.082377,1838.629195
3282.379073,-10584.944971,592.164754,2451.505594
3282.379410,-10140.821405,1036.288319,3294.210641
3282.379747,-9770.718434,1036.288319,1685.410096
3282.380085,-10288.862594,148.041188,-153.219100
3282.380422,-9326.594869,-740.205942,-995.924147
3282.380759,-10140.821405,-962.267725,153.219100
3282.381097,-11843.295072,-1184.329507,1149.143247
3282.381434,-10658.965565,0.000000,-1608.800546
3282.381772,-8660.409521,222.061783,-3447.429741
3282.382109,-9622.677246,-592.164754,-2604.724693
3282.382446,-9770.718434,-888.247130,-2298.286494
3282.382784,-10584.944971,-1702.473667,0.000000
3282.383121,-10510.924376,-1258.350101,1378.971896
3282.383458,-10140.821405,-814.226536,1072.533697
3282.383796,-10510.924376,-1406.391290,153.219100
3282.384133,-9400.615463,-2072.576638,-2451.505594
3282.384471,-8956.491898,-3330.926739,153.219100
3282.384808,-10955.047942,-2442.679609,3064.381992
3282.385145,-10732.986159,-1850.514855,2145.067394
3282.385483,-9918.759623,-148.041188,0.000000
3282.385820,-9696.697840,370.102971,-689.485948
3282.386157,-10658.965565,222.061783,1072.533697
3282.386495,-10658.965565,0.000000,3064.381992
3282.386832,-10214.842000,148.041188,3983.696590
3282.387170,-10066.800811,1850.514855,3370.820191
3282.387507,-10140.821405,2220.617826,536.266849
3282.387844,-10066.800811,1924.535449,-766.095498
3282.388182,-9474.636058,0.000000,-536.266849
3282.388519,-9252.574275,-592.164754,1685.410096
3282.388856,-9918.759623,0.000000,1072.533697
3282.389194,-9770.718434,666.185348,-1072.533697
3282.389531,-9178.553681,1554.432478,-2528.115143
3282.389868,-9696.697840,222.061783,-2068.457845
3282.390206,-9400.615463,0.000000,-995.924147
3282.390543,-9548.656652,-444.123565,459.657299
3282.390881,-10510.924376,0.000000,2681.334243
3282.391218,-9696.697840,-148.041188,1455.581446
3282.391555,-9474.636058,-370.102971,-766.095498
3282.391893,-8586.388927,-1776.494261,-766.095498
3282.392230,-9548.656652,-1850.514855,689.485948
3282.392567,-11399.171507,-2220.617826,2451.505594
3282.392905,-11843.295072,0.000000,0.000000
3282.393242,-9326.594869,962.267725,-1762.019645
3282.393580,-10362.883188,518.144159,-1302.362347
3282.393917,-10510.924376,-444.123565,0.000000
3282.394254,-10510.924376,-296.082377,1685.410096
3282.394592,-10881.027347,296.082377,3294.210641
3282.394929,-10955.047942,592.164754,1302.362347
3282.395266,-10288.862594,0.000000,-1378.971896
3282.395604,-10362.883188,-370.102971,-1455.581446
3282.395941,-8808.450710,-2368.659014,-995.924147
3282.396279,-10140.821405,-1998.556043,1072.533697
3282.396616,-11103.089130,-888.247130,-153.219100
3282.396953,-9622.677246,-296.082377,-3447.429741
3282.397291,-9104.533087,-296.082377,-2987.772442
3282.397628,-9770.718434,-1850.514855,-1378.971896
3282.397965,-9400.615463,-1998.556043,1685.410096
3282.398303,-10584.944971,-814.226536,3294.210641
3282.398640,-10436.903782,-740.205942,3064.381992
3282.398978,-10288.862594,518.144159,612.876398
3282.399315,-10584.944971,0.000000,919.314598
3282.399652,-9474.636058,0.000000,842.705048
3282.399990,-9548.656652,-1036.288319,2604.724693
3282.400327,-11029.068536,0.000000,3140.991542
3282.400664,-10584.944971,1702.473667,306.438199
3282.401002,-9696.697840,2220.617826,-1378.971896
3282.401339,-9992.780217,1776.494261,-1072.533697
3282.401677,-9400.615463,814.226536,306.438199
3282.402014,-10658.965565,1406.391290,1685.410096
3282.402351,-10214.842000,1998.556043,1608.800546
3282.402689,-9770.718434,1702.473667,306.438199
3282.403026,-9474.636058,1110.308913,-1838.629195
3282.403363,-9104.533087,-222.061783,-1991.848295
3282.403701,-9474.636058,-1924.535449,0.000000
3282.404038,-10436.903782,-1480.411884,0.000000
3282.404376,-9548.656652,-1554.432478,-1225.752797
