#time,accel_x,accel_y,accel_z
3441.194098,-9400.615463,-1628.453072,0.000000
3441.194436,-9548.656652,-1258.350101,383.047749
3441.194774,-9622.677246,-370.102971,0.000000
3441.195111,-9474.636058,-962.267725,229.828649
3441.195449,-9622.677246,-814.226536,766.095498
3441.195787,-11843.295072,-1628.453072,1532.190996
3441.196125,-10214.842000,-444.123565,1532.190996
3441.196462,-10214.842000,0.000000,919.314598
3441.196800,-11177.109724,-740.205942,919.314598
3441.197138,-10658.965565,-1184.329507,383.047749
3441.197475,-10584.944971,-1258.350101,842.705048
3441.197813,-10214.842000,-444.123565,1302.362347
3441.198151,-8956.491898,-296.082377,612.876398
3441.198489,-10881.027347,0.000000,1302.362347
3441.198826,-10955.047942,-1406.391290,229.828649
3441.199164,-10510.924376,-666.185348,306.438199
3441.199502,-9918.759623,-962.267725,766.095498
3441.199839,-9918.759623,-814.226536,689.485948
3441.200177,-10436.903782,-1480.411884,689.485948
3441.200515,-10288.862594,-2960.823768,229.828649
3441.200853,-9474.636058,-2368.659014,842.705048
3441.201190,-8808.450710,-2146.597232,1072.533697
3441.201528,-9844.739029,-1924.535449,2145.067394
3441.201866,-9548.656652,-1998.556043,1072.533697
3441.202203,-10214.842000,-2368.659014,1685.410096
3441.202541,-9770.718434,-1332.370696,3370.820191
3441.202879,-8660.409521,-1480.411884,4443.353888
3441.203217,-10140.821405,-888.247130,5515.887586
3441.203554,-11177.109724,-1258.350101,5362.668486
3441.203892,-11029.068536,-962.267725,4826.401637
3441.204230,-10732.986159,0.000000,4903.011187
3441.204567,-10436.903782,-74.020594,5132.839837
3441.204905,-10214.842000,-592.164754,4136.915689
3441.205243,-9992.780217,-592.164754,1915.238745
3441.205581,-9622.677246,-518.144159,766.095498
3441.205918,-9770.718434,-1776.494261,1302.362347
3441.206256,-8512.368333,-2590.720797,1532.190996
3441.206594,-8882.471304,-2072.576638,1532.190996
3441.206931,-9844.739029,-1628.453072,1532.190996
3441.207269,-10214.842000,-2368.659014,306.438199
3441.207607,-10881.027347,-3478.967927,1072.533697
3441.207945,-9178.553681,-4219.173869,2451.505594
3441.208282,-9104.533087,-4663.297435,2911.162892
3441.208620,-10288.862594,-4441.235652,2604.724693
3441.208958,-10658.965565,-4219.173869,1915.238745
3441.209295,-10658.965565,-4515.256246,1149.143247
3441.209633,-9622.677246,-5699.585753,1072.533697
3441.209971,-9030.512492,-5625.565159,2681.334243
3441.210309,-9622.677246,-5033.400406,4519.963438
3441.210646,-10584.944971,-3701.029710,5056.230287
3441.210984,-11029.068536,-2294.638420,2987.772442
3441.211322,-11399.171507,-888.247130,1991.848295
3441.211660,-11177.109724,-1332.370696,766.095498
3441.211997,-10732.986159,-1480.411884,919.314598
3441.212335,-9992.780217,-2516.700203,1378.971896
3441.212673,-9622.677246,-2072.576638,2221.676944
3441.213010,-9844.739029,-2738.761985,2221.676944
3441.213348,-10658.965565,-2442.679609,2221.676944
3441.213686,-9992.780217,-3108.864956,1532.190996
3441.214024,-8882.471304,-2220.617826,2681.334243
3441.214361,-9548.656652,-1776.494261,3217.601092
3441.214699,-10807.006753,-740.205942,2145.067394
3441.215037,-10066.800811,0.000000,612.876398
3441.215374,-9992.780217,444.123565,0.000000
3441.215712,-10140.821405,-1258.350101,766.095498
3441.216050,-10436.903782,-2294.638420,1302.362347
3441.216388,-8734.430116,-3108.864956,2221.676944
3441.216725,-7105.977043,-1850.514855,3830.477490
3441.217063,-8882.471304,-2368.659014,4979.620737
3441.217401,-11177.109724,-2294.638420,5898.935335
3441.217738,-10732.986159,-1628.453072,4366.744339
3441.218076,-10214.842000,1184.329507,3983.696590
3441.218414,-10955.047942,2220.617826,2451.505594
3441.218752,-11695.253884,2368.659014,1762.019645
3441.219089,-10584.944971,-296.082377,842.705048
3441.219427,-7994.224174,-2368.659014,1225.752797
3441.219765,-8142.265362,-1628.453072,4290.134789
3441.220102,-10807.006753,-3330.926739,5822.325785
3441.220440,-12065.356855,-3256.906145,2987.772442
3441.220778,-9844.739029,-2442.679609,-689.485948
3441.221116,-8364.327145,-1924.535449,153.219100
3441.221453,-9844.739029,-2516.700203,1378.971896
3441.221791,-9696.697840,-2960.823768,766.095498
3441.222129,-9326.594869,-3108.864956,1149.143247
3441.222466,-10732.986159,-3627.009116,1762.019645
3441.222804,-11843.295072,-3404.947333,2068.457845
3441.223142,-11695.253884,-3997.112087,1991.848295
3441.223480,-9622.677246,-5181.441594,1991.848295
3441.223817,-8364.327145,-6365.771101,3064.381992
3441.224155,-8660.409521,-4959.379811,4826.401637
3441.224493,-9770.718434,-3627.009116,6358.592633
3441.224830,-11769.274478,-2368.659014,4903.011187
3441.225168,-12953.603985,-888.247130,2681.334243
3441.225506,-12139.377449,0.000000,1532.190996
3441.225844,-10362.883188,-740.205942,2451.505594
3441.226181,-9918.759623,-1850.514855,4213.525239
3441.226519,-9178.553681,-1406.391290,2604.724693
3441.226857,-7994.224174,-962.267725,1149.143247
3441.227195,-9844.739029,-1850.514855,1608.800546
3441.227532,-10807.006753,-2812.782580,1991.848295
3441.227870,-8586.388927,-3330.926739,2911.162892
3441.228208,-8734.430116,-2294.638420,4826.401637
3441.228545,-9252.574275,222.061783,3600.648841
3441.228883,-10881.027347,296.082377,153.219100
3441.229221,-11399.171507,0.000000,-1378.971896
3441.229559,-10510.924376,-1776.494261,-766.095498
3441.229896,-10066.800811,-2442.679609,1072.533697
3441.230234,-8364.327145,-2368.659014,1838.629195
3441.230572,-7476.080014,-3849.070898,2374.896044
3441.230909,-8142.265362,-4589.276840,2604.724693
3441.231247,-8882.471304,-6217.729913,4673.182538
3441.231585,-10658.965565,-3997.112087,5669.106685
3441.231923,-10881.027347,-814.226536,4979.620737
3441.232260,-12065.356855,296.082377,2681.334243
3441.232598,-13471.748144,-666.185348,1378.971896
3441.232936,-11547.212695,-2886.803174,689.485948
3441.233273,-9474.636058,-3108.864956,2834.553343
3441.233611,-7031.956449,-2960.823768,2834.553343
3441.233949,-8364.327145,-2664.741391,2604.724693
3441.234287,-13027.624579,-5329.482782,1302.362347
3441.234624,-10140.821405,-4811.338623,-612.876398
3441.234962,-6883.915261,-4071.132681,306.438199
3441.235300,-8882.471304,-2664.741391,3524.039291
3441.235637,-12139.377449,-2812.782580,2145.067394
3441.235975,-11917.315666,-3034.844362,-536.266849
3441.236313,-8956.491898,-2220.617826,229.828649
3441.236651,-9474.636058,-2960.823768,3907.087040
3441.236988,-13471.748144,-4515.256246,5592.497135
3441.237326,-12213.398043,-3997.112087,1532.190996
3441.237664,-7550.100608,-4515.256246,1225.752797
3441.238001,-7328.038826,-3627.009116,3830.477490
3441.238339,-8808.450710,-4441.235652,4290.134789
3441.238677,-10955.047942,-2072.576638,3217.601092
3441.239015,-8808.450710,-518.144159,2068.457845
3441.239352,-9474.636058,444.123565,4519.963438
3441.239690,-13397.727550,1036.288319,4673.182538
3441.240028,-11917.315666,1184.329507,3370.820191
3441.240365,-9252.574275,1776.494261,3064.381992
3441.240703,-9548.656652,222.061783,3140.991542
3441.241041,-10584.944971,296.082377,2451.505594
3441.241379,-8290.306550,-1332.370696,2068.457845
3441.241716,-7624.121203,-2294.638420,5439.278036
3441.242054,-9844.739029,-2590.720797,4366.744339
3441.242392,-9844.739029,-1480.411884,459.657299
3441.242730,-10214.842000,1036.288319,766.095498
3441.243067,-10362.883188,-370.102971,1455.581446
3441.243405,-10362.883188,-1702.473667,842.705048
3441.243743,-9622.677246,-1850.514855,995.924147
3441.244080,-10658.965565,-1258.350101,3753.867940
3441.244418,-11399.171507,-3256.906145,1685.410096
3441.244756,-9548.656652,-4441.235652,306.438199
3441.245094,-9400.615463,-5403.503377,2145.067394
3441.245431,-7920.203579,-5329.482782,2987.772442
3441.245769,-8734.430116,-5255.462188,3907.087040
3441.246107,-10807.006753,-3108.864956,3753.867940
3441.246444,-11547.212695,-2886.803174,2604.724693
3441.246782,-12361.439231,-2442.679609,2987.772442
3441.247120,-11917.315666,-1850.514855,3600.648841
3441.247458,-11547.212695,-1998.556043,2451.505594
3441.247795,-10362.883188,-2886.803174,1762.019645
3441.248133,-8808.450710,-2738.761985,1608.800546
3441.248471,-9104.533087,-3108.864956,1149.143247
3441.248808,-10066.800811,-4441.235652,842.705048
3441.249146,-9918.759623,-4737.318029,766.095498
3441.249483,-9252.574275,-4441.235652,1685.410096
3441.249820,-9104.533087,-3552.988522,1455.581446
3441.250158,-9474.636058,-3256.906145,1225.752797
3441.250495,-9474.636058,-2368.659014,2451.505594
3441.250833,-10658.965565,-1184.329507,1838.629195
3441.251170,-11251.130318,-888.247130,1072.533697
3441.251507,-11251.130318,-1702.473667,1915.238745
3441.251845,-10807.006753,-3108.864956,3447.429741
3441.252182,-8956.491898,-2220.617826,3753.867940
3441.252520,-8290.306550,-2072.576638,3524.039291
3441.252857,-8734.430116,-814.226536,2911.162892
3441.253195,-8660.409521,-2072.576638,1532.190996
3441.253532,-9474.636058,-1332.370696,3064.381992
3441.253869,-9992.780217,74.020594,4673.182538
3441.254207,-10584.944971,2072.576638,4443.353888
3441.254544,-12509.480420,2442.679609,2451.505594
3441.254882,-12435.459826,1332.370696,0.000000
3441.255219,-10436.903782,-1110.308913,766.095498
3441.255556,-8808.450710,-962.267725,3600.648841
3441.255894,-7772.162391,-1628.453072,3907.087040
3441.256231,-8808.450710,-2886.803174,2681.334243
3441.256569,-9844.739029,-2294.638420,766.095498
3441.256906,-10288.862594,-2812.782580,-536.266849
3441.257244,-10362.883188,-3997.112087,-612.876398
3441.257581,-8734.430116,-3404.947333,1608.800546
3441.257918,-11103.089130,-2516.700203,1149.143247
3441.258256,-10955.047942,-1036.288319,-612.876398
3441.258593,-10066.800811,-2294.638420,-612.876398
3441.258931,-12435.459826,-4811.338623,2221.676944
3441.259268,-10955.047942,-4441.235652,3294.210641
3441.259605,-9178.553681,-3775.050304,3217.601092
3441.259943,-9622.677246,-2590.720797,4213.525239
3441.260280,-8956.491898,-3404.947333,2911.162892
3441.260618,-11547.212695,-4737.318029,3370.820191
3441.260955,-11695.253884,-2738.761985,3140.991542
3441.261293,-9474.636058,-1480.411884,2451.505594
3441.261630,-11103.089130,1554.432478,2068.457845
3441.261967,-10807.006753,888.247130,0.000000
3441.262305,-10436.903782,-296.082377,612.876398
3441.262642,-10658.965565,-740.205942,766.095498
3441.262980,-7031.956449,-592.164754,689.485948
3441.263317,-10066.800811,-592.164754,1532.190996
3441.263654,-10955.047942,-222.061783,1149.143247
3441.263992,-9474.636058,-1628.453072,-536.266849
3441.264329,-8216.285956,518.144159,-153.219100
3441.264667,-7698.141797,1110.308913,76.609550
3441.265004,-10881.027347,148.041188,0.000000
3441.265342,-11769.274478,518.144159,-1149.143247
3441.265679,-10066.800811,370.102971,-1608.800546
3441.266016,-9992.780217,1776.494261,-76.609550
3441.266354,-8882.471304,1184.329507,536.266849
3441.266691,-9696.697840,222.061783,0.000000
3441.267029,-9178.553681,-1184.329507,-612.876398
3441.267366,-9326.594869,-740.205942,229.828649
3441.267703,-10288.862594,1110.308913,2145.067394
3441.268041,-11473.192101,2072.576638,919.314598
3441.268378,-12435.459826,1184.329507,-1915.238745
3441.268716,-10436.903782,0.000000,-2757.943793
3441.269053,-9178.553681,148.041188,-536.266849
3441.269391,-9252.574275,1628.453072,383.047749
3441.269728,-10436.903782,444.123565,-612.876398
3441.270065,-11843.295072,-1628.453072,-1302.362347
3441.270403,-12139.377449,-3701.029710,-1302.362347
3441.270740,-9474.636058,-1702.473667,76.609550
3441.271078,-7328.038826,-1406.391290,-536.266849
3441.271415,-8216.285956,-1924.535449,-1225.752797
3441.271752,-9844.739029,-3404.947333,-2681.334243
3441.272090,-11399.171507,-3552.988522,-2374.896044
3441.272427,-11029.068536,-2442.679609,995.924147
3441.272765,-9770.718434,-1110.308913,1762.019645
3441.273102,-9770.718434,-888.247130,2374.896044
3441.273440,-10436.903782,-2738.761985,1532.190996
3441.273777,-10807.006753,-3182.885551,2145.067394
3441.274114,-10140.821405,-1554.432478,3983.696590
3441.274452,-8438.347739,-1184.329507,3524.039291
3441.274789,-9918.759623,-888.247130,3370.820191
3441.275127,-11473.192101,222.061783,1608.800546
3441.275464,-9622.677246,1850.514855,1991.848295
3441.275801,-9770.718434,2442.679609,2298.286494
3441.276139,-9548.656652,2146.597232,2987.772442
3441.276476,-11325.150913,1850.514855,2528.115143
3441.276814,-12065.356855,2072.576638,1072.533697
3441.277151,-10066.800811,2072.576638,919.314598
3441.277489,-9104.533087,2886.803174,0.000000
3441.277826,-8364.327145,2146.597232,-1455.581446
3441.278163,-8068.244768,0.000000,-1991.848295
3441.278501,-9622.677246,-962.267725,-995.924147
3441.278838,-8142.265362,0.000000,-842.705048
3441.279176,-9400.615463,814.226536,0.000000
3441.279513,-12213.398043,592.164754,612.876398
3441.279850,-12213.398043,-1036.288319,-1072.533697
3441.280188,-10140.821405,-74.020594,-2298.286494
3441.280525,-8068.244768,-1332.370696,-689.485948
3441.280863,-9178.553681,-2072.576638,2068.457845
3441.281200,-11177.109724,-3627.009116,1915.238745
3441.281538,-12065.356855,-3849.070898,-612.876398
3441.281875,-9104.533087,-1036.288319,-689.485948
3441.282212,-8364.327145,962.267725,383.047749
3441.282550,-11399.171507,-444.123565,-383.047749
3441.282887,-11251.130318,-2220.617826,-1838.629195
3441.283225,-10955.047942,-1258.350101,-1915.238745
3441.283562,-9252.574275,-444.123565,-459.657299
3441.283899,-10584.944971,-1036.288319,-1302.362347
3441.284237,-11251.130318,-2146.597232,-2145.067394
3441.284574,-9622.677246,-3849.070898,-842.705048
3441.284912,-7920.203579,-2220.617826,-766.095498
3441.285249,-7772.162391,-740.205942,612.876398
3441.285587,-10066.800811,-370.102971,-536.266849
3441.285924,-12657.521608,-2368.659014,-842.705048
3441.286261,-12435.459826,-2146.597232,612.876398
3441.286599,-8882.471304,888.247130,0.000000
3441.286936,-8364.327145,2072.576638,76.609550
3441.287274,-9844.739029,0.000000,-612.876398
3441.287611,-9696.697840,-1258.350101,-76.609550
3441.287948,-9326.594869,-222.061783,1685.410096
3441.288286,-8586.388927,1924.535449,4213.525239
3441.288623,-11251.130318,2812.782580,4136.915689
3441.288961,-12657.521608,2738.761985,919.314598
3441.289298,-11251.130318,2294.638420,689.485948
3441.289636,-9548.656652,2368.659014,2374.896044
3441.289973,-8586.388927,3552.988522,2681.334243
3441.290310,-8956.491898,2738.761985,1455.581446
3441.290648,-10510.924376,1406.391290,76.609550
3441.290985,-11029.068536,962.267725,-306.438199
3441.291323,-9548.656652,1702.473667,-153.219100
3441.291660,-8068.244768,74.020594,-306.438199
3441.291997,-10732.986159,-592.164754,-842.705048
3441.292335,-9844.739029,-1924.535449,-2528.115143
3441.292672,-6957.935855,-1850.514855,-2834.553343
3441.293010,-7254.018232,-740.205942,919.314598
3441.293347,-9918.759623,-1480.411884,1915.238745
3441.293685,-13101.645173,-2294.638420,229.828649
3441.294022,-12879.583391,-2442.679609,-995.924147
3441.294359,-11473.192101,-2442.679609,1072.533697
3441.294697,-9400.615463,-2590.720797,2757.943793
3441.295034,-9104.533087,-3108.864956,3217.601092
3441.295372,-10362.883188,-2812.782580,2374.896044
3441.295709,-9474.636058,-2590.720797,612.876398
3441.296046,-10066.800811,-888.247130,1149.143247
3441.296384,-13027.624579,-888.247130,1762.019645
3441.296721,-12879.583391,-1628.453072,1378.971896
3441.297059,-10510.924376,-1998.556043,-76.609550
3441.297396,-8216.285956,74.020594,-1149.143247
3441.297734,-6291.750507,2368.659014,0.000000
3441.298071,-10510.924376,666.185348,0.000000
3441.298408,-11695.253884,-888.247130,-1685.410096
3441.298746,-11621.233289,-1776.494261,-919.314598
3441.299083,-10288.862594,74.020594,1302.362347
3441.299421,-9030.512492,518.144159,229.828649
3441.299758,-9400.615463,518.144159,-1072.533697
3441.300095,-7550.100608,-148.041188,-2068.457845
3441.300433,-7698.141797,-1036.288319,-1149.143247
3441.300770,-9696.697840,740.205942,1225.752797
3441.301108,-11621.233289,1480.411884,-229.828649
3441.301445,-11473.192101,1702.473667,-1762.019645
3441.301783,-10510.924376,0.000000,-1685.410096
3441.302120,-8660.409521,222.061783,766.095498
3441.302457,-8290.306550,1554.432478,2221.676944
3441.302795,-9400.615463,666.185348,612.876398
3441.303132,-10807.006753,1110.308913,-766.095498
3441.303470,-11695.253884,0.000000,-306.438199
3441.303807,-11473.192101,-666.185348,919.314598
3441.304144,-10140.821405,0.000000,2451.505594
3441.304482,-8290.306550,-666.185348,1072.533697
3441.304819,-9622.677246,0.000000,919.314598
3441.305157,-10732.986159,0.000000,-153.219100
3441.305494,-10140.821405,962.267725,-1072.533697
3441.305832,-11325.150913,-666.185348,-766.095498
3441.306169,-11843.295072,-1850.514855,-1225.752797
3441.306506,-9104.533087,-2442.679609,-1302.362347
3441.306844,-8068.244768,-2664.741391,842.705048
3441.307181,-7328.038826,-3034.844362,1915.238745
3441.307519,-9918.759623,-2516.700203,1455.581446
3441.307856,-11769.274478,-1850.514855,383.047749
3441.308193,-11843.295072,-2072.576638,919.314598
3441.308531,-10362.883188,-1184.329507,2374.896044
3441.308868,-9474.636058,-888.247130,3907.087040
3441.309206,-9400.615463,-740.205942,3524.039291
3441.309543,-9326.594869,-814.226536,2757.943793
3441.309881,-10584.944971,-592.164754,2987.772442
3441.310218,-11399.171507,814.226536,1991.848295
3441.310555,-10140.821405,2664.741391,612.876398
3441.310893,-9696.697840,2146.597232,1072.533697
3441.311230,-10288.862594,518.144159,766.095498
3441.311568,-9178.553681,1702.473667,-459.657299
3441.311905,-8290.306550,2886.803174,459.657299
3441.312242,-9400.615463,1702.473667,536.266849
3441.312580,-12065.356855,518.144159,229.828649
3441.312917,-11399.171507,2146.597232,-1225.752797
3441.313255,-9474.636058,2590.720797,-995.924147
3441.313592,-8808.450710,2072.576638,-1302.362347
3441.313930,-9696.697840,1036.288319,-2298.286494
3441.314267,-9326.594869,-814.226536,-2757.943793
3441.314604,-9474.636058,-1036.288319,-995.924147
3441.314942,-10214.842000,-518.144159,-689.485948
3441.315279,-11547.212695,518.144159,-1532.190996
3441.315617,-11177.109724,222.061783,-2451.505594
3441.315954,-9918.759623,-1480.411884,-1838.629195
3441.316291,-8512.368333,-1036.288319,-612.876398
3441.316629,-8216.285956,0.000000,842.705048
3441.316966,-11473.192101,-740.205942,1838.629195
3441.317304,-11621.233289,-962.267725,153.219100
3441.317641,-10732.986159,-2146.597232,0.000000
3441.317979,-10436.903782,-1480.411884,459.657299
3441.318316,-7846.182985,-296.082377,995.924147
3441.318653,-8734.430116,-1332.370696,1149.143247
3441.318991,-10214.842000,-1924.535449,1455.581446
3441.319328,-10658.965565,-1480.411884,459.657299
3441.319666,-11843.295072,-666.185348,1455.581446
3441.320003,-11251.130318,-740.205942,306.438199
3441.320340,-9918.759623,-962.267725,-689.485948
3441.320678,-9474.636058,-1110.308913,-1072.533697
3441.321015,-7846.182985,-666.185348,-995.924147
3441.321353,-7550.100608,-1184.329507,-612.876398
3441.321690,-10436.903782,-1036.288319,383.047749
3441.322028,-11621.233289,-1184.329507,842.705048
3441.322365,-12139.377449,-1184.329507,2068.457845
3441.322702,-10955.047942,2072.576638,2528.115143
3441.323040,-9548.656652,814.226536,2145.067394
3441.323377,-10584.944971,444.123565,2145.067394
3441.323715,-10658.965565,0.000000,2681.334243
3441.324052,-10881.027347,0.000000,2757.943793
3441.324389,-8956.491898,518.144159,2681.334243
3441.324727,-8956.491898,962.267725,4673.182538
3441.325064,-10362.883188,962.267725,3753.867940
3441.325402,-9622.677246,2220.617826,306.438199
3441.325739,-8660.409521,1776.494261,-612.876398
3441.326077,-9474.636058,3627.009116,-919.314598
3441.326414,-11251.130318,1924.535449,-2451.505594
3441.326751,-10658.965565,666.185348,-2374.896044
3441.327089,-8364.327145,-518.144159,-1915.238745
3441.327426,-7920.203579,-888.247130,229.828649
3441.327764,-9252.574275,-1036.288319,0.000000
3441.328101,-9400.615463,-2368.659014,-153.219100
3441.328438,-10140.821405,-3627.009116,1532.190996
3441.328776,-12583.501014,-2442.679609,995.924147
3441.329113,-11029.068536,222.061783,0.000000
3441.329451,-9992.780217,-518.144159,-1532.190996
3441.329788,-10658.965565,-2146.597232,-2298.286494
3441.330126,-9030.512492,-3404.947333,-2374.896044
3441.330463,-9252.574275,-1406.391290,-995.924147
3441.330800,-9400.615463,0.000000,383.047749
3441.331138,-11399.171507,-592.164754,153.219100
3441.331475,-12805.562797,-148.041188,0.000000
3441.331813,-11473.192101,-740.205942,-766.095498
3441.332150,-9030.512492,740.205942,1455.581446
3441.332487,-9548.656652,0.000000,2298.286494
3441.332825,-11177.109724,-1480.411884,2221.676944
3441.333162,-11621.233289,-740.205942,1915.238745
3441.333500,-10732.986159,1850.514855,766.095498
3441.333837,-9622.677246,1850.514855,-536.266849
3441.334175,-10140.821405,1480.411884,-1378.971896
3441.334512,-10140.821405,370.102971,-1991.848295
3441.334849,-8956.491898,-666.185348,-1302.362347
3441.335187,-7031.956449,0.000000,-536.266849
3441.335524,-8068.244768,1036.288319,459.657299
3441.335862,-11843.295072,444.123565,612.876398
3441.336199,-9992.780217,-74.020594,-766.095498
3441.336536,-8364.327145,666.185348,229.828649
3441.336874,-9622.677246,1332.370696,2451.505594
3441.337211,-9400.615463,1184.329507,1608.800546
3441.337549,-10510.924376,370.102971,1072.533697
3441.337886,-10288.862594,592.164754,1302.362347
3441.338224,-10732.986159,-222.061783,2528.115143
3441.338561,-10807.006753,1480.411884,2528.115143
3441.338898,-8734.430116,2368.659014,842.705048
3441.339236,-10510.924376,1628.453072,0.000000
3441.339573,-10732.986159,814.226536,-612.876398
3441.339911,-10066.800811,1110.308913,-842.705048
3441.340248,-9844.739029,1850.514855,0.000000
3441.340585,-9696.697840,888.247130,-306.438199
3441.340923,-11103.089130,-444.123565,76.609550
3441.341260,-11029.068536,-2146.597232,0.000000
3441.341598,-8734.430116,-814.226536,995.924147
3441.341935,-9178.553681,148.041188,536.266849
3441.342273,-10584.944971,-1850.514855,-306.438199
3441.342610,-11029.068536,-4441.235652,-1532.190996
3441.342947,-9992.780217,-2960.823768,-995.924147
3441.343285,-8290.306550,-1332.370696,0.000000
3441.343622,-9400.615463,-2516.700203,76.609550
3441.343960,-10288.862594,-3923.091493,-766.095498
3441.344297,-9622.677246,-3404.947333,-919.314598
3441.344634,-8438.347739,-222.061783,612.876398
3441.344972,-9104.533087,0.000000,1378.971896
3441.345309,-12435.459826,-1184.329507,919.314598
3441.345647,-12213.398043,-1406.391290,612.876398
3441.345984,-10510.924376,0.000000,1225.752797
3441.346322,-9474.636058,1406.391290,1915.238745
3441.346659,-9992.780217,2220.617826,1149.143247
3441.346996,-10732.986159,962.267725,0.000000
3441.347334,-12139.377449,518.144159,0.000000
3441.347671,-10807.006753,2072.576638,-919.314598
3441.348009,-9474.636058,3034.844362,-919.314598
3441.348346,-9326.594869,2146.597232,-1762.019645
3441.348683,-10066.800811,592.164754,-1762.019645
3441.349021,-8808.450710,666.185348,-1608.800546
3441.349358,-8364.327145,1924.535449,-306.438199
3441.349696,-9844.739029,1924.535449,383.047749
3441.350033,-11695.253884,-74.020594,-1302.362347
3441.350370,-11843.295072,-1110.308913,-229.828649
3441.350708,-9104.533087,-1554.432478,76.609550
3441.351045,-6957.935855,-1332.370696,2987.772442
3441.351383,-7179.997637,-666.185348,2374.896044
3441.351720,-9252.574275,-2072.576638,536.266849
3441.352057,-9992.780217,-2294.638420,-689.485948
3441.352395,-9770.718434,-1628.453072,229.828649
3441.352732,-9030.512492,148.041188,1455.581446
3441.353069,-10584.944971,444.123565,2221.676944
3441.353407,-10362.883188,-370.102971,919.314598
3441.353744,-10066.800811,-1554.432478,842.705048
3441.354082,-9622.677246,-222.061783,1608.800546
3441.354419,-10066.800811,148.041188,2528.115143
3441.354756,-12953.603985,-296.082377,1378.971896
3441.355094,-12805.562797,-2516.700203,-766.095498
3441.355431,-10066.800811,-1628.453072,-459.657299
3441.355768,-7105.977043,740.205942,0.000000
3441.356106,-8734.430116,1776.494261,-383.047749
3441.356443,-12953.603985,-444.123565,-2068.457845
3441.356780,-13323.706956,-1702.473667,-2681.334243
3441.357118,-9844.739029,-1036.288319,-995.924147
3441.357455,-9992.780217,-370.102971,1915.238745
3441.357793,-10732.986159,1036.288319,1225.752797
3441.358130,-10066.800811,-1776.494261,229.828649
3441.358467,-9474.636058,-2664.741391,2068.457845
3441.358805,-7994.224174,-962.267725,4136.915689
3441.359142,-9252.574275,888.247130,5286.058936
3441.359479,-12287.418637,962.267725,1532.190996
3441.359817,-11843.295072,666.185348,-1991.848295
3441.360154,-9178.553681,1850.514855,-2451.505594
3441.360492,-5995.668130,2294.638420,-612.876398
3441.360829,-6069.688724,3404.947333,1302.362347
3441.361166,-9474.636058,814.226536,-919.314598
3441.361504,-11325.150913,962.267725,-3600.648841
3441.361841,-10955.047942,962.267725,-2987.772442
3441.362178,-9474.636058,2146.597232,0.000000
3441.362516,-9474.636058,-888.247130,306.438199
3441.362853,-9474.636058,-2146.597232,-306.438199
3441.363191,-7920.203579,-1480.411884,-919.314598
3441.363528,-8216.285956,-296.082377,-306.438199
3441.363865,-10362.883188,-592.164754,-919.314598
3441.364203,-13101.645173,-1776.494261,-2221.676944
3441.364540,-12731.542202,-1258.350101,-2681.334243
3441.364877,-9770.718434,-296.082377,-2604.724693
3441.365215,-9104.533087,-1184.329507,612.876398
3441.365552,-9326.594869,-444.123565,842.705048
3441.365890,-10881.027347,-2368.659014,0.000000
3441.366227,-12509.480420,-2886.803174,1608.800546
3441.366564,-12731.542202,-888.247130,1532.190996
3441.366902,-11473.192101,222.061783,2528.115143
3441.367239,-10807.006753,370.102971,1608.800546
3441.367576,-8586.388927,-592.164754,1302.362347
3441.367914,-9696.697840,-1184.329507,2451.505594
3441.368251,-9326.594869,-1258.350101,2528.115143
3441.368588,-10362.883188,-370.102971,2451.505594
3441.368926,-11621.233289,148.041188,383.047749
3441.369263,-8586.388927,-370.102971,-1302.362347
3441.369601,-6957.935855,-962.267725,-766.095498
3441.369938,-7328.038826,74.020594,1532.190996
3441.370275,-8438.347739,1184.329507,-306.438199
3441.370613,-10807.006753,0.000000,-1991.848295
3441.370950,-10732.986159,-1184.329507,-1149.143247
3441.371287,-9104.533087,-592.164754,919.314598
3441.371625,-8734.430116,1332.370696,2451.505594
3441.371962,-9918.759623,666.185348,919.314598
3441.372300,-10807.006753,-814.226536,1149.143247
3441.372637,-10140.821405,-1110.308913,1838.629195
3441.372974,-9178.553681,666.185348,3447.429741
3441.373312,-10881.027347,2072.576638,3677.258390
3441.373649,-12953.603985,1776.494261,1149.143247
3441.373986,-13175.665768,1332.370696,-1225.752797
3441.374324,-9844.739029,1036.288319,-1991.848295
3441.374661,-7550.100608,1332.370696,306.438199
3441.374999,-7402.059420,592.164754,459.657299
3441.375336,-11325.150913,-740.205942,153.219100
3441.375673,-12065.356855,-1258.350101,-689.485948
3441.376011,-11029.068536,-518.144159,-1225.752797
3441.376348,-7846.182985,0.000000,-995.924147
3441.376685,-8882.471304,-1554.432478,0.000000
3441.377023,-9696.697840,-2960.823768,-1072.533697
3441.377360,-10066.800811,-2664.741391,-1378.971896
3441.377698,-9918.759623,-1702.473667,-1838.629195
3441.378035,-9178.553681,-1036.288319,-1378.971896
3441.378372,-9844.739029,-2220.617826,-3064.381992
3441.378710,-10214.842000,-2960.823768,-2145.067394
3441.379047,-9548.656652,-2886.803174,-1225.752797
3441.379384,-8216.285956,-1850.514855,-306.438199
3441.379722,-9918.759623,-1258.350101,1149.143247
3441.380059,-11547.212695,-1332.370696,689.485948
3441.380396,-12139.377449,-444.123565,1149.143247
3441.380734,-11473.192101,0.000000,1149.143247
3441.381071,-10881.027347,222.061783,3064.381992
3441.381409,-10288.862594,2294.638420,2451.505594
3441.381746,-11029.068536,888.247130,1915.238745
3441.382083,-11399.171507,592.164754,612.876398
3441.382421,-9992.780217,1110.308913,459.657299
3441.382758,-9844.739029,2664.741391,995.924147
3441.383095,-10955.047942,1924.535449,-536.266849
3441.383433,-10214.842000,666.185348,-1378.971896
3441.383770,-8808.450710,518.144159,-995.924147
3441.384108,-8216.285956,1480.411884,0.000000
3441.384445,-8586.388927,1332.370696,153.219100
3441.384782,-11251.130318,1184.329507,229.828649
3441.385120,-10658.965565,-740.205942,0.000000
3441.385457,-8660.409521,-740.205942,306.438199
3441.385794,-7920.203579,-888.247130,2528.115143
3441.386132,-7772.162391,-1850.514855,2298.286494
3441.386469,-9918.759623,-2664.741391,995.924147
3441.386807,-9178.553681,-2220.617826,919.314598
3441.387144,-7994.224174,-1628.453072,2451.505594
3441.387481,-9548.656652,444.123565,2987.772442
3441.387819,-11473.192101,0.000000,1302.362347
3441.388156,-11769.274478,0.000000,459.657299
3441.388493,-11769.274478,-962.267725,1149.143247
3441.388831,-10362.883188,-370.102971,1149.143247
3441.389168,-9548.656652,1184.329507,1072.533697
3441.389506,-10140.821405,-962.267725,-612.876398
3441.389843,-11029.068536,-1702.473667,-842.705048
3441.390180,-10732.986159,0.000000,-1762.019645
3441.390518,-11251.130318,666.185348,-459.657299
3441.390855,-12139.377449,-962.267725,-689.485948
3441.391192,-11547.212695,-2294.638420,-2221.676944
3441.391530,-10436.903782,-1258.350101,-1991.848295
3441.391867,-8882.471304,-1480.411884,-919.314598
3441.392204,-7550.100608,-2072.576638,459.657299
3441.392542,-10658.965565,-3404.947333,383.047749
3441.392879,-11399.171507,-2442.679609,-306.438199
3441.393217,-10510.924376,-1776.494261,-383.047749
3441.393554,-9030.512492,-1110.308913,536.266849
3441.393891,-8290.306550,-2146.597232,-612.876398
3441.394229,-8438.347739,-2072.576638,-766.095498
3441.394566,-8068.244768,-1258.350101,-229.828649
3441.394903,-7846.182985,296.082377,689.485948
3441.395241,-9400.615463,222.061783,1608.800546
3441.395578,-10732.986159,1628.453072,459.657299
3441.395916,-12435.459826,1036.288319,766.095498
3441.396253,-10732.986159,1702.473667,536.266849
3441.396590,-8882.471304,1628.453072,919.314598
3441.396928,-10214.842000,2220.617826,2987.772442
3441.397265,-11547.212695,962.267725,1302.362347
3441.397602,-11991.336260,0.000000,536.266849
3441.397940,-12213.398043,740.205942,0.000000
3441.398277,-9696.697840,1776.494261,-995.924147
3441.398615,-9178.553681,1998.556043,-2451.505594
3441.398952,-9844.739029,-222.061783,-2911.162892
3441.399289,-9844.739029,-444.123565,-1915.238745
3441.399627,-9696.697840,-1184.329507,-536.266849
3441.399964,-9104.533087,0.000000,842.705048
3441.400301,-9918.759623,-1110.308913,612.876398
3441.400639,-10732.986159,-2442.679609,689.485948
3441.400976,-9622.677246,-2960.823768,1149.143247
3441.401314,-8660.409521,-1998.556043,3370.820191
3441.401651,-9474.636058,-888.247130,4596.572988
3441.401988,-10807.006753,-2368.659014,1302.362347
3441.402326,-10732.986159,-1924.535449,766.095498
3441.402663,-9030.512492,-518.144159,919.314598
3441.403000,-9252.574275,-370.102971,2528.115143
3441.403338,-8808.450710,0.000000,919.314598
3441.403675,-10584.944971,-1184.329507,459.657299
3441.404012,-11769.274478,-148.041188,-459.657299
3441.404350,-10362.883188,518.144159,-689.485948
3441.404687,-8956.491898,888.247130,0.000000
3441.405025,-10140.821405,-666.185348,153.219100
3441.405362,-11843.295072,-1110.308913,153.219100
3441.405699,-10510.924376,888.247130,-689.485948
3441.406037,-10288.862594,74.020594,306.438199
3441.406374,-11251.130318,-592.164754,1072.533697
3441.406711,-12657.521608,-1554.432478,-612.876398
3441.407049,-10510.924376,-592.164754,-766.095498
3441.407386,-7994.224174,518.144159,995.924147
3441.407724,-8068.244768,0.000000,919.314598
3441.408061,-10807.006753,1036.288319,-153.219100
3441.408398,-10955.047942,0.000000,-1762.019645
3441.408736,-10881.027347,0.000000,-1455.581446
3441.409073,-9918.759623,148.041188,153.219100
3441.409410,-9178.553681,1924.535449,383.047749
3441.409748,-8660.409521,148.041188,0.000000
3441.410085,-8068.244768,-1332.370696,76.609550
3441.410423,-7994.224174,-370.102971,612.876398
3441.410760,-9474.636058,1036.288319,995.924147
3441.411097,-11177.109724,1258.350101,536.266849
3441.411435,-11547.212695,222.061783,-1762.019645
3441.411772,-10066.800811,0.000000,-2911.162892
3441.412109,-8882.471304,666.185348,-1991.848295
3441.412447,-7920.203579,0.000000,-153.219100
3441.412784,-9696.697840,-740.205942,-1608.800546
3441.413122,-12435.459826,-2442.679609,-2221.676944
3441.413459,-11695.253884,-1924.535449,-612.876398
3441.413796,-9844.739029,-1628.453072,76.609550
3441.414134,-9770.718434,-962.267725,1608.800546
3441.414471,-11621.233289,-1998.556043,689.485948
3441.414808,-10732.986159,-2368.659014,536.266849
3441.415146,-10066.800811,-2738.761985,2451.505594
3441.415483,-11103.089130,-740.205942,3600.648841
3441.415820,-12435.459826,-962.267725,3524.039291
3441.416158,-11621.233289,-666.185348,1455.581446
3441.416495,-8586.388927,-1184.329507,1302.362347
3441.416833,-7328.038826,222.061783,2451.505594
3441.417170,-8290.306550,814.226536,2757.943793
3441.417507,-11029.068536,592.164754,919.314598
3441.417845,-12361.439231,148.041188,229.828649
3441.418182,-10288.862594,518.144159,-306.438199
3441.418519,-7920.203579,1406.391290,229.828649
3441.418857,-8216.285956,1258.350101,2145.067394
3441.419194,-9252.574275,592.164754,536.266849
3441.419532,-9622.677246,-1406.391290,0.000000
3441.419869,-7994.224174,518.144159,153.219100
3441.420206,-9622.677246,-148.041188,1225.752797
3441.420544,-11769.274478,-370.102971,229.828649
3441.420881,-10510.924376,-1480.411884,-766.095498
3441.421218,-9326.594869,-1184.329507,612.876398
3441.421556,-8290.306550,296.082377,995.924147
3441.421893,-9400.615463,1258.350101,766.095498
3441.422231,-11621.233289,444.123565,-229.828649
3441.422568,-13397.727550,-2960.823768,-76.609550
3441.422905,-10732.986159,-666.185348,306.438199
3441.423243,-8808.450710,814.226536,766.095498
3441.423580,-9252.574275,888.247130,76.609550
3441.423917,-9474.636058,-814.226536,-2604.724693
3441.424255,-10584.944971,-1702.473667,-2374.896044
3441.424592,-9918.759623,-370.102971,-919.314598
3441.424930,-10140.821405,-666.185348,-383.047749
3441.425267,-11473.192101,518.144159,-229.828649
3441.425604,-10658.965565,-1036.288319,-2451.505594
3441.425942,-9400.615463,-3330.926739,-1915.238745
3441.426279,-7920.203579,-2442.679609,459.657299
3441.426616,-7402.059420,-1776.494261,1149.143247
3441.426954,-10436.903782,-2072.576638,612.876398
3441.427291,-11917.315666,-3108.864956,-1149.143247
3441.427628,-11621.233289,-1628.453072,-1378.971896
3441.427966,-10066.800811,-888.247130,-766.095498
3441.428303,-9770.718434,-740.205942,76.609550
3441.428641,-9178.553681,74.020594,-689.485948
3441.428978,-9252.574275,-1776.494261,0.000000
3441.429315,-9770.718434,-518.144159,2221.676944
3441.429653,-10955.047942,0.000000,3140.991542
3441.429990,-11917.315666,1332.370696,2451.505594
3441.430327,-11917.315666,148.041188,459.657299
3441.430665,-9326.594869,-74.020594,2451.505594
3441.431002,-7031.956449,888.247130,4826.401637
3441.431340,-9030.512492,2220.617826,5286.058936
3441.431677,-11769.274478,3552.988522,2451.505594
3441.432014,-14285.974681,2294.638420,0.000000
3441.432352,-12509.480420,3034.844362,-2298.286494
3441.432689,-8142.265362,2146.597232,-2451.505594
3441.433026,-6957.935855,2664.741391,-612.876398
3441.433364,-7105.977043,0.000000,-2221.676944
3441.433701,-8512.368333,-1406.391290,-1915.238745
3441.434039,-7476.080014,222.061783,-1838.629195
3441.434376,-9400.615463,148.041188,-536.266849
3441.434713,-12213.398043,518.144159,383.047749
3441.435051,-12583.501014,-1998.556043,-229.828649
3441.435388,-9474.636058,-2294.638420,536.266849
3441.435725,-6587.832884,-1924.535449,2757.943793
3441.436063,-8438.347739,-592.164754,3983.696590
3441.436400,-12731.542202,-1332.370696,689.485948
3441.436738,-13175.665768,-2442.679609,-2068.457845
3441.437075,-11103.089130,-1480.411884,-1225.752797
3441.437412,-9030.512492,-370.102971,1685.410096
3441.437750,-8068.244768,-592.164754,1455.581446
3441.438087,-10510.924376,-1184.329507,-766.095498
3441.438424,-10881.027347,-1924.535449,-1991.848295
3441.438762,-11695.253884,-1036.288319,459.657299
3441.439099,-11399.171507,0.000000,2298.286494
3441.439436,-10584.944971,1036.288319,1378.971896
3441.439774,-10510.924376,0.000000,0.000000
3441.440111,-10658.965565,-2072.576638,-536.266849
3441.440449,-8660.409521,-962.267725,0.000000
3441.440786,-9326.594869,-1036.288319,1302.362347
3441.441123,-11251.130318,0.000000,0.000000
3441.441461,-11547.212695,-222.061783,-2451.505594
3441.441798,-10510.924376,-666.185348,-2374.896044
3441.442135,-7772.162391,518.144159,-1149.143247
3441.442473,-7328.038826,1480.411884,0.000000
3441.442810,-8956.491898,1480.411884,-1378.971896
3441.443148,-10288.862594,-814.226536,-1991.848295
3441.443485,-10362.883188,-814.226536,383.047749
3441.443822,-9400.615463,296.082377,3524.039291
3441.444160,-10436.903782,2590.720797,4826.401637
3441.444497,-11547.212695,1480.411884,2374.896044
3441.444834,-10881.027347,962.267725,689.485948
3441.445172,-8808.450710,518.144159,766.095498
3441.445509,-8734.430116,2442.679609,2145.067394
3441.445847,-10955.047942,1480.411884,1378.971896
3441.446184,-11325.150913,0.000000,-919.314598
3441.446521,-10066.800811,444.123565,-2374.896044
3441.446859,-9030.512492,666.185348,-383.047749
3441.447196,-8660.409521,1628.453072,-306.438199
3441.447533,-9178.553681,0.000000,-1072.533697
3441.447871,-10214.842000,-1554.432478,-1072.533697
3441.448208,-10807.006753,-592.164754,76.609550
3441.448546,-11695.253884,-1776.494261,1072.533697
3441.448883,-11177.109724,-2368.659014,842.705048
3441.449221,-9770.718434,-3182.885551,-459.657299
3441.449558,-8734.430116,-3701.029710,306.438199
3441.449896,-8882.471304,-2960.823768,2451.505594
3441.450233,-8512.368333,-1702.473667,1991.848295
3441.450570,-11177.109724,-1406.391290,1149.143247
3441.450908,-12879.583391,-1110.308913,766.095498
3441.451245,-11695.253884,-814.226536,383.047749
3441.451583,-10362.883188,74.020594,2221.676944
3441.451920,-9548.656652,1850.514855,2528.115143
3441.452258,-9622.677246,0.000000,1685.410096
3441.452595,-11621.233289,-814.226536,1838.629195
3441.452933,-9252.574275,74.020594,689.485948
3441.453270,-10140.821405,1184.329507,1685.410096
3441.453608,-11029.068536,1628.453072,1455.581446
3441.453945,-10214.842000,296.082377,-995.924147
3441.454282,-9104.533087,296.082377,-1838.629195
3441.454620,-8882.471304,1036.288319,-689.485948
3441.454957,-8142.265362,222.061783,-1378.971896
3441.455295,-8956.491898,2220.617826,-2145.067394
3441.455632,-9622.677246,0.000000,-995.924147
3441.455970,-10881.027347,-740.205942,459.657299
3441.456307,-9622.677246,-1332.370696,1532.190996
3441.456645,-9992.780217,0.000000,2298.286494
3441.456982,-10436.903782,-222.061783,842.705048
3441.457320,-9696.697840,-740.205942,-1072.533697
3441.457657,-9844.739029,-296.082377,-1532.190996
3441.457994,-9844.739029,0.000000,-1149.143247
3441.458332,-9178.553681,1036.288319,-1302.362347
3441.458669,-9548.656652,518.144159,-1149.143247
3441.459007,-10658.965565,-1184.329507,229.828649
3441.459344,-10436.903782,74.020594,2298.286494
3441.459682,-10658.965565,1036.288319,2528.115143
3441.460019,-11695.253884,518.144159,1915.238745
3441.460357,-13027.624579,-888.247130,383.047749
3441.460694,-10140.821405,-1184.329507,-612.876398
3441.461032,-7105.977043,-1258.350101,689.485948
3441.461369,-7994.224174,-740.205942,1838.629195
3441.461706,-11843.295072,-1702.473667,1149.143247
3441.462044,-12213.398043,-1110.308913,-2298.286494
3441.462381,-10362.883188,-740.205942,-2681.334243
3441.462719,-9474.636058,-962.267725,-1072.533697
3441.463056,-7550.100608,-666.185348,536.266849
3441.463394,-9474.636058,-1702.473667,612.876398
3441.463731,-9474.636058,-1924.535449,-306.438199
3441.464069,-8882.471304,-1258.350101,536.266849
3441.464406,-11843.295072,-1480.411884,2987.772442
3441.464744,-11029.068536,-1924.535449,2451.505594
3441.465081,-9252.574275,-1924.535449,3600.648841
3441.465418,-9252.574275,518.144159,4749.792088
3441.465756,-9918.759623,2590.720797,4213.525239
3441.466093,-11399.171507,3330.926739,153.219100
3441.466431,-11695.253884,1998.556043,-2145.067394
3441.466768,-10658.965565,222.061783,-1455.581446
3441.467106,-8068.244768,1406.391290,306.438199
3441.467443,-8068.244768,888.247130,3064.381992
3441.467781,-8660.409521,2738.761985,1915.238745
3441.468118,-8956.491898,1924.535449,-1378.971896
3441.468456,-11029.068536,592.164754,-1762.019645
3441.468793,-11769.274478,1184.329507,-612.876398
3441.469130,-10066.800811,814.226536,-1225.752797
3441.469468,-10732.986159,222.061783,-919.314598
3441.469805,-9992.780217,-2146.597232,-842.705048
3441.470143,-7254.018232,-1406.391290,-766.095498
3441.470480,-7920.203579,-1184.329507,153.219100
3441.470818,-9474.636058,-1036.288319,306.438199
3441.471155,-11473.192101,-2442.679609,-995.924147
3441.471493,-11325.150913,-2072.576638,-1072.533697
3441.471830,-9474.636058,-1332.370696,-1149.143247
3441.472167,-9474.636058,-666.185348,0.000000
3441.472505,-9474.636058,-1850.514855,0.000000
3441.472842,-9770.718434,-2146.597232,-689.485948
3441.473180,-10807.006753,-1924.535449,1149.143247
3441.473517,-9770.718434,-666.185348,2987.772442
3441.473855,-9400.615463,444.123565,1532.190996
3441.474192,-11843.295072,-370.102971,0.000000
3441.474530,-12435.459826,-592.164754,-306.438199
3441.474867,-10066.800811,222.061783,76.609550
3441.475205,-9030.512492,1332.370696,1532.190996
3441.475542,-10584.944971,1406.391290,536.266849
3441.475879,-12435.459826,148.041188,-612.876398
3441.476217,-11251.130318,-666.185348,-842.705048
3441.476554,-10362.883188,518.144159,-1455.581446
3441.476892,-9178.553681,1110.308913,-612.876398
3441.477229,-8364.327145,222.061783,-919.314598
3441.477567,-9104.533087,-2072.576638,-919.314598
3441.477904,-9178.553681,-1258.350101,1149.143247
3441.478242,-9178.553681,666.185348,3677.258390
3441.478579,-10066.800811,148.041188,2757.943793
3441.478917,-9844.739029,222.061783,2451.505594
3441.479254,-10510.924376,222.061783,2298.286494
3441.479591,-9400.615463,1332.370696,2145.067394
3441.479929,-8882.471304,518.144159,2374.896044
3441.480266,-9696.697840,1184.329507,1915.238745
3441.480604,-10214.842000,-592.164754,536.266849
3441.480941,-9992.780217,592.164754,459.657299
3441.481279,-9030.512492,2294.638420,306.438199
3441.481616,-9696.697840,1406.391290,689.485948
3441.481954,-10955.047942,0.000000,-459.657299
3441.482291,-11621.233289,-296.082377,-383.047749
3441.482629,-9770.718434,-296.082377,612.876398
3441.482966,-9474.636058,370.102971,1149.143247
3441.483303,-11103.089130,-222.061783,0.000000
3441.483641,-12139.377449,-1702.473667,-1608.800546
3441.483978,-10436.903782,-2812.782580,-2757.943793
3441.484316,-8364.327145,-2368.659014,-306.438199
3441.484653,-8660.409521,-1998.556043,306.438199
3441.484991,-11251.130318,-1998.556043,-919.314598
3441.485328,-10732.986159,-2812.782580,-2451.505594
3441.485666,-9696.697840,-1406.391290,-1455.581446
3441.486003,-9992.780217,-962.267725,0.000000
3441.486341,-10955.047942,-370.102971,612.876398
3441.486678,-10140.821405,-1702.473667,229.828649
3441.487015,-9696.697840,-2368.659014,1762.019645
3441.487353,-8660.409521,0.000000,3217.601092
3441.487690,-9770.718434,2146.597232,2451.505594
3441.488028,-11769.274478,666.185348,0.000000
3441.488365,-11917.315666,74.020594,-1838.629195
3441.488703,-10436.903782,518.144159,-383.047749
3441.489040,-8216.285956,1554.432478,1608.800546
3441.489378,-7846.182985,2442.679609,1378.971896
3441.489715,-9474.636058,1850.514855,-1455.581446
3441.490053,-10214.842000,74.020594,-2451.505594
3441.490390,-10214.842000,-740.205942,842.705048
3441.490727,-9030.512492,1554.432478,2911.162892
3441.491065,-10214.842000,1554.432478,1838.629195
3441.491402,-11547.212695,814.226536,-1378.971896
3441.491740,-10584.944971,-296.082377,-1762.019645
3441.492077,-7846.182985,-296.082377,-229.828649
3441.492415,-7105.977043,-296.082377,1149.143247
3441.492752,-9844.739029,296.082377,536.266849
3441.493090,-11695.253884,-814.226536,-1991.848295
3441.493427,-11547.212695,-1628.453072,-1455.581446
3441.493765,-8734.430116,-592.164754,1302.362347
3441.494102,-8660.409521,444.123565,4443.353888
3441.494439,-10362.883188,0.000000,2528.115143
3441.494777,-11621.233289,-1110.308913,153.219100
3441.495114,-11251.130318,-2294.638420,1302.362347
3441.495452,-10436.903782,-740.205942,2911.162892
3441.495789,-9030.512492,-962.267725,2911.162892
3441.496127,-10807.006753,0.000000,842.705048
3441.496464,-10584.944971,-1110.308913,-2451.505594
3441.496802,-9178.553681,-1184.329507,-1532.190996
3441.497139,-9104.533087,-370.102971,-459.657299
3441.497476,-10066.800811,-814.226536,-766.095498
3441.497814,-11769.274478,-2072.576638,-1608.800546
3441.498151,-11103.089130,-3108.864956,-2145.067394
3441.498489,-7698.141797,-2220.617826,-306.438199
3441.498826,-7179.997637,-1480.411884,2987.772442
3441.499164,-9326.594869,-1332.370696,3064.381992
3441.499501,-12731.542202,-814.226536,1532.190996
3441.499839,-13767.830521,-148.041188,0.000000
3441.500176,-10658.965565,222.061783,-842.705048
3441.500514,-9030.512492,592.164754,-689.485948
3441.500851,-7920.203579,0.000000,-766.095498
3441.501188,-9252.574275,-1702.473667,459.657299
3441.501526,-9178.553681,740.205942,2451.505594
3441.501863,-8364.327145,2664.741391,1225.752797
3441.502201,-10807.006753,4071.132681,995.924147
3441.502538,-13915.871710,1924.535449,-1608.800546
3441.502876,-11695.253884,1184.329507,-2298.286494
3441.503213,-8438.347739,666.185348,-536.266849
3441.503551,-7179.997637,1406.391290,2451.505594
3441.503888,-8586.388927,888.247130,1455.581446
3441.504226,-10362.883188,-1998.556043,-2068.457845
3441.504563,-10436.903782,-962.267725,-2221.676944
3441.504900,-8290.306550,0.000000,-919.314598
3441.505238,-9400.615463,-740.205942,306.438199
3441.505575,-9474.636058,-518.144159,-2221.676944
3441.505913,-10807.006753,-2738.761985,-2221.676944
3441.506250,-8808.450710,-2072.576638,-1685.410096
3441.506588,-7920.203579,-888.247130,1838.629195
3441.506925,-11399.171507,0.000000,3907.087040
3441.507263,-12435.459826,-2072.576638,229.828649
3441.507600,-11473.192101,-4145.153275,153.219100
3441.507938,-8734.430116,-1628.453072,2451.505594
3441.508275,-8956.491898,-518.144159,4136.915689
3441.508612,-11695.253884,0.000000,2757.943793
3441.508950,-12287.418637,-1332.370696,0.000000
3441.509287,-10510.924376,-296.082377,76.609550
3441.509625,-10140.821405,814.226536,1838.629195
3441.509962,-10510.924376,1924.535449,2221.676944
3441.510300,-11621.233289,1702.473667,-1378.971896
3441.510637,-11473.192101,-296.082377,-3064.381992
3441.510975,-8512.368333,296.082377,-2145.067394
3441.511312,-7328.038826,740.205942,76.609550
3441.511650,-9400.615463,370.102971,1838.629195
3441.511987,-11695.253884,-1406.391290,-153.219100
3441.512324,-10584.944971,-1924.535449,153.219100
3441.512662,-9030.512492,-296.082377,2374.896044
3441.512999,-8882.471304,2294.638420,2911.162892
3441.513337,-10214.842000,1554.432478,536.266849
3441.513674,-11695.253884,-888.247130,-1149.143247
3441.514012,-9548.656652,-1628.453072,-306.438199
3441.514349,-7105.977043,0.000000,2145.067394
3441.514687,-8660.409521,1332.370696,2987.772442
3441.515024,-9918.759623,888.247130,-306.438199
3441.515362,-10066.800811,444.123565,-2221.676944
3441.515699,-9622.677246,370.102971,612.876398
3441.516036,-9622.677246,814.226536,2298.286494
3441.516374,-11029.068536,814.226536,459.657299
3441.516711,-11029.068536,222.061783,-1072.533697
3441.517049,-9770.718434,-1184.329507,-1685.410096
3441.517386,-8882.471304,-148.041188,-153.219100
3441.517724,-8882.471304,74.020594,306.438199
3441.518061,-9474.636058,-518.144159,-1302.362347
3441.518399,-12287.418637,-2146.597232,-2451.505594
3441.518736,-12139.377449,-1776.494261,-2834.553343
3441.519073,-8956.491898,-814.226536,-2145.067394
3441.519411,-9992.780217,222.061783,-1149.143247
3441.519748,-11177.109724,-740.205942,-3600.648841
3441.520086,-11473.192101,-3478.967927,-3370.820191
3441.520423,-9326.594869,-3627.009116,306.438199
3441.520761,-7254.018232,-2516.700203,2834.553343
3441.521098,-9844.739029,-1628.453072,2374.896044
3441.521436,-12287.418637,-2590.720797,-612.876398
3441.521773,-11769.274478,-3256.906145,-1225.752797
3441.522111,-9252.574275,-1850.514855,2298.286494
3441.522448,-8438.347739,74.020594,5362.668486
3441.522785,-10436.903782,1332.370696,3983.696590
3441.523123,-12583.501014,-370.102971,0.000000
3441.523460,-11695.253884,-222.061783,-459.657299
3441.523798,-9696.697840,592.164754,1915.238745
3441.524135,-8512.368333,2368.659014,3447.429741
3441.524473,-9548.656652,1628.453072,1608.800546
3441.524810,-11251.130318,962.267725,-383.047749
3441.525148,-9844.739029,592.164754,306.438199
3441.525485,-9696.697840,2146.597232,383.047749
3441.525823,-9770.718434,2220.617826,995.924147
3441.526160,-10955.047942,1332.370696,-1378.971896
3441.526497,-10140.821405,-592.164754,-2528.115143
3441.526835,-7994.224174,0.000000,-1149.143247
3441.527172,-7402.059420,592.164754,1762.019645
3441.527510,-9178.553681,444.123565,2068.457845
3441.527847,-11325.150913,-1110.308913,-153.219100
3441.528185,-11917.315666,-1924.535449,229.828649
3441.528522,-9326.594869,-740.205942,1685.410096
3441.528860,-8586.388927,0.000000,3600.648841
3441.529197,-10140.821405,-888.247130,2681.334243
3441.529535,-10658.965565,-2146.597232,995.924147
3441.529872,-9030.512492,0.000000,306.438199
3441.530209,-9548.656652,0.000000,1991.848295
3441.530547,-11917.315666,1332.370696,383.047749
3441.530884,-12065.356855,-222.061783,-3217.601092
3441.531222,-10881.027347,-1332.370696,-3064.381992
3441.531559,-7994.224174,-666.185348,-153.219100
3441.531897,-6957.935855,-592.164754,1225.752797
3441.532234,-9252.574275,-740.205942,459.657299
3441.532572,-12361.439231,-2960.823768,-1072.533697
3441.532909,-12139.377449,-2220.617826,-1225.752797
3441.533247,-11621.233289,-888.247130,-536.266849
3441.533584,-10066.800811,518.144159,0.000000
3441.533921,-9474.636058,-888.247130,-2221.676944
3441.534259,-9474.636058,-1776.494261,-3370.820191
3441.534596,-7994.224174,-1776.494261,-2451.505594
3441.534934,-8438.347739,-1332.370696,536.266849
3441.535271,-10732.986159,-666.185348,2145.067394
3441.535609,-12879.583391,-814.226536,153.219100
3441.535946,-11769.274478,-518.144159,306.438199
3441.536284,-8882.471304,1184.329507,1532.190996
3441.536621,-7402.059420,2442.679609,2528.115143
3441.536959,-9696.697840,1924.535449,842.705048
3441.537296,-11917.315666,888.247130,-842.705048
3441.537633,-11399.171507,370.102971,0.000000
3441.537971,-8586.388927,740.205942,2068.457845
3441.538308,-9474.636058,1184.329507,3524.039291
3441.538646,-9474.636058,2590.720797,-536.266849
3441.538983,-8660.409521,888.247130,-2681.334243
3441.539321,-8586.388927,444.123565,-1532.190996
3441.539658,-9918.759623,296.082377,459.657299
3441.539996,-11325.150913,1258.350101,-153.219100
3441.540333,-12139.377449,-370.102971,-1915.238745
3441.540671,-9474.636058,-2220.617826,-1608.800546
3441.541008,-7624.121203,-1998.556043,1149.143247
3441.541345,-7772.162391,-1110.308913,3064.381992
3441.541683,-9252.574275,-666.185348,1608.800546
3441.542020,-13693.809927,-2220.617826,612.876398
3441.542358,-13027.624579,-1924.535449,0.000000
3441.542695,-10658.965565,-2146.597232,0.000000
3441.543033,-8660.409521,-1258.350101,3370.820191
3441.543370,-8882.471304,-2220.617826,2834.553343
3441.543708,-10362.883188,-2590.720797,1608.800546
3441.544045,-10584.944971,-148.041188,1072.533697
3441.544382,-10955.047942,148.041188,1838.629195
3441.544720,-11843.295072,962.267725,919.314598
3441.545057,-11473.192101,-74.020594,-1685.410096
3441.545395,-10066.800811,0.000000,-919.314598
3441.545732,-8290.306550,-1406.391290,1608.800546
3441.546070,-8216.285956,-370.102971,2451.505594
3441.546407,-9844.739029,-370.102971,0.000000
3441.546745,-11621.233289,0.000000,-536.266849
3441.547082,-11695.253884,518.144159,-1608.800546
3441.547420,-10807.006753,-518.144159,-1915.238745
3441.547757,-9252.574275,-222.061783,0.000000
3441.548094,-8512.368333,-370.102971,-459.657299
3441.548432,-8142.265362,-1110.308913,-306.438199
3441.548769,-9178.553681,-518.144159,-459.657299
3441.549107,-9918.759623,740.205942,383.047749
3441.549444,-10584.944971,1110.308913,153.219100
3441.549781,-11325.150913,74.020594,306.438199
3441.550119,-11029.068536,-296.082377,1302.362347
3441.550456,-9326.594869,1184.329507,1149.143247
3441.550793,-8068.244768,1406.391290,1455.581446
3441.551131,-10658.965565,1480.411884,1762.019645
3441.551468,-12731.542202,444.123565,-766.095498
3441.551805,-10881.027347,296.082377,-1762.019645
3441.552143,-9326.594869,148.041188,-919.314598
3441.552480,-7624.121203,-296.082377,153.219100
3441.552817,-8290.306550,-148.041188,-2145.067394
3441.553155,-9400.615463,-1184.329507,-1838.629195
3441.553492,-9992.780217,-592.164754,-612.876398
3441.553829,-11547.212695,-592.164754,-1378.971896
3441.554167,-12213.398043,296.082377,-1302.362347
3441.554504,-11843.295072,-2516.700203,-1149.143247
3441.554842,-10214.842000,-3627.009116,612.876398
3441.555179,-7920.203579,-3034.844362,1378.971896
3441.555516,-8142.265362,0.000000,2145.067394
3441.555854,-11695.253884,-444.123565,689.485948
3441.556191,-14063.912898,-1628.453072,-2068.457845
3441.556528,-11991.336260,-592.164754,-2681.334243
3441.556866,-10140.821405,-888.247130,0.000000
3441.557203,-8216.285956,0.000000,3064.381992
3441.557540,-7328.038826,-888.247130,2528.115143
3441.557878,-9696.697840,-666.185348,3370.820191
3441.558215,-10658.965565,666.185348,2528.115143
3441.558552,-11251.130318,740.205942,3140.991542
3441.558890,-13397.727550,1332.370696,3753.867940
3441.559227,-11769.274478,0.000000,1991.848295
3441.559564,-8808.450710,1036.288319,1455.581446
3441.559902,-6217.729913,2368.659014,1302.362347
3441.560239,-6809.894666,1702.473667,0.000000
3441.560576,-10140.821405,740.205942,-995.924147
3441.560914,-10955.047942,296.082377,-2911.162892
3441.561251,-9992.780217,962.267725,-1302.362347
3441.561588,-8512.368333,1258.350101,-459.657299
3441.561926,-9474.636058,74.020594,1225.752797
3441.562263,-9696.697840,0.000000,0.000000
3441.562600,-9844.739029,-1850.514855,995.924147
3441.562938,-9474.636058,0.000000,2145.067394
3441.563275,-11325.150913,-1628.453072,2987.772442
3441.563612,-11251.130318,-296.082377,2145.067394
3441.563950,-11103.089130,-1406.391290,-766.095498
3441.564287,-9918.759623,-1628.453072,-1532.190996
3441.564624,-8660.409521,-888.247130,-689.485948
3441.564962,-9474.636058,-296.082377,459.657299
3441.565299,-10807.006753,-666.185348,612.876398
3441.565636,-11843.295072,-592.164754,-536.266849
3441.565974,-11991.336260,-296.082377,-995.924147
3441.566311,-9770.718434,-962.267725,-1149.143247
3441.566648,-8290.306550,-814.226536,-536.266849
3441.566986,-10066.800811,-1924.535449,153.219100
3441.567323,-11769.274478,-1184.329507,-306.438199
3441.567660,-9622.677246,74.020594,-1991.848295
3441.567998,-10955.047942,-444.123565,-2068.457845
3441.568335,-10510.924376,-740.205942,-3983.696590
3441.568672,-9030.512492,-2146.597232,-4903.011187
3441.569010,-8068.244768,-2812.782580,-1378.971896
3441.569347,-7179.997637,-1480.411884,0.000000
3441.569684,-9104.533087,-962.267725,1149.143247
3441.570022,-11621.233289,-740.205942,153.219100
3441.570359,-11547.212695,-1110.308913,153.219100
3441.570696,-11103.089130,296.082377,1302.362347
3441.571034,-9474.636058,1702.473667,1762.019645
3441.571371,-9844.739029,1924.535449,1915.238745
3441.571708,-11103.089130,74.020594,1685.410096
3441.572046,-9918.759623,-148.041188,1378.971896
3441.572383,-8660.409521,1406.391290,2451.505594
3441.572721,-10584.944971,2812.782580,3294.210641
3441.573058,-11473.192101,2072.576638,1608.800546
3441.573395,-11769.274478,814.226536,76.609550
3441.573733,-9918.759623,1628.453072,689.485948
3441.574070,-9030.512492,2664.741391,1838.629195
3441.574407,-9770.718434,3034.844362,1608.800546
3441.574745,-11103.089130,444.123565,-1225.752797
3441.575082,-10066.800811,-1776.494261,-1302.362347
3441.575419,-8068.244768,-666.185348,766.095498
3441.575757,-8586.388927,-1332.370696,2451.505594
3441.576094,-9770.718434,-1924.535449,229.828649
3441.576431,-9252.574275,-2664.741391,-1838.629195
3441.576769,-9474.636058,-1924.535449,76.609550
3441.577106,-8438.347739,-444.123565,842.705048
3441.577443,-10955.047942,-1480.411884,1225.752797
3441.577781,-12361.439231,-1998.556043,612.876398
3441.578118,-11769.274478,-2738.761985,-536.266849
3441.578455,-9178.553681,-2072.576638,1685.410096
3441.578793,-8512.368333,0.000000,3907.087040
3441.579130,-9252.574275,-592.164754,1532.190996
3441.579467,-12657.521608,-518.144159,-1225.752797
3441.579805,-12583.501014,-2072.576638,-1225.752797
3441.580142,-9474.636058,-1480.411884,153.219100
3441.580479,-9844.739029,1184.329507,2451.505594
3441.580817,-12361.439231,1924.535449,-306.438199
3441.581154,-11843.295072,518.144159,-4290.134789
3441.581491,-9252.574275,-370.102971,-3064.381992
3441.581829,-7772.162391,-962.267725,612.876398
3441.582166,-9992.780217,0.000000,2068.457845
3441.582503,-11843.295072,592.164754,-1225.752797
3441.582841,-10807.006753,-666.185348,-3217.601092
3441.583178,-9252.574275,-666.185348,-1915.238745
3441.583515,-7402.059420,-296.082377,-306.438199
3441.583853,-7920.203579,444.123565,383.047749
3441.584190,-9770.718434,-148.041188,-842.705048
3441.584527,-11251.130318,-1184.329507,-919.314598
3441.584865,-9548.656652,74.020594,766.095498
3441.585202,-8512.368333,370.102971,2451.505594
3441.585539,-10214.842000,888.247130,2528.115143
3441.585877,-11695.253884,-370.102971,536.266849
3441.586214,-9474.636058,0.000000,842.705048
3441.586551,-8364.327145,1924.535449,2834.553343
3441.586889,-10140.821405,1850.514855,2068.457845
3441.587226,-11547.212695,2220.617826,-1072.533697
3441.587563,-12139.377449,74.020594,-2298.286494
3441.587901,-10214.842000,0.000000,-536.266849
3441.588238,-8142.265362,518.144159,1378.971896
3441.588575,-9844.739029,666.185348,1762.019645
3441.588913,-10955.047942,-962.267725,-1685.410096
3441.589250,-10955.047942,-1776.494261,-2145.067394
3441.589587,-10140.821405,-296.082377,-229.828649
3441.589925,-9474.636058,-814.226536,383.047749
3441.590262,-10140.821405,-1406.391290,1225.752797
3441.590600,-10584.944971,-2886.803174,0.000000
3441.590937,-9770.718434,-3552.988522,229.828649
3441.591274,-8660.409521,-1924.535449,1455.581446
3441.591612,-9252.574275,-1628.453072,2145.067394
3441.591949,-10807.006753,-962.267725,1149.143247
3441.592286,-10584.944971,-2368.659014,0.000000
3441.592624,-9770.718434,-1776.494261,2374.896044
3441.592961,-8142.265362,0.000000,4673.182538
3441.593298,-10288.862594,1036.288319,4519.963438
3441.593636,-12361.439231,814.226536,1302.362347
3441.593973,-11251.130318,-222.061783,-1225.752797
3441.594310,-8734.430116,1184.329507,995.924147
3441.594648,-8512.368333,1628.453072,2068.457845
3441.594985,-10288.862594,2442.679609,842.705048
3441.595322,-10807.006753,2368.659014,-3524.039291
3441.595660,-9844.739029,1110.308913,-3907.087040
3441.595997,-9992.780217,592.164754,-1072.533697
3441.596334,-8956.491898,740.205942,0.000000
3441.596672,-8882.471304,1258.350101,0.000000
3441.597009,-11843.295072,740.205942,0.000000
3441.597346,-10881.027347,148.041188,-1072.533697
3441.597684,-8882.471304,1184.329507,-536.266849
3441.598021,-9252.574275,888.247130,229.828649
3441.598358,-10955.047942,-888.247130,-383.047749
3441.598696,-11843.295072,-2294.638420,-2911.162892
3441.599033,-9400.615463,-2220.617826,-1608.800546
3441.599370,-7402.059420,-1036.288319,1685.410096
3441.599708,-8586.388927,-222.061783,766.095498
3441.600045,-9474.636058,-1702.473667,-1915.238745
3441.600382,-9548.656652,-2960.823768,-919.314598
3441.600720,-8216.285956,-2294.638420,1455.581446
3441.601057,-10362.883188,-592.164754,4826.401637
3441.601394,-13619.789333,1702.473667,2145.067394
3441.601732,-13101.645173,-296.082377,-3064.381992
3441.602069,-11473.192101,-740.205942,-2145.067394
3441.602406,-7846.182985,-888.247130,0.000000
3441.602744,-7105.977043,0.000000,689.485948
3441.603081,-10066.800811,-518.144159,153.219100
3441.603418,-12509.480420,-2294.638420,-1838.629195
3441.603756,-12287.418637,-1258.350101,-2298.286494
3441.604093,-10362.883188,0.000000,-76.609550
3441.604430,-9622.677246,1110.308913,2757.943793
3441.604768,-10584.944971,-740.205942,1838.629195
3441.605105,-11843.295072,-1776.494261,1532.190996
3441.605442,-10288.862594,0.000000,2757.943793
3441.605780,-10436.903782,-666.185348,4213.525239
3441.606117,-10436.903782,-296.082377,3064.381992
3441.606454,-10288.862594,-1628.453072,0.000000
3441.606792,-8882.471304,-296.082377,995.924147
3441.607129,-7179.997637,296.082377,2604.724693
3441.607467,-7254.018232,740.205942,2451.505594
3441.607804,-9696.697840,1036.288319,1532.190996
3441.608141,-12361.439231,1258.350101,-306.438199
3441.608479,-10214.842000,1036.288319,0.000000
3441.608816,-7550.100608,1480.411884,3370.820191
3441.609153,-9030.512492,1184.329507,4979.620737
3441.609491,-9474.636058,1110.308913,0.000000
3441.609828,-10362.883188,1332.370696,-2604.724693
3441.610165,-9474.636058,814.226536,-2451.505594
3441.610503,-9918.759623,0.000000,-1762.019645
3441.610840,-10436.903782,1036.288319,-2068.457845
3441.611177,-11103.089130,-74.020594,-2604.724693
3441.611515,-10288.862594,-2220.617826,-1685.410096
3441.611852,-9400.615463,-1702.473667,-153.219100
3441.612189,-10140.821405,-222.061783,919.314598
3441.612527,-11769.274478,0.000000,-383.047749
3441.612864,-13545.768739,-2294.638420,-1225.752797
3441.613201,-11251.130318,-1850.514855,-612.876398
3441.613539,-8956.491898,-1332.370696,612.876398
3441.613876,-8808.450710,-370.102971,2374.896044
3441.614213,-10214.842000,-740.205942,0.000000
3441.614551,-11325.150913,-1776.494261,-2374.896044
3441.614888,-11473.192101,-444.123565,-1302.362347
3441.615225,-9622.677246,-592.164754,612.876398
3441.615563,-8586.388927,0.000000,842.705048
3441.615900,-10584.944971,-2072.576638,0.000000
3441.616237,-9252.574275,-962.267725,-76.609550
3441.616575,-6957.935855,-962.267725,1455.581446
3441.616912,-9548.656652,0.000000,2987.772442
3441.617249,-11547.212695,592.164754,0.000000
3441.617587,-11251.130318,-444.123565,-2451.505594
3441.617924,-9252.574275,-148.041188,-1685.410096
3441.618261,-7624.121203,148.041188,0.000000
3441.618599,-8882.471304,814.226536,306.438199
3441.618936,-10658.965565,148.041188,383.047749
3441.619273,-10362.883188,0.000000,306.438199
3441.619611,-10658.965565,1110.308913,1455.581446
3441.619948,-11621.233289,814.226536,2681.334243
3441.620285,-10732.986159,1110.308913,1915.238745
3441.620623,-9992.780217,222.061783,1915.238745
3441.620960,-9770.718434,148.041188,2298.286494
3441.621297,-9030.512492,1628.453072,2068.457845
3441.621635,-9474.636058,2368.659014,1915.238745
3441.621972,-11843.295072,2368.659014,1072.533697
3441.622309,-12731.542202,666.185348,-766.095498
3441.622647,-10510.924376,1110.308913,-919.314598
3441.622984,-7328.038826,1110.308913,689.485948
3441.623321,-7402.059420,222.061783,1915.238745
3441.623659,-8956.491898,-740.205942,0.000000
3441.623996,-9992.780217,-888.247130,-229.828649
3441.624333,-9696.697840,-1184.329507,612.876398
3441.624671,-9696.697840,-518.144159,1149.143247
3441.625008,-10140.821405,-1110.308913,-919.314598
3441.625346,-10732.986159,-2368.659014,-2298.286494
3441.625683,-8364.327145,-2886.803174,-383.047749
3441.626020,-8364.327145,-3256.906145,536.266849
3441.626358,-8882.471304,-2886.803174,459.657299
3441.626695,-9622.677246,-1850.514855,-153.219100
3441.627032,-12139.377449,-2220.617826,-383.047749
3441.627370,-11621.233289,-1554.432478,-536.266849
3441.627707,-10881.027347,-1406.391290,1225.752797
3441.628044,-10732.986159,-666.185348,2298.286494
3441.628382,-9770.718434,-1184.329507,2451.505594
3441.628719,-11399.171507,-296.082377,2068.457845
3441.629056,-10214.842000,296.082377,1455.581446
3441.629394,-11399.171507,1110.308913,1225.752797
3441.629731,-12287.418637,962.267725,153.219100
3441.630068,-11695.253884,74.020594,-1991.848295
3441.630406,-9770.718434,1332.370696,-2757.943793
3441.630743,-7031.956449,1776.494261,-2834.553343
3441.631080,-8290.306550,1480.411884,-1685.410096
3441.631418,-10807.006753,0.000000,-1685.410096
3441.631755,-11547.212695,-444.123565,-2757.943793
3441.632092,-8216.285956,814.226536,-2451.505594
3441.632430,-8512.368333,0.000000,306.438199
3441.632767,-9474.636058,-222.061783,1685.410096
3441.633104,-9770.718434,-2368.659014,766.095498
3441.633442,-9326.594869,-1702.473667,2451.505594
3441.633779,-9474.636058,-1036.288319,2528.115143
3441.634116,-10436.903782,-370.102971,995.924147
3441.634454,-9474.636058,-888.247130,-1149.143247
3441.634791,-8438.347739,-1554.432478,-766.095498
3441.635128,-7402.059420,-740.205942,1225.752797
3441.635466,-10362.883188,2812.782580,1225.752797
3441.635803,-12879.583391,2368.659014,0.000000
3441.636140,-12805.562797,1480.411884,-1762.019645
3441.636478,-11547.212695,-666.185348,-1225.752797
3441.636815,-9992.780217,0.000000,2145.067394
3441.637152,-9178.553681,444.123565,4060.306139
3441.637490,-10436.903782,-962.267725,2221.676944
3441.637827,-11399.171507,-2368.659014,153.219100
3441.638164,-9622.677246,-1332.370696,-306.438199
3441.638502,-9104.533087,0.000000,1455.581446
3441.638839,-10955.047942,-370.102971,1838.629195
3441.639176,-12213.398043,-666.185348,-689.485948
3441.639514,-10140.821405,-2368.659014,-2451.505594
3441.639851,-8882.471304,-1480.411884,689.485948
3441.640188,-7254.018232,-1480.411884,3140.991542
3441.640526,-8660.409521,-1258.350101,2145.067394
3441.640863,-11029.068536,-1406.391290,306.438199
3441.641200,-10881.027347,-1554.432478,-612.876398
3441.641538,-9474.636058,-296.082377,383.047749
3441.641875,-9252.574275,-444.123565,1762.019645
3441.642213,-10288.862594,814.226536,1838.629195
3441.642550,-10584.944971,0.000000,919.314598
3441.642887,-9548.656652,296.082377,1149.143247
3441.643225,-9104.533087,2368.659014,2604.724693
3441.643562,-10955.047942,1998.556043,1991.848295
3441.643899,-11843.295072,1184.329507,-1378.971896
3441.644237,-10288.862594,1480.411884,-2604.724693
3441.644574,-8808.450710,2146.597232,-1762.019645
3441.644911,-8586.388927,1850.514855,-766.095498
3441.645249,-9770.718434,1628.453072,-2145.067394
3441.645586,-10807.006753,1406.391290,-2145.067394
3441.645923,-12657.521608,-666.185348,-1455.581446
3441.646261,-10362.883188,-222.061783,-1225.752797
3441.646598,-8882.471304,74.020594,306.438199
3441.646935,-9474.636058,-1036.288319,76.609550
3441.647273,-9104.533087,-2886.803174,-1762.019645
3441.647610,-8882.471304,-3182.885551,-306.438199
3441.647947,-9030.512492,-888.247130,1608.800546
3441.648285,-10140.821405,-1332.370696,1532.190996
3441.648622,-12583.501014,-592.164754,153.219100
3441.648959,-10584.944971,-1332.370696,-1149.143247
3441.649297,-9326.594869,-962.267725,0.000000
3441.649634,-8068.244768,-370.102971,919.314598
3441.649971,-8882.471304,-962.267725,1915.238745
3441.650309,-11843.295072,-1628.453072,2528.115143
3441.650646,-11473.192101,-2294.638420,1378.971896
3441.650983,-9400.615463,0.000000,1149.143247
3441.651321,-10436.903782,1480.411884,2298.286494
3441.651658,-11695.253884,444.123565,1608.800546
3441.651996,-11399.171507,-592.164754,-459.657299
3441.652333,-9622.677246,-370.102971,-153.219100
3441.652670,-8290.306550,814.226536,919.314598
3441.653008,-9992.780217,1406.391290,919.314598
3441.653345,-12139.377449,370.102971,-1302.362347
3441.653682,-11325.150913,-1998.556043,-1302.362347
3441.654020,-8660.409521,-666.185348,-306.438199
3441.654357,-8734.430116,-296.082377,2145.067394
3441.654695,-10214.842000,-222.061783,1838.629195
3441.655032,-9844.739029,-1850.514855,0.000000
3441.655369,-9918.759623,-1406.391290,689.485948
3441.655707,-9548.656652,-148.041188,3447.429741
3441.656044,-10584.944971,1036.288319,2987.772442
3441.656381,-10658.965565,296.082377,1378.971896
3441.656719,-10288.862594,0.000000,-229.828649
3441.657056,-9030.512492,74.020594,459.657299
3441.657394,-8586.388927,1480.411884,1072.533697
3441.657731,-9548.656652,1184.329507,1532.190996
3441.658068,-11177.109724,148.041188,-459.657299
3441.658406,-11177.109724,-518.144159,-1838.629195
3441.658743,-9326.594869,0.000000,-1149.143247
3441.659080,-7179.997637,0.000000,1072.533697
3441.659418,-9918.759623,-518.144159,612.876398
3441.659755,-10584.944971,-518.144159,-2221.676944
3441.660093,-10214.842000,-1406.391290,-2834.553343
3441.660430,-8808.450710,296.082377,-766.095498
3441.660767,-9474.636058,-1036.288319,-995.924147
3441.661105,-11621.233289,-1184.329507,-919.314598
3441.661442,-12435.459826,-2886.803174,-2221.676944
3441.661779,-9326.594869,-2960.823768,-1225.752797
3441.662117,-7920.203579,-1332.370696,842.705048
3441.662454,-10066.800811,-1332.370696,1915.238745
3441.662791,-11325.150913,-1702.473667,306.438199
3441.663129,-11843.295072,-1924.535449,0.000000
3441.663466,-10955.047942,-962.267725,1762.019645
3441.663804,-10584.944971,666.185348,3064.381992
3441.664141,-10881.027347,1184.329507,1915.238745
3441.664478,-10658.965565,74.020594,0.000000
3441.664816,-9474.636058,518.144159,-459.657299
3441.665153,-8808.450710,1924.535449,612.876398
3441.665490,-10510.924376,2516.700203,1149.143247
3441.665828,-10955.047942,1258.350101,-1072.533697
3441.666165,-11177.109724,-592.164754,-2145.067394
3441.666503,-8290.306550,74.020594,-919.314598
3441.666840,-6439.791695,444.123565,1455.581446
3441.667177,-8956.491898,1036.288319,2451.505594
3441.667515,-10584.944971,-1702.473667,76.609550
3441.667852,-10955.047942,-1406.391290,0.000000
3441.668189,-9326.594869,-1036.288319,1762.019645
3441.668527,-8660.409521,-444.123565,1608.800546
3441.668864,-9178.553681,-1332.370696,995.924147
3441.669202,-8586.388927,-1332.370696,0.000000
3441.669539,-9252.574275,-814.226536,306.438199
3441.669876,-11177.109724,592.164754,1532.190996
3441.670214,-11917.315666,0.000000,689.485948
3441.670551,-11399.171507,-888.247130,-995.924147
3441.670888,-9400.615463,-1998.556043,-153.219100
3441.671226,-7846.182985,-1554.432478,3370.820191
3441.671563,-8364.327145,888.247130,4443.353888
3441.671901,-11695.253884,814.226536,2528.115143
3441.672238,-13619.789333,740.205942,-1072.533697
3441.672575,-12879.583391,-148.041188,-1685.410096
3441.672913,-9992.780217,0.000000,0.000000
3441.673250,-9030.512492,370.102971,1302.362347
3441.673587,-9770.718434,-222.061783,229.828649
3441.673925,-10955.047942,-1406.391290,-1455.581446
3441.674262,-9992.780217,-1924.535449,-2221.676944
3441.674600,-7624.121203,-666.185348,-689.485948
3441.674937,-9548.656652,-296.082377,0.000000
3441.675274,-12435.459826,-2368.659014,-1225.752797
3441.675612,-10584.944971,-1776.494261,-3064.381992
3441.675949,-7994.224174,-2072.576638,-995.924147
3441.676286,-7624.121203,-1184.329507,1838.629195
3441.676624,-8290.306550,0.000000,919.314598
3441.676961,-11621.233289,-1702.473667,1225.752797
3441.677299,-12509.480420,-2146.597232,536.266849
3441.677636,-8660.409521,-296.082377,1225.752797
3441.677973,-7772.162391,1406.391290,2145.067394
3441.678311,-9548.656652,888.247130,919.314598
3441.678648,-11769.274478,-592.164754,-536.266849
3441.678985,-9474.636058,370.102971,-459.657299
3441.679323,-8068.244768,2220.617826,1378.971896
3441.679660,-9992.780217,3256.906145,1762.019645
3441.679998,-13471.748144,2294.638420,-1378.971896
3441.680335,-12583.501014,592.164754,-4443.353888
3441.680672,-8660.409521,-740.205942,-2068.457845
3441.681010,-8216.285956,74.020594,2068.457845
3441.681347,-9326.594869,962.267725,536.266849
3441.681684,-11029.068536,-592.164754,-689.485948
3441.682022,-11103.089130,-1480.411884,-1149.143247
3441.682359,-9400.615463,-1702.473667,459.657299
3441.682696,-9178.553681,0.000000,2757.943793
3441.683034,-11473.192101,222.061783,2374.896044
3441.683371,-11917.315666,-1258.350101,-1225.752797
3441.683709,-9400.615463,-2368.659014,-2298.286494
3441.684046,-8068.244768,-1184.329507,2145.067394
3441.684383,-7698.141797,-814.226536,4213.525239
3441.684721,-11473.192101,-1628.453072,2757.943793
3441.685058,-11547.212695,-1924.535449,766.095498
3441.685395,-9918.759623,-296.082377,689.485948
3441.685733,-8216.285956,962.267725,3217.601092
3441.686070,-10140.821405,740.205942,1991.848295
3441.686408,-11547.212695,-962.267725,-306.438199
3441.686745,-10510.924376,-370.102971,-383.047749
3441.687082,-7920.203579,0.000000,1455.581446
3441.687420,-8882.471304,1702.473667,2987.772442
3441.687757,-11177.109724,592.164754,1378.971896
3441.688094,-13323.706956,222.061783,-2298.286494
3441.688432,-11029.068536,-148.041188,-2757.943793
3441.688769,-8512.368333,296.082377,-459.657299
3441.689107,-8216.285956,-666.185348,995.924147
3441.689444,-9844.739029,-814.226536,536.266849
3441.689781,-12361.439231,-444.123565,-766.095498
3441.690119,-11695.253884,-74.020594,-2145.067394
3441.690456,-8586.388927,444.123565,0.000000
3441.690793,-10362.883188,0.000000,1762.019645
3441.691131,-10658.965565,148.041188,0.000000
3441.691468,-9474.636058,-592.164754,-919.314598
3441.691806,-8586.388927,-222.061783,2145.067394
3441.692143,-9252.574275,1258.350101,2681.334243
3441.692480,-11547.212695,296.082377,1225.752797
3441.692818,-12065.356855,0.000000,-306.438199
3441.693155,-9992.780217,-444.123565,-536.266849
3441.693492,-9326.594869,1036.288319,919.314598
3441.693830,-8364.327145,1036.288319,0.000000
3441.694167,-8364.327145,-222.061783,-2298.286494
3441.694505,-9474.636058,-888.247130,-2221.676944
3441.694842,-10288.862594,-1554.432478,-689.485948
3441.695179,-10436.903782,-666.185348,306.438199
3441.695517,-9400.615463,1258.350101,-919.314598
3441.695854,-11251.130318,-296.082377,-1149.143247
3441.696191,-11843.295072,-2368.659014,-995.924147
3441.696529,-8808.450710,-2590.720797,76.609550
3441.696866,-8068.244768,-1628.453072,3064.381992
3441.697204,-10658.965565,-592.164754,2911.162892
3441.697541,-14137.933492,-518.144159,459.657299
3441.697878,-13619.789333,-2294.638420,0.000000
3441.698216,-9770.718434,-1332.370696,689.485948
3441.698553,-7920.203579,-222.061783,1915.238745
3441.698890,-8882.471304,0.000000,919.314598
3441.699228,-10881.027347,-518.144159,459.657299
3441.699565,-10807.006753,0.000000,1378.971896
3441.699903,-11399.171507,1184.329507,2681.334243
3441.700240,-11843.295072,1554.432478,1762.019645
3441.700577,-10807.006753,0.000000,1378.971896
3441.700915,-8882.471304,-1110.308913,1072.533697
3441.701252,-6809.894666,-740.205942,1532.190996
3441.701589,-7031.956449,-592.164754,2757.943793
3441.701927,-9030.512492,-296.082377,1608.800546
3441.702264,-11029.068536,-1036.288319,-2298.286494
3441.702601,-9770.718434,-1480.411884,-4290.134789
3441.702939,-6513.812290,444.123565,-2221.676944
3441.703276,-7624.121203,148.041188,919.314598
3441.703614,-10732.986159,74.020594,1532.190996
3441.703951,-11177.109724,148.041188,-1532.190996
3441.704288,-11103.089130,0.000000,-689.485948
3441.704626,-11621.233289,-518.144159,1072.533697
3441.704963,-9326.594869,-962.267725,536.266849
3441.705300,-10807.006753,-1850.514855,1532.190996
3441.705638,-10510.924376,-1406.391290,1838.629195
3441.705975,-10066.800811,74.020594,306.438199
3441.706313,-9770.718434,1924.535449,0.000000
3441.706650,-13249.686362,962.267725,-153.219100
3441.706987,-13471.748144,444.123565,-1608.800546
3441.707325,-9844.739029,740.205942,-2451.505594
3441.707662,-8882.471304,518.144159,842.705048
3441.707999,-9400.615463,666.185348,1225.752797
3441.708337,-9178.553681,-666.185348,-1378.971896
3441.708674,-10140.821405,-1850.514855,-842.705048
3441.709012,-9844.739029,-1924.535449,153.219100
3441.709349,-9474.636058,-592.164754,306.438199
3441.709686,-10066.800811,0.000000,-76.609550
3441.710024,-10214.842000,-1406.391290,-2221.676944
3441.710361,-9474.636058,-1554.432478,-2451.505594
3441.710698,-7994.224174,-2294.638420,-1149.143247
3441.711036,-8512.368333,-814.226536,2451.505594
3441.711373,-10066.800811,0.000000,1608.800546
3441.711711,-10807.006753,-888.247130,-612.876398
3441.712048,-10807.006753,-518.144159,0.000000
3441.712385,-9696.697840,148.041188,2374.896044
3441.712723,-10436.903782,962.267725,3064.381992
3441.713060,-11621.233289,1110.308913,2374.896044
3441.713397,-11399.171507,666.185348,1915.238745
3441.713735,-10436.903782,2368.659014,2145.067394
3441.714072,-9770.718434,3256.906145,1838.629195
3441.714410,-11177.109724,2812.782580,0.000000
3441.714747,-11399.171507,592.164754,-689.485948
3441.715084,-10658.965565,148.041188,-383.047749
3441.715422,-7772.162391,1258.350101,229.828649
3441.715759,-8290.306550,2220.617826,1608.800546
3441.716096,-10658.965565,1332.370696,1072.533697
3441.716434,-11917.315666,74.020594,-1225.752797
3441.716771,-9474.636058,-148.041188,-2451.505594
3441.717109,-8290.306550,0.000000,0.000000
3441.717446,-8290.306550,-518.144159,459.657299
3441.717783,-8882.471304,-2368.659014,-1302.362347
3441.718121,-9696.697840,-2368.659014,-995.924147
3441.718458,-8364.327145,-2220.617826,0.000000
3441.718795,-8660.409521,-1332.370696,1685.410096
3441.719133,-10140.821405,-888.247130,1455.581446
3441.719470,-11547.212695,-2220.617826,1302.362347
3441.719808,-9992.780217,-1258.350101,536.266849
3441.720145,-9844.739029,-1332.370696,1762.019645
3441.720482,-10732.986159,0.000000,2221.676944
3441.720820,-10807.006753,0.000000,612.876398
3441.721157,-12805.562797,-592.164754,-306.438199
3441.721494,-10658.965565,-296.082377,-842.705048
3441.721832,-9178.553681,222.061783,1225.752797
3441.722169,-11251.130318,1258.350101,1225.752797
3441.722507,-12213.398043,-296.082377,-995.924147
3441.722844,-12361.439231,666.185348,-2757.943793
3441.723181,-9548.656652,-148.041188,-3064.381992
3441.723519,-8068.244768,-518.144159,536.266849
3441.723856,-9844.739029,-814.226536,689.485948
3441.724193,-10807.006753,-1628.453072,-919.314598
3441.724531,-9326.594869,-1628.453072,-842.705048
3441.724868,-7920.203579,-888.247130,0.000000
3441.725205,-9992.780217,-296.082377,1302.362347
3441.725543,-10955.047942,74.020594,-995.924147
3441.725880,-9548.656652,-2220.617826,-1225.752797
3441.726218,-7698.141797,-1258.350101,612.876398
3441.726555,-7698.141797,-148.041188,2528.115143
3441.726892,-8956.491898,370.102971,3370.820191
3441.727230,-10436.903782,-444.123565,2298.286494
3441.727567,-11621.233289,888.247130,995.924147
3441.727904,-11251.130318,1924.535449,919.314598
3441.728242,-10288.862594,3478.967927,76.609550
3441.728579,-10288.862594,1776.494261,-1149.143247
3441.728917,-10881.027347,-518.144159,-1378.971896
3441.729254,-9400.615463,148.041188,-612.876398
3441.729591,-8586.388927,370.102971,536.266849
3441.729929,-10362.883188,962.267725,1762.019645
3441.730266,-11843.295072,-518.144159,-536.266849
3441.730603,-11251.130318,-1406.391290,-1838.629195
3441.730941,-9326.594869,-1036.288319,76.609550
3441.731278,-10140.821405,-1480.411884,1991.848295
3441.731616,-10436.903782,-296.082377,459.657299
3441.731953,-10066.800811,-2368.659014,-2221.676944
3441.732290,-10436.903782,-2590.720797,-383.047749
3441.732628,-8660.409521,-2294.638420,153.219100
3441.732965,-8438.347739,-518.144159,1302.362347
3441.733302,-10214.842000,-2146.597232,919.314598
3441.733640,-11029.068536,-3182.885551,536.266849
3441.733977,-9844.739029,-666.185348,919.314598
3441.734315,-9326.594869,148.041188,2374.896044
3441.734652,-10807.006753,666.185348,3217.601092
3441.734989,-11843.295072,-1110.308913,1302.362347
3441.735327,-10881.027347,-518.144159,1378.971896
3441.735664,-8068.244768,962.267725,1225.752797
3441.736001,-9622.677246,1184.329507,2145.067394
3441.736339,-9918.759623,1702.473667,-2068.457845
3441.736676,-10436.903782,518.144159,-3064.381992
3441.737014,-9844.739029,592.164754,-1991.848295
3441.737351,-8956.491898,1406.391290,0.000000
3441.737688,-10807.006753,2368.659014,1685.410096
3441.738026,-12805.562797,2072.576638,-995.924147
3441.738363,-10436.903782,-814.226536,-2834.553343
3441.738700,-9400.615463,-1036.288319,1302.362347
3441.739038,-8586.388927,-148.041188,3294.210641
3441.739375,-9252.574275,888.247130,1762.019645
3441.739713,-11399.171507,296.082377,-842.705048
3441.740050,-11325.150913,-1554.432478,-2145.067394
3441.740387,-8956.491898,-296.082377,-1608.800546
3441.740725,-8068.244768,0.000000,612.876398
3441.741062,-9918.759623,0.000000,1378.971896
3441.741399,-10881.027347,-592.164754,-1149.143247
3441.741737,-10288.862594,-296.082377,-1378.971896
3441.742074,-8068.244768,370.102971,842.705048
3441.742412,-9844.739029,-148.041188,3370.820191
3441.742749,-12213.398043,0.000000,1532.190996
3441.743086,-10881.027347,-1480.411884,-306.438199
3441.743424,-9104.533087,-1036.288319,766.095498
3441.743761,-8364.327145,-444.123565,2221.676944
3441.744098,-10510.924376,74.020594,842.705048
3441.744436,-11843.295072,-740.205942,-2681.334243
3441.744773,-11399.171507,-2072.576638,-2681.334243
3441.745110,-7846.182985,-1406.391290,-612.876398
3441.745448,-9030.512492,0.000000,612.876398
3441.745785,-10288.862594,-1036.288319,306.438199
3441.746123,-11177.109724,-2368.659014,-919.314598
3441.746460,-10140.821405,-1850.514855,-153.219100
3441.746797,-9918.759623,-592.164754,2451.505594
3441.747135,-10140.821405,0.000000,3907.087040
3441.747472,-10732.986159,0.000000,1608.800546
3441.747809,-11251.130318,-1554.432478,383.047749
3441.748147,-9030.512492,740.205942,459.657299
3441.748484,-7994.224174,444.123565,2757.943793
3441.748822,-9992.780217,1036.288319,3524.039291
3441.749159,-10584.944971,1924.535449,306.438199
3441.749496,-10140.821405,1850.514855,-153.219100
3441.749834,-8882.471304,2886.803174,1685.410096
3441.750171,-8438.347739,1924.535449,1838.629195
3441.750508,-11029.068536,3182.885551,0.000000
3441.750846,-11325.150913,1702.473667,-2374.896044
3441.751183,-10436.903782,666.185348,-1532.190996
3441.751521,-8068.244768,296.082377,-536.266849
3441.751858,-8290.306550,740.205942,306.438199
3441.752196,-10140.821405,296.082377,-1532.190996
3441.752533,-11473.192101,-1184.329507,-2068.457845
3441.752870,-8808.450710,-296.082377,-2987.772442
3441.753208,-7994.224174,-1554.432478,-689.485948
3441.753545,-10214.842000,0.000000,1072.533697
3441.753883,-11621.233289,0.000000,-2528.115143
3441.754220,-10510.924376,-740.205942,-4290.134789
3441.754558,-8956.491898,-1554.432478,-1685.410096
3441.754895,-9030.512492,-1480.411884,536.266849
3441.755232,-10732.986159,-1776.494261,919.314598
3441.755570,-12065.356855,-814.226536,-229.828649
3441.755907,-12139.377449,-814.226536,-842.705048
3441.756245,-9252.574275,814.226536,-689.485948
3441.756582,-8438.347739,1406.391290,-612.876398
3441.756920,-11769.274478,888.247130,-1685.410096
3441.757257,-11325.150913,-296.082377,-3064.381992
3441.757594,-10881.027347,518.144159,-2145.067394
3441.757932,-9178.553681,1406.391290,-995.924147
3441.758269,-9696.697840,1850.514855,-1685.410096
3441.758607,-11251.130318,1184.329507,-3447.429741
3441.758944,-10066.800811,-666.185348,-3983.696590
3441.759282,-9252.574275,814.226536,-612.876398
3441.759619,-9844.739029,666.185348,-76.609550
3441.759956,-9474.636058,1924.535449,-1838.629195
3441.760294,-10955.047942,1924.535449,-3370.820191
3441.760631,-9992.780217,1258.350101,-2757.943793
3441.760969,-7624.121203,1480.411884,-766.095498
3441.761306,-7920.203579,2812.782580,1685.410096
3441.761644,-11695.253884,3034.844362,536.266849
3441.761981,-12213.398043,3182.885551,-2987.772442
3441.762319,-9548.656652,2664.741391,-3830.477490
3441.762656,-8364.327145,2368.659014,459.657299
3441.762993,-8216.285956,2294.638420,1838.629195
3441.763331,-10140.821405,3552.988522,153.219100
3441.763668,-11325.150913,5033.400406,-2528.115143
3441.764006,-10584.944971,4145.153275,-3983.696590
3441.764343,-9770.718434,1924.535449,-1762.019645
3441.764681,-9770.718434,1110.308913,459.657299
3441.765018,-9770.718434,2294.638420,0.000000
3441.765355,-10066.800811,2812.782580,-842.705048
3441.765693,-9622.677246,2072.576638,-2528.115143
3441.766030,-9400.615463,1036.288319,-2987.772442
3441.766368,-10584.944971,444.123565,-1915.238745
3441.766705,-11029.068536,296.082377,-2987.772442
3441.767043,-11177.109724,814.226536,-3830.477490
3441.767380,-10362.883188,1036.288319,-3677.258390
3441.767717,-9252.574275,-296.082377,-3524.039291
3441.768055,-9104.533087,-814.226536,-2374.896044
3441.768392,-9992.780217,-592.164754,-766.095498
3441.768730,-10436.903782,222.061783,-612.876398
3441.769067,-11103.089130,1702.473667,0.000000
3441.769405,-11695.253884,2294.638420,-1149.143247
3441.769742,-11103.089130,1628.453072,-2911.162892
3441.770080,-10066.800811,1036.288319,-1838.629195
3441.770417,-9992.780217,962.267725,612.876398
3441.770754,-9918.759623,1998.556043,76.609550
3441.771092,-9844.739029,3330.926739,-1915.238745
3441.771429,-10436.903782,3404.947333,-2451.505594
3441.771767,-9474.636058,3701.029710,-3294.210641
3441.772104,-10362.883188,3034.844362,-3447.429741
3441.772442,-10807.006753,2516.700203,-2298.286494
3441.772779,-8808.450710,1850.514855,-3983.696590
3441.773116,-8660.409521,2516.700203,-3447.429741
3441.773454,-9400.615463,2368.659014,-2911.162892
3441.773791,-8882.471304,1702.473667,-3217.601092
3441.774129,-9992.780217,1924.535449,-3600.648841
3441.774466,-10288.862594,444.123565,-1149.143247
3441.774804,-10584.944971,962.267725,-153.219100
3441.775141,-9474.636058,666.185348,-1378.971896
3441.775478,-9030.512492,2516.700203,-842.705048
3441.775816,-9696.697840,1776.494261,-1532.190996
3441.776153,-11473.192101,1184.329507,-2221.676944
3441.776491,-9770.718434,814.226536,-2298.286494
3441.776828,-9400.615463,1480.411884,-689.485948
3441.777166,-10140.821405,1110.308913,-306.438199
3441.777503,-10658.965565,1850.514855,-2604.724693
3441.777841,-10140.821405,1850.514855,-1302.362347
3441.778178,-10881.027347,2220.617826,0.000000
3441.778515,-11621.233289,1406.391290,-536.266849
3441.778853,-10807.006753,2516.700203,-1608.800546
3441.779190,-9474.636058,2220.617826,-1608.800546
3441.779528,-11029.068536,-296.082377,-1838.629195
3441.779865,-10881.027347,-740.205942,-2911.162892
3441.780203,-9030.512492,148.041188,-3600.648841
3441.780540,-8142.265362,222.061783,-2757.943793
3441.780877,-9770.718434,-814.226536,-2757.943793
3441.781215,-10066.800811,222.061783,-3294.210641
3441.781552,-9474.636058,592.164754,-3140.991542
3441.781890,-10214.842000,-296.082377,-459.657299
3441.782227,-10658.965565,-370.102971,383.047749
3441.782565,-10807.006753,222.061783,-383.047749
3441.782902,-9030.512492,1850.514855,-995.924147
3441.783239,-9622.677246,1924.535449,1455.581446
3441.783577,-11695.253884,1480.411884,536.266849
3441.783914,-10214.842000,2664.741391,-2451.505594
3441.784252,-9252.574275,4663.297435,-2374.896044
3441.784589,-9548.656652,4293.194464,-689.485948
3441.784927,-11325.150913,2368.659014,-1838.629195
3441.785264,-11695.253884,3478.967927,-2298.286494
3441.785602,-8586.388927,5329.482782,-3447.429741
3441.785939,-9252.574275,5033.400406,-1685.410096
3441.786276,-10807.006753,3404.947333,-2834.553343
3441.786614,-11399.171507,2812.782580,-3217.601092
3441.786951,-8808.450710,3478.967927,-3294.210641
3441.787289,-8364.327145,2960.823768,-2528.115143
3441.787626,-9474.636058,2220.617826,-2681.334243
3441.787964,-10807.006753,0.000000,-3217.601092
3441.788301,-9030.512492,148.041188,-2451.505594
3441.788638,-7328.038826,1258.350101,-1608.800546
3441.788976,-10436.903782,2072.576638,-995.924147
3441.789313,-11917.315666,2738.761985,-3983.696590
3441.789651,-10584.944971,222.061783,-4749.792088
3441.789988,-8882.471304,444.123565,-2145.067394
3441.790326,-7994.224174,962.267725,76.609550
3441.790663,-10214.842000,2368.659014,153.219100
3441.791000,-11621.233289,2072.576638,-1915.238745
3441.791338,-9770.718434,370.102971,-3064.381992
3441.791675,-9992.780217,-296.082377,842.705048
3441.792013,-11251.130318,888.247130,2528.115143
3441.792350,-11917.315666,2738.761985,229.828649
3441.792688,-12657.521608,2664.741391,-3907.087040
3441.793025,-10214.842000,2220.617826,-5209.449386
3441.793362,-7698.141797,666.185348,-3447.429741
3441.793700,-8586.388927,740.205942,842.705048
3441.794037,-10881.027347,1110.308913,-1225.752797
3441.794375,-11251.130318,1554.432478,-5209.449386
3441.794712,-10510.924376,2072.576638,-5822.325785
3441.795050,-9104.533087,444.123565,-2145.067394
3441.795387,-8808.450710,-296.082377,76.609550
3441.795725,-9252.574275,0.000000,536.266849
3441.796062,-11029.068536,666.185348,1149.143247
3441.796399,-10362.883188,1406.391290,-383.047749
3441.796737,-9844.739029,2590.720797,-1149.143247
3441.797074,-9918.759623,3256.906145,-995.924147
3441.797412,-9770.718434,2294.638420,-2451.505594
3441.797749,-9770.718434,2590.720797,-3140.991542
3441.798087,-8808.450710,2368.659014,-1915.238745
3441.798424,-7772.162391,1850.514855,-383.047749
3441.798761,-10881.027347,2590.720797,-229.828649
3441.799099,-11843.295072,3256.906145,-2528.115143
3441.799436,-11547.212695,5033.400406,-3677.258390
3441.799774,-11103.089130,4367.215058,-2834.553343
3441.800111,-9696.697840,2368.659014,-2834.553343
3441.800449,-7550.100608,1998.556043,-2757.943793
3441.800786,-8290.306550,1702.473667,-1225.752797
3441.801123,-10288.862594,1554.432478,-612.876398
3441.801461,-11991.336260,888.247130,-1685.410096
3441.801798,-11917.315666,740.205942,-2374.896044
3441.802136,-9992.780217,1036.288319,-3830.477490
3441.802473,-9474.636058,740.205942,-2604.724693
3441.802811,-10140.821405,518.144159,-3524.039291
3441.803148,-9474.636058,0.000000,-3983.696590
3441.803486,-8290.306550,0.000000,-3524.039291
3441.803823,-8512.368333,592.164754,-1991.848295
3441.804160,-10732.986159,370.102971,-919.314598
3441.804498,-10955.047942,0.000000,-612.876398
3441.804835,-9474.636058,518.144159,842.705048
3441.805173,-9548.656652,0.000000,3370.820191
3441.805510,-11621.233289,2664.741391,2987.772442
3441.805848,-12879.583391,3330.926739,383.047749
3441.806185,-11325.150913,3775.050304,-3064.381992
3441.806522,-9474.636058,3552.988522,-4213.525239
3441.806860,-9548.656652,2294.638420,-2911.162892
3441.807197,-8808.450710,2368.659014,-3217.601092
3441.807535,-7994.224174,2072.576638,-3907.087040
3441.807872,-9326.594869,1924.535449,-3140.991542
3441.808210,-10214.842000,2960.823768,-2221.676944
3441.808547,-11547.212695,2664.741391,-1378.971896
3441.808884,-11029.068536,2812.782580,-1838.629195
3441.809222,-9696.697840,3256.906145,-1532.190996
3441.809559,-9844.739029,2442.679609,-1149.143247
3441.809897,-9474.636058,1998.556043,-153.219100
3441.810234,-8068.244768,1036.288319,0.000000
3441.810572,-9326.594869,592.164754,0.000000
3441.810909,-10807.006753,962.267725,-1378.971896
3441.811247,-10584.944971,1406.391290,-2221.676944
3441.811584,-9992.780217,1628.453072,-2298.286494
3441.811921,-8956.491898,1406.391290,-1685.410096
3441.812259,-9474.636058,2516.700203,-1378.971896
3441.812596,-10510.924376,3552.988522,-1302.362347
3441.812934,-10881.027347,3552.988522,-2834.553343
3441.813271,-10288.862594,2960.823768,-3294.210641
3441.813609,-9474.636058,2294.638420,-2451.505594
3441.813946,-9326.594869,1480.411884,-1532.190996
3441.814283,-9474.636058,1036.288319,-1762.019645
3441.814621,-9622.677246,1110.308913,-2528.115143
3441.814958,-10362.883188,222.061783,-2451.505594
3441.815296,-10955.047942,1554.432478,-2987.772442
3441.815633,-11103.089130,1554.432478,-3217.601092
3441.815971,-10807.006753,1406.391290,-3600.648841
3441.816308,-9770.718434,0.000000,-3140.991542
3441.816645,-9030.512492,0.000000,-1225.752797
3441.816983,-8290.306550,148.041188,229.828649
3441.817320,-9770.718434,0.000000,842.705048
3441.817658,-11251.130318,296.082377,612.876398
3441.817995,-11547.212695,518.144159,536.266849
3441.818333,-11029.068536,814.226536,842.705048
3441.818670,-10955.047942,814.226536,1455.581446
3441.819008,-9844.739029,1332.370696,919.314598
3441.819345,-9844.739029,1850.514855,229.828649
3441.819682,-10140.821405,2442.679609,-459.657299
3441.820020,-9770.718434,3108.864956,-1762.019645
3441.820357,-9992.780217,2960.823768,-2221.676944
3441.820695,-9548.656652,3182.885551,-2834.553343
3441.821032,-9326.594869,2812.782580,-2528.115143
3441.821370,-9400.615463,2368.659014,-2528.115143
3441.821707,-9548.656652,2294.638420,-2834.553343
3441.822044,-9844.739029,2664.741391,-3524.039291
3441.822382,-10510.924376,2738.761985,-3830.477490
3441.822719,-10362.883188,1924.535449,-5439.278036
3441.823057,-9178.553681,1702.473667,-4979.620737
3441.823394,-8808.450710,222.061783,-3983.696590
3441.823732,-8512.368333,0.000000,-3370.820191
3441.824069,-9178.553681,814.226536,-2987.772442
3441.824406,-10436.903782,2072.576638,-1685.410096
3441.824744,-10881.027347,2072.576638,-2145.067394
3441.825081,-11029.068536,1628.453072,-2451.505594
3441.825419,-11399.171507,2368.659014,-1915.238745
3441.825756,-10510.924376,1998.556043,-1762.019645
3441.826094,-9918.759623,2294.638420,-1532.190996
3441.826431,-9548.656652,1554.432478,-1378.971896
3441.826769,-10584.944971,1776.494261,-689.485948
3441.827106,-11029.068536,3108.864956,-1608.800546
3441.827443,-11103.089130,3775.050304,-2528.115143
3441.827781,-10288.862594,4441.235652,-3370.820191
3441.828118,-10066.800811,3404.947333,-3217.601092
3441.828456,-9400.615463,2590.720797,-1762.019645
3441.828793,-8882.471304,2442.679609,-689.485948
3441.829131,-9918.759623,2738.761985,612.876398
3441.829468,-11325.150913,2812.782580,-689.485948
3441.829805,-10362.883188,2960.823768,-2298.286494
3441.830143,-10066.800811,2220.617826,-2298.286494
3441.830480,-9104.533087,740.205942,-766.095498
3441.830818,-9104.533087,1480.411884,-919.314598
3441.831155,-9548.656652,2590.720797,-2451.505594
3441.831493,-9474.636058,3256.906145,-2987.772442
3441.831830,-9030.512492,2368.659014,-2451.505594
3441.832167,-9548.656652,1554.432478,0.000000
3441.832505,-9918.759623,1924.535449,1302.362347
3441.832842,-9548.656652,3182.885551,1378.971896
3441.833180,-11177.109724,3182.885551,2068.457845
3441.833517,-11991.336260,2812.782580,1149.143247
3441.833855,-10732.986159,3997.112087,-842.705048
3441.834192,-9844.739029,4441.235652,-1991.848295
3441.834529,-10362.883188,3552.988522,-2221.676944
3441.834867,-10510.924376,1850.514855,-2528.115143
3441.835204,-9400.615463,148.041188,-2987.772442
3441.835542,-8142.265362,1184.329507,-1378.971896
3441.835879,-10066.800811,1776.494261,153.219100
3441.836217,-12879.583391,2072.576638,-2221.676944
3441.836554,-11621.233289,2960.823768,-6741.640382
3441.836892,-8956.491898,1258.350101,-5898.935335
3441.837229,-7846.182985,-592.164754,-2221.676944
3441.837566,-8734.430116,-1332.370696,-1685.410096
3441.837904,-9844.739029,-1110.308913,-2145.067394
3441.838241,-10214.842000,-444.123565,-3140.991542
3441.838579,-9696.697840,-592.164754,-3370.820191
3441.838916,-9992.780217,-296.082377,-3677.258390
3441.839254,-10140.821405,-962.267725,-1838.629195
3441.839591,-9400.615463,-444.123565,-1378.971896
3441.839928,-9992.780217,222.061783,-306.438199
3441.840266,-11399.171507,2294.638420,0.000000
3441.840603,-11177.109724,2442.679609,-1532.190996
3441.840941,-10436.903782,2738.761985,-2145.067394
3441.841278,-10658.965565,1776.494261,-1762.019645
3441.841616,-10436.903782,1480.411884,-842.705048
3441.841953,-10066.800811,1702.473667,-383.047749
3441.842290,-9770.718434,2220.617826,-1608.800546
3441.842628,-9770.718434,3182.885551,-2987.772442
3441.842965,-11103.089130,2442.679609,-3370.820191
3441.843303,-11177.109724,1776.494261,-2451.505594
3441.843640,-9400.615463,2220.617826,-842.705048
3441.843978,-9992.780217,3849.070898,-1608.800546
3441.844315,-9918.759623,3997.112087,-4366.744339
3441.844653,-9030.512492,2220.617826,-4826.401637
3441.844990,-8216.285956,1110.308913,-2451.505594
3441.845327,-9400.615463,-962.267725,229.828649
3441.845665,-9178.553681,1036.288319,612.876398
3441.846002,-10140.821405,1924.535449,-612.876398
3441.846340,-10807.006753,1480.411884,-1532.190996
3441.846677,-10436.903782,1184.329507,-2451.505594
3441.847015,-9622.677246,1628.453072,-229.828649
3441.847352,-10510.924376,2516.700203,459.657299
3441.847689,-9104.533087,3182.885551,-1149.143247
3441.848027,-11029.068536,1850.514855,-2068.457845
3441.848364,-8734.430116,1628.453072,-2604.724693
3441.848702,-8586.388927,518.144159,-229.828649
3441.849039,-10658.965565,2294.638420,76.609550
3441.849377,-11621.233289,2294.638420,-995.924147
3441.849714,-12805.562797,1924.535449,-2451.505594
3441.850051,-11399.171507,1924.535449,-3753.867940
3441.850389,-8586.388927,2368.659014,-3294.210641
3441.850726,-10066.800811,2590.720797,-1915.238745
3441.851064,-11695.253884,888.247130,-2451.505594
3441.851401,-9918.759623,296.082377,-4519.963438
3441.851739,-7772.162391,518.144159,-3294.210641
3441.852076,-7846.182985,1406.391290,-842.705048
3441.852414,-12657.521608,444.123565,536.266849
3441.852751,-12657.521608,1036.288319,-3524.039291
3441.853088,-9474.636058,666.185348,-4060.306139
3441.853426,-7550.100608,1776.494261,-689.485948
3441.853763,-9622.677246,1332.370696,2221.676944
3441.854100,-11843.295072,2516.700203,0.000000
3441.854438,-10066.800811,3478.967927,-2298.286494
3441.854775,-9326.594869,3997.112087,-1302.362347
3441.855112,-11325.150913,3552.988522,-306.438199
3441.855450,-10436.903782,4367.215058,-2757.943793
3441.855787,-8216.285956,3256.906145,-2757.943793
3441.856124,-8660.409521,2812.782580,-1225.752797
3441.856462,-9696.697840,2812.782580,-1455.581446
3441.856799,-11029.068536,3256.906145,-1302.362347
3441.857136,-10658.965565,4219.173869,-1838.629195
3441.857474,-11251.130318,3034.844362,-2911.162892
3441.857811,-10658.965565,3552.988522,-4060.306139
3441.858148,-8882.471304,2738.761985,-4979.620737
3441.858486,-7994.224174,1332.370696,-2681.334243
3441.858823,-8068.244768,592.164754,-2911.162892
3441.859160,-8956.491898,222.061783,-2604.724693
3441.859498,-11769.274478,370.102971,-1608.800546
3441.859835,-11251.130318,814.226536,-1378.971896
3441.860173,-9400.615463,814.226536,-2911.162892
3441.860510,-11325.150913,222.061783,-766.095498
3441.860847,-11547.212695,148.041188,-153.219100
3441.861185,-9474.636058,814.226536,-919.314598
3441.861522,-10140.821405,1924.535449,0.000000
3441.861859,-11621.233289,1628.453072,-689.485948
3441.862197,-10955.047942,1406.391290,-2528.115143
3441.862534,-10288.862594,1628.453072,-2604.724693
3441.862871,-9548.656652,888.247130,-842.705048
3441.863209,-10510.924376,592.164754,0.000000
3441.863546,-10881.027347,222.061783,-1225.752797
3441.863883,-10066.800811,1998.556043,-2451.505594
3441.864221,-9548.656652,1776.494261,-3983.696590
3441.864558,-10658.965565,1480.411884,-3294.210641
3441.864895,-9992.780217,666.185348,-2374.896044
3441.865233,-9252.574275,370.102971,-766.095498
3441.865570,-9992.780217,1480.411884,76.609550
3441.865907,-10362.883188,2220.617826,-2068.457845
3441.866245,-9474.636058,1628.453072,-2987.772442
3441.866582,-9844.739029,740.205942,-2145.067394
3441.866919,-9178.553681,0.000000,-995.924147
3441.867257,-8586.388927,888.247130,-1225.752797
3441.867594,-9918.759623,1480.411884,-459.657299
3441.867931,-9770.718434,2368.659014,-2221.676944
3441.868269,-9622.677246,3997.112087,-3140.991542
3441.868606,-11843.295072,3849.070898,-1455.581446
3441.868944,-10658.965565,2664.741391,0.000000
3441.869281,-10955.047942,2146.597232,383.047749
3441.869618,-10881.027347,2664.741391,-306.438199
3441.869956,-8290.306550,2146.597232,-1608.800546
3441.870293,-8882.471304,2220.617826,-919.314598
3441.870630,-9770.718434,296.082377,-1225.752797
3441.870968,-9844.739029,888.247130,-1532.190996
3441.871305,-11177.109724,1924.535449,-2834.553343
3441.871642,-12435.459826,1332.370696,-3677.258390
3441.871980,-9030.512492,444.123565,-5439.278036
3441.872317,-8364.327145,-518.144159,-3064.381992
3441.872654,-9474.636058,-1258.350101,0.000000
3441.872992,-9474.636058,740.205942,-536.266849
3441.873329,-10955.047942,1554.432478,-1608.800546
3441.873666,-11473.192101,-444.123565,-1915.238745
3441.874004,-10732.986159,-2072.576638,-1455.581446
3441.874341,-10658.965565,-1480.411884,0.000000
3441.874678,-9548.656652,-592.164754,689.485948
3441.875016,-8438.347739,0.000000,-153.219100
3441.875353,-10807.006753,-592.164754,-536.266849
3441.875690,-10436.903782,-148.041188,536.266849
3441.876028,-11029.068536,222.061783,2145.067394
3441.876365,-10510.924376,2516.700203,2374.896044
3441.876703,-10807.006753,3997.112087,459.657299
3441.877040,-12583.501014,2516.700203,-1915.238745
3441.877377,-9104.533087,592.164754,-2757.943793
3441.877715,-7624.121203,148.041188,76.609550
3441.878052,-9326.594869,2072.576638,1915.238745
3441.878389,-9844.739029,2516.700203,-1302.362347
3441.878727,-11917.315666,1776.494261,-3677.258390
3441.879064,-10288.862594,0.000000,-2528.115143
3441.879401,-7920.203579,814.226536,306.438199
3441.879739,-8882.471304,2738.761985,612.876398
3441.880076,-9548.656652,2146.597232,-612.876398
3441.880413,-10658.965565,370.102971,-1838.629195
3441.880751,-9178.553681,-962.267725,-1915.238745
3441.881088,-8512.368333,-370.102971,2374.896044
3441.881425,-9992.780217,1110.308913,2911.162892
3441.881763,-10732.986159,0.000000,0.000000
3441.882100,-11473.192101,-370.102971,-1225.752797
3441.882437,-9474.636058,-962.267725,0.000000
3441.882775,-8364.327145,296.082377,1455.581446
3441.883112,-9326.594869,1184.329507,1149.143247
3441.883449,-12509.480420,888.247130,766.095498
3441.883787,-11103.089130,-888.247130,-1991.848295
3441.884124,-8882.471304,0.000000,612.876398
3441.884461,-9104.533087,1258.350101,3217.601092
3441.884799,-10955.047942,518.144159,1225.752797
3441.885136,-13027.624579,-1406.391290,-2145.067394
3441.885474,-10955.047942,-1998.556043,-2451.505594
3441.885811,-7846.182985,-2442.679609,842.705048
3441.886148,-8882.471304,-222.061783,2145.067394
3441.886486,-10510.924376,-1406.391290,-536.266849
3441.886823,-10807.006753,-2072.576638,-3677.258390
3441.887160,-9918.759623,-2960.823768,-1915.238745
3441.887498,-9844.739029,-1924.535449,1455.581446
3441.887835,-9400.615463,-1036.288319,3217.601092
3441.888172,-10584.944971,-1628.453072,995.924147
3441.888510,-9844.739029,-2146.597232,-306.438199
3441.888847,-8808.450710,-1554.432478,766.095498
3441.889184,-8512.368333,0.000000,3140.991542
3441.889522,-10807.006753,-592.164754,3140.991542
3441.889859,-12509.480420,518.144159,1991.848295
3441.890196,-11917.315666,-296.082377,766.095498
3441.890534,-9548.656652,-148.041188,2221.676944
3441.890871,-7994.224174,962.267725,2145.067394
3441.891208,-9252.574275,1332.370696,1378.971896
3441.891546,-11325.150913,1480.411884,0.000000
3441.891883,-9992.780217,0.000000,-1455.581446
3441.892220,-8956.491898,296.082377,0.000000
3441.892558,-9104.533087,1628.453072,1149.143247
3441.892895,-12731.542202,1332.370696,153.219100
3441.893233,-11917.315666,518.144159,-3370.820191
3441.893570,-7105.977043,-1628.453072,-2681.334243
3441.893907,-7179.997637,-1628.453072,306.438199
3441.894245,-8068.244768,-1480.411884,1072.533697
3441.894582,-10807.006753,-2664.741391,-76.609550
3441.894919,-11103.089130,-1332.370696,-1378.971896
3441.895257,-9918.759623,-1110.308913,-612.876398
3441.895594,-9178.553681,814.226536,0.000000
3441.895931,-9992.780217,-740.205942,-153.219100
3441.896269,-11621.233289,-1850.514855,689.485948
3441.896606,-9844.739029,-2146.597232,0.000000
3441.896943,-9030.512492,-740.205942,2911.162892
3441.897281,-11029.068536,74.020594,3370.820191
3441.897618,-11177.109724,-1258.350101,-995.924147
3441.897955,-10362.883188,-1702.473667,-2068.457845
3441.898293,-10807.006753,-666.185348,919.314598
3441.898630,-9030.512492,0.000000,2298.286494
3441.898967,-11103.089130,518.144159,306.438199
3441.899305,-11473.192101,370.102971,-2987.772442
3441.899642,-9622.677246,-296.082377,-2604.724693
3441.899979,-9104.533087,-296.082377,1149.143247
3441.900317,-9548.656652,1110.308913,1532.190996
3441.900654,-10214.842000,1110.308913,0.000000
3441.900992,-12139.377449,-888.247130,-612.876398
3441.901329,-11029.068536,-592.164754,-766.095498
3441.901666,-7846.182985,740.205942,76.609550
3441.902004,-8956.491898,1406.391290,2298.286494
3441.902341,-10881.027347,592.164754,612.876398
3441.902678,-11029.068536,-1184.329507,-1378.971896
3441.903016,-8660.409521,-962.267725,-153.219100
3441.903353,-6957.935855,962.267725,3677.258390
3441.903690,-9844.739029,3108.864956,2987.772442
3441.904028,-12213.398043,2368.659014,-919.314598
3441.904365,-12287.418637,370.102971,-1225.752797
3441.904702,-9918.759623,-74.020594,2221.676944
3441.905040,-7550.100608,1554.432478,5592.497135
3441.905377,-9474.636058,1554.432478,3907.087040
3441.905714,-12287.418637,444.123565,0.000000
3441.906052,-11251.130318,-518.144159,-2757.943793
3441.906389,-8808.450710,-444.123565,-842.705048
3441.906726,-7550.100608,1036.288319,1302.362347
3441.907064,-9696.697840,-148.041188,229.828649
3441.907401,-11843.295072,74.020594,-2987.772442
3441.907738,-10066.800811,-1850.514855,-3600.648841
3441.908076,-9326.594869,-1702.473667,612.876398
3441.908413,-8808.450710,-1998.556043,2528.115143
3441.908750,-12139.377449,-2886.803174,1302.362347
3441.909088,-11547.212695,-3034.844362,-1838.629195
3441.909425,-8068.244768,-2886.803174,153.219100
3441.909763,-8364.327145,-2220.617826,4443.353888
3441.910100,-10955.047942,-2590.720797,2451.505594
3441.910437,-12657.521608,-2072.576638,383.047749
3441.910775,-12953.603985,-1480.411884,-842.705048
3441.911112,-9030.512492,888.247130,0.000000
3441.911449,-9474.636058,740.205942,1302.362347
3441.911787,-10732.986159,-296.082377,306.438199
3441.912124,-9548.656652,-888.247130,-1378.971896
3441.912461,-10362.883188,-962.267725,-153.219100
3441.912799,-9918.759623,2072.576638,689.485948
3441.913136,-10955.047942,444.123565,1072.533697
3441.913473,-11399.171507,888.247130,-383.047749
3441.913811,-9252.574275,-296.082377,-3217.601092
3441.914148,-8364.327145,-518.144159,-306.438199
3441.914485,-7920.203579,592.164754,612.876398
3441.914823,-8364.327145,-592.164754,-995.924147
3441.915160,-10881.027347,-1036.288319,-2374.896044
3441.915497,-9474.636058,-518.144159,-2987.772442
3441.915835,-9474.636058,222.061783,919.314598
3441.916172,-8882.471304,1184.329507,995.924147
3441.916509,-9474.636058,-370.102971,536.266849
3441.916847,-11029.068536,-1184.329507,229.828649
3441.917184,-8438.347739,-666.185348,76.609550
3441.917522,-8660.409521,592.164754,2757.943793
3441.917859,-11991.336260,222.061783,3217.601092
3441.918196,-11843.295072,296.082377,76.609550
3441.918534,-10436.903782,-222.061783,0.000000
3441.918871,-9474.636058,0.000000,2604.724693
3441.919208,-8882.471304,1554.432478,2834.553343
3441.919546,-11547.212695,666.185348,612.876398
3441.919883,-12287.418637,1036.288319,-1532.190996
3441.920220,-10955.047942,-740.205942,-1302.362347
3441.920558,-10214.842000,0.000000,1302.362347
3441.920895,-9178.553681,-296.082377,1762.019645
3441.921232,-10510.924376,-1628.453072,1225.752797
3441.921570,-11251.130318,-1258.350101,-383.047749
3441.921907,-8882.471304,-1554.432478,-2298.286494
3441.922244,-8142.265362,-814.226536,0.000000
3441.922582,-10510.924376,-1702.473667,689.485948
3441.922919,-11621.233289,-1554.432478,-1225.752797
3441.923256,-9252.574275,-2368.659014,-1225.752797
3441.923594,-7994.224174,-1850.514855,2068.457845
3441.923931,-8216.285956,-666.185348,2604.724693
3441.924268,-10362.883188,-518.144159,1915.238745
3441.924606,-12065.356855,148.041188,1149.143247
3441.924943,-11103.089130,-962.267725,842.705048
3441.925281,-9474.636058,1628.453072,1762.019645
3441.925618,-8586.388927,2738.761985,1838.629195
3441.925955,-10955.047942,1702.473667,536.266849
3441.926293,-9770.718434,1406.391290,-689.485948
3441.926630,-11029.068536,1184.329507,1149.143247
3441.926967,-11547.212695,2072.576638,1838.629195
3441.927305,-10140.821405,2072.576638,-766.095498
3441.927642,-11029.068536,1036.288319,-1685.410096
3441.927979,-9178.553681,-518.144159,-2145.067394
3441.928317,-7698.141797,-444.123565,1378.971896
3441.928654,-9104.533087,1332.370696,1685.410096
3441.928991,-9992.780217,296.082377,-1991.848295
3441.929329,-11103.089130,-444.123565,-3983.696590
3441.929666,-10510.924376,-1702.473667,-3983.696590
3441.930003,-7994.224174,-888.247130,-1608.800546
3441.930341,-8364.327145,-1110.308913,1378.971896
3441.930678,-9770.718434,-1850.514855,459.657299
3441.931015,-9030.512492,-1036.288319,-842.705048
3441.931353,-10955.047942,-1924.535449,536.266849
3441.931690,-9252.574275,-962.267725,1532.190996
3441.932027,-10807.006753,-1924.535449,2987.772442
3441.932365,-11769.274478,-1776.494261,2221.676944
3441.932702,-11695.253884,-1628.453072,1072.533697
3441.933039,-9696.697840,148.041188,766.095498
3441.933377,-9474.636058,370.102971,842.705048
3441.933714,-10658.965565,-1776.494261,-766.095498
3441.934052,-11695.253884,-814.226536,-1838.629195
3441.934389,-9992.780217,-518.144159,-1149.143247
3441.934726,-10066.800811,1480.411884,459.657299
3441.935064,-11769.274478,0.000000,919.314598
3441.935401,-13323.706956,0.000000,0.000000
3441.935738,-10214.842000,-1184.329507,-1149.143247
3441.936076,-8364.327145,-814.226536,459.657299
3441.936413,-9918.759623,-888.247130,2604.724693
3441.936750,-9918.759623,-1480.411884,766.095498
3441.937088,-9474.636058,-2590.720797,229.828649
3441.937425,-9178.553681,-1628.453072,383.047749
3441.937762,-8290.306550,0.000000,2068.457845
3441.938100,-9770.718434,666.185348,1838.629195
3441.938437,-9992.780217,-592.164754,153.219100
3441.938774,-9030.512492,-148.041188,153.219100
3441.939112,-8882.471304,0.000000,3753.867940
3441.939449,-10066.800811,444.123565,4213.525239
3441.939786,-10362.883188,2072.576638,1608.800546
3441.940124,-11029.068536,222.061783,0.000000
3441.940461,-10732.986159,-1110.308913,536.266849
3441.940798,-7994.224174,-296.082377,1378.971896
3441.941136,-7624.121203,2220.617826,1378.971896
3441.941473,-11547.212695,1184.329507,-459.657299
3441.941811,-13249.686362,-666.185348,-3753.867940
3441.942148,-11399.171507,-444.123565,-2757.943793
3441.942485,-9104.533087,0.000000,229.828649
3441.942823,-7772.162391,740.205942,1225.752797
3441.943160,-11251.130318,-1258.350101,-766.095498
3441.943497,-11695.253884,-2812.782580,-1991.848295
3441.943835,-9474.636058,-3627.009116,229.828649
3441.944172,-9326.594869,-1480.411884,2757.943793
3441.944509,-10807.006753,-740.205942,1225.752797
3441.944847,-12065.356855,-1702.473667,-2221.676944
3441.945184,-10807.006753,-2590.720797,-3140.991542
3441.945521,-8290.306550,-2812.782580,-689.485948
3441.945859,-6883.915261,-518.144159,2221.676944
3441.946196,-10658.965565,-296.082377,1915.238745
3441.946533,-12879.583391,0.000000,-1072.533697
3441.946871,-10658.965565,-1110.308913,-1991.848295
3441.947208,-9030.512492,74.020594,2145.067394
3441.947545,-9326.594869,1184.329507,3677.258390
3441.947883,-10140.821405,444.123565,1149.143247
3441.948220,-11473.192101,-148.041188,-1532.190996
3441.948557,-9474.636058,296.082377,-842.705048
3441.948895,-8882.471304,666.185348,1149.143247
3441.949232,-10214.842000,2220.617826,153.219100
3441.949570,-9992.780217,1258.350101,-2298.286494
3441.949907,-10807.006753,1110.308913,-3830.477490
3441.950244,-8956.491898,592.164754,-2221.676944
3441.950582,-7920.203579,962.267725,1685.410096
3441.950919,-9992.780217,888.247130,1915.238745
3441.951256,-11473.192101,-518.144159,459.657299
3441.951594,-10436.903782,0.000000,0.000000
3441.951931,-9548.656652,370.102971,2298.286494
3441.952268,-8734.430116,1184.329507,2834.553343
3441.952606,-11251.130318,-962.267725,2987.772442
3441.952943,-11769.274478,-518.144159,766.095498
3441.953280,-9622.677246,-370.102971,229.828649
3441.953618,-8216.285956,962.267725,2068.457845
3441.953955,-9474.636058,740.205942,2911.162892
3441.954292,-12361.439231,-1184.329507,1072.533697
3441.954630,-10362.883188,0.000000,-995.924147
3441.954967,-7994.224174,-370.102971,0.000000
3441.955304,-9844.739029,0.000000,3294.210641
3441.955642,-11621.233289,0.000000,612.876398
3441.955979,-11621.233289,-2294.638420,-2145.067394
3441.956316,-9992.780217,-2590.720797,-76.609550
3441.956654,-8142.265362,-1480.411884,1302.362347
3441.956991,-9104.533087,-666.185348,1608.800546
3441.957328,-11251.130318,-1184.329507,-2451.505594
3441.957666,-10510.924376,-2664.741391,-3370.820191
3441.958003,-10436.903782,-2738.761985,-1532.190996
3441.958340,-8882.471304,-1850.514855,1302.362347
3441.958677,-9844.739029,-888.247130,2145.067394
3441.959015,-10807.006753,-1406.391290,229.828649
3441.959352,-11325.150913,-1628.453072,-995.924147
3441.959689,-10362.883188,-1258.350101,919.314598
3441.960027,-9474.636058,888.247130,2911.162892
3441.960364,-10955.047942,2220.617826,2145.067394
3441.960701,-13693.809927,666.185348,-919.314598
3441.961039,-10807.006753,518.144159,-1915.238745
3441.961376,-7846.182985,592.164754,612.876398
3441.961713,-9104.533087,1258.350101,2911.162892
3441.962051,-10510.924376,-74.020594,0.000000
3441.962388,-9918.759623,-518.144159,-995.924147
3441.962725,-8364.327145,814.226536,-383.047749
3441.963063,-9178.553681,1110.308913,1915.238745
3441.963400,-10584.944971,1924.535449,-919.314598
3441.963737,-10140.821405,0.000000,-4596.572988
3441.964075,-8586.388927,-1850.514855,-3524.039291
3441.964412,-6809.894666,-2664.741391,0.000000
3441.964749,-6661.853478,0.000000,995.924147
3441.965087,-8956.491898,-962.267725,536.266849
3441.965424,-11843.295072,-1406.391290,-1532.190996
3441.965761,-10807.006753,-3182.885551,0.000000
3441.966099,-10881.027347,-2442.679609,3217.601092
3441.966436,-9474.636058,-888.247130,4290.134789
3441.966773,-11769.274478,-148.041188,3370.820191
3441.967110,-11399.171507,-1332.370696,0.000000
3441.967448,-10881.027347,-1110.308913,-842.705048
3441.967785,-9178.553681,962.267725,1991.848295
3441.968122,-10658.965565,814.226536,3140.991542
3441.968460,-13767.830521,0.000000,766.095498
3441.968797,-13101.645173,-888.247130,-1225.752797
3441.969134,-10140.821405,1184.329507,153.219100
3441.969472,-9178.553681,1406.391290,2911.162892
3441.969809,-11325.150913,1110.308913,2221.676944
3441.970146,-11621.233289,-74.020594,-1762.019645
3441.970484,-9770.718434,-1332.370696,-842.705048
3441.970821,-7846.182985,-1036.288319,1608.800546
3441.971158,-8142.265362,74.020594,2145.067394
3441.971496,-10510.924376,518.144159,-689.485948
3441.971833,-10214.842000,-1258.350101,-3294.210641
3441.972170,-8734.430116,-370.102971,-1915.238745
3441.972508,-7402.059420,-962.267725,2068.457845
3441.972845,-7624.121203,74.020594,3064.381992
3441.973182,-10066.800811,0.000000,1455.581446
3441.973520,-11547.212695,-740.205942,-689.485948
3441.973857,-10214.842000,-370.102971,-536.266849
3441.974194,-8364.327145,592.164754,2757.943793
3441.974532,-9474.636058,1480.411884,3677.258390
3441.974869,-11103.089130,814.226536,459.657299
3441.975206,-10436.903782,222.061783,-1608.800546
3441.975543,-10214.842000,1776.494261,229.828649
3441.975881,-10955.047942,2220.617826,995.924147
3441.976218,-11769.274478,1628.453072,-766.095498
3441.976555,-11251.130318,0.000000,-3140.991542
3441.976893,-9178.553681,-1110.308913,-689.485948
3441.977230,-6291.750507,-1184.329507,2068.457845
3441.977567,-11769.274478,1036.288319,1455.581446
3441.977905,-12139.377449,-296.082377,-2221.676944
3441.978242,-10807.006753,-1406.391290,-5056.230287
3441.978579,-9696.697840,-1998.556043,-1072.533697
3441.978917,-8142.265362,-1628.453072,1991.848295
3441.979254,-9326.594869,-740.205942,842.705048
3441.979591,-12731.542202,-2738.761985,-1378.971896
3441.979929,-11029.068536,-3182.885551,-1762.019645
3441.980266,-7698.141797,-2516.700203,0.000000
3441.980603,-7772.162391,-370.102971,4826.401637
3441.980941,-11991.336260,-666.185348,3217.601092
3441.981278,-12139.377449,-2146.597232,-306.438199
3441.981615,-9474.636058,-2220.617826,0.000000
3441.981953,-9104.533087,0.000000,3677.258390
3441.982290,-10140.821405,1628.453072,4979.620737
3441.982627,-11769.274478,370.102971,1762.019645
3441.982965,-10436.903782,444.123565,-1915.238745
3441.983302,-9770.718434,1554.432478,153.219100
3441.983639,-8734.430116,2516.700203,2681.334243
3441.983976,-10955.047942,592.164754,1685.410096
3441.984314,-11399.171507,740.205942,-1225.752797
3441.984651,-9844.739029,888.247130,-2221.676944
3441.984988,-9548.656652,518.144159,-306.438199
3441.985326,-8882.471304,1480.411884,306.438199
3441.985663,-8438.347739,370.102971,766.095498
3441.986000,-10288.862594,-888.247130,-1149.143247
3441.986338,-9844.739029,74.020594,0.000000
3441.986675,-9622.677246,370.102971,1685.410096
3441.987012,-10362.883188,444.123565,2528.115143
3441.987350,-10955.047942,-888.247130,536.266849
3441.987687,-10436.903782,-1184.329507,-76.609550
3441.988024,-8216.285956,222.061783,459.657299
3441.988362,-7698.141797,370.102971,1378.971896
3441.988699,-10288.862594,962.267725,1149.143247
3441.989036,-10807.006753,0.000000,-1455.581446
3441.989374,-11621.233289,-962.267725,-1225.752797
3441.989711,-9178.553681,-370.102971,689.485948
3441.990048,-8586.388927,814.226536,2221.676944
3441.990386,-10881.027347,888.247130,2298.286494
3441.990723,-11473.192101,-1998.556043,-766.095498
3441.991060,-9770.718434,-1480.411884,-383.047749
3441.991398,-9548.656652,-370.102971,306.438199
3441.991735,-9474.636058,74.020594,0.000000
3441.992072,-12213.398043,-1332.370696,-2298.286494
3441.992410,-12287.418637,-3182.885551,-3064.381992
3441.992747,-9548.656652,-2960.823768,-1838.629195
3441.993084,-7254.018232,-666.185348,0.000000
3441.993421,-8734.430116,148.041188,1455.581446
3441.993759,-11621.233289,-1184.329507,-1685.410096
3441.994096,-11029.068536,-1924.535449,-2451.505594
3441.994433,-10140.821405,-740.205942,919.314598
3441.994771,-9918.759623,222.061783,2604.724693
3441.995108,-10881.027347,-370.102971,1685.410096
3441.995445,-10584.944971,-1332.370696,842.705048
3441.995783,-7698.141797,-962.267725,1225.752797
3441.996120,-7031.956449,-444.123565,4519.963438
3441.996457,-10140.821405,1110.308913,5745.716235
3441.996795,-13175.665768,2146.597232,1455.581446
3441.997132,-13471.748144,1702.473667,-1991.848295
3441.997469,-9474.636058,2072.576638,-2298.286494
3441.997807,-7031.956449,1998.556043,842.705048
3441.998144,-8216.285956,1258.350101,1608.800546
3441.998481,-10584.944971,222.061783,-1225.752797
3441.998819,-9474.636058,1554.432478,-2604.724693
3441.999156,-10140.821405,1258.350101,-1762.019645
3441.999493,-9770.718434,1184.329507,-1225.752797
3441.999831,-9622.677246,296.082377,-536.266849
3442.000168,-10881.027347,-1924.535449,-766.095498
3442.000505,-10288.862594,-2442.679609,2068.457845
3442.000843,-9252.574275,-1702.473667,3677.258390
3442.001180,-9474.636058,-962.267725,4213.525239
3442.001517,-11547.212695,-1036.288319,1838.629195
3442.001854,-11843.295072,-1850.514855,0.000000
3442.002192,-10066.800811,-1406.391290,995.924147
3442.002529,-7402.059420,-296.082377,1225.752797
3442.002866,-9252.574275,74.020594,1378.971896
3442.003204,-11843.295072,74.020594,-1608.800546
3442.003541,-11029.068536,-962.267725,-3753.867940
3442.003878,-8734.430116,-296.082377,-1915.238745
3442.004216,-9622.677246,1406.391290,1915.238745
3442.004553,-10584.944971,-444.123565,1149.143247
3442.004890,-11399.171507,-1554.432478,-229.828649
3442.005228,-10510.924376,-2072.576638,0.000000
3442.005565,-9326.594869,-740.205942,1302.362347
3442.005902,-10436.903782,-592.164754,1532.190996
3442.006240,-10288.862594,0.000000,-1149.143247
3442.006577,-10955.047942,-962.267725,-3140.991542
3442.006914,-9326.594869,-814.226536,-2298.286494
3442.007252,-7846.182985,-518.144159,-1072.533697
3442.007589,-9622.677246,74.020594,0.000000
3442.007926,-11177.109724,-1184.329507,-1225.752797
3442.008264,-9844.739029,-1406.391290,-1608.800546
3442.008601,-8956.491898,-296.082377,1072.533697
3442.008938,-9178.553681,0.000000,3830.477490
3442.009276,-10436.903782,0.000000,3447.429741
3442.009613,-10955.047942,666.185348,919.314598
3442.009950,-9474.636058,814.226536,536.266849
3442.010287,-9178.553681,2220.617826,1685.410096
3442.010625,-10510.924376,1702.473667,1685.410096
3442.010962,-12213.398043,1702.473667,0.000000
3442.011299,-10436.903782,0.000000,-2374.896044
3442.011637,-8290.306550,444.123565,459.657299
3442.011974,-8364.327145,1184.329507,2528.115143
3442.012311,-9696.697840,740.205942,1149.143247
3442.012649,-9770.718434,-444.123565,-1532.190996
3442.012986,-12213.398043,-962.267725,459.657299
3442.013323,-10881.027347,0.000000,-842.705048
3442.013661,-9992.780217,-518.144159,-459.657299
3442.013998,-9326.594869,-1036.288319,919.314598
3442.014335,-8956.491898,-2812.782580,306.438199
3442.014673,-10658.965565,-740.205942,229.828649
3442.015010,-9178.553681,-296.082377,-1149.143247
3442.015347,-10288.862594,-1332.370696,536.266849
