#time,accel_x,accel_y,accel_z
2977.955298,-10584.944971,518.144159,1455.581446
2977.955636,-10066.800811,666.185348,766.095498
2977.955973,-10510.924376,0.000000,1838.629195
2977.956311,-10362.883188,0.000000,1455.581446
2977.956649,-9326.594869,888.247130,0.000000
2977.956986,-9326.594869,1554.432478,-229.828649
2977.957324,-9918.759623,1480.411884,-842.705048
2977.957662,-10362.883188,888.247130,-1072.533697
2977.958000,-10510.924376,518.144159,-1532.190996
2977.958337,-8808.450710,444.123565,-1608.800546
2977.958675,-9178.553681,444.123565,-1378.971896
2977.959013,-10140.821405,-888.247130,-1455.581446
2977.959350,-9770.718434,-1184.329507,-1838.629195
2977.959688,-9400.615463,-2072.576638,-995.924147
2977.960026,-9548.656652,-1924.535449,-919.314598
2977.960363,-10214.842000,-2146.597232,-1532.190996
2977.960701,-10584.944971,-2368.659014,-995.924147
2977.961039,-9992.780217,-2886.803174,-612.876398
2977.961377,-9252.574275,-2516.700203,-689.485948
2977.961714,-9844.739029,-1924.535449,-383.047749
2977.962052,-11029.068536,-2664.741391,-689.485948
2977.962390,-10732.986159,-2146.597232,-1149.143247
2977.962727,-10362.883188,-2368.659014,0.000000
2977.963065,-10584.944971,-1554.432478,2221.676944
2977.963403,-10807.006753,-666.185348,842.705048
2977.963740,-11769.274478,-370.102971,-306.438199
2977.964078,-11177.109724,-444.123565,-1455.581446
2977.964416,-9770.718434,-2146.597232,-842.705048
2977.964754,-9770.718434,-1406.391290,306.438199
2977.965091,-10066.800811,-1480.411884,-842.705048
2977.965429,-10066.800811,-592.164754,-2451.505594
2977.965767,-9326.594869,-1924.535449,-2681.334243
2977.966104,-9030.512492,-1702.473667,-1532.190996
2977.966442,-9178.553681,-2442.679609,-1072.533697
2977.966780,-10066.800811,-1554.432478,-2451.505594
2977.967117,-10881.027347,-1998.556043,-4060.306139
2977.967455,-10658.965565,-2664.741391,-3830.477490
2977.967793,-8364.327145,-3775.050304,-3294.210641
2977.968130,-8068.244768,-3330.926739,-1991.848295
2977.968468,-8290.306550,-3627.009116,-995.924147
2977.968806,-9104.533087,-2738.761985,-766.095498
2977.969144,-10066.800811,-1998.556043,-919.314598
2977.969481,-11029.068536,-1258.350101,-919.314598
2977.969819,-10955.047942,-814.226536,-1225.752797
2977.970157,-11103.089130,-1776.494261,-2834.553343
2977.970494,-10658.965565,-2664.741391,-1991.848295
2977.970832,-9622.677246,-3627.009116,-995.924147
2977.971170,-8956.491898,-3552.988522,-1225.752797
2977.971507,-8364.327145,-3627.009116,-1532.190996
2977.971845,-9696.697840,-2368.659014,-1149.143247
2977.972183,-10510.924376,-1998.556043,-2604.724693
2977.972521,-11103.089130,-1554.432478,-4596.572988
2977.972858,-10140.821405,-2072.576638,-5056.230287
2977.973196,-10955.047942,-4589.276840,-3753.867940
2977.973534,-10066.800811,-4293.194464,-2834.553343
2977.973871,-9474.636058,-5107.421000,-2068.457845
2977.974209,-9992.780217,-4663.297435,-1915.238745
2977.974547,-9326.594869,-4737.318029,-2451.505594
2977.974884,-10066.800811,-5255.462188,-2451.505594
2977.975222,-10140.821405,-5255.462188,-1685.410096
2977.975560,-9326.594869,-3627.009116,-612.876398
2977.975897,-10436.903782,-2294.638420,689.485948
2977.976235,-10955.047942,-740.205942,-1225.752797
2977.976573,-12213.398043,-1850.514855,-2221.676944
2977.976911,-11695.253884,-2590.720797,-2145.067394
2977.977248,-9696.697840,-2886.803174,-536.266849
2977.977586,-9326.594869,-2812.782580,995.924147
2977.977924,-8956.491898,-1924.535449,-306.438199
2977.978261,-9326.594869,-1628.453072,-1378.971896
2977.978599,-10807.006753,-888.247130,-1302.362347
2977.978937,-9918.759623,814.226536,-2298.286494
2977.979274,-9252.574275,2294.638420,-2068.457845
2977.979612,-10288.862594,1184.329507,-1225.752797
2977.979950,-11399.171507,518.144159,-1225.752797
2977.980288,-11325.150913,-296.082377,-1915.238745
2977.980625,-8734.430116,-370.102971,-1991.848295
2977.980963,-7846.182985,-1776.494261,-536.266849
2977.981301,-9474.636058,-3108.864956,0.000000
2977.981638,-9770.718434,-2442.679609,-1302.362347
2977.981976,-8438.347739,-1776.494261,-2374.896044
2977.982314,-9326.594869,-1702.473667,-1915.238745
2977.982651,-11547.212695,-1554.432478,-2757.943793
2977.982989,-11621.233289,-740.205942,-5056.230287
2977.983327,-9696.697840,-2146.597232,-3600.648841
2977.983665,-9104.533087,-1850.514855,76.609550
2977.984002,-9548.656652,-1998.556043,-612.876398
2977.984340,-10955.047942,-2442.679609,-842.705048
2977.984678,-11103.089130,-3034.844362,-919.314598
2977.985015,-9030.512492,-3923.091493,-1072.533697
2977.985353,-9696.697840,-2516.700203,0.000000
2977.985691,-10732.986159,-2442.679609,383.047749
2977.986028,-11547.212695,-1924.535449,-2068.457845
2977.986366,-10436.903782,-1258.350101,-5056.230287
2977.986704,-11103.089130,-2146.597232,-4749.792088
2977.987041,-10140.821405,-3182.885551,-4136.915689
2977.987379,-9474.636058,-3849.070898,-4366.744339
2977.987717,-8364.327145,-3552.988522,-3600.648841
2977.988055,-9030.512492,-3627.009116,-4290.134789
2977.988392,-9770.718434,-4737.318029,-2987.772442
2977.988730,-9548.656652,-4367.215058,-2451.505594
2977.989068,-9474.636058,-3775.050304,-383.047749
2977.989405,-11399.171507,-2220.617826,612.876398
2977.989743,-10881.027347,-1554.432478,-766.095498
2977.990081,-11473.192101,-1480.411884,-1685.410096
2977.990418,-11177.109724,-1998.556043,-1991.848295
2977.990756,-10066.800811,-3404.947333,-1762.019645
2977.991094,-9178.553681,-2812.782580,-1225.752797
2977.991432,-8364.327145,-3182.885551,-306.438199
2977.991769,-9178.553681,-3330.926739,-383.047749
2977.992107,-9030.512492,-1924.535449,-1608.800546
2977.992445,-9992.780217,-1184.329507,76.609550
2977.992782,-10732.986159,814.226536,229.828649
2977.993120,-10214.842000,1406.391290,0.000000
2977.993458,-11103.089130,666.185348,-689.485948
2977.993795,-10584.944971,-666.185348,-1838.629195
2977.994133,-10955.047942,-1850.514855,-1762.019645
2977.994471,-9326.594869,-3256.906145,-3064.381992
2977.994808,-8734.430116,-4811.338623,-3447.429741
2977.995146,-7105.977043,-5477.523971,-2987.772442
2977.995484,-8068.244768,-4589.276840,-3217.601092
2977.995822,-8142.265362,-4663.297435,-2451.505594
2977.996159,-8956.491898,-2516.700203,-2834.553343
2977.996497,-10436.903782,-2738.761985,-1991.848295
2977.996835,-12657.521608,-1702.473667,-1455.581446
2977.997172,-11991.336260,-1702.473667,-1762.019645
2977.997510,-11251.130318,-3552.988522,-536.266849
2977.997848,-10066.800811,-4219.173869,76.609550
2977.998185,-9400.615463,-5477.523971,1072.533697
2977.998523,-10732.986159,-4811.338623,1149.143247
2977.998861,-9326.594869,-2812.782580,-1149.143247
2977.999199,-9474.636058,-2220.617826,-1915.238745
2977.999536,-11843.295072,-1628.453072,-2911.162892
2977.999874,-11325.150913,-1184.329507,-4060.306139
2978.000212,-10436.903782,-296.082377,-3140.991542
2978.000549,-9178.553681,0.000000,-1225.752797
2978.000887,-10214.842000,0.000000,536.266849
2978.001225,-10658.965565,-296.082377,0.000000
2978.001562,-10436.903782,-592.164754,76.609550
2978.001900,-11103.089130,-1184.329507,0.000000
2978.002238,-11177.109724,-1480.411884,-1685.410096
2978.002576,-10362.883188,-2294.638420,-3983.696590
2978.002913,-7179.997637,-3552.988522,-2757.943793
2978.003251,-6217.729913,-2516.700203,-459.657299
2978.003589,-7476.080014,0.000000,536.266849
2978.003926,-10955.047942,2368.659014,-612.876398
2978.004264,-12361.439231,2368.659014,-1762.019645
2978.004602,-12657.521608,1110.308913,-1685.410096
2978.004939,-10658.965565,518.144159,842.705048
2978.005277,-9030.512492,-666.185348,2834.553343
2978.005615,-8586.388927,-2294.638420,4519.963438
2978.005952,-8438.347739,-1924.535449,2681.334243
2978.006290,-8512.368333,-814.226536,1838.629195
2978.006628,-10510.924376,444.123565,1455.581446
2978.006966,-11769.274478,1258.350101,76.609550
2978.007303,-12731.542202,3108.864956,-1915.238745
2978.007641,-11177.109724,2146.597232,-4213.525239
2978.007979,-9548.656652,814.226536,-3064.381992
2978.008316,-7698.141797,-962.267725,-153.219100
2978.008654,-9474.636058,-2072.576638,1225.752797
2978.008992,-10955.047942,-1776.494261,842.705048
2978.009329,-11695.253884,-1924.535449,153.219100
2978.009667,-10732.986159,-2812.782580,-995.924147
2978.010005,-9400.615463,-3627.009116,-459.657299
2978.010342,-9326.594869,-4071.132681,383.047749
2978.010679,-8068.244768,-2960.823768,0.000000
2978.011017,-9030.512492,-1332.370696,0.000000
2978.011354,-11473.192101,-962.267725,-1685.410096
2978.011692,-11251.130318,-444.123565,-1608.800546
2978.012029,-10732.986159,-666.185348,306.438199
2978.012366,-10214.842000,-1776.494261,2451.505594
2978.012704,-10436.903782,-1480.411884,3983.696590
2978.013041,-9992.780217,-1406.391290,4366.744339
2978.013379,-10140.821405,-740.205942,3600.648841
2978.013716,-10807.006753,296.082377,1302.362347
2978.014053,-11547.212695,1628.453072,-76.609550
2978.014391,-11029.068536,1998.556043,-1991.848295
2978.014728,-9844.739029,1258.350101,-1149.143247
2978.015066,-9474.636058,2072.576638,-612.876398
2978.015403,-9844.739029,2738.761985,-1149.143247
2978.015741,-9548.656652,2220.617826,-1378.971896
2978.016078,-10214.842000,1110.308913,-1378.971896
2978.016415,-10066.800811,0.000000,229.828649
2978.016753,-8808.450710,-814.226536,0.000000
2978.017090,-7994.224174,-1850.514855,1225.752797
2978.017428,-8216.285956,-1554.432478,2068.457845
2978.017765,-9252.574275,-518.144159,612.876398
2978.018102,-9696.697840,222.061783,-383.047749
2978.018440,-9474.636058,296.082377,-612.876398
2978.018777,-10436.903782,0.000000,-306.438199
2978.019115,-9918.759623,-740.205942,-612.876398
2978.019452,-10066.800811,-814.226536,612.876398
2978.019790,-9918.759623,-592.164754,1838.629195
2978.020127,-10214.842000,-1110.308913,1532.190996
2978.020464,-10584.944971,-296.082377,1532.190996
2978.020802,-11177.109724,-740.205942,1072.533697
2978.021139,-11621.233289,-1332.370696,995.924147
2978.021477,-10955.047942,-1258.350101,-995.924147
2978.021814,-10807.006753,-1628.453072,-612.876398
2978.022151,-9844.739029,-592.164754,-536.266849
2978.022489,-9992.780217,222.061783,-1378.971896
2978.022826,-10807.006753,518.144159,-1225.752797
2978.023164,-11029.068536,-740.205942,-1378.971896
2978.023501,-11103.089130,-1998.556043,-1915.238745
2978.023838,-11251.130318,-2886.803174,-1072.533697
2978.024176,-10362.883188,-3849.070898,842.705048
2978.024513,-8586.388927,-3478.967927,995.924147
2978.024851,-8512.368333,-2516.700203,1455.581446
2978.025188,-9474.636058,-1776.494261,1685.410096
2978.025526,-10436.903782,-1332.370696,-459.657299
2978.025863,-9918.759623,-1258.350101,-536.266849
2978.026200,-9326.594869,0.000000,1149.143247
2978.026538,-9548.656652,222.061783,2681.334243
2978.026875,-9696.697840,666.185348,2451.505594
2978.027213,-10214.842000,1554.432478,2374.896044
2978.027550,-10214.842000,1406.391290,2221.676944
2978.027887,-10584.944971,888.247130,1302.362347
2978.028225,-10436.903782,592.164754,1072.533697
2978.028562,-9844.739029,0.000000,1378.971896
2978.028900,-8956.491898,1184.329507,919.314598
2978.029237,-8216.285956,1258.350101,-459.657299
2978.029574,-9104.533087,2220.617826,-612.876398
2978.029912,-10362.883188,2886.803174,-1762.019645
2978.030249,-11621.233289,1628.453072,-2451.505594
2978.030587,-10955.047942,518.144159,-1608.800546
2978.030924,-10510.924376,-814.226536,-76.609550
2978.031262,-9474.636058,-1480.411884,229.828649
2978.031599,-8956.491898,-1628.453072,995.924147
2978.031936,-8808.450710,-2738.761985,459.657299
2978.032274,-9400.615463,-1924.535449,306.438199
2978.032611,-10436.903782,-1776.494261,-995.924147
2978.032949,-10955.047942,-2072.576638,-459.657299
2978.033286,-10066.800811,-1702.473667,-842.705048
2978.033623,-9548.656652,-888.247130,153.219100
2978.033961,-9474.636058,370.102971,383.047749
2978.034298,-9770.718434,-962.267725,1149.143247
2978.034636,-11473.192101,-1184.329507,842.705048
2978.034973,-11251.130318,-1776.494261,0.000000
2978.035311,-11399.171507,-1850.514855,1455.581446
2978.035648,-10288.862594,-1184.329507,1455.581446
2978.035985,-10362.883188,-2072.576638,766.095498
2978.036323,-8882.471304,0.000000,-919.314598
2978.036660,-9474.636058,0.000000,-1149.143247
2978.036998,-10955.047942,518.144159,-766.095498
2978.037335,-10510.924376,-370.102971,-1608.800546
2978.037672,-10140.821405,-370.102971,-995.924147
2978.038010,-10510.924376,-518.144159,306.438199
2978.038347,-9770.718434,-518.144159,459.657299
2978.038685,-9400.615463,74.020594,1225.752797
2978.039022,-9844.739029,0.000000,842.705048
2978.039359,-9992.780217,148.041188,612.876398
2978.039697,-10362.883188,0.000000,612.876398
2978.040034,-9918.759623,74.020594,1072.533697
2978.040372,-9104.533087,740.205942,1225.752797
2978.040709,-9104.533087,1480.411884,1685.410096
2978.041047,-9474.636058,2220.617826,1608.800546
2978.041384,-9992.780217,1332.370696,1455.581446
2978.041721,-10658.965565,1332.370696,1762.019645
2978.042059,-9992.780217,666.185348,1685.410096
2978.042396,-10584.944971,888.247130,1838.629195
2978.042734,-9992.780217,1110.308913,919.314598
2978.043071,-9252.574275,0.000000,0.000000
2978.043408,-9474.636058,-444.123565,-459.657299
2978.043746,-9178.553681,-1036.288319,-1225.752797
2978.044083,-8586.388927,-1184.329507,-1838.629195
2978.044421,-8882.471304,-1110.308913,-1762.019645
2978.044758,-9548.656652,-666.185348,-1149.143247
2978.045095,-10140.821405,-888.247130,-1225.752797
2978.045433,-10436.903782,-1258.350101,-766.095498
2978.045770,-10584.944971,-2368.659014,842.705048
2978.046108,-11399.171507,-2886.803174,612.876398
2978.046445,-10362.883188,-3182.885551,1072.533697
2978.046783,-10140.821405,-2886.803174,1378.971896
2978.047120,-9696.697840,-2368.659014,1072.533697
2978.047457,-10436.903782,-1702.473667,76.609550
2978.047795,-10807.006753,-1036.288319,766.095498
2978.048132,-11177.109724,222.061783,383.047749
2978.048470,-11251.130318,0.000000,229.828649
2978.048807,-11325.150913,0.000000,919.314598
2978.049144,-10510.924376,-518.144159,1225.752797
2978.049482,-10288.862594,1036.288319,2374.896044
2978.049819,-10288.862594,1184.329507,766.095498
2978.050157,-9696.697840,74.020594,0.000000
2978.050494,-9548.656652,74.020594,689.485948
2978.050832,-9252.574275,-296.082377,-842.705048
2978.051169,-9030.512492,1036.288319,0.000000
2978.051506,-9252.574275,148.041188,-459.657299
2978.051844,-8882.471304,1480.411884,-919.314598
2978.052181,-9252.574275,1184.329507,-1378.971896
2978.052519,-10362.883188,592.164754,-842.705048
2978.052856,-10066.800811,1036.288319,-306.438199
2978.053193,-9178.553681,-666.185348,229.828649
2978.053531,-9030.512492,518.144159,1532.190996
2978.053868,-9548.656652,-740.205942,1532.190996
2978.054206,-10584.944971,74.020594,1225.752797
2978.054543,-10436.903782,0.000000,-306.438199
2978.054880,-11177.109724,0.000000,766.095498
2978.055218,-10510.924376,222.061783,229.828649
2978.055555,-9992.780217,296.082377,612.876398
2978.055893,-9992.780217,-370.102971,1302.362347
2978.056230,-9992.780217,962.267725,842.705048
2978.056568,-11029.068536,148.041188,536.266849
2978.056905,-10881.027347,296.082377,-612.876398
2978.057242,-10732.986159,-592.164754,-612.876398
2978.057580,-10436.903782,-1776.494261,0.000000
2978.057917,-9178.553681,-1554.432478,-1225.752797
2978.058255,-9770.718434,-1776.494261,0.000000
2978.058592,-9918.759623,-1850.514855,-536.266849
2978.058929,-9548.656652,-1702.473667,-1838.629195
2978.059267,-9844.739029,-1480.411884,-1225.752797
2978.059604,-10214.842000,-2146.597232,-306.438199
2978.059942,-9992.780217,-1776.494261,0.000000
2978.060279,-9474.636058,-1998.556043,842.705048
2978.060616,-9326.594869,-962.267725,1762.019645
2978.060954,-9622.677246,-740.205942,1685.410096
2978.061291,-11399.171507,-296.082377,1149.143247
2978.061629,-10955.047942,-222.061783,766.095498
2978.061966,-10807.006753,296.082377,2145.067394
2978.062304,-10140.821405,1406.391290,2451.505594
2978.062641,-9844.739029,1110.308913,1685.410096
2978.062978,-9474.636058,2738.761985,1838.629195
2978.063316,-10066.800811,2664.741391,1072.533697
2978.063653,-10881.027347,3256.906145,689.485948
2978.063991,-11325.150913,2516.700203,-229.828649
2978.064328,-10436.903782,1702.473667,229.828649
2978.064665,-9548.656652,1998.556043,229.828649
2978.065003,-7994.224174,1036.288319,229.828649
2978.065340,-9178.553681,2368.659014,-306.438199
2978.065678,-9400.615463,296.082377,-1455.581446
2978.066015,-8956.491898,222.061783,-2681.334243
2978.066353,-8956.491898,-740.205942,-1072.533697
2978.066690,-9918.759623,-962.267725,306.438199
2978.067027,-9030.512492,-740.205942,153.219100
2978.067365,-9104.533087,-888.247130,459.657299
2978.067702,-9622.677246,-962.267725,1455.581446
2978.068040,-10362.883188,-1332.370696,-306.438199
2978.068377,-10807.006753,-2516.700203,1072.533697
2978.068714,-10066.800811,-1998.556043,766.095498
2978.069052,-10066.800811,-2072.576638,1685.410096
2978.069389,-10732.986159,-814.226536,1225.752797
2978.069727,-10510.924376,-296.082377,229.828649
2978.070064,-10807.006753,0.000000,153.219100
2978.070401,-11473.192101,-444.123565,459.657299
2978.070739,-11547.212695,-518.144159,76.609550
2978.071076,-11621.233289,-518.144159,842.705048
2978.071414,-10732.986159,-1406.391290,383.047749
2978.071751,-9696.697840,-814.226536,612.876398
2978.072089,-10362.883188,-888.247130,229.828649
2978.072426,-9770.718434,-518.144159,-306.438199
2978.072763,-10436.903782,-666.185348,-1685.410096
2978.073101,-10362.883188,-1110.308913,-1455.581446
2978.073438,-9622.677246,-1480.411884,-2298.286494
2978.073776,-8216.285956,-2072.576638,-995.924147
2978.074113,-8734.430116,-592.164754,842.705048
2978.074450,-9104.533087,-370.102971,1225.752797
2978.074788,-9992.780217,814.226536,153.219100
2978.075125,-9770.718434,74.020594,-383.047749
2978.075463,-10436.903782,74.020594,766.095498
2978.075800,-9548.656652,-296.082377,2068.457845
2978.076137,-8734.430116,370.102971,2298.286494
2978.076475,-8956.491898,1036.288319,2681.334243
2978.076812,-10066.800811,2960.823768,383.047749
2978.077150,-10214.842000,2664.741391,-842.705048
2978.077487,-11029.068536,1998.556043,-306.438199
2978.077825,-9696.697840,1258.350101,766.095498
2978.078162,-10881.027347,1406.391290,1149.143247
2978.078499,-9992.780217,1110.308913,1072.533697
2978.078837,-9770.718434,814.226536,766.095498
2978.079174,-9844.739029,518.144159,-536.266849
2978.079512,-10288.862594,888.247130,-1915.238745
2978.079849,-9992.780217,-148.041188,-1991.848295
2978.080186,-10510.924376,-1628.453072,-1608.800546
2978.080524,-9400.615463,-1924.535449,-1762.019645
2978.080861,-8956.491898,-2442.679609,-306.438199
2978.081199,-9474.636058,-1554.432478,1532.190996
2978.081536,-9474.636058,-1998.556043,459.657299
2978.081874,-10510.924376,-1184.329507,459.657299
2978.082211,-10807.006753,-1332.370696,0.000000
2978.082548,-10140.821405,-2146.597232,0.000000
2978.082886,-10066.800811,-1702.473667,919.314598
2978.083223,-9474.636058,-1258.350101,1532.190996
2978.083561,-9770.718434,0.000000,1072.533697
2978.083898,-10140.821405,0.000000,459.657299
2978.084235,-11029.068536,296.082377,306.438199
2978.084573,-11177.109724,-74.020594,842.705048
2978.084910,-9992.780217,518.144159,1608.800546
2978.085248,-10658.965565,1036.288319,1685.410096
2978.085585,-10584.944971,1850.514855,1608.800546
2978.085922,-10288.862594,1702.473667,0.000000
2978.086260,-10807.006753,814.226536,-842.705048
2978.086597,-10140.821405,1406.391290,-842.705048
2978.086935,-9918.759623,592.164754,-1455.581446
2978.087272,-9696.697840,-444.123565,-766.095498
2978.087610,-8512.368333,-888.247130,-306.438199
2978.087947,-8068.244768,0.000000,306.438199
2978.088284,-9770.718434,1110.308913,766.095498
2978.088622,-9992.780217,666.185348,0.000000
2978.088959,-10807.006753,1036.288319,229.828649
2978.089297,-10066.800811,148.041188,76.609550
2978.089634,-10288.862594,370.102971,1685.410096
2978.089971,-9326.594869,0.000000,2681.334243
2978.090309,-9548.656652,-518.144159,2451.505594
2978.090646,-9696.697840,1110.308913,1838.629195
2978.090984,-9992.780217,74.020594,1072.533697
2978.091321,-10584.944971,-518.144159,1225.752797
2978.091658,-10732.986159,-296.082377,0.000000
2978.091996,-10436.903782,-370.102971,766.095498
2978.092333,-10362.883188,444.123565,-229.828649
2978.092671,-10362.883188,0.000000,229.828649
2978.093008,-9844.739029,0.000000,-536.266849
2978.093346,-10140.821405,-1036.288319,-153.219100
2978.093683,-10436.903782,-1036.288319,-229.828649
2978.094020,-10510.924376,-1554.432478,-612.876398
2978.094358,-9918.759623,-2072.576638,-1302.362347
2978.094695,-9400.615463,-2664.741391,-995.924147
2978.095033,-9178.553681,-2442.679609,536.266849
2978.095370,-9992.780217,-1554.432478,-612.876398
2978.095707,-10288.862594,-2294.638420,-153.219100
2978.096045,-10362.883188,-1184.329507,0.000000
2978.096382,-9770.718434,-1406.391290,306.438199
2978.096720,-9622.677246,-666.185348,1302.362347
2978.097057,-10066.800811,-740.205942,2145.067394
2978.097394,-10362.883188,518.144159,2068.457845
2978.097732,-9770.718434,1554.432478,919.314598
2978.098069,-10807.006753,592.164754,306.438199
2978.098407,-10584.944971,888.247130,995.924147
2978.098744,-10288.862594,0.000000,842.705048
2978.099082,-8956.491898,148.041188,1608.800546
2978.099419,-9178.553681,666.185348,1532.190996
2978.099756,-9548.656652,1628.453072,919.314598
2978.100094,-10214.842000,2368.659014,-612.876398
2978.100431,-10214.842000,1998.556043,-1608.800546
2978.100769,-10362.883188,1110.308913,-995.924147
2978.101106,-10510.924376,888.247130,-459.657299
2978.101443,-9104.533087,296.082377,0.000000
2978.101781,-9178.553681,0.000000,842.705048
2978.102118,-9252.574275,-518.144159,-153.219100
2978.102456,-9474.636058,-1110.308913,-229.828649
2978.102793,-10807.006753,-2072.576638,-306.438199
2978.103131,-9696.697840,-2516.700203,612.876398
2978.103468,-9326.594869,-2294.638420,229.828649
2978.103805,-9400.615463,-1184.329507,1991.848295
2978.104143,-10510.924376,-296.082377,2374.896044
2978.104480,-10881.027347,296.082377,842.705048
2978.104818,-11843.295072,888.247130,76.609550
2978.105155,-11843.295072,-222.061783,459.657299
2978.105492,-11399.171507,-740.205942,689.485948
2978.105830,-9548.656652,-1554.432478,612.876398
2978.106167,-9178.553681,-1110.308913,536.266849
2978.106505,-9696.697840,-444.123565,383.047749
2978.106842,-10436.903782,0.000000,-1149.143247
2978.107179,-10584.944971,592.164754,-2528.115143
2978.107517,-11103.089130,-222.061783,-1608.800546
2978.107854,-10510.924376,-518.144159,-612.876398
2978.108192,-9178.553681,-666.185348,-766.095498
2978.108529,-9104.533087,-1258.350101,919.314598
2978.108866,-8956.491898,-296.082377,689.485948
2978.109204,-9104.533087,-1332.370696,229.828649
2978.109541,-10288.862594,-222.061783,459.657299
2978.109878,-10066.800811,-962.267725,0.000000
2978.110216,-10436.903782,-962.267725,459.657299
2978.110553,-9918.759623,-518.144159,919.314598
2978.110890,-9326.594869,518.144159,1378.971896
2978.111228,-8956.491898,888.247130,1685.410096
2978.111565,-9622.677246,1258.350101,1838.629195
2978.111902,-10658.965565,1924.535449,1762.019645
2978.112240,-11103.089130,1406.391290,1378.971896
2978.112577,-10881.027347,1406.391290,1455.581446
2978.112914,-10362.883188,740.205942,1608.800546
2978.113252,-9400.615463,888.247130,2298.286494
2978.113589,-9548.656652,1776.494261,1149.143247
2978.113926,-10140.821405,814.226536,0.000000
2978.114264,-10214.842000,74.020594,-842.705048
2978.114601,-10436.903782,-592.164754,-2221.676944
2978.114938,-9992.780217,-740.205942,-1532.190996
2978.115276,-8586.388927,-1110.308913,-1149.143247
2978.115613,-8734.430116,-1258.350101,0.000000
2978.115950,-9104.533087,-1924.535449,229.828649
2978.116288,-9474.636058,-962.267725,-76.609550
2978.116625,-11769.274478,-2294.638420,-383.047749
2978.116962,-11917.315666,-2738.761985,0.000000
2978.117300,-10510.924376,-3182.885551,-306.438199
2978.117637,-9178.553681,-3034.844362,1302.362347
2978.117974,-8068.244768,-2146.597232,1378.971896
2978.118312,-9252.574275,-962.267725,0.000000
2978.118649,-11251.130318,-1036.288319,-612.876398
2978.118986,-11251.130318,-148.041188,-1532.190996
2978.119324,-11029.068536,-666.185348,-536.266849
2978.119661,-11325.150913,-592.164754,2451.505594
2978.119998,-10658.965565,-592.164754,2911.162892
2978.120336,-10140.821405,148.041188,2528.115143
2978.120673,-10362.883188,1036.288319,1072.533697
2978.121010,-10732.986159,1258.350101,0.000000
2978.121348,-11621.233289,74.020594,-1225.752797
2978.121685,-10436.903782,-740.205942,-1455.581446
2978.122022,-8660.409521,0.000000,-383.047749
2978.122360,-8586.388927,74.020594,-306.438199
2978.122697,-8882.471304,1184.329507,-842.705048
2978.123034,-8142.265362,444.123565,-1225.752797
2978.123372,-10066.800811,-370.102971,-1378.971896
2978.123709,-10658.965565,444.123565,0.000000
2978.124046,-10066.800811,-592.164754,842.705048
2978.124384,-9252.574275,-296.082377,1762.019645
2978.124721,-9548.656652,-518.144159,1915.238745
2978.125058,-9770.718434,962.267725,1378.971896
2978.125396,-10362.883188,888.247130,919.314598
2978.125733,-10362.883188,-148.041188,1225.752797
2978.126070,-11177.109724,222.061783,766.095498
2978.126408,-9844.739029,296.082377,459.657299
2978.126745,-10658.965565,962.267725,1378.971896
2978.127082,-9992.780217,370.102971,306.438199
2978.127420,-9992.780217,444.123565,76.609550
2978.127757,-10214.842000,1184.329507,-229.828649
2978.128095,-9992.780217,-74.020594,-536.266849
2978.128432,-10881.027347,-666.185348,306.438199
2978.128769,-10214.842000,-1332.370696,-306.438199
2978.129107,-9622.677246,-1850.514855,0.000000
2978.129444,-9474.636058,-1110.308913,383.047749
2978.129781,-9622.677246,-1628.453072,-1302.362347
2978.130119,-9992.780217,-1776.494261,-995.924147
2978.130456,-10584.944971,-1998.556043,-383.047749
2978.130793,-9918.759623,-2368.659014,-1072.533697
2978.131131,-9770.718434,-2368.659014,229.828649
2978.131468,-9622.677246,-1258.350101,1225.752797
2978.131805,-9030.512492,-740.205942,1149.143247
2978.132143,-10066.800811,740.205942,2374.896044
2978.132480,-11547.212695,370.102971,1149.143247
2978.132817,-12287.418637,-148.041188,0.000000
2978.133155,-10807.006753,-1184.329507,153.219100
2978.133492,-9252.574275,-148.041188,2145.067394
2978.133829,-8808.450710,0.000000,2298.286494
2978.134167,-9548.656652,814.226536,1608.800546
2978.134504,-9992.780217,1480.411884,612.876398
2978.134841,-10881.027347,1776.494261,-612.876398
2978.135179,-11547.212695,1258.350101,-1072.533697
2978.135516,-9400.615463,444.123565,-536.266849
2978.135853,-8734.430116,-814.226536,536.266849
2978.136191,-8586.388927,222.061783,153.219100
2978.136528,-8364.327145,370.102971,-766.095498
2978.136865,-9326.594869,370.102971,-536.266849
2978.137203,-10881.027347,-592.164754,-612.876398
2978.137540,-11843.295072,-1480.411884,-919.314598
2978.137877,-10140.821405,-1332.370696,0.000000
2978.138215,-9918.759623,-1406.391290,1302.362347
2978.138552,-9178.553681,-1258.350101,689.485948
2978.138889,-9400.615463,-1554.432478,153.219100
2978.139227,-10288.862594,-2294.638420,306.438199
2978.139564,-10584.944971,-1036.288319,612.876398
2978.139901,-11325.150913,-814.226536,842.705048
2978.140239,-11769.274478,-740.205942,1455.581446
2978.140576,-11029.068536,-888.247130,536.266849
2978.140913,-9696.697840,-148.041188,0.000000
2978.141251,-9844.739029,-592.164754,-306.438199
2978.141588,-9918.759623,-592.164754,-383.047749
2978.141925,-10288.862594,0.000000,-919.314598
2978.142263,-10362.883188,-1036.288319,-1072.533697
2978.142600,-9474.636058,-1184.329507,-995.924147
2978.142937,-9548.656652,-1258.350101,536.266849
2978.143275,-9104.533087,-1406.391290,536.266849
2978.143612,-8808.450710,-370.102971,-612.876398
2978.143949,-9474.636058,-814.226536,-1225.752797
2978.144287,-10140.821405,-1258.350101,-1149.143247
2978.144624,-9474.636058,-1628.453072,-1455.581446
2978.144961,-9844.739029,-74.020594,383.047749
2978.145299,-10066.800811,-74.020594,153.219100
2978.145636,-10140.821405,-740.205942,153.219100
2978.145973,-9770.718434,-592.164754,536.266849
2978.146311,-9770.718434,296.082377,1838.629195
2978.146648,-10362.883188,-518.144159,2068.457845
2978.146985,-10066.800811,0.000000,1532.190996
2978.147323,-10140.821405,888.247130,2221.676944
2978.147660,-9696.697840,1036.288319,1762.019645
2978.147997,-9474.636058,1554.432478,1608.800546
2978.148335,-11103.089130,740.205942,1378.971896
2978.148672,-10881.027347,1480.411884,689.485948
2978.149009,-9992.780217,740.205942,-383.047749
2978.149347,-9548.656652,444.123565,459.657299
2978.149684,-9844.739029,148.041188,536.266849
2978.150021,-9548.656652,0.000000,-229.828649
2978.150359,-9474.636058,-296.082377,-766.095498
2978.150696,-9918.759623,0.000000,-1225.752797
2978.151033,-10288.862594,-296.082377,-1455.581446
2978.151371,-10732.986159,-2368.659014,-1608.800546
2978.151708,-10288.862594,-2294.638420,306.438199
2978.152046,-9326.594869,-1924.535449,766.095498
2978.152383,-9474.636058,-1998.556043,2068.457845
2978.152720,-10362.883188,-1184.329507,2298.286494
2978.153058,-11177.109724,-1258.350101,612.876398
2978.153395,-11547.212695,-1554.432478,-306.438199
2978.153732,-10362.883188,-1554.432478,-383.047749
2978.154070,-10658.965565,-1184.329507,1149.143247
2978.154407,-9622.677246,-1554.432478,1302.362347
2978.154744,-8882.471304,-814.226536,1225.752797
2978.155082,-10214.842000,370.102971,1455.581446
2978.155419,-10362.883188,518.144159,76.609550
2978.155756,-10658.965565,592.164754,-536.266849
2978.156094,-10955.047942,1332.370696,-383.047749
2978.156431,-10658.965565,0.000000,-306.438199
2978.156768,-9696.697840,740.205942,-766.095498
2978.157106,-9474.636058,-148.041188,-612.876398
2978.157443,-9474.636058,444.123565,-306.438199
2978.157780,-9548.656652,0.000000,-689.485948
2978.158118,-10362.883188,-148.041188,-1149.143247
2978.158455,-9548.656652,-888.247130,-306.438199
2978.158792,-9992.780217,-444.123565,1149.143247
2978.159130,-8734.430116,0.000000,229.828649
2978.159467,-8586.388927,0.000000,383.047749
2978.159804,-10436.903782,370.102971,383.047749
2978.160142,-10807.006753,0.000000,0.000000
2978.160479,-9770.718434,444.123565,306.438199
2978.160816,-10288.862594,0.000000,1838.629195
2978.161154,-11251.130318,0.000000,2068.457845
2978.161491,-10140.821405,-444.123565,612.876398
2978.161828,-8808.450710,-962.267725,1225.752797
2978.162166,-8586.388927,-740.205942,2068.457845
2978.162503,-9326.594869,-666.185348,766.095498
2978.162840,-10214.842000,-296.082377,306.438199
2978.163178,-12065.356855,-370.102971,-689.485948
2978.163515,-9918.759623,-296.082377,-1685.410096
2978.163852,-9696.697840,-296.082377,-1532.190996
2978.164190,-9918.759623,-592.164754,229.828649
2978.164527,-9252.574275,-1258.350101,-383.047749
2978.164864,-9992.780217,-1406.391290,0.000000
2978.165202,-11399.171507,-2072.576638,-536.266849
2978.165539,-11251.130318,-2146.597232,76.609550
2978.165876,-10658.965565,-1850.514855,306.438199
2978.166214,-10436.903782,-1406.391290,0.000000
2978.166551,-9770.718434,-1850.514855,1149.143247
2978.166888,-10066.800811,-1776.494261,1225.752797
2978.167226,-10066.800811,-1850.514855,919.314598
2978.167563,-9992.780217,-1258.350101,612.876398
2978.167900,-10288.862594,0.000000,1072.533697
2978.168238,-11177.109724,518.144159,689.485948
2978.168575,-9992.780217,222.061783,0.000000
2978.168912,-9326.594869,74.020594,1532.190996
2978.169250,-9326.594869,592.164754,1378.971896
2978.169587,-9178.553681,740.205942,919.314598
2978.169924,-10214.842000,888.247130,1149.143247
2978.170262,-11399.171507,444.123565,229.828649
2978.170599,-9844.739029,1036.288319,-383.047749
2978.170936,-8438.347739,1110.308913,-383.047749
2978.171274,-8808.450710,592.164754,-153.219100
2978.171611,-9474.636058,1480.411884,-995.924147
2978.171948,-9474.636058,222.061783,-2451.505594
2978.172286,-10066.800811,296.082377,-1225.752797
2978.172623,-10807.006753,-814.226536,-536.266849
2978.172960,-10732.986159,-444.123565,-459.657299
2978.173298,-9696.697840,-1628.453072,229.828649
2978.173635,-9696.697840,-1332.370696,919.314598
2978.173972,-9770.718434,-1258.350101,1149.143247
2978.174310,-9104.533087,-1924.535449,842.705048
2978.174647,-10140.821405,-740.205942,612.876398
2978.174984,-11547.212695,-666.185348,842.705048
2978.175322,-11103.089130,518.144159,229.828649
2978.175659,-10140.821405,-444.123565,0.000000
2978.175997,-10658.965565,0.000000,1302.362347
2978.176334,-9770.718434,296.082377,536.266849
2978.176671,-9844.739029,0.000000,229.828649
2978.177009,-10658.965565,-740.205942,306.438199
2978.177346,-9918.759623,0.000000,0.000000
2978.177683,-10510.924376,-296.082377,76.609550
2978.178021,-10214.842000,0.000000,-383.047749
2978.178358,-9474.636058,-814.226536,-919.314598
2978.178695,-9474.636058,-518.144159,-766.095498
2978.179033,-9030.512492,0.000000,-306.438199
2978.179370,-9918.759623,0.000000,536.266849
2978.179707,-10584.944971,-296.082377,76.609550
2978.180045,-9918.759623,-666.185348,0.000000
2978.180382,-10140.821405,-888.247130,536.266849
2978.180719,-9474.636058,-814.226536,1838.629195
2978.181057,-8364.327145,0.000000,1532.190996
2978.181394,-9178.553681,-814.226536,1991.848295
2978.181731,-9918.759623,666.185348,1991.848295
2978.182069,-10066.800811,1110.308913,1149.143247
2978.182406,-10807.006753,1850.514855,1225.752797
2978.182743,-10584.944971,1628.453072,1455.581446
2978.183081,-10214.842000,888.247130,1072.533697
2978.183418,-9770.718434,1776.494261,1532.190996
2978.183755,-9474.636058,1332.370696,1838.629195
2978.184093,-9918.759623,1702.473667,1838.629195
2978.184430,-11029.068536,592.164754,153.219100
2978.184767,-11029.068536,666.185348,0.000000
2978.185105,-10658.965565,-222.061783,-842.705048
2978.185442,-9770.718434,-666.185348,-1302.362347
2978.185779,-8364.327145,-2294.638420,-919.314598
2978.186117,-8438.347739,-592.164754,-1225.752797
2978.186454,-8882.471304,-1184.329507,-1225.752797
2978.186791,-10732.986159,-1554.432478,-1455.581446
2978.187129,-10362.883188,-1924.535449,-995.924147
2978.187466,-11029.068536,-2146.597232,306.438199
2978.187803,-10881.027347,-2590.720797,766.095498
2978.188141,-9400.615463,-2738.761985,842.705048
2978.188478,-10066.800811,-2516.700203,1608.800546
2978.188815,-9548.656652,-2368.659014,766.095498
2978.189153,-9696.697840,-1850.514855,459.657299
2978.189490,-10955.047942,-962.267725,536.266849
2978.189827,-11103.089130,-666.185348,-306.438199
2978.190165,-10584.944971,-370.102971,-306.438199
2978.190502,-10214.842000,740.205942,766.095498
2978.190839,-10066.800811,1184.329507,76.609550
2978.191177,-10807.006753,1554.432478,-842.705048
2978.191514,-10881.027347,962.267725,-1149.143247
2978.191851,-10140.821405,296.082377,-1225.752797
2978.192189,-10066.800811,222.061783,-612.876398
2978.192526,-9104.533087,-592.164754,459.657299
2978.192863,-8956.491898,518.144159,612.876398
2978.193201,-9178.553681,1332.370696,0.000000
2978.193538,-9622.677246,1924.535449,-1302.362347
2978.193875,-10807.006753,-148.041188,-1608.800546
2978.194213,-10658.965565,-592.164754,-612.876398
2978.194550,-8882.471304,-1184.329507,-306.438199
2978.194887,-7920.203579,-444.123565,1455.581446
2978.195225,-8660.409521,-74.020594,1762.019645
2978.195562,-8438.347739,222.061783,1532.190996
2978.195899,-10436.903782,0.000000,1991.848295
2978.196237,-10807.006753,444.123565,919.314598
2978.196574,-10881.027347,592.164754,1072.533697
2978.196911,-10732.986159,0.000000,1532.190996
2978.197249,-10066.800811,148.041188,1532.190996
2978.197586,-10881.027347,0.000000,2374.896044
2978.197923,-9696.697840,1110.308913,689.485948
2978.198261,-9918.759623,444.123565,-306.438199
2978.198598,-11177.109724,0.000000,76.609550
2978.198935,-10362.883188,0.000000,-229.828649
2978.199273,-11251.130318,-148.041188,-229.828649
2978.199610,-10658.965565,0.000000,229.828649
2978.199948,-9696.697840,222.061783,-229.828649
2978.200285,-10140.821405,-444.123565,-1149.143247
2978.200622,-9918.759623,-1258.350101,-842.705048
2978.200960,-9770.718434,-2072.576638,-306.438199
2978.201297,-10584.944971,-2368.659014,0.000000
2978.201634,-9400.615463,-2664.741391,76.609550
2978.201972,-9474.636058,-1924.535449,1149.143247
2978.202309,-9474.636058,-962.267725,919.314598
2978.202646,-9104.533087,0.000000,995.924147
2978.202984,-10362.883188,-370.102971,1991.848295
2978.203321,-11325.150913,-296.082377,1685.410096
2978.203658,-10362.883188,518.144159,306.438199
2978.203996,-9844.739029,370.102971,1608.800546
2978.204333,-9252.574275,666.185348,2528.115143
2978.204670,-8734.430116,1258.350101,995.924147
2978.205008,-10140.821405,1998.556043,612.876398
2978.205345,-10436.903782,2072.576638,-459.657299
2978.205682,-10140.821405,1480.411884,-1915.238745
2978.206020,-9918.759623,888.247130,-1915.238745
2978.206357,-9770.718434,1258.350101,0.000000
2978.206694,-10140.821405,1110.308913,612.876398
2978.207032,-10066.800811,1332.370696,-766.095498
2978.207369,-10288.862594,592.164754,-536.266849
2978.207706,-10436.903782,-592.164754,-766.095498
2978.208044,-9770.718434,-1702.473667,-1378.971896
2978.208381,-8586.388927,-2368.659014,-153.219100
2978.208718,-8882.471304,-2368.659014,1149.143247
2978.209056,-9104.533087,-1554.432478,919.314598
2978.209393,-10362.883188,-296.082377,536.266849
2978.209730,-10732.986159,-592.164754,-153.219100
2978.210068,-10732.986159,-814.226536,306.438199
2978.210405,-11103.089130,-1184.329507,842.705048
2978.210743,-10362.883188,-1036.288319,1762.019645
2978.211080,-10658.965565,-814.226536,3217.601092
2978.211417,-10214.842000,0.000000,2068.457845
2978.211755,-10140.821405,0.000000,383.047749
2978.212092,-11621.233289,592.164754,536.266849
2978.212429,-12065.356855,444.123565,-153.219100
2978.212767,-11029.068536,296.082377,-1915.238745
2978.213104,-9844.739029,-74.020594,-612.876398
2978.213442,-9400.615463,-370.102971,-229.828649
2978.213779,-9400.615463,222.061783,76.609550
2978.214116,-9474.636058,0.000000,-459.657299
2978.214454,-9474.636058,-592.164754,-383.047749
2978.214791,-10066.800811,-814.226536,-459.657299
2978.215128,-9844.739029,-1554.432478,-383.047749
2978.215466,-9474.636058,-1554.432478,612.876398
2978.215803,-9474.636058,-1924.535449,1378.971896
2978.216141,-8734.430116,0.000000,1302.362347
2978.216478,-8660.409521,74.020594,995.924147
2978.216815,-9844.739029,-370.102971,1072.533697
2978.217153,-10436.903782,-592.164754,919.314598
2978.217490,-10214.842000,-74.020594,459.657299
2978.217827,-9474.636058,814.226536,1225.752797
2978.218165,-9104.533087,1258.350101,1915.238745
2978.218502,-9030.512492,1332.370696,995.924147
2978.218840,-9696.697840,2368.659014,842.705048
2978.219177,-11769.274478,1776.494261,1149.143247
2978.219514,-12065.356855,2072.576638,306.438199
2978.219852,-11547.212695,666.185348,-306.438199
2978.220189,-10732.986159,666.185348,0.000000
2978.220526,-9252.574275,148.041188,-1225.752797
2978.220864,-8956.491898,0.000000,-1455.581446
2978.221201,-9326.594869,0.000000,-1762.019645
2978.221539,-9548.656652,-1924.535449,-2068.457845
2978.221876,-10881.027347,-1850.514855,-1072.533697
2978.222213,-10732.986159,-2442.679609,-612.876398
2978.222551,-9770.718434,-1776.494261,1302.362347
2978.222888,-10362.883188,-1924.535449,2145.067394
2978.223226,-9918.759623,-2146.597232,1072.533697
2978.223563,-8956.491898,-1628.453072,76.609550
2978.223900,-10066.800811,-2072.576638,153.219100
2978.224238,-10510.924376,-2664.741391,919.314598
2978.224575,-10140.821405,-1628.453072,383.047749
2978.224912,-9770.718434,222.061783,766.095498
2978.225250,-10140.821405,222.061783,1149.143247
2978.225587,-9992.780217,962.267725,842.705048
2978.225925,-10732.986159,370.102971,612.876398
2978.226262,-10955.047942,1924.535449,306.438199
2978.226599,-10066.800811,370.102971,-459.657299
2978.226937,-9918.759623,518.144159,1532.190996
2978.227274,-9326.594869,1332.370696,1302.362347
2978.227611,-9918.759623,1998.556043,0.000000
2978.227949,-10658.965565,2072.576638,-306.438199
2978.228286,-10732.986159,1332.370696,-1685.410096
2978.228624,-10362.883188,296.082377,-995.924147
2978.228961,-9474.636058,-296.082377,0.000000
2978.229298,-8364.327145,-296.082377,1378.971896
2978.229636,-9548.656652,-444.123565,2068.457845
2978.229973,-10066.800811,592.164754,536.266849
2978.230310,-9178.553681,74.020594,459.657299
2978.230648,-9474.636058,74.020594,689.485948
2978.230985,-10140.821405,-814.226536,1991.848295
2978.231323,-9696.697840,-1184.329507,1225.752797
2978.231660,-9770.718434,-1480.411884,2145.067394
2978.231997,-9030.512492,148.041188,2068.457845
2978.232335,-9474.636058,296.082377,842.705048
2978.232672,-10214.842000,592.164754,383.047749
2978.233009,-10288.862594,-370.102971,-689.485948
2978.233347,-10510.924376,-666.185348,-689.485948
2978.233684,-9770.718434,0.000000,-612.876398
2978.234022,-10288.862594,-592.164754,76.609550
2978.234359,-10066.800811,0.000000,-612.876398
2978.234696,-10066.800811,-518.144159,-842.705048
2978.235034,-11251.130318,-518.144159,-612.876398
2978.235371,-10807.006753,-518.144159,-1685.410096
2978.235708,-10066.800811,-2146.597232,-2221.676944
2978.236046,-9918.759623,-2516.700203,-1302.362347
2978.236383,-9696.697840,-2442.679609,-306.438199
2978.236721,-10881.027347,-1554.432478,229.828649
2978.237058,-10214.842000,-1480.411884,-153.219100
2978.237395,-9770.718434,-1110.308913,0.000000
2978.237733,-10807.006753,-962.267725,536.266849
2978.238070,-10362.883188,-1924.535449,1149.143247
2978.238407,-9770.718434,-2368.659014,2374.896044
2978.238745,-9770.718434,-1110.308913,2604.724693
2978.239082,-9030.512492,148.041188,1991.848295
2978.239420,-10436.903782,1110.308913,842.705048
2978.239757,-10436.903782,592.164754,612.876398
2978.240094,-9696.697840,1480.411884,-459.657299
2978.240432,-9918.759623,1776.494261,-76.609550
2978.240769,-9918.759623,2220.617826,153.219100
2978.241106,-10214.842000,1998.556043,-1072.533697
2978.241444,-9622.677246,1702.473667,-1532.190996
2978.241781,-8882.471304,1110.308913,-383.047749
2978.242119,-9104.533087,592.164754,842.705048
2978.242456,-10140.821405,444.123565,766.095498
2978.242793,-10584.944971,148.041188,153.219100
2978.243131,-10807.006753,518.144159,0.000000
2978.243468,-10732.986159,-370.102971,0.000000
2978.243806,-9918.759623,222.061783,306.438199
2978.244143,-9400.615463,-592.164754,-536.266849
2978.244480,-9622.677246,-740.205942,-229.828649
2978.244818,-9326.594869,-1184.329507,-306.438199
2978.245155,-9474.636058,-1628.453072,919.314598
2978.245492,-9918.759623,-1258.350101,2068.457845
2978.245830,-10288.862594,-1110.308913,1762.019645
2978.246167,-10214.842000,0.000000,1072.533697
2978.246505,-10584.944971,-370.102971,919.314598
2978.246842,-10881.027347,-814.226536,1378.971896
2978.247179,-9178.553681,-1628.453072,612.876398
2978.247517,-9400.615463,-962.267725,1302.362347
2978.247854,-10584.944971,-222.061783,1149.143247
2978.248191,-10955.047942,0.000000,-612.876398
2978.248529,-9992.780217,-296.082377,-306.438199
2978.248866,-10584.944971,0.000000,-689.485948
2978.249204,-10214.842000,0.000000,-612.876398
2978.249541,-10732.986159,-666.185348,-1455.581446
2978.249878,-9992.780217,-1554.432478,-919.314598
2978.250216,-9474.636058,-1554.432478,0.000000
2978.250553,-10140.821405,-1554.432478,919.314598
2978.250890,-10066.800811,-1036.288319,1302.362347
2978.251228,-10807.006753,-740.205942,1149.143247
2978.251565,-11103.089130,-296.082377,842.705048
2978.251903,-9622.677246,0.000000,76.609550
2978.252240,-9844.739029,222.061783,1532.190996
2978.252577,-10066.800811,518.144159,2681.334243
2978.252915,-10362.883188,148.041188,995.924147
2978.253252,-9992.780217,1110.308913,919.314598
2978.253589,-8290.306550,1628.453072,842.705048
2978.253927,-9030.512492,444.123565,766.095498
2978.254264,-9844.739029,370.102971,1225.752797
2978.254602,-9474.636058,814.226536,76.609550
2978.254939,-10436.903782,1480.411884,0.000000
2978.255276,-10362.883188,814.226536,-919.314598
2978.255614,-10066.800811,814.226536,-689.485948
2978.255951,-10362.883188,-444.123565,-459.657299
2978.256288,-9844.739029,222.061783,-1149.143247
2978.256626,-10066.800811,-1036.288319,-766.095498
2978.256963,-9770.718434,-2220.617826,-459.657299
2978.257301,-10066.800811,-666.185348,-766.095498
2978.257638,-10658.965565,-1554.432478,-1149.143247
2978.257975,-10214.842000,-962.267725,-766.095498
2978.258313,-10140.821405,-2220.617826,-919.314598
2978.258650,-10807.006753,-2072.576638,229.828649
2978.258987,-9918.759623,-2664.741391,153.219100
2978.259325,-10658.965565,-2294.638420,1378.971896
2978.259662,-10955.047942,-1628.453072,2145.067394
2978.260000,-10140.821405,-1184.329507,1762.019645
2978.260337,-10362.883188,-444.123565,1991.848295
2978.260674,-10288.862594,-962.267725,766.095498
2978.261012,-9770.718434,-740.205942,689.485948
2978.261349,-10881.027347,-962.267725,689.485948
2978.261686,-10362.883188,518.144159,0.000000
2978.262024,-9474.636058,1258.350101,-1302.362347
2978.262361,-9252.574275,518.144159,-689.485948
2978.262699,-9400.615463,1110.308913,-612.876398
2978.263036,-9696.697840,0.000000,-766.095498
2978.263373,-9622.677246,518.144159,-383.047749
2978.263711,-10288.862594,0.000000,-153.219100
2978.264048,-10066.800811,592.164754,-383.047749
2978.264386,-9474.636058,740.205942,-383.047749
2978.264723,-9400.615463,0.000000,689.485948
2978.265060,-9622.677246,0.000000,1455.581446
2978.265398,-10288.862594,370.102971,842.705048
2978.265735,-10362.883188,74.020594,1608.800546
2978.266072,-10362.883188,592.164754,306.438199
2978.266410,-10140.821405,148.041188,1072.533697
2978.266747,-10066.800811,1480.411884,766.095498
2978.267085,-9622.677246,-148.041188,689.485948
2978.267422,-10140.821405,888.247130,1838.629195
2978.267759,-9770.718434,888.247130,689.485948
2978.268097,-10658.965565,740.205942,842.705048
2978.268434,-11029.068536,370.102971,1608.800546
2978.268771,-10214.842000,-222.061783,76.609550
2978.269109,-10140.821405,-370.102971,1149.143247
2978.269446,-10881.027347,-1184.329507,536.266849
2978.269784,-9474.636058,-592.164754,-306.438199
2978.270121,-8882.471304,-1258.350101,-1378.971896
2978.270458,-9474.636058,-370.102971,-1532.190996
2978.270796,-10732.986159,-1184.329507,-2451.505594
2978.271133,-11325.150913,-1924.535449,-2451.505594
2978.271470,-9918.759623,-2960.823768,-1608.800546
2978.271808,-8734.430116,-2738.761985,-459.657299
2978.272145,-10288.862594,-2368.659014,1915.238745
2978.272483,-10807.006753,-2442.679609,1532.190996
2978.272820,-10955.047942,-2072.576638,919.314598
2978.273157,-10436.903782,-2516.700203,1608.800546
2978.273495,-10436.903782,-1628.453072,1532.190996
2978.273832,-10658.965565,-666.185348,2145.067394
2978.274169,-11029.068536,74.020594,1991.848295
2978.274507,-10436.903782,0.000000,919.314598
2978.274844,-9474.636058,962.267725,612.876398
2978.275182,-9844.739029,2146.597232,919.314598
2978.275519,-10436.903782,1036.288319,689.485948
2978.275856,-10066.800811,1406.391290,536.266849
2978.276194,-10362.883188,1776.494261,459.657299
2978.276531,-9992.780217,1332.370696,229.828649
2978.276868,-8956.491898,518.144159,0.000000
2978.277206,-8586.388927,296.082377,229.828649
2978.277543,-9918.759623,1184.329507,459.657299
2978.277881,-9696.697840,1110.308913,-995.924147
2978.278218,-9474.636058,370.102971,-1072.533697
2978.278555,-9104.533087,148.041188,0.000000
2978.278893,-9400.615463,-444.123565,0.000000
2978.279230,-9548.656652,-444.123565,536.266849
2978.279567,-9326.594869,-1036.288319,76.609550
2978.279905,-9474.636058,-1406.391290,612.876398
2978.280242,-9918.759623,-1850.514855,76.609550
2978.280580,-10288.862594,-1776.494261,612.876398
2978.280917,-9696.697840,-1480.411884,383.047749
2978.281254,-10288.862594,-1702.473667,1532.190996
2978.281592,-10140.821405,0.000000,1302.362347
2978.281929,-10881.027347,-444.123565,612.876398
2978.282266,-11325.150913,0.000000,306.438199
2978.282604,-10584.944971,-518.144159,-995.924147
2978.282941,-11103.089130,-370.102971,-459.657299
2978.283279,-9844.739029,-814.226536,0.000000
2978.283616,-9548.656652,-666.185348,-995.924147
2978.283953,-10732.986159,-296.082377,-842.705048
2978.284291,-11251.130318,-1554.432478,-689.485948
2978.284628,-10658.965565,-1036.288319,-1685.410096
2978.284966,-9918.759623,-888.247130,-1455.581446
2978.285303,-9474.636058,-1332.370696,-1225.752797
2978.285640,-9474.636058,-1924.535449,-842.705048
2978.285978,-8808.450710,-1998.556043,-459.657299
2978.286315,-9326.594869,-592.164754,536.266849
2978.286652,-10881.027347,-814.226536,229.828649
2978.286990,-10288.862594,-814.226536,1149.143247
2978.287327,-10214.842000,0.000000,2068.457845
2978.287665,-10362.883188,-222.061783,2911.162892
2978.288002,-9844.739029,0.000000,3370.820191
2978.288339,-9770.718434,0.000000,2604.724693
2978.288677,-9548.656652,666.185348,2221.676944
2978.289014,-10362.883188,2220.617826,1302.362347
2978.289351,-10436.903782,2220.617826,0.000000
2978.289689,-9548.656652,1702.473667,-766.095498
2978.290026,-9474.636058,1332.370696,0.000000
2978.290364,-9770.718434,2072.576638,459.657299
2978.290701,-9696.697840,1480.411884,612.876398
2978.291038,-10288.862594,1850.514855,612.876398
2978.291376,-10807.006753,1110.308913,-689.485948
2978.291713,-11029.068536,518.144159,-1762.019645
2978.292050,-9474.636058,-296.082377,-1072.533697
2978.292388,-8512.368333,-1924.535449,0.000000
2978.292725,-9252.574275,-1480.411884,153.219100
2978.293063,-9622.677246,-2072.576638,153.219100
2978.293400,-9844.739029,-740.205942,229.828649
2978.293737,-10436.903782,-592.164754,-995.924147
2978.294075,-10658.965565,-1258.350101,-1532.190996
2978.294412,-10140.821405,-2368.659014,-919.314598
2978.294749,-10140.821405,-2516.700203,689.485948
2978.295087,-9178.553681,-1998.556043,1991.848295
2978.295424,-9326.594869,-2072.576638,1838.629195
2978.295762,-10214.842000,-962.267725,2221.676944
2978.296099,-11325.150913,-1480.411884,1072.533697
2978.296436,-11325.150913,-592.164754,766.095498
2978.296774,-10510.924376,-962.267725,995.924147
2978.297111,-10584.944971,-296.082377,1991.848295
2978.297448,-10066.800811,0.000000,689.485948
2978.297786,-10214.842000,444.123565,-383.047749
2978.298123,-9992.780217,962.267725,-383.047749
2978.298461,-10436.903782,296.082377,-383.047749
2978.298798,-11251.130318,296.082377,-766.095498
2978.299135,-10214.842000,-592.164754,-1532.190996
2978.299473,-9770.718434,-1332.370696,-153.219100
2978.299810,-9030.512492,-1628.453072,1225.752797
2978.300147,-9178.553681,-1554.432478,1455.581446
2978.300485,-9252.574275,-518.144159,1455.581446
2978.300822,-10362.883188,-518.144159,766.095498
2978.301160,-10584.944971,-148.041188,612.876398
2978.301497,-10214.842000,-592.164754,612.876398
2978.301834,-9548.656652,-370.102971,1455.581446
2978.302172,-9474.636058,814.226536,1762.019645
2978.302509,-10066.800811,1332.370696,995.924147
2978.302846,-10066.800811,2072.576638,153.219100
2978.303184,-10066.800811,370.102971,-306.438199
2978.303521,-9992.780217,0.000000,0.000000
2978.303859,-10584.944971,-444.123565,842.705048
2978.304196,-9696.697840,-74.020594,76.609550
2978.304533,-9030.512492,370.102971,0.000000
2978.304871,-9696.697840,1036.288319,0.000000
2978.305208,-9844.739029,740.205942,-995.924147
2978.305546,-10955.047942,74.020594,-2068.457845
2978.305883,-10510.924376,-814.226536,-1915.238745
2978.306220,-9844.739029,-370.102971,-2145.067394
2978.306558,-10214.842000,-2368.659014,-919.314598
2978.306895,-9844.739029,-1628.453072,0.000000
2978.307232,-9178.553681,-1258.350101,-229.828649
2978.307570,-10140.821405,-1258.350101,0.000000
2978.307907,-10807.006753,-1850.514855,-229.828649
2978.308245,-10362.883188,-1184.329507,-689.485948
2978.308582,-9844.739029,-2516.700203,76.609550
2978.308919,-9770.718434,-1776.494261,1532.190996
2978.309257,-9400.615463,-296.082377,2374.896044
2978.309594,-10510.924376,888.247130,2374.896044
2978.309931,-10658.965565,814.226536,1685.410096
2978.310269,-10658.965565,148.041188,1608.800546
2978.310606,-11177.109724,740.205942,2374.896044
2978.310944,-10881.027347,0.000000,1302.362347
2978.311281,-10288.862594,1036.288319,1685.410096
2978.311618,-9474.636058,1110.308913,459.657299
2978.311956,-8808.450710,1406.391290,-383.047749
2978.312293,-9030.512492,1924.535449,-766.095498
2978.312630,-10140.821405,1628.453072,-689.485948
2978.312968,-10066.800811,666.185348,-1378.971896
2978.313305,-9918.759623,222.061783,-1378.971896
2978.313643,-9474.636058,1036.288319,153.219100
2978.313980,-8956.491898,-74.020594,459.657299
2978.314318,-9252.574275,-370.102971,1072.533697
2978.314655,-9400.615463,-222.061783,919.314598
2978.314992,-10214.842000,-1332.370696,919.314598
2978.315330,-10807.006753,-1184.329507,536.266849
2978.315667,-9548.656652,-1702.473667,229.828649
2978.316005,-9992.780217,-444.123565,995.924147
2978.316342,-9622.677246,222.061783,612.876398
2978.316680,-10436.903782,222.061783,0.000000
2978.317017,-10214.842000,222.061783,-229.828649
2978.317355,-10288.862594,-370.102971,229.828649
2978.317692,-11029.068536,-296.082377,1072.533697
2978.318030,-10955.047942,-666.185348,842.705048
2978.318367,-10955.047942,-1258.350101,1685.410096
2978.318704,-10066.800811,148.041188,766.095498
2978.319042,-9326.594869,-740.205942,0.000000
2978.319379,-11251.130318,-444.123565,0.000000
2978.319717,-10510.924376,-2368.659014,-1685.410096
2978.320054,-9992.780217,-1480.411884,-2145.067394
2978.320392,-9030.512492,-1406.391290,-995.924147
2978.320729,-9622.677246,-1332.370696,-459.657299
2978.321067,-9104.533087,-1258.350101,-1225.752797
2978.321404,-9918.759623,-1406.391290,-459.657299
2978.321741,-10436.903782,-1258.350101,689.485948
2978.322079,-11177.109724,-1554.432478,919.314598
2978.322416,-11399.171507,-1480.411884,2068.457845
2978.322754,-9844.739029,-1480.411884,2068.457845
2978.323091,-9770.718434,-148.041188,2528.115143
2978.323429,-9918.759623,1110.308913,1532.190996
2978.323766,-9918.759623,1036.288319,919.314598
2978.324104,-9474.636058,518.144159,0.000000
2978.324441,-10510.924376,888.247130,153.219100
2978.324779,-9474.636058,1406.391290,153.219100
2978.325116,-9178.553681,1258.350101,1225.752797
2978.325453,-10140.821405,2368.659014,1225.752797
2978.325791,-10214.842000,2368.659014,-306.438199
2978.326128,-9918.759623,2146.597232,-1991.848295
2978.326466,-9992.780217,518.144159,-1302.362347
2978.326803,-10140.821405,-740.205942,0.000000
2978.327141,-9474.636058,-1258.350101,-383.047749
2978.327478,-9770.718434,-444.123565,229.828649
2978.327816,-9178.553681,-222.061783,-536.266849
2978.328153,-8660.409521,0.000000,-1762.019645
2978.328490,-10140.821405,-1702.473667,76.609550
2978.328828,-10658.965565,-814.226536,0.000000
2978.329165,-10436.903782,-1554.432478,-689.485948
2978.329503,-10140.821405,-1480.411884,0.000000
2978.329840,-9770.718434,-1406.391290,1149.143247
2978.330178,-9622.677246,-814.226536,766.095498
2978.330515,-9326.594869,-296.082377,1455.581446
2978.330853,-10955.047942,-1332.370696,1225.752797
2978.331190,-11325.150913,-740.205942,995.924147
2978.331528,-11251.130318,-592.164754,995.924147
2978.331865,-10066.800811,444.123565,1302.362347
2978.332202,-10362.883188,222.061783,1149.143247
2978.332540,-10066.800811,1184.329507,536.266849
2978.332877,-9696.697840,1480.411884,0.000000
2978.333215,-11029.068536,666.185348,229.828649
2978.333552,-11103.089130,740.205942,-689.485948
2978.333890,-10584.944971,-666.185348,-1149.143247
2978.334227,-10214.842000,0.000000,842.705048
2978.334565,-9252.574275,0.000000,612.876398
2978.334902,-9400.615463,518.144159,153.219100
2978.335240,-8882.471304,0.000000,0.000000
2978.335577,-9474.636058,-222.061783,-383.047749
2978.335914,-9992.780217,-518.144159,229.828649
2978.336252,-9400.615463,74.020594,153.219100
2978.336589,-9770.718434,-740.205942,1149.143247
2978.336927,-9400.615463,0.000000,2068.457845
2978.337264,-8364.327145,444.123565,1991.848295
2978.337602,-10140.821405,592.164754,2681.334243
2978.337939,-10214.842000,0.000000,1915.238745
2978.338277,-11399.171507,296.082377,1532.190996
2978.338614,-11547.212695,0.000000,1149.143247
2978.338951,-9918.759623,592.164754,612.876398
2978.339289,-9252.574275,1184.329507,-153.219100
2978.339626,-9474.636058,666.185348,-842.705048
2978.339964,-9622.677246,444.123565,-1838.629195
2978.340301,-10140.821405,-444.123565,-1149.143247
2978.340639,-10214.842000,0.000000,-1378.971896
2978.340976,-10658.965565,-370.102971,-995.924147
2978.341314,-11251.130318,-1110.308913,-536.266849
2978.341651,-9770.718434,-370.102971,-1149.143247
2978.341989,-10214.842000,-1258.350101,0.000000
2978.342326,-10362.883188,-2294.638420,995.924147
2978.342663,-10288.862594,-2442.679609,0.000000
2978.343001,-10436.903782,-2516.700203,-612.876398
2978.343338,-10288.862594,-1184.329507,-383.047749
2978.343676,-9474.636058,-1406.391290,-229.828649
2978.344013,-9252.574275,-1776.494261,76.609550
2978.344351,-9178.553681,-1628.453072,612.876398
2978.344688,-9474.636058,-962.267725,1455.581446
2978.345026,-10955.047942,-592.164754,1762.019645
2978.345363,-10362.883188,-444.123565,1302.362347
2978.345701,-9770.718434,-444.123565,2987.772442
2978.346038,-10140.821405,1184.329507,3217.601092
2978.346375,-10510.924376,370.102971,2451.505594
2978.346713,-10510.924376,1184.329507,766.095498
2978.347050,-10288.862594,444.123565,-766.095498
2978.347388,-9770.718434,518.144159,-919.314598
2978.347725,-9548.656652,814.226536,-612.876398
2978.348063,-10288.862594,74.020594,153.219100
2978.348400,-9326.594869,962.267725,-536.266849
2978.348738,-9474.636058,962.267725,-1378.971896
2978.349075,-9696.697840,0.000000,-766.095498
2978.349412,-10140.821405,-740.205942,76.609550
2978.349750,-10510.924376,-592.164754,229.828649
2978.350087,-10288.862594,-666.185348,459.657299
2978.350425,-10214.842000,-740.205942,1225.752797
2978.350762,-9252.574275,-592.164754,919.314598
2978.351100,-9844.739029,-1184.329507,1532.190996
2978.351437,-10288.862594,-1036.288319,919.314598
2978.351775,-9548.656652,-444.123565,153.219100
2978.352112,-9844.739029,-444.123565,306.438199
2978.352450,-9918.759623,-74.020594,153.219100
2978.352787,-9548.656652,0.000000,995.924147
2978.353124,-10436.903782,1036.288319,766.095498
2978.353462,-9844.739029,370.102971,-766.095498
2978.353799,-9918.759623,296.082377,-229.828649
2978.354137,-10436.903782,296.082377,306.438199
2978.354474,-9696.697840,-814.226536,-612.876398
2978.354812,-10140.821405,-296.082377,0.000000
2978.355149,-10510.924376,-296.082377,383.047749
2978.355487,-9918.759623,222.061783,-306.438199
2978.355824,-9844.739029,74.020594,-919.314598
2978.356161,-10584.944971,0.000000,-1378.971896
2978.356499,-10362.883188,-1332.370696,-689.485948
2978.356836,-9770.718434,-666.185348,0.000000
2978.357174,-9696.697840,-592.164754,612.876398
2978.357511,-9548.656652,0.000000,1532.190996
2978.357849,-10066.800811,74.020594,612.876398
2978.358186,-10807.006753,-296.082377,919.314598
2978.358524,-9622.677246,0.000000,1225.752797
2978.358861,-10140.821405,148.041188,1378.971896
2978.359199,-9696.697840,0.000000,2068.457845
2978.359536,-9474.636058,222.061783,2221.676944
2978.359873,-9844.739029,1110.308913,1762.019645
2978.360211,-9548.656652,1850.514855,995.924147
2978.360548,-9548.656652,1850.514855,536.266849
2978.360886,-10510.924376,1110.308913,-536.266849
2978.361223,-9696.697840,148.041188,-1532.190996
2978.361561,-8734.430116,0.000000,-153.219100
2978.361898,-9326.594869,74.020594,689.485948
2978.362236,-10288.862594,296.082377,-536.266849
2978.362573,-10140.821405,0.000000,-1455.581446
2978.362911,-9918.759623,-592.164754,-1762.019645
2978.363248,-9992.780217,-1924.535449,-1225.752797
2978.363585,-9548.656652,-2294.638420,-995.924147
2978.363923,-10214.842000,-2590.720797,229.828649
2978.364260,-9474.636058,-2368.659014,995.924147
2978.364598,-9104.533087,-1924.535449,306.438199
2978.364935,-10732.986159,-1480.411884,1302.362347
2978.365273,-11177.109724,-1184.329507,1225.752797
2978.365610,-11325.150913,-1776.494261,306.438199
2978.365948,-11843.295072,-2072.576638,1225.752797
2978.366285,-10584.944971,-592.164754,612.876398
2978.366622,-9622.677246,-814.226536,842.705048
2978.366960,-9696.697840,-1258.350101,1991.848295
2978.367297,-10214.842000,0.000000,1072.533697
2978.367635,-10658.965565,0.000000,919.314598
2978.367972,-10658.965565,0.000000,536.266849
2978.368310,-10510.924376,-370.102971,689.485948
2978.368647,-11103.089130,-74.020594,766.095498
2978.368985,-9474.636058,370.102971,-153.219100
2978.369322,-9844.739029,-148.041188,-383.047749
2978.369660,-9474.636058,444.123565,-536.266849
2978.369997,-9104.533087,0.000000,-1225.752797
2978.370334,-9696.697840,-740.205942,-1608.800546
2978.370672,-9548.656652,-666.185348,-842.705048
2978.371009,-9918.759623,-296.082377,-459.657299
2978.371347,-9326.594869,-666.185348,0.000000
2978.371684,-9178.553681,148.041188,1072.533697
2978.372022,-9326.594869,0.000000,1762.019645
2978.372359,-10807.006753,-666.185348,1532.190996
2978.372697,-10140.821405,-370.102971,1532.190996
2978.373034,-9844.739029,0.000000,2374.896044
2978.373372,-9622.677246,1036.288319,1838.629195
2978.373709,-10658.965565,1406.391290,383.047749
2978.374046,-10732.986159,1184.329507,-459.657299
2978.374384,-9178.553681,888.247130,-1302.362347
2978.374721,-10658.965565,888.247130,-1225.752797
2978.375059,-9474.636058,814.226536,-1608.800546
2978.375396,-9622.677246,148.041188,-1225.752797
2978.375734,-9548.656652,296.082377,-842.705048
2978.376071,-10955.047942,-370.102971,-689.485948
2978.376409,-11399.171507,444.123565,0.000000
2978.376746,-9770.718434,0.000000,-1149.143247
2978.377083,-10807.006753,-888.247130,-76.609550
2978.377421,-10140.821405,-1258.350101,-383.047749
2978.377758,-10066.800811,-1850.514855,536.266849
2978.378096,-9548.656652,-1850.514855,689.485948
2978.378433,-9696.697840,-1998.556043,612.876398
2978.378771,-10362.883188,-1480.411884,919.314598
2978.379108,-10362.883188,-740.205942,-689.485948
2978.379446,-9696.697840,-1406.391290,306.438199
2978.379783,-10510.924376,-666.185348,1532.190996
2978.380121,-9104.533087,0.000000,1225.752797
2978.380458,-9770.718434,0.000000,2145.067394
2978.380795,-10436.903782,370.102971,2834.553343
2978.381133,-10510.924376,1110.308913,2145.067394
2978.381470,-11103.089130,1850.514855,1838.629195
2978.381808,-10658.965565,1110.308913,1838.629195
2978.382145,-9622.677246,1184.329507,689.485948
2978.382483,-9474.636058,962.267725,0.000000
2978.382820,-9548.656652,1258.350101,229.828649
2978.383158,-9696.697840,370.102971,-153.219100
2978.383495,-10066.800811,1110.308913,-919.314598
2978.383832,-9548.656652,296.082377,-1225.752797
2978.384170,-9400.615463,0.000000,-1149.143247
2978.384507,-9474.636058,-74.020594,0.000000
2978.384845,-9400.615463,-740.205942,153.219100
2978.385182,-9548.656652,-592.164754,0.000000
2978.385520,-9548.656652,-1110.308913,229.828649
2978.385857,-10807.006753,-814.226536,383.047749
2978.386195,-10436.903782,-814.226536,-766.095498
2978.386532,-10584.944971,-2442.679609,536.266849
2978.386870,-9548.656652,-2294.638420,1915.238745
2978.387207,-9104.533087,-1110.308913,1149.143247
2978.387544,-9992.780217,-888.247130,2298.286494
2978.387882,-10436.903782,-888.247130,1072.533697
2978.388219,-10807.006753,-740.205942,153.219100
2978.388557,-11695.253884,-888.247130,536.266849
2978.388894,-10436.903782,-444.123565,0.000000
2978.389232,-10436.903782,-1480.411884,153.219100
2978.389569,-9474.636058,-740.205942,-612.876398
2978.389907,-9104.533087,-1184.329507,-766.095498
2978.390244,-10807.006753,-1628.453072,-536.266849
2978.390582,-11029.068536,-666.185348,-1072.533697
2978.390919,-10140.821405,-1184.329507,-2451.505594
2978.391256,-10436.903782,-1924.535449,-612.876398
2978.391594,-9622.677246,-1554.432478,-229.828649
2978.391931,-8734.430116,-1480.411884,-536.266849
2978.392269,-9622.677246,-888.247130,612.876398
2978.392606,-9696.697840,-1258.350101,0.000000
2978.392944,-9622.677246,-370.102971,76.609550
2978.393281,-9178.553681,-1406.391290,536.266849
2978.393619,-10066.800811,-666.185348,2221.676944
2978.393956,-10807.006753,-740.205942,1532.190996
2978.394293,-9844.739029,74.020594,1532.190996
2978.394631,-9696.697840,888.247130,1532.190996
2978.394968,-9696.697840,370.102971,2145.067394
2978.395306,-9548.656652,666.185348,2068.457845
2978.395643,-9918.759623,1406.391290,2145.067394
2978.395981,-11621.233289,1332.370696,1455.581446
2978.396318,-10066.800811,2590.720797,-306.438199
2978.396656,-10436.903782,1628.453072,-766.095498
2978.396993,-9474.636058,1702.473667,-536.266849
2978.397331,-10140.821405,740.205942,-153.219100
2978.397668,-10807.006753,148.041188,-383.047749
2978.398005,-8882.471304,0.000000,-1378.971896
2978.398343,-9252.574275,-1258.350101,-1149.143247
2978.398680,-8956.491898,-1924.535449,-612.876398
2978.399018,-9104.533087,-2146.597232,-1225.752797
2978.399355,-10658.965565,-962.267725,842.705048
2978.399693,-9992.780217,-888.247130,-153.219100
2978.400030,-9770.718434,-592.164754,-995.924147
2978.400368,-10807.006753,-1480.411884,0.000000
2978.400705,-10436.903782,-1924.535449,459.657299
2978.401043,-10288.862594,-1036.288319,1532.190996
2978.401380,-10066.800811,-888.247130,766.095498
2978.401717,-10288.862594,-444.123565,612.876398
2978.402055,-11103.089130,-888.247130,0.000000
2978.402392,-10436.903782,-962.267725,612.876398
2978.402730,-8882.471304,148.041188,306.438199
2978.403067,-9548.656652,592.164754,1149.143247
2978.403405,-12065.356855,1554.432478,842.705048
2978.403742,-11473.192101,962.267725,-1072.533697
2978.404080,-9548.656652,370.102971,-766.095498
2978.404417,-9548.656652,74.020594,459.657299
2978.404754,-9770.718434,444.123565,689.485948
2978.405092,-10436.903782,666.185348,-229.828649
2978.405429,-9770.718434,1036.288319,153.219100
2978.405767,-10362.883188,-222.061783,-306.438199
2978.406104,-10436.903782,-74.020594,0.000000
2978.406442,-9770.718434,-592.164754,919.314598
2978.406779,-9326.594869,-666.185348,1302.362347
2978.407117,-8808.450710,370.102971,1608.800546
2978.407454,-9030.512492,888.247130,1685.410096
2978.407792,-9918.759623,444.123565,995.924147
2978.408129,-10584.944971,518.144159,842.705048
2978.408466,-10066.800811,0.000000,1149.143247
2978.408804,-9696.697840,1406.391290,1608.800546
2978.409141,-8956.491898,0.000000,1762.019645
2978.409479,-9326.594869,0.000000,2298.286494
2978.409816,-9622.677246,0.000000,612.876398
2978.410154,-10436.903782,740.205942,459.657299
2978.410491,-10658.965565,370.102971,-306.438199
2978.410829,-10066.800811,-888.247130,-383.047749
2978.411166,-10066.800811,-740.205942,383.047749
2978.411503,-9474.636058,-1332.370696,-536.266849
2978.411841,-10066.800811,-222.061783,153.219100
2978.412178,-10140.821405,-1036.288319,-1072.533697
2978.412516,-10807.006753,-1776.494261,-2298.286494
2978.412853,-10732.986159,-2072.576638,-1608.800546
2978.413190,-10510.924376,-3108.864956,-612.876398
2978.413528,-10288.862594,-3256.906145,-612.876398
2978.413865,-9844.739029,-2664.741391,0.000000
2978.414203,-10140.821405,-1776.494261,842.705048
2978.414540,-10288.862594,-2220.617826,383.047749
2978.414878,-10881.027347,-1850.514855,612.876398
2978.415215,-11029.068536,-1998.556043,1455.581446
2978.415552,-10436.903782,-1184.329507,1685.410096
2978.415890,-9474.636058,-888.247130,1302.362347
2978.416227,-9474.636058,0.000000,1762.019645
2978.416565,-10510.924376,-740.205942,2298.286494
2978.416902,-9770.718434,518.144159,1149.143247
2978.417239,-10288.862594,1184.329507,153.219100
2978.417577,-10510.924376,1776.494261,76.609550
2978.417914,-11103.089130,444.123565,-689.485948
2978.418252,-9474.636058,666.185348,-1608.800546
2978.418589,-8068.244768,222.061783,-536.266849
2978.418926,-8438.347739,444.123565,229.828649
2978.419264,-9252.574275,814.226536,383.047749
2978.419601,-10362.883188,222.061783,-689.485948
2978.419939,-9992.780217,296.082377,-1225.752797
2978.420276,-10658.965565,-370.102971,-766.095498
2978.420613,-10066.800811,962.267725,-459.657299
2978.420951,-9696.697840,74.020594,76.609550
2978.421288,-10436.903782,592.164754,612.876398
2978.421626,-9770.718434,0.000000,-766.095498
2978.421963,-10510.924376,-1258.350101,766.095498
2978.422301,-10584.944971,-1184.329507,2068.457845
2978.422638,-9770.718434,-444.123565,1149.143247
2978.422975,-9770.718434,370.102971,1608.800546
2978.423313,-10881.027347,222.061783,1532.190996
2978.423650,-10214.842000,888.247130,153.219100
2978.423988,-11325.150913,518.144159,0.000000
2978.424325,-10066.800811,666.185348,-612.876398
2978.424662,-9918.759623,370.102971,-383.047749
2978.425000,-10881.027347,0.000000,-536.266849
2978.425337,-9178.553681,-814.226536,-689.485948
2978.425675,-9696.697840,-740.205942,0.000000
2978.426012,-9844.739029,0.000000,306.438199
2978.426349,-10066.800811,-666.185348,-612.876398
2978.426687,-9918.759623,-740.205942,-536.266849
2978.427024,-10732.986159,-1332.370696,-76.609550
2978.427362,-10732.986159,-1480.411884,0.000000
2978.427699,-9326.594869,-1332.370696,689.485948
2978.428036,-9178.553681,-740.205942,1149.143247
2978.428374,-9400.615463,-296.082377,1149.143247
2978.428711,-9622.677246,-222.061783,536.266849
2978.429049,-10955.047942,-592.164754,1378.971896
2978.429386,-10955.047942,0.000000,1302.362347
2978.429723,-9770.718434,0.000000,1225.752797
2978.430061,-9770.718434,1036.288319,2987.772442
2978.430398,-10362.883188,1332.370696,2145.067394
2978.430736,-10658.965565,1480.411884,1225.752797
2978.431073,-10362.883188,1258.350101,689.485948
2978.431411,-9622.677246,1258.350101,153.219100
2978.431748,-9474.636058,1628.453072,229.828649
2978.432085,-9474.636058,74.020594,76.609550
2978.432423,-10510.924376,518.144159,459.657299
2978.432760,-10288.862594,370.102971,-689.485948
2978.433098,-10362.883188,222.061783,-306.438199
2978.433435,-10066.800811,-814.226536,-1149.143247
2978.433772,-9548.656652,-1702.473667,-1532.190996
2978.434110,-9326.594869,-2516.700203,-1072.533697
2978.434447,-8808.450710,-3404.947333,-536.266849
2978.434785,-8438.347739,-1924.535449,76.609550
2978.435122,-9104.533087,-1554.432478,-919.314598
2978.435459,-10436.903782,-962.267725,-919.314598
2978.435797,-10732.986159,-2368.659014,-919.314598
2978.436134,-11325.150913,-1924.535449,689.485948
2978.436472,-10140.821405,-2886.803174,1685.410096
2978.436809,-10362.883188,-2294.638420,3370.820191
2978.437146,-10584.944971,-1554.432478,2451.505594
2978.437484,-10732.986159,-1332.370696,842.705048
2978.437821,-10881.027347,-1924.535449,459.657299
2978.438159,-10807.006753,-1628.453072,229.828649
2978.438496,-9474.636058,-592.164754,229.828649
2978.438834,-9770.718434,0.000000,0.000000
2978.439171,-10584.944971,0.000000,0.000000
2978.439508,-10436.903782,666.185348,-1072.533697
2978.439846,-9918.759623,444.123565,-1225.752797
2978.440183,-9770.718434,444.123565,-1072.533697
2978.440521,-10140.821405,0.000000,-919.314598
2978.440858,-10140.821405,-1036.288319,-1149.143247
2978.441195,-8956.491898,-1110.308913,0.000000
2978.441533,-9326.594869,-666.185348,1225.752797
2978.441870,-9696.697840,1184.329507,612.876398
2978.442208,-9770.718434,814.226536,-306.438199
2978.442545,-10732.986159,148.041188,306.438199
2978.442882,-9326.594869,-370.102971,612.876398
2978.443220,-8808.450710,-148.041188,1225.752797
2978.443557,-7846.182985,666.185348,2068.457845
2978.443895,-9474.636058,74.020594,2604.724693
2978.444232,-10955.047942,1554.432478,1455.581446
2978.444569,-9918.759623,1258.350101,0.000000
2978.444907,-10362.883188,1480.411884,1455.581446
2978.445244,-10955.047942,148.041188,919.314598
2978.445582,-9474.636058,370.102971,-153.219100
2978.445919,-9548.656652,666.185348,1302.362347
2978.446256,-10362.883188,1628.453072,306.438199
2978.446594,-9918.759623,1184.329507,-153.219100
2978.446931,-11473.192101,296.082377,-536.266849
2978.447269,-10288.862594,814.226536,-1225.752797
2978.447606,-11177.109724,-962.267725,-1225.752797
2978.447944,-10214.842000,-1406.391290,-306.438199
2978.448281,-9474.636058,-1628.453072,153.219100
2978.448618,-10732.986159,-1184.329507,919.314598
2978.448956,-10658.965565,-592.164754,-383.047749
2978.449293,-10881.027347,-1184.329507,-306.438199
2978.449631,-11177.109724,-1776.494261,306.438199
2978.449968,-9844.739029,-2294.638420,306.438199
2978.450305,-9178.553681,-1776.494261,995.924147
2978.450643,-9844.739029,-740.205942,2145.067394
2978.450980,-9622.677246,-370.102971,1149.143247
2978.451318,-9696.697840,740.205942,1532.190996
2978.451655,-10362.883188,888.247130,1225.752797
2978.451992,-10288.862594,444.123565,1149.143247
2978.452330,-10214.842000,74.020594,612.876398
2978.452667,-9770.718434,370.102971,1149.143247
2978.453005,-9548.656652,444.123565,306.438199
2978.453342,-9474.636058,814.226536,153.219100
2978.453679,-9326.594869,1480.411884,0.000000
2978.454017,-9252.574275,222.061783,-995.924147
2978.454354,-9622.677246,1184.329507,-536.266849
2978.454692,-10362.883188,962.267725,-919.314598
2978.455029,-10214.842000,74.020594,-842.705048
2978.455366,-10510.924376,740.205942,0.000000
2978.455704,-10584.944971,222.061783,0.000000
2978.456041,-10362.883188,0.000000,459.657299
2978.456379,-9104.533087,-1110.308913,0.000000
2978.456716,-9844.739029,-962.267725,919.314598
2978.457054,-9918.759623,-1850.514855,306.438199
2978.457391,-9844.739029,-1332.370696,842.705048
2978.457728,-10436.903782,-1110.308913,1225.752797
2978.458066,-10436.903782,-592.164754,995.924147
2978.458403,-9992.780217,0.000000,689.485948
2978.458741,-10214.842000,-518.144159,383.047749
2978.459078,-9326.594869,-962.267725,76.609550
2978.459415,-9918.759623,-1998.556043,459.657299
2978.459753,-10436.903782,-1702.473667,1225.752797
2978.460090,-9548.656652,-666.185348,383.047749
2978.460428,-9918.759623,-740.205942,0.000000
2978.460765,-9844.739029,-1258.350101,-842.705048
2978.461102,-9992.780217,-1702.473667,-1149.143247
2978.461440,-9770.718434,-1258.350101,-1532.190996
2978.461777,-9252.574275,-1924.535449,-2068.457845
2978.462115,-10288.862594,-2220.617826,-306.438199
2978.462452,-10362.883188,-1924.535449,-536.266849
2978.462789,-10362.883188,-814.226536,-536.266849
2978.463127,-10140.821405,-888.247130,0.000000
2978.463464,-10362.883188,-1480.411884,0.000000
2978.463802,-9992.780217,-1258.350101,0.000000
2978.464139,-9844.739029,-1554.432478,1149.143247
2978.464477,-10807.006753,-592.164754,2451.505594
2978.464814,-11103.089130,962.267725,2221.676944
2978.465151,-10658.965565,1776.494261,1455.581446
2978.465489,-9696.697840,2146.597232,1455.581446
2978.465826,-10362.883188,666.185348,1225.752797
2978.466164,-10510.924376,444.123565,536.266849
2978.466501,-9400.615463,444.123565,1685.410096
2978.466838,-9622.677246,1184.329507,1532.190996
2978.467176,-9696.697840,2220.617826,995.924147
2978.467513,-9918.759623,1776.494261,-76.609550
2978.467851,-10066.800811,1850.514855,-842.705048
2978.468188,-9992.780217,370.102971,-1149.143247
2978.468525,-9252.574275,666.185348,-536.266849
2978.468863,-9474.636058,148.041188,-1149.143247
2978.469200,-9770.718434,-1036.288319,-689.485948
2978.469538,-9844.739029,0.000000,-995.924147
2978.469875,-8364.327145,-296.082377,-1149.143247
2978.470212,-8734.430116,-370.102971,-229.828649
2978.470550,-10658.965565,-1036.288319,229.828649
2978.470887,-10510.924376,-666.185348,0.000000
2978.471225,-11621.233289,-444.123565,1838.629195
2978.471562,-12065.356855,518.144159,2068.457845
2978.471899,-11621.233289,0.000000,1608.800546
2978.472237,-11177.109724,148.041188,1838.629195
2978.472574,-9992.780217,0.000000,1225.752797
2978.472912,-9474.636058,0.000000,612.876398
2978.473249,-10140.821405,0.000000,1455.581446
2978.473587,-10807.006753,-148.041188,459.657299
2978.473924,-10732.986159,148.041188,-383.047749
2978.474261,-10807.006753,740.205942,-689.485948
2978.474599,-9178.553681,888.247130,-689.485948
2978.474936,-9622.677246,148.041188,536.266849
2978.475274,-9770.718434,-740.205942,-612.876398
2978.475611,-9696.697840,-370.102971,0.000000
2978.475948,-10066.800811,-518.144159,229.828649
2978.476286,-9474.636058,-592.164754,76.609550
2978.476623,-10066.800811,-444.123565,306.438199
2978.476961,-9178.553681,-740.205942,0.000000
2978.477298,-9548.656652,0.000000,0.000000
2978.477635,-9770.718434,-1480.411884,0.000000
2978.477973,-8882.471304,-740.205942,689.485948
2978.478310,-9844.739029,-518.144159,1225.752797
2978.478648,-10881.027347,0.000000,536.266849
2978.478985,-9992.780217,444.123565,995.924147
2978.479322,-10955.047942,222.061783,1378.971896
2978.479660,-9770.718434,962.267725,1149.143247
2978.479997,-9992.780217,74.020594,1378.971896
2978.480335,-11325.150913,666.185348,1762.019645
2978.480672,-10732.986159,-222.061783,1149.143247
2978.481010,-11325.150913,0.000000,995.924147
2978.481347,-11029.068536,74.020594,76.609550
2978.481684,-9844.739029,-370.102971,-919.314598
2978.482022,-9474.636058,-592.164754,-2145.067394
2978.482359,-8882.471304,-2368.659014,-1838.629195
2978.482697,-9474.636058,-1184.329507,-612.876398
2978.483034,-9770.718434,-1406.391290,-1608.800546
2978.483371,-9992.780217,-1998.556043,-1378.971896
2978.483709,-9548.656652,-1776.494261,-766.095498
2978.484046,-10436.903782,-1850.514855,76.609550
2978.484384,-10584.944971,-2442.679609,306.438199
2978.484721,-9474.636058,-2812.782580,-229.828649
2978.485058,-9104.533087,-2146.597232,153.219100
2978.485396,-10140.821405,-2146.597232,229.828649
2978.485733,-9918.759623,-1850.514855,766.095498
2978.486071,-10658.965565,-1184.329507,919.314598
2978.486408,-10288.862594,-666.185348,842.705048
2978.486745,-9844.739029,-370.102971,919.314598
2978.487083,-10658.965565,-518.144159,2604.724693
2978.487420,-10807.006753,370.102971,2528.115143
2978.487758,-10214.842000,1036.288319,1072.533697
2978.488095,-10584.944971,1036.288319,995.924147
2978.488432,-11103.089130,888.247130,766.095498
2978.488770,-10955.047942,666.185348,-612.876398
2978.489107,-8512.368333,740.205942,-1225.752797
2978.489445,-9548.656652,74.020594,-383.047749
2978.489782,-9474.636058,740.205942,-612.876398
2978.490120,-9178.553681,1480.411884,-1149.143247
2978.490457,-9770.718434,740.205942,-995.924147
2978.490794,-9844.739029,444.123565,-689.485948
2978.491132,-10288.862594,74.020594,0.000000
2978.491469,-9992.780217,518.144159,0.000000
2978.491807,-9474.636058,-592.164754,459.657299
2978.492144,-9474.636058,370.102971,995.924147
2978.492481,-9400.615463,-592.164754,383.047749
2978.492819,-10140.821405,0.000000,1225.752797
2978.493156,-10214.842000,74.020594,1225.752797
2978.493494,-9400.615463,-666.185348,0.000000
2978.493831,-9548.656652,-370.102971,1225.752797
2978.494168,-10362.883188,0.000000,1915.238745
2978.494506,-9844.739029,962.267725,919.314598
2978.494843,-9992.780217,222.061783,306.438199
2978.495181,-10807.006753,1110.308913,1225.752797
2978.495518,-10955.047942,1702.473667,-536.266849
2978.495855,-10658.965565,888.247130,-919.314598
2978.496193,-10140.821405,-222.061783,-536.266849
2978.496530,-9844.739029,-1628.453072,-612.876398
2978.496868,-9474.636058,-296.082377,0.000000
2978.497205,-9622.677246,-740.205942,306.438199
2978.497543,-10658.965565,-740.205942,306.438199
2978.497880,-11029.068536,-962.267725,-612.876398
2978.498217,-11325.150913,-1258.350101,-459.657299
2978.498555,-10066.800811,-814.226536,536.266849
2978.498892,-10066.800811,-370.102971,842.705048
2978.499230,-9474.636058,-592.164754,229.828649
2978.499567,-9622.677246,-74.020594,919.314598
2978.499904,-10066.800811,74.020594,1455.581446
2978.500242,-9548.656652,-592.164754,383.047749
2978.500579,-9696.697840,-296.082377,1991.848295
2978.500917,-10066.800811,-370.102971,2681.334243
2978.501254,-9474.636058,370.102971,2145.067394
2978.501591,-9252.574275,1110.308913,995.924147
2978.501929,-9992.780217,1036.288319,1378.971896
2978.502266,-10066.800811,740.205942,536.266849
2978.502604,-9400.615463,1258.350101,-306.438199
2978.502941,-9326.594869,962.267725,229.828649
2978.503278,-9770.718434,0.000000,-76.609550
2978.503616,-10362.883188,-518.144159,-842.705048
2978.503953,-10140.821405,0.000000,-383.047749
2978.504291,-9548.656652,-888.247130,-612.876398
2978.504628,-10510.924376,-1258.350101,-766.095498
2978.504965,-10066.800811,-1776.494261,-612.876398
2978.505303,-10214.842000,-2146.597232,-689.485948
2978.505640,-10510.924376,-1924.535449,459.657299
2978.505978,-10807.006753,-1850.514855,-536.266849
2978.506315,-10584.944971,-1184.329507,-536.266849
2978.506653,-10140.821405,-2220.617826,383.047749
2978.506990,-10362.883188,-1776.494261,1072.533697
2978.507327,-10066.800811,-962.267725,306.438199
2978.507665,-10584.944971,-1332.370696,612.876398
2978.508002,-10881.027347,-1628.453072,766.095498
2978.508340,-10066.800811,-1258.350101,-306.438199
2978.508677,-9030.512492,-1258.350101,76.609550
2978.509014,-9622.677246,-2072.576638,383.047749
2978.509352,-8882.471304,-888.247130,306.438199
2978.509689,-9104.533087,-666.185348,0.000000
2978.510027,-10732.986159,-814.226536,0.000000
2978.510364,-10140.821405,-444.123565,-766.095498
2978.510701,-9844.739029,-296.082377,-612.876398
2978.511039,-9992.780217,-74.020594,76.609550
2978.511376,-10288.862594,-370.102971,0.000000
2978.511714,-11177.109724,0.000000,-306.438199
2978.512051,-10140.821405,-296.082377,-995.924147
2978.512388,-9770.718434,0.000000,-459.657299
2978.512726,-10584.944971,888.247130,459.657299
2978.513063,-9918.759623,814.226536,-229.828649
2978.513401,-9844.739029,518.144159,383.047749
2978.513738,-10214.842000,1258.350101,1225.752797
2978.514075,-9770.718434,1258.350101,995.924147
2978.514413,-9844.739029,1702.473667,1608.800546
2978.514750,-10288.862594,1332.370696,2911.162892
2978.515087,-10510.924376,1184.329507,2451.505594
2978.515425,-9918.759623,962.267725,1838.629195
2978.515762,-9474.636058,740.205942,1762.019645
2978.516099,-9770.718434,296.082377,1608.800546
2978.516437,-8882.471304,370.102971,0.000000
2978.516774,-9474.636058,444.123565,-689.485948
2978.517112,-9104.533087,-148.041188,-919.314598
2978.517449,-9104.533087,0.000000,-1225.752797
2978.517786,-9548.656652,-888.247130,-1225.752797
2978.518124,-9178.553681,370.102971,-1762.019645
2978.518461,-9770.718434,-962.267725,-995.924147
2978.518798,-11251.130318,-1554.432478,-459.657299
2978.519136,-10066.800811,-1776.494261,-689.485948
2978.519473,-10584.944971,-1406.391290,76.609550
2978.519811,-10362.883188,-1850.514855,306.438199
2978.520148,-10288.862594,-2072.576638,0.000000
2978.520485,-10807.006753,-888.247130,536.266849
2978.520823,-11325.150913,-1406.391290,842.705048
2978.521160,-10955.047942,0.000000,1225.752797
2978.521497,-10955.047942,296.082377,1149.143247
2978.521835,-11103.089130,740.205942,1378.971896
2978.522172,-11103.089130,0.000000,1072.533697
2978.522509,-10732.986159,-222.061783,919.314598
2978.522847,-9548.656652,370.102971,1302.362347
2978.523184,-9104.533087,74.020594,1532.190996
2978.523522,-9474.636058,1036.288319,1532.190996
2978.523859,-9992.780217,518.144159,766.095498
2978.524196,-9844.739029,962.267725,0.000000
2978.524534,-9178.553681,518.144159,-306.438199
2978.524871,-9326.594869,148.041188,459.657299
2978.525208,-8660.409521,0.000000,-306.438199
2978.525546,-9474.636058,0.000000,-995.924147
2978.525883,-8956.491898,-222.061783,0.000000
2978.526221,-8586.388927,148.041188,-919.314598
2978.526558,-9030.512492,-1110.308913,0.000000
2978.526895,-9918.759623,-296.082377,0.000000
2978.527233,-10658.965565,-1036.288319,76.609550
2978.527570,-9918.759623,-1036.288319,689.485948
2978.527907,-9622.677246,-1332.370696,1149.143247
2978.528245,-9844.739029,-592.164754,1915.238745
2978.528582,-10658.965565,74.020594,1532.190996
2978.528919,-10732.986159,-370.102971,-153.219100
2978.529257,-11103.089130,-592.164754,0.000000
2978.529594,-10510.924376,-962.267725,689.485948
2978.529932,-10362.883188,0.000000,612.876398
2978.530269,-10584.944971,-1258.350101,1455.581446
2978.530606,-10362.883188,-222.061783,995.924147
2978.530944,-9474.636058,0.000000,-306.438199
2978.531281,-10658.965565,0.000000,-1455.581446
2978.531618,-10362.883188,-1184.329507,-2145.067394
2978.531956,-10436.903782,-2294.638420,-1838.629195
2978.532293,-10214.842000,-1406.391290,-1455.581446
2978.532630,-8956.491898,-1628.453072,-1378.971896
2978.532968,-9474.636058,-962.267725,-383.047749
2978.533305,-9844.739029,-2368.659014,-842.705048
2978.533643,-9326.594869,-2146.597232,-1149.143247
2978.533980,-9400.615463,-1998.556043,-612.876398
2978.534317,-9474.636058,-1480.411884,766.095498
2978.534655,-8882.471304,-1480.411884,536.266849
2978.534992,-9770.718434,-1406.391290,1532.190996
2978.535329,-11399.171507,0.000000,2451.505594
2978.535667,-10658.965565,962.267725,1685.410096
2978.536004,-11029.068536,296.082377,1838.629195
2978.536342,-9918.759623,444.123565,2374.896044
2978.536679,-10288.862594,0.000000,2451.505594
2978.537016,-10584.944971,1184.329507,2374.896044
2978.537354,-10658.965565,1554.432478,1532.190996
2978.537691,-10066.800811,1480.411884,536.266849
2978.538028,-9474.636058,2516.700203,-1532.190996
2978.538366,-9474.636058,1628.453072,-995.924147
2978.538703,-10732.986159,1258.350101,-995.924147
2978.539040,-10362.883188,518.144159,-1302.362347
2978.539378,-9622.677246,1110.308913,-995.924147
2978.539715,-9548.656652,814.226536,-766.095498
2978.540053,-9918.759623,1036.288319,-1302.362347
2978.540390,-10362.883188,-592.164754,-842.705048
2978.540727,-9992.780217,-1850.514855,-919.314598
2978.541065,-8956.491898,-1406.391290,0.000000
2978.541402,-9548.656652,-1628.453072,536.266849
2978.541739,-9178.553681,-1110.308913,919.314598
2978.542077,-10807.006753,-1554.432478,842.705048
2978.542414,-10584.944971,-370.102971,612.876398
2978.542752,-9844.739029,0.000000,229.828649
2978.543089,-9844.739029,-1480.411884,766.095498
2978.543426,-9548.656652,-1184.329507,1532.190996
2978.543764,-9400.615463,-740.205942,1072.533697
2978.544101,-10140.821405,0.000000,1762.019645
2978.544438,-11325.150913,0.000000,1685.410096
2978.544776,-10955.047942,148.041188,0.000000
2978.545113,-10732.986159,222.061783,-153.219100
2978.545450,-9844.739029,148.041188,-229.828649
2978.545788,-9104.533087,-740.205942,76.609550
2978.546125,-9622.677246,-296.082377,612.876398
2978.546463,-10066.800811,-444.123565,1455.581446
2978.546800,-10881.027347,814.226536,612.876398
2978.547137,-11399.171507,148.041188,-1072.533697
2978.547475,-10955.047942,-222.061783,-766.095498
2978.547812,-9696.697840,-814.226536,919.314598
2978.548149,-9696.697840,-962.267725,1149.143247
2978.548487,-9474.636058,-740.205942,1685.410096
2978.548824,-9252.574275,0.000000,1378.971896
2978.549161,-9622.677246,0.000000,995.924147
2978.549499,-9918.759623,222.061783,1302.362347
2978.549836,-9918.759623,74.020594,1149.143247
2978.550174,-10140.821405,-518.144159,2298.286494
2978.550511,-9400.615463,0.000000,1915.238745
2978.550848,-8216.285956,740.205942,1455.581446
2978.551186,-9548.656652,1480.411884,1991.848295
2978.551523,-10955.047942,814.226536,229.828649
2978.551860,-10807.006753,592.164754,-842.705048
2978.552198,-10436.903782,-222.061783,-1378.971896
2978.552535,-9326.594869,-1480.411884,-919.314598
2978.552873,-8290.306550,-1406.391290,-383.047749
2978.553210,-9104.533087,-1332.370696,76.609550
2978.553547,-9844.739029,-518.144159,-612.876398
2978.553885,-10881.027347,0.000000,-1608.800546
2978.554222,-11621.233289,-518.144159,-2451.505594
2978.554559,-10362.883188,-2368.659014,-2374.896044
2978.554897,-9992.780217,-2738.761985,-1608.800546
2978.555234,-9770.718434,-3330.926739,-459.657299
2978.555571,-10140.821405,-2516.700203,995.924147
2978.555909,-10584.944971,-1776.494261,842.705048
2978.556246,-10807.006753,-962.267725,229.828649
2978.556584,-10732.986159,-1110.308913,-459.657299
2978.556921,-11177.109724,-1480.411884,0.000000
2978.557258,-11473.192101,-1406.391290,1149.143247
2978.557596,-9474.636058,-444.123565,919.314598
2978.557933,-8882.471304,444.123565,1762.019645
2978.558270,-9844.739029,1110.308913,1762.019645
2978.558608,-9918.759623,962.267725,1532.190996
2978.558945,-10362.883188,1776.494261,1991.848295
2978.559283,-11473.192101,1036.288319,1378.971896
2978.559620,-10436.903782,962.267725,306.438199
2978.559957,-9474.636058,296.082377,306.438199
2978.560295,-9178.553681,0.000000,612.876398
2978.560632,-7772.162391,592.164754,-383.047749
2978.560969,-8660.409521,1110.308913,-612.876398
2978.561307,-9326.594869,888.247130,-766.095498
2978.561644,-9548.656652,0.000000,-1225.752797
2978.561981,-10066.800811,222.061783,-536.266849
2978.562319,-9474.636058,666.185348,229.828649
2978.562656,-10362.883188,1036.288319,1302.362347
2978.562994,-10140.821405,1628.453072,842.705048
2978.563331,-10288.862594,-370.102971,76.609550
2978.563668,-9548.656652,370.102971,1072.533697
2978.564006,-10066.800811,-592.164754,689.485948
2978.564343,-10214.842000,-1110.308913,1532.190996
2978.564680,-9770.718434,-814.226536,1225.752797
2978.565018,-9918.759623,296.082377,1608.800546
2978.565355,-10066.800811,592.164754,1149.143247
2978.565692,-10066.800811,222.061783,229.828649
2978.566030,-10510.924376,-444.123565,-383.047749
2978.566367,-10436.903782,-888.247130,-306.438199
2978.566705,-10066.800811,-1924.535449,-383.047749
2978.567042,-9770.718434,-1332.370696,0.000000
2978.567379,-9918.759623,-1110.308913,-536.266849
2978.567717,-9918.759623,-814.226536,-1455.581446
2978.568054,-10214.842000,-1184.329507,-2528.115143
2978.568391,-9178.553681,-2072.576638,-2451.505594
2978.568729,-10066.800811,-3182.885551,-766.095498
2978.569066,-9474.636058,-2590.720797,459.657299
2978.569404,-10066.800811,-1850.514855,919.314598
2978.569741,-10955.047942,-370.102971,1302.362347
2978.570078,-11769.274478,222.061783,536.266849
2978.570416,-11547.212695,-592.164754,1072.533697
2978.570753,-11177.109724,-370.102971,1302.362347
2978.571090,-10214.842000,-222.061783,1915.238745
2978.571428,-10436.903782,222.061783,2451.505594
2978.571765,-10214.842000,296.082377,2451.505594
2978.572102,-9844.739029,1036.288319,1991.848295
2978.572440,-9622.677246,1406.391290,612.876398
2978.572777,-9844.739029,2220.617826,76.609550
2978.573115,-10362.883188,1036.288319,-383.047749
2978.573452,-8734.430116,592.164754,-1532.190996
2978.573789,-8660.409521,1702.473667,-229.828649
2978.574127,-9770.718434,1184.329507,1149.143247
2978.574464,-9918.759623,1406.391290,-383.047749
2978.574801,-9696.697840,888.247130,-1608.800546
2978.575139,-8882.471304,74.020594,0.000000
2978.575476,-9104.533087,-1110.308913,0.000000
2978.575814,-9030.512492,-2146.597232,919.314598
2978.576151,-10066.800811,-1110.308913,995.924147
2978.576488,-9918.759623,-444.123565,0.000000
2978.576826,-10288.862594,74.020594,-919.314598
2978.577163,-10362.883188,-518.144159,-1532.190996
2978.577500,-10362.883188,-1628.453072,-919.314598
2978.577838,-9992.780217,-2072.576638,76.609550
2978.578175,-9474.636058,-1110.308913,689.485948
2978.578512,-11399.171507,-1184.329507,2987.772442
2978.578850,-11251.130318,-666.185348,1302.362347
2978.579187,-9918.759623,-592.164754,0.000000
2978.579525,-11103.089130,-148.041188,612.876398
2978.579862,-11695.253884,-1036.288319,842.705048
2978.580199,-10881.027347,-1110.308913,306.438199
2978.580537,-9474.636058,-814.226536,306.438199
2978.580874,-9992.780217,-444.123565,612.876398
2978.581211,-10214.842000,444.123565,-612.876398
2978.581549,-10214.842000,0.000000,-1149.143247
2978.581886,-10066.800811,-592.164754,-1455.581446
2978.582223,-9548.656652,-666.185348,-1685.410096
2978.582561,-9474.636058,-1332.370696,-1149.143247
2978.582898,-9992.780217,-1406.391290,689.485948
2978.583236,-10066.800811,-740.205942,1225.752797
2978.583573,-9992.780217,-592.164754,536.266849
2978.583910,-10140.821405,0.000000,995.924147
2978.584248,-9030.512492,0.000000,1072.533697
2978.584585,-10066.800811,0.000000,1455.581446
2978.584922,-9252.574275,666.185348,766.095498
2978.585260,-9252.574275,518.144159,1532.190996
2978.585597,-9844.739029,1480.411884,2298.286494
2978.585935,-9918.759623,1332.370696,2451.505594
2978.586272,-10362.883188,2072.576638,1685.410096
2978.586609,-10584.944971,1258.350101,1532.190996
2978.586947,-10658.965565,1332.370696,1302.362347
2978.587284,-9030.512492,888.247130,0.000000
2978.587621,-9326.594869,1036.288319,229.828649
2978.587959,-9844.739029,592.164754,-153.219100
2978.588296,-10362.883188,592.164754,-1838.629195
2978.588633,-9844.739029,-296.082377,-1608.800546
2978.588971,-9326.594869,296.082377,-1302.362347
2978.589308,-9548.656652,-148.041188,-766.095498
2978.589646,-10066.800811,-666.185348,-1302.362347
2978.589983,-10584.944971,-1332.370696,-1455.581446
2978.590320,-10214.842000,-1036.288319,-919.314598
2978.590658,-10510.924376,-814.226536,229.828649
2978.590995,-10288.862594,-1480.411884,153.219100
2978.591332,-10807.006753,-1776.494261,0.000000
2978.591670,-10436.903782,-2516.700203,536.266849
2978.592007,-9326.594869,-2146.597232,1225.752797
2978.592345,-9474.636058,-1628.453072,2374.896044
2978.592682,-10214.842000,-666.185348,2221.676944
2978.593019,-10436.903782,-740.205942,1149.143247
2978.593357,-10510.924376,-962.267725,689.485948
2978.593694,-9696.697840,222.061783,1225.752797
2978.594031,-9474.636058,0.000000,1072.533697
2978.594369,-10436.903782,74.020594,1915.238745
2978.594706,-10881.027347,444.123565,306.438199
2978.595043,-10066.800811,888.247130,-536.266849
2978.595381,-10288.862594,518.144159,-229.828649
2978.595718,-9622.677246,-518.144159,0.000000
2978.596056,-9252.574275,-1258.350101,-459.657299
2978.596393,-7994.224174,-592.164754,229.828649
2978.596730,-9770.718434,-1184.329507,1225.752797
2978.597068,-10214.842000,296.082377,1225.752797
2978.597405,-10584.944971,1258.350101,0.000000
2978.597742,-11917.315666,296.082377,0.000000
2978.598080,-11103.089130,592.164754,-1149.143247
2978.598417,-9400.615463,-444.123565,-919.314598
2978.598754,-9030.512492,-592.164754,1455.581446
2978.599092,-9178.553681,-1702.473667,1915.238745
2978.599429,-9770.718434,-222.061783,1225.752797
2978.599767,-10140.821405,222.061783,842.705048
2978.600104,-9918.759623,148.041188,1072.533697
2978.600441,-10658.965565,222.061783,995.924147
2978.600779,-9548.656652,-296.082377,0.000000
2978.601116,-9474.636058,0.000000,842.705048
2978.601453,-9770.718434,222.061783,612.876398
2978.601791,-9844.739029,1258.350101,-1072.533697
2978.602128,-10214.842000,370.102971,-1455.581446
2978.602466,-10658.965565,-518.144159,-2451.505594
2978.602803,-9918.759623,-962.267725,-2068.457845
2978.603140,-8956.491898,-2146.597232,-995.924147
2978.603478,-9548.656652,-1036.288319,153.219100
2978.603815,-10288.862594,-1998.556043,-766.095498
2978.604152,-10510.924376,-814.226536,-1532.190996
2978.604490,-10362.883188,-1332.370696,-306.438199
2978.604827,-10955.047942,-1332.370696,689.485948
2978.605164,-10658.965565,-666.185348,766.095498
2978.605502,-10140.821405,-814.226536,459.657299
2978.605839,-9918.759623,-1628.453072,1225.752797
2978.606177,-9548.656652,-592.164754,1072.533697
2978.606514,-10066.800811,-740.205942,2528.115143
2978.606851,-10658.965565,888.247130,1762.019645
2978.607189,-10436.903782,222.061783,919.314598
2978.607526,-10510.924376,222.061783,1072.533697
2978.607863,-9178.553681,592.164754,995.924147
2978.608201,-9252.574275,814.226536,2298.286494
2978.608538,-10066.800811,1110.308913,1072.533697
2978.608876,-9548.656652,1480.411884,459.657299
2978.609213,-9548.656652,1406.391290,-76.609550
2978.609550,-9400.615463,888.247130,-153.219100
2978.609888,-9474.636058,592.164754,-612.876398
2978.610225,-10140.821405,-740.205942,-306.438199
2978.610562,-10362.883188,-370.102971,-995.924147
2978.610900,-8956.491898,-222.061783,-1608.800546
2978.611237,-9474.636058,-740.205942,-306.438199
2978.611574,-9622.677246,-740.205942,306.438199
2978.611912,-10584.944971,-1406.391290,153.219100
2978.612249,-11103.089130,-74.020594,689.485948
2978.612587,-10436.903782,-370.102971,536.266849
2978.612924,-10140.821405,-370.102971,689.485948
2978.613261,-10658.965565,-740.205942,766.095498
2978.613599,-10362.883188,-518.144159,383.047749
2978.613936,-10584.944971,-444.123565,995.924147
2978.614273,-10362.883188,-148.041188,1072.533697
2978.614611,-9622.677246,-814.226536,1072.533697
2978.614948,-10807.006753,-888.247130,1149.143247
2978.615285,-10955.047942,-592.164754,0.000000
2978.615623,-10362.883188,-740.205942,-612.876398
2978.615960,-9326.594869,-962.267725,229.828649
2978.616297,-8882.471304,-444.123565,766.095498
2978.616635,-9696.697840,-888.247130,919.314598
2978.616972,-9400.615463,-518.144159,-306.438199
2978.617309,-10658.965565,-814.226536,-689.485948
2978.617647,-10510.924376,-888.247130,-1149.143247
2978.617984,-9474.636058,-1110.308913,-2068.457845
2978.618321,-9770.718434,-1776.494261,-229.828649
2978.618659,-9104.533087,-1110.308913,76.609550
2978.618996,-9030.512492,-666.185348,766.095498
2978.619333,-10288.862594,-148.041188,1225.752797
2978.619671,-10658.965565,-666.185348,459.657299
2978.620008,-11103.089130,0.000000,612.876398
2978.620345,-10288.862594,148.041188,995.924147
2978.620683,-9770.718434,814.226536,2451.505594
2978.621020,-10732.986159,1850.514855,2834.553343
2978.621357,-10732.986159,1332.370696,842.705048
2978.621695,-9622.677246,1702.473667,689.485948
2978.622032,-10732.986159,444.123565,612.876398
2978.622369,-10807.006753,1184.329507,0.000000
2978.622707,-9844.739029,1036.288319,-1608.800546
2978.623044,-9252.574275,222.061783,-1302.362347
2978.623381,-8882.471304,-888.247130,-536.266849
2978.623719,-7994.224174,0.000000,-919.314598
2978.624056,-9252.574275,0.000000,-229.828649
2978.624393,-9844.739029,-1480.411884,-1149.143247
2978.624731,-10066.800811,-666.185348,-1685.410096
2978.625068,-10436.903782,-1850.514855,-689.485948
2978.625405,-10658.965565,-1702.473667,536.266849
2978.625743,-9844.739029,-2368.659014,-153.219100
2978.626080,-10066.800811,-1998.556043,-306.438199
2978.626417,-9548.656652,-1850.514855,0.000000
2978.626755,-10140.821405,-2072.576638,-383.047749
2978.627092,-10658.965565,-2442.679609,383.047749
2978.627429,-9992.780217,-1850.514855,459.657299
2978.627767,-10066.800811,-1406.391290,1915.238745
2978.628104,-10510.924376,-148.041188,2298.286494
2978.628441,-10658.965565,0.000000,2374.896044
2978.628778,-11473.192101,518.144159,2221.676944
2978.629116,-10955.047942,0.000000,842.705048
2978.629453,-11325.150913,370.102971,1302.362347
2978.629790,-10732.986159,222.061783,1072.533697
2978.630128,-10732.986159,0.000000,1072.533697
2978.630465,-9400.615463,148.041188,0.000000
2978.630802,-8438.347739,444.123565,-612.876398
2978.631140,-9770.718434,1036.288319,0.000000
2978.631477,-10214.842000,370.102971,-2911.162892
2978.631814,-9770.718434,740.205942,-2604.724693
2978.632152,-9844.739029,740.205942,-2068.457845
2978.632489,-9548.656652,0.000000,-153.219100
2978.632826,-9104.533087,222.061783,842.705048
2978.633164,-9844.739029,74.020594,1532.190996
2978.633501,-9400.615463,296.082377,1072.533697
2978.633838,-10214.842000,-592.164754,919.314598
2978.634176,-10436.903782,-296.082377,689.485948
2978.634513,-8882.471304,-814.226536,995.924147
2978.634850,-10510.924376,74.020594,919.314598
2978.635188,-10066.800811,1110.308913,1532.190996
2978.635525,-9696.697840,1184.329507,536.266849
2978.635862,-9252.574275,1184.329507,919.314598
2978.636200,-10140.821405,370.102971,995.924147
2978.636537,-9918.759623,592.164754,536.266849
2978.636874,-11029.068536,518.144159,76.609550
2978.637212,-10658.965565,0.000000,0.000000
2978.637549,-9474.636058,0.000000,-153.219100
2978.637886,-10140.821405,0.000000,-306.438199
2978.638224,-10362.883188,-148.041188,-1149.143247
2978.638561,-9770.718434,-1258.350101,-995.924147
2978.638898,-10214.842000,-1332.370696,-842.705048
2978.639236,-10807.006753,-1184.329507,-842.705048
2978.639573,-10362.883188,-1702.473667,-383.047749
2978.639910,-10732.986159,-1776.494261,995.924147
2978.640248,-9770.718434,-2442.679609,76.609550
2978.640585,-9252.574275,-1184.329507,1149.143247
2978.640922,-9992.780217,-1850.514855,1532.190996
2978.641260,-10584.944971,-1998.556043,2221.676944
2978.641597,-11029.068536,-1850.514855,1455.581446
2978.641934,-10510.924376,-1332.370696,1685.410096
2978.642272,-10362.883188,0.000000,2681.334243
2978.642609,-9400.615463,-592.164754,1762.019645
2978.642946,-9548.656652,444.123565,1378.971896
2978.643284,-9918.759623,74.020594,919.314598
2978.643621,-10214.842000,888.247130,459.657299
2978.643958,-9770.718434,888.247130,0.000000
2978.644296,-9474.636058,666.185348,0.000000
2978.644633,-9696.697840,962.267725,306.438199
2978.644970,-10214.842000,1184.329507,-229.828649
2978.645308,-9622.677246,888.247130,-689.485948
2978.645645,-10362.883188,518.144159,-1302.362347
2978.645982,-10881.027347,-148.041188,-459.657299
2978.646320,-9252.574275,-962.267725,-1685.410096
2978.646657,-9770.718434,-740.205942,-459.657299
2978.646994,-9474.636058,-962.267725,995.924147
2978.647332,-9474.636058,-518.144159,-842.705048
2978.647669,-9548.656652,-222.061783,-766.095498
2978.648006,-10510.924376,-1036.288319,-1225.752797
2978.648344,-9622.677246,-1554.432478,-153.219100
2978.648681,-10362.883188,-1702.473667,995.924147
2978.649018,-10362.883188,-222.061783,1149.143247
2978.649356,-10288.862594,518.144159,689.485948
2978.649693,-10658.965565,0.000000,0.000000
2978.650030,-10362.883188,0.000000,-383.047749
2978.650368,-9770.718434,-1036.288319,612.876398
2978.650705,-10140.821405,-592.164754,1225.752797
2978.651042,-10214.842000,-148.041188,689.485948
2978.651380,-10807.006753,-74.020594,536.266849
2978.651717,-10732.986159,0.000000,-229.828649
2978.652054,-9696.697840,0.000000,-1532.190996
2978.652392,-9548.656652,-296.082377,-612.876398
2978.652729,-9474.636058,-444.123565,-1455.581446
2978.653066,-9104.533087,-814.226536,-995.924147
2978.653404,-9474.636058,-1406.391290,-383.047749
2978.653741,-10658.965565,-370.102971,842.705048
2978.654078,-10807.006753,-666.185348,0.000000
2978.654416,-10066.800811,-222.061783,459.657299
2978.654753,-9474.636058,-814.226536,1072.533697
2978.655090,-9918.759623,-1480.411884,1915.238745
2978.655428,-9844.739029,-592.164754,1838.629195
2978.655765,-9400.615463,-370.102971,2604.724693
2978.656102,-10362.883188,740.205942,2298.286494
2978.656440,-10066.800811,1998.556043,1225.752797
2978.656777,-11547.212695,1110.308913,919.314598
2978.657114,-10436.903782,1036.288319,612.876398
2978.657452,-10288.862594,962.267725,1915.238745
2978.657789,-10807.006753,1702.473667,2221.676944
2978.658126,-10584.944971,1776.494261,383.047749
2978.658464,-10510.924376,592.164754,229.828649
2978.658801,-9548.656652,296.082377,-459.657299
2978.659138,-8956.491898,-740.205942,-689.485948
2978.659476,-9400.615463,-1036.288319,459.657299
2978.659813,-9918.759623,-1628.453072,-612.876398
2978.660150,-8956.491898,-740.205942,-1685.410096
2978.660487,-10140.821405,-592.164754,-306.438199
2978.660825,-10955.047942,-888.247130,-459.657299
2978.661162,-10584.944971,-296.082377,-383.047749
2978.661499,-10436.903782,-1776.494261,-919.314598
2978.661837,-9548.656652,-1924.535449,-306.438199
2978.662174,-9474.636058,-2368.659014,0.000000
2978.662511,-9326.594869,-2220.617826,1685.410096
2978.662849,-10510.924376,-1332.370696,2451.505594
2978.663186,-11251.130318,-296.082377,1225.752797
2978.663523,-10436.903782,148.041188,-306.438199
2978.663861,-10881.027347,-74.020594,-153.219100
2978.664198,-10066.800811,0.000000,1685.410096
2978.664535,-9474.636058,-814.226536,842.705048
2978.664873,-9326.594869,0.000000,1225.752797
2978.665210,-9770.718434,518.144159,306.438199
2978.665547,-10066.800811,1332.370696,0.000000
2978.665885,-10584.944971,444.123565,-306.438199
2978.666222,-11251.130318,296.082377,-995.924147
2978.666559,-10658.965565,-296.082377,-1225.752797
2978.666897,-8882.471304,-1110.308913,-995.924147
2978.667234,-7624.121203,-592.164754,-842.705048
2978.667571,-8438.347739,-444.123565,0.000000
2978.667909,-9622.677246,-518.144159,0.000000
2978.668246,-10584.944971,296.082377,-612.876398
2978.668583,-11325.150913,-518.144159,-229.828649
2978.668921,-10955.047942,148.041188,-919.314598
2978.669258,-10140.821405,-1036.288319,0.000000
2978.669595,-10436.903782,0.000000,2145.067394
2978.669933,-8586.388927,-814.226536,1915.238745
2978.670270,-9992.780217,-296.082377,1915.238745
2978.670607,-10732.986159,74.020594,1225.752797
2978.670945,-10584.944971,-444.123565,0.000000
2978.671282,-10658.965565,74.020594,612.876398
2978.671619,-9918.759623,-592.164754,306.438199
2978.671957,-9326.594869,518.144159,1149.143247
2978.672294,-10362.883188,962.267725,0.000000
2978.672631,-10658.965565,148.041188,-689.485948
2978.672969,-10214.842000,0.000000,-995.924147
2978.673306,-10214.842000,-666.185348,-612.876398
2978.673643,-10066.800811,-962.267725,-612.876398
2978.673981,-9548.656652,-1332.370696,-383.047749
2978.674318,-9844.739029,-962.267725,-383.047749
2978.674655,-9178.553681,-1110.308913,-995.924147
2978.674993,-9474.636058,-444.123565,536.266849
2978.675330,-11029.068536,-444.123565,1302.362347
2978.675667,-11843.295072,-1258.350101,1225.752797
2978.676005,-11251.130318,-1850.514855,612.876398
2978.676342,-9400.615463,-296.082377,1302.362347
2978.676679,-10140.821405,-518.144159,2681.334243
2978.677017,-9622.677246,296.082377,2068.457845
2978.677354,-9326.594869,74.020594,1302.362347
2978.677691,-10140.821405,444.123565,1378.971896
2978.678029,-9844.739029,296.082377,995.924147
2978.678366,-10288.862594,592.164754,1608.800546
2978.678703,-10288.862594,814.226536,2145.067394
2978.679041,-9474.636058,1924.535449,842.705048
2978.679378,-10436.903782,2368.659014,0.000000
2978.679715,-10066.800811,1184.329507,-919.314598
2978.680053,-9178.553681,814.226536,-383.047749
2978.680390,-8734.430116,-370.102971,-383.047749
2978.680727,-8734.430116,518.144159,-689.485948
2978.681065,-9474.636058,0.000000,-306.438199
2978.681402,-10881.027347,888.247130,-1608.800546
2978.681739,-10288.862594,296.082377,-2374.896044
2978.682077,-10732.986159,-370.102971,-1685.410096
2978.682414,-10066.800811,-666.185348,0.000000
2978.682751,-9326.594869,-1998.556043,0.000000
2978.683089,-9400.615463,-2294.638420,1225.752797
2978.683426,-10288.862594,-1776.494261,1378.971896
2978.683763,-10658.965565,-814.226536,1225.752797
2978.684101,-11251.130318,-518.144159,995.924147
2978.684438,-10807.006753,-444.123565,995.924147
2978.684775,-11029.068536,-148.041188,1072.533697
2978.685113,-10436.903782,-1036.288319,153.219100
2978.685450,-10066.800811,-1184.329507,1072.533697
2978.685787,-9622.677246,-1110.308913,1302.362347
2978.686125,-10066.800811,444.123565,76.609550
2978.686462,-10436.903782,-296.082377,-459.657299
2978.686799,-10214.842000,0.000000,-995.924147
2978.687137,-10140.821405,-888.247130,-919.314598
2978.687474,-9252.574275,-2146.597232,-306.438199
2978.687811,-8808.450710,-1776.494261,1685.410096
2978.688149,-10066.800811,-1184.329507,1455.581446
2978.688486,-10510.924376,-740.205942,995.924147
2978.688823,-9992.780217,-740.205942,-306.438199
2978.689161,-11547.212695,-962.267725,1532.190996
2978.689498,-9696.697840,-1110.308913,536.266849
2978.689835,-8438.347739,-1702.473667,229.828649
2978.690173,-10584.944971,-518.144159,536.266849
2978.690510,-10140.821405,0.000000,153.219100
2978.690847,-9548.656652,1184.329507,306.438199
2978.691185,-9252.574275,1036.288319,459.657299
2978.691522,-9918.759623,888.247130,76.609550
2978.691859,-10658.965565,888.247130,689.485948
2978.692197,-9474.636058,74.020594,2145.067394
2978.692534,-9548.656652,1036.288319,3064.381992
2978.692871,-10658.965565,740.205942,1838.629195
2978.693208,-11843.295072,2220.617826,1302.362347
2978.693546,-11103.089130,1776.494261,-1455.581446
2978.693883,-10584.944971,518.144159,-1302.362347
2978.694220,-8882.471304,-740.205942,-689.485948
2978.694558,-8290.306550,-1776.494261,0.000000
2978.694895,-8956.491898,-444.123565,-153.219100
2978.695232,-9178.553681,-666.185348,-2374.896044
2978.695570,-10066.800811,0.000000,-3294.210641
2978.695907,-9474.636058,-1554.432478,-2528.115143
2978.696244,-9992.780217,-1480.411884,-1685.410096
2978.696582,-10214.842000,-2220.617826,-76.609550
2978.696919,-10732.986159,-1776.494261,1072.533697
2978.697256,-9474.636058,-1998.556043,459.657299
2978.697594,-10288.862594,-1850.514855,995.924147
2978.697931,-10732.986159,-814.226536,1378.971896
2978.698268,-11399.171507,-666.185348,1455.581446
2978.698606,-10436.903782,-666.185348,1072.533697
2978.698943,-10362.883188,0.000000,536.266849
2978.699280,-10288.862594,0.000000,1608.800546
2978.699618,-10362.883188,1184.329507,842.705048
2978.699955,-10658.965565,1184.329507,919.314598
2978.700292,-10732.986159,1702.473667,153.219100
2978.700630,-10288.862594,1850.514855,0.000000
2978.700967,-10584.944971,1036.288319,-229.828649
2978.701304,-9622.677246,0.000000,76.609550
2978.701642,-9252.574275,0.000000,689.485948
2978.701979,-8956.491898,740.205942,306.438199
2978.702316,-8956.491898,814.226536,-536.266849
2978.702654,-9474.636058,296.082377,-76.609550
2978.702991,-10066.800811,-222.061783,-995.924147
2978.703328,-9844.739029,-740.205942,-383.047749
2978.703666,-8512.368333,-592.164754,76.609550
2978.704003,-9548.656652,-888.247130,1685.410096
2978.704340,-9474.636058,-370.102971,1225.752797
2978.704678,-9252.574275,518.144159,459.657299
2978.705015,-10066.800811,0.000000,1762.019645
2978.705352,-10066.800811,-444.123565,1455.581446
2978.705690,-10584.944971,-1184.329507,1532.190996
2978.706027,-10955.047942,0.000000,1455.581446
2978.706364,-9474.636058,370.102971,1302.362347
2978.706702,-10362.883188,814.226536,1149.143247
2978.707039,-11917.315666,444.123565,1225.752797
2978.707376,-10955.047942,1776.494261,-919.314598
2978.707714,-10584.944971,444.123565,-536.266849
2978.708051,-10807.006753,-1776.494261,-766.095498
2978.708388,-8956.491898,-2072.576638,-306.438199
2978.708726,-9326.594869,-1702.473667,153.219100
2978.709063,-9104.533087,-962.267725,459.657299
2978.709400,-10436.903782,-1110.308913,-842.705048
2978.709738,-11103.089130,-518.144159,-1762.019645
2978.710075,-11177.109724,-1184.329507,-1608.800546
2978.710412,-10732.986159,-1924.535449,-842.705048
2978.710750,-10436.903782,-2664.741391,383.047749
2978.711087,-9326.594869,-1850.514855,306.438199
2978.711424,-7772.162391,-1850.514855,0.000000
2978.711762,-9622.677246,-1628.453072,1302.362347
2978.712099,-10807.006753,-666.185348,689.485948
2978.712436,-9992.780217,-740.205942,383.047749
2978.712773,-9844.739029,-444.123565,1685.410096
2978.713110,-9548.656652,296.082377,2068.457845
2978.713448,-10955.047942,1480.411884,1685.410096
2978.713785,-11103.089130,1998.556043,842.705048
2978.714122,-10140.821405,888.247130,-306.438199
2978.714459,-9400.615463,1850.514855,0.000000
2978.714797,-9252.574275,1480.411884,0.000000
2978.715134,-9474.636058,1036.288319,76.609550
2978.715471,-9474.636058,962.267725,-995.924147
2978.715808,-9178.553681,1036.288319,-1225.752797
2978.716145,-9992.780217,518.144159,-536.266849
2978.716483,-10066.800811,592.164754,-689.485948
2978.716820,-10214.842000,740.205942,-995.924147
2978.717157,-9992.780217,-888.247130,-1149.143247
2978.717494,-10140.821405,-1332.370696,0.000000
2978.717832,-10214.842000,-1184.329507,919.314598
2978.718169,-10214.842000,-814.226536,536.266849
2978.718506,-9474.636058,-962.267725,383.047749
2978.718843,-10881.027347,-1702.473667,1455.581446
2978.719180,-11103.089130,-592.164754,919.314598
2978.719518,-10510.924376,-444.123565,842.705048
2978.719855,-9918.759623,-888.247130,1149.143247
2978.720192,-9548.656652,-444.123565,766.095498
2978.720529,-10584.944971,444.123565,995.924147
2978.720867,-10510.924376,666.185348,842.705048
2978.721204,-10362.883188,222.061783,383.047749
2978.721541,-10288.862594,222.061783,0.000000
2978.721878,-10658.965565,-666.185348,306.438199
2978.722215,-9844.739029,-962.267725,1915.238745
2978.722553,-9474.636058,-1184.329507,1762.019645
2978.722890,-9400.615463,222.061783,1302.362347
2978.723227,-9770.718434,0.000000,76.609550
2978.723564,-10362.883188,74.020594,-1378.971896
2978.723902,-10214.842000,-370.102971,-2374.896044
2978.724239,-9770.718434,-444.123565,-995.924147
2978.724576,-9326.594869,-296.082377,0.000000
2978.724913,-10066.800811,74.020594,383.047749
2978.725250,-10436.903782,222.061783,-153.219100
2978.725588,-9622.677246,148.041188,-689.485948
2978.725925,-9844.739029,-666.185348,1762.019645
2978.726262,-9474.636058,222.061783,2068.457845
2978.726599,-9992.780217,0.000000,1762.019645
2978.726937,-9474.636058,0.000000,2987.772442
2978.727274,-10732.986159,666.185348,2145.067394
2978.727611,-10658.965565,1924.535449,2987.772442
2978.727948,-10362.883188,1628.453072,536.266849
2978.728285,-10807.006753,814.226536,-536.266849
2978.728623,-10140.821405,1036.288319,459.657299
2978.728960,-9178.553681,814.226536,-919.314598
2978.729297,-8956.491898,444.123565,-2145.067394
2978.729634,-9770.718434,-592.164754,-2528.115143
2978.729972,-9548.656652,-962.267725,-2145.067394
2978.730309,-8438.347739,-888.247130,-306.438199
2978.730646,-9548.656652,-1184.329507,-766.095498
2978.730983,-9844.739029,-1110.308913,-842.705048
2978.731320,-11473.192101,-2442.679609,0.000000
2978.731658,-10881.027347,-2146.597232,689.485948
2978.731995,-9918.759623,-1850.514855,689.485948
2978.732332,-10658.965565,-1702.473667,1608.800546
2978.732669,-10436.903782,-1554.432478,689.485948
2978.733007,-9770.718434,-2220.617826,-229.828649
2978.733344,-9992.780217,-2220.617826,842.705048
2978.733681,-9474.636058,-1776.494261,1225.752797
2978.734018,-10288.862594,-1850.514855,306.438199
2978.734355,-9474.636058,-444.123565,153.219100
2978.734693,-9918.759623,444.123565,1455.581446
2978.735030,-10732.986159,370.102971,2681.334243
2978.735367,-10658.965565,592.164754,536.266849
2978.735704,-10732.986159,0.000000,2451.505594
2978.736042,-10807.006753,666.185348,1685.410096
2978.736379,-9770.718434,888.247130,1455.581446
2978.736716,-11103.089130,0.000000,229.828649
2978.737053,-9400.615463,-518.144159,0.000000
2978.737390,-9178.553681,148.041188,-766.095498
2978.737728,-9548.656652,296.082377,-1225.752797
2978.738065,-9326.594869,-444.123565,-1838.629195
2978.738402,-9844.739029,-962.267725,-842.705048
2978.738739,-9548.656652,-296.082377,-842.705048
2978.739077,-8734.430116,74.020594,-536.266849
2978.739414,-10214.842000,74.020594,995.924147
2978.739751,-9844.739029,0.000000,-306.438199
2978.740088,-10510.924376,0.000000,612.876398
2978.740425,-11103.089130,74.020594,995.924147
2978.740763,-10140.821405,-444.123565,995.924147
2978.741100,-10066.800811,148.041188,1378.971896
2978.741437,-9548.656652,-740.205942,995.924147
2978.741774,-9844.739029,-518.144159,1225.752797
2978.742112,-9770.718434,0.000000,306.438199
2978.742449,-9918.759623,222.061783,459.657299
2978.742786,-9844.739029,1332.370696,-689.485948
2978.743123,-10658.965565,814.226536,-1072.533697
2978.743461,-10288.862594,518.144159,-1532.190996
2978.743798,-9474.636058,-296.082377,-1378.971896
2978.744135,-10066.800811,-740.205942,-536.266849
2978.744472,-9474.636058,-1110.308913,-995.924147
2978.744809,-9992.780217,-1110.308913,-842.705048
2978.745147,-9992.780217,-1110.308913,-306.438199
2978.745484,-10288.862594,-1554.432478,-612.876398
2978.745821,-9474.636058,-1776.494261,-536.266849
2978.746158,-10362.883188,-888.247130,306.438199
2978.746496,-10658.965565,-592.164754,306.438199
2978.746833,-9696.697840,0.000000,-306.438199
2978.747170,-9696.697840,0.000000,766.095498
2978.747507,-10510.924376,0.000000,2298.286494
2978.747844,-10584.944971,592.164754,1608.800546
2978.748182,-9326.594869,592.164754,1532.190996
2978.748519,-10510.924376,-444.123565,2681.334243
2978.748856,-10288.862594,444.123565,2757.943793
2978.749193,-9844.739029,1480.411884,2068.457845
2978.749531,-9844.739029,1702.473667,2068.457845
2978.749868,-9474.636058,1480.411884,536.266849
2978.750205,-9918.759623,666.185348,-153.219100
2978.750542,-9844.739029,1406.391290,0.000000
2978.750879,-9474.636058,888.247130,229.828649
2978.751217,-9548.656652,518.144159,-612.876398
2978.751554,-9252.574275,1776.494261,-1532.190996
2978.751891,-9622.677246,518.144159,-1762.019645
2978.752228,-10510.924376,-370.102971,-1072.533697
2978.752566,-9474.636058,-1924.535449,-1608.800546
2978.752903,-9252.574275,-1702.473667,229.828649
2978.753240,-10955.047942,-2220.617826,1608.800546
2978.753577,-10955.047942,-1924.535449,229.828649
2978.753914,-10955.047942,-2368.659014,612.876398
2978.754252,-10436.903782,-1554.432478,2374.896044
2978.754589,-10288.862594,-1924.535449,1762.019645
2978.754926,-10140.821405,-1110.308913,1149.143247
2978.755263,-10732.986159,-888.247130,459.657299
2978.755601,-11103.089130,-1406.391290,-536.266849
2978.755938,-9918.759623,-1406.391290,-689.485948
2978.756275,-9696.697840,0.000000,766.095498
2978.756612,-11103.089130,296.082377,1072.533697
2978.756949,-10510.924376,-518.144159,-995.924147
2978.757287,-11547.212695,-1036.288319,-1149.143247
2978.757624,-9622.677246,-1406.391290,-229.828649
2978.757961,-9030.512492,-2368.659014,459.657299
2978.758298,-8808.450710,-1924.535449,1608.800546
2978.758636,-9030.512492,-666.185348,1225.752797
2978.758973,-10288.862594,222.061783,-842.705048
2978.759310,-11177.109724,-592.164754,-1991.848295
2978.759647,-10288.862594,-444.123565,-1149.143247
2978.759984,-9770.718434,-666.185348,-459.657299
2978.760322,-9622.677246,-1628.453072,-459.657299
2978.760659,-8290.306550,74.020594,-689.485948
2978.760996,-8882.471304,296.082377,-1302.362347
2978.761333,-9252.574275,74.020594,-306.438199
2978.761671,-9474.636058,-222.061783,612.876398
2978.762008,-10066.800811,148.041188,2298.286494
2978.762345,-10436.903782,296.082377,3830.477490
2978.762682,-10807.006753,1554.432478,3064.381992
2978.763019,-11177.109724,2738.761985,3140.991542
2978.763357,-11177.109724,2368.659014,2145.067394
2978.763694,-11029.068536,1480.411884,766.095498
2978.764031,-10140.821405,1036.288319,1072.533697
2978.764368,-8586.388927,1480.411884,-536.266849
2978.764706,-8660.409521,1406.391290,-689.485948
2978.765043,-9622.677246,222.061783,-766.095498
2978.765380,-9622.677246,222.061783,-842.705048
2978.765717,-8808.450710,1554.432478,-995.924147
2978.766054,-9548.656652,2664.741391,-766.095498
2978.766392,-10955.047942,1258.350101,229.828649
2978.766729,-11843.295072,-592.164754,0.000000
2978.767066,-11103.089130,-1554.432478,1072.533697
2978.767403,-9400.615463,-888.247130,2451.505594
2978.767741,-9548.656652,-296.082377,4290.134789
2978.768078,-10881.027347,222.061783,2911.162892
2978.768415,-10955.047942,370.102971,1455.581446
2978.768752,-9400.615463,444.123565,1455.581446
2978.769089,-10732.986159,592.164754,2757.943793
2978.769427,-11177.109724,1332.370696,1455.581446
2978.769764,-10066.800811,1036.288319,842.705048
2978.770101,-9474.636058,1628.453072,2604.724693
2978.770438,-8956.491898,1258.350101,3907.087040
2978.770776,-9622.677246,2886.803174,4060.306139
2978.771113,-9548.656652,2442.679609,2298.286494
2978.771450,-10584.944971,1924.535449,1915.238745
2978.771787,-10955.047942,1702.473667,2145.067394
2978.772124,-10214.842000,1184.329507,2757.943793
2978.772462,-9326.594869,1702.473667,3064.381992
2978.772799,-9104.533087,2368.659014,2221.676944
2978.773136,-9992.780217,2812.782580,1149.143247
2978.773473,-9844.739029,2368.659014,-536.266849
2978.773811,-9548.656652,740.205942,1762.019645
2978.774148,-9992.780217,296.082377,2681.334243
2978.774485,-9992.780217,1628.453072,1072.533697
2978.774822,-10140.821405,2590.720797,1072.533697
2978.775159,-9178.553681,1110.308913,2374.896044
2978.775497,-9696.697840,1406.391290,4826.401637
2978.775834,-10807.006753,1776.494261,4749.792088
2978.776171,-10955.047942,3404.947333,3907.087040
2978.776508,-11177.109724,2220.617826,2911.162892
2978.776846,-12213.398043,2072.576638,2374.896044
2978.777183,-11547.212695,1406.391290,1072.533697
2978.777520,-9104.533087,1110.308913,1455.581446
2978.777857,-8142.265362,222.061783,3294.210641
2978.778194,-8142.265362,814.226536,2757.943793
2978.778532,-9696.697840,1924.535449,2987.772442
2978.778869,-9474.636058,3330.926739,1378.971896
2978.779206,-10288.862594,3256.906145,612.876398
2978.779543,-11917.315666,2072.576638,306.438199
2978.779881,-12287.418637,1776.494261,459.657299
2978.780218,-9844.739029,888.247130,612.876398
2978.780555,-8660.409521,592.164754,995.924147
2978.780892,-9326.594869,-1480.411884,2298.286494
2978.781230,-9252.574275,-1850.514855,2451.505594
2978.781567,-9474.636058,-962.267725,3600.648841
2978.781904,-9696.697840,1184.329507,3447.429741
2978.782241,-10066.800811,2368.659014,2221.676944
2978.782578,-11399.171507,1702.473667,2451.505594
