#time,accel_x,accel_y,accel_z
3447.939070,-9548.656652,444.123565,-766.095498
3447.939407,-9474.636058,518.144159,0.000000
3447.939745,-10066.800811,888.247130,76.609550
3447.940083,-9326.594869,444.123565,-1455.581446
3447.940420,-9252.574275,740.205942,-536.266849
3447.940758,-9918.759623,-592.164754,-612.876398
3447.941096,-9918.759623,-666.185348,-842.705048
3447.941433,-9548.656652,-518.144159,-536.266849
3447.941771,-9104.533087,-1628.453072,536.266849
3447.942109,-10214.842000,-1702.473667,536.266849
3447.942446,-10732.986159,-2664.741391,612.876398
3447.942784,-10436.903782,-2072.576638,919.314598
3447.943122,-9548.656652,-2442.679609,919.314598
3447.943459,-9992.780217,-1998.556043,1072.533697
3447.943797,-10362.883188,-2072.576638,1072.533697
3447.944135,-10362.883188,-2072.576638,1685.410096
3447.944472,-10732.986159,-1258.350101,1685.410096
3447.944810,-10658.965565,-74.020594,1455.581446
3447.945147,-10584.944971,-592.164754,1608.800546
3447.945485,-10807.006753,-814.226536,1915.238745
3447.945823,-11251.130318,-888.247130,2451.505594
3447.946160,-10066.800811,-74.020594,1762.019645
3447.946498,-9548.656652,0.000000,1762.019645
3447.946836,-10436.903782,-296.082377,1455.581446
3447.947173,-10584.944971,-1258.350101,919.314598
3447.947511,-10214.842000,-1258.350101,612.876398
3447.947849,-9252.574275,-1554.432478,1991.848295
3447.948186,-8438.347739,-1332.370696,2298.286494
3447.948524,-9918.759623,-1998.556043,2451.505594
3447.948862,-10510.924376,-2442.679609,2834.553343
3447.949199,-9474.636058,-2368.659014,3064.381992
3447.949537,-10066.800811,-1850.514855,3983.696590
3447.949875,-9992.780217,-2220.617826,4366.744339
3447.950212,-9770.718434,-2294.638420,3294.210641
3447.950550,-9844.739029,-1998.556043,2757.943793
3447.950887,-9474.636058,-2664.741391,2451.505594
3447.951225,-9548.656652,-2368.659014,3677.258390
3447.951563,-9474.636058,-2072.576638,4290.134789
3447.951900,-9992.780217,-1628.453072,3677.258390
3447.952238,-10584.944971,-740.205942,2528.115143
3447.952576,-11473.192101,-1332.370696,2298.286494
3447.952913,-10436.903782,-1258.350101,3064.381992
3447.953251,-9696.697840,-2146.597232,2681.334243
3447.953589,-9770.718434,-1036.288319,3600.648841
3447.953926,-9992.780217,-1850.514855,1455.581446
3447.954264,-11325.150913,-1924.535449,689.485948
3447.954602,-10584.944971,-2960.823768,-612.876398
3447.954939,-9548.656652,-4737.318029,76.609550
3447.955277,-9178.553681,-5329.482782,1608.800546
3447.955615,-9252.574275,-4737.318029,2528.115143
3447.955952,-10436.903782,-4959.379811,2451.505594
3447.956290,-10288.862594,-3923.091493,536.266849
3447.956627,-10658.965565,-3108.864956,153.219100
3447.956965,-10658.965565,-2590.720797,306.438199
3447.957303,-9992.780217,-4071.132681,1532.190996
3447.957640,-9844.739029,-4515.256246,1838.629195
3447.957978,-9770.718434,-3923.091493,2374.896044
3447.958316,-10288.862594,-3478.967927,3370.820191
3447.958653,-11399.171507,-3330.926739,3294.210641
3447.958991,-9622.677246,-3108.864956,3294.210641
3447.959329,-8956.491898,-2368.659014,4213.525239
3447.959666,-11177.109724,-1998.556043,5745.716235
3447.960004,-11177.109724,370.102971,3600.648841
3447.960342,-10436.903782,1036.288319,1378.971896
3447.960679,-10658.965565,1184.329507,536.266849
3447.961017,-10214.842000,-888.247130,383.047749
3447.961355,-9622.677246,-2294.638420,1149.143247
3447.961692,-7624.121203,-2072.576638,2068.457845
3447.962030,-7402.059420,-1628.453072,1991.848295
3447.962367,-9622.677246,-2146.597232,3370.820191
3447.962705,-10732.986159,-3552.988522,2757.943793
3447.963043,-10510.924376,-1850.514855,3140.991542
3447.963380,-9696.697840,0.000000,2451.505594
3447.963718,-10955.047942,1406.391290,2987.772442
3447.964056,-11251.130318,0.000000,1149.143247
3447.964393,-9696.697840,-2146.597232,459.657299
3447.964731,-7698.141797,-3478.967927,3294.210641
3447.965069,-8956.491898,-3849.070898,6511.811733
3447.965406,-11177.109724,-2738.761985,7354.516781
3447.965744,-11399.171507,-2442.679609,3447.429741
3447.966082,-9178.553681,-1184.329507,1455.581446
3447.966419,-9622.677246,-592.164754,2987.772442
3447.966757,-11621.233289,-1036.288319,3447.429741
3447.967095,-10362.883188,-370.102971,1915.238745
3447.967432,-10658.965565,-370.102971,1378.971896
3447.967770,-10881.027347,-1258.350101,1532.190996
3447.968107,-10881.027347,-2442.679609,0.000000
3447.968445,-10066.800811,-3330.926739,1149.143247
3447.968783,-8216.285956,-4219.173869,842.705048
3447.969120,-7994.224174,-5329.482782,1225.752797
3447.969458,-9252.574275,-3478.967927,2451.505594
3447.969796,-10066.800811,-3923.091493,2834.553343
3447.970133,-11991.336260,-3108.864956,2221.676944
3447.970471,-11843.295072,-2146.597232,0.000000
3447.970809,-11103.089130,-1554.432478,229.828649
3447.971146,-10807.006753,-2368.659014,1838.629195
3447.971484,-10362.883188,-4441.235652,2528.115143
3447.971822,-8956.491898,-3330.926739,1532.190996
3447.972159,-8956.491898,-3404.947333,1991.848295
3447.972497,-10807.006753,-3256.906145,3753.867940
3447.972835,-10510.924376,-4293.194464,2604.724693
3447.973172,-9030.512492,-3404.947333,5286.058936
3447.973510,-9548.656652,-740.205942,6511.811733
3447.973847,-10214.842000,1332.370696,4979.620737
3447.974185,-12361.439231,2442.679609,1915.238745
3447.974523,-11917.315666,740.205942,689.485948
3447.974860,-11843.295072,-592.164754,1455.581446
3447.975198,-9770.718434,-888.247130,2298.286494
3447.975536,-7772.162391,-592.164754,2068.457845
3447.975873,-8068.244768,-2738.761985,2681.334243
3447.976211,-7846.182985,-4219.173869,1455.581446
3447.976549,-8512.368333,-4885.359217,3064.381992
3447.976886,-9178.553681,-2294.638420,3524.039291
3447.977224,-9326.594869,-666.185348,1915.238745
3447.977562,-11769.274478,-296.082377,383.047749
3447.977899,-12583.501014,-1480.411884,689.485948
3447.978237,-10881.027347,-3627.009116,1455.581446
3447.978575,-8660.409521,-3330.926739,2911.162892
3447.978912,-7179.997637,-3404.947333,4519.963438
3447.979250,-10955.047942,-5181.441594,5286.058936
3447.979588,-12139.377449,-6439.791695,3370.820191
3447.979925,-8216.285956,-5107.421000,2374.896044
3447.980263,-9400.615463,-3108.864956,5362.668486
3447.980600,-10658.965565,-1776.494261,4903.011187
3447.980938,-13175.665768,-2072.576638,2374.896044
3447.981276,-11177.109724,-444.123565,383.047749
3447.981613,-9474.636058,-814.226536,1762.019645
3447.981951,-11547.212695,-1332.370696,4903.011187
3447.982289,-13101.645173,-2442.679609,2604.724693
3447.982626,-10732.986159,-4071.132681,-306.438199
3447.982964,-6957.935855,-3552.988522,-383.047749
3447.983302,-7550.100608,-4441.235652,2451.505594
3447.983639,-9992.780217,-4515.256246,1915.238745
3447.983977,-7772.162391,-4071.132681,-1532.190996
3447.984315,-8290.306550,-2294.638420,306.438199
3447.984652,-11769.274478,-2368.659014,4596.572988
3447.984990,-13101.645173,-2664.741391,2834.553343
3447.985328,-11103.089130,-1554.432478,2221.676944
3447.985665,-8216.285956,-518.144159,2987.772442
3447.986003,-10510.924376,-2664.741391,3677.258390
3447.986340,-11843.295072,-3256.906145,2681.334243
3447.986678,-7698.141797,-1998.556043,3064.381992
3447.987016,-8586.388927,-3108.864956,6741.640382
3447.987353,-10510.924376,-2960.823768,5975.544884
3447.987691,-9474.636058,-1036.288319,2374.896044
3447.988029,-11103.089130,444.123565,2911.162892
3447.988366,-10362.883188,740.205942,2757.943793
3447.988704,-10436.903782,0.000000,919.314598
3447.989042,-11547.212695,1406.391290,2604.724693
3447.989379,-11029.068536,148.041188,1225.752797
3447.989717,-10362.883188,-962.267725,689.485948
3447.990055,-9918.759623,-3108.864956,0.000000
3447.990392,-8438.347739,-3775.050304,1532.190996
3447.990730,-7402.059420,-4071.132681,2681.334243
3447.991068,-9178.553681,-4663.297435,2528.115143
3447.991405,-10362.883188,-3849.070898,2221.676944
3447.991743,-11695.253884,-4219.173869,1991.848295
3447.992080,-11991.336260,-2294.638420,2834.553343
3447.992418,-10436.903782,-1776.494261,612.876398
3447.992756,-10288.862594,-3701.029710,1072.533697
3447.993093,-10140.821405,-4515.256246,2604.724693
3447.993431,-9104.533087,-4367.215058,2987.772442
3447.993769,-8882.471304,-3701.029710,3907.087040
3447.994106,-9992.780217,-5107.421000,2528.115143
3447.994444,-10732.986159,-4071.132681,2298.286494
3447.994782,-9474.636058,-3108.864956,1838.629195
3447.995119,-9696.697840,-3552.988522,3907.087040
3447.995457,-10436.903782,-1702.473667,3677.258390
3447.995795,-9992.780217,0.000000,1762.019645
3447.996132,-11177.109724,-148.041188,1685.410096
3447.996470,-11621.233289,-1628.453072,1991.848295
3447.996808,-10214.842000,-1924.535449,2374.896044
3447.997145,-9844.739029,-1924.535449,3140.991542
3447.997483,-9326.594869,-2294.638420,2451.505594
3447.997821,-8808.450710,-1628.453072,919.314598
3447.998158,-10214.842000,-1554.432478,-383.047749
3447.998496,-8586.388927,-2072.576638,-995.924147
3447.998834,-9474.636058,-3478.967927,1455.581446
3447.999171,-9844.739029,-1850.514855,3907.087040
3447.999509,-9770.718434,-370.102971,2987.772442
3447.999847,-11695.253884,518.144159,3370.820191
3448.000184,-10881.027347,0.000000,2528.115143
3448.000522,-10732.986159,-2072.576638,2757.943793
3448.000860,-10955.047942,-1776.494261,3907.087040
3448.001197,-7994.224174,-2294.638420,4596.572988
3448.001535,-8438.347739,-2146.597232,4290.134789
3448.001873,-9770.718434,-1924.535449,2528.115143
3448.002210,-9992.780217,-2516.700203,1685.410096
3448.002548,-11547.212695,-1850.514855,3447.429741
3448.002886,-10214.842000,-1184.329507,1302.362347
3448.003223,-10732.986159,-444.123565,2221.676944
3448.003561,-10362.883188,-296.082377,1072.533697
3448.003899,-8734.430116,-2294.638420,-383.047749
3448.004236,-11621.233289,-3627.009116,919.314598
3448.004574,-9696.697840,-2738.761985,0.000000
3448.004912,-8290.306550,-2738.761985,-689.485948
3448.005249,-10732.986159,-2738.761985,306.438199
3448.005587,-8734.430116,-4145.153275,-306.438199
3448.005925,-10955.047942,-6069.688724,2145.067394
3448.006262,-10955.047942,-3552.988522,3524.039291
3448.006600,-8882.471304,-1554.432478,766.095498
3448.006938,-12953.603985,-296.082377,2451.505594
3448.007275,-11917.315666,-2516.700203,1685.410096
3448.007613,-10584.944971,-3256.906145,2757.943793
3448.007951,-10362.883188,-1110.308913,5362.668486
3448.008288,-9548.656652,0.000000,2451.505594
3448.008626,-10584.944971,-444.123565,1225.752797
3448.008964,-11103.089130,-2294.638420,0.000000
3448.009301,-8586.388927,-740.205942,0.000000
3448.009639,-6883.915261,1406.391290,306.438199
3448.009977,-9104.533087,1998.556043,1149.143247
3448.010314,-10807.006753,1554.432478,-766.095498
3448.010652,-11325.150913,-1036.288319,-919.314598
3448.010989,-10584.944971,740.205942,1608.800546
3448.011327,-9030.512492,296.082377,2145.067394
3448.011665,-10436.903782,1850.514855,1915.238745
3448.012002,-9918.759623,888.247130,-1991.848295
3448.012340,-8956.491898,-1184.329507,-3064.381992
3448.012678,-8660.409521,-1406.391290,-1838.629195
3448.013015,-7698.141797,-1554.432478,-995.924147
3448.013353,-9622.677246,-1702.473667,-229.828649
3448.013691,-10584.944971,-1702.473667,-306.438199
3448.014028,-9844.739029,0.000000,-1378.971896
3448.014366,-11177.109724,0.000000,-459.657299
3448.014704,-11325.150913,222.061783,459.657299
3448.015041,-11621.233289,-1628.453072,689.485948
3448.015379,-11325.150913,-2294.638420,536.266849
3448.015717,-8512.368333,0.000000,1378.971896
3448.016054,-9474.636058,0.000000,2987.772442
3448.016392,-10881.027347,-1258.350101,2068.457845
3448.016730,-11991.336260,-2368.659014,-459.657299
3448.017067,-10584.944971,-1036.288319,-1225.752797
3448.017405,-8808.450710,814.226536,-1378.971896
3448.017743,-8956.491898,814.226536,1532.190996
3448.018080,-12805.562797,-148.041188,-689.485948
3448.018418,-10436.903782,-1702.473667,-3217.601092
3448.018756,-8956.491898,-888.247130,-2298.286494
3448.019093,-7994.224174,-666.185348,0.000000
3448.019431,-8956.491898,-962.267725,1149.143247
3448.019769,-9400.615463,-3330.926739,383.047749
3448.020106,-10140.821405,-3034.844362,1608.800546
3448.020444,-9992.780217,-518.144159,1072.533697
3448.020782,-10066.800811,740.205942,612.876398
3448.021119,-9918.759623,370.102971,1378.971896
3448.021457,-10807.006753,-2442.679609,1915.238745
3448.021795,-9992.780217,-1406.391290,3447.429741
3448.022132,-8882.471304,1998.556043,3677.258390
3448.022470,-9622.677246,3108.864956,4060.306139
3448.022808,-12953.603985,1480.411884,2528.115143
3448.023145,-12731.542202,-148.041188,153.219100
3448.023483,-10584.944971,1258.350101,1072.533697
3448.023821,-8512.368333,1924.535449,2604.724693
3448.024158,-8660.409521,1110.308913,1608.800546
3448.024496,-8586.388927,740.205942,-995.924147
3448.024834,-8808.450710,1184.329507,-2451.505594
3448.025171,-9770.718434,222.061783,-1532.190996
3448.025509,-11029.068536,1332.370696,-766.095498
3448.025847,-12731.542202,592.164754,-1225.752797
3448.026184,-10955.047942,-740.205942,-1762.019645
3448.026522,-9104.533087,-1702.473667,-2604.724693
3448.026860,-7105.977043,-1332.370696,-766.095498
3448.027197,-8512.368333,-2812.782580,1455.581446
3448.027535,-10362.883188,-4441.235652,919.314598
3448.027873,-10732.986159,-3997.112087,76.609550
3448.028210,-10214.842000,-1924.535449,-459.657299
3448.028548,-9400.615463,-962.267725,-689.485948
3448.028886,-10584.944971,-1332.370696,-689.485948
3448.029223,-9622.677246,-2146.597232,-1991.848295
3448.029561,-9696.697840,-1628.453072,-1608.800546
3448.029899,-9696.697840,-74.020594,76.609550
3448.030236,-10584.944971,-74.020594,536.266849
3448.030574,-11325.150913,-1998.556043,0.000000
3448.030912,-10436.903782,-2664.741391,76.609550
3448.031249,-8882.471304,-1110.308913,1072.533697
3448.031587,-9474.636058,888.247130,3600.648841
3448.031925,-11843.295072,888.247130,2374.896044
3448.032262,-13323.706956,1702.473667,-1455.581446
3448.032600,-13693.809927,814.226536,-2221.676944
3448.032938,-10658.965565,888.247130,-2374.896044
3448.033275,-8364.327145,666.185348,-689.485948
3448.033613,-8068.244768,-444.123565,-383.047749
3448.033951,-8068.244768,-1184.329507,-612.876398
3448.034288,-8734.430116,444.123565,-995.924147
3448.034626,-9548.656652,666.185348,-229.828649
3448.034964,-11473.192101,1184.329507,1532.190996
3448.035301,-10955.047942,0.000000,1762.019645
3448.035639,-9474.636058,74.020594,2528.115143
3448.035977,-8290.306550,222.061783,3830.477490
3448.036314,-8956.491898,1850.514855,4673.182538
3448.036652,-10362.883188,0.000000,2681.334243
3448.036990,-11473.192101,-444.123565,1685.410096
3448.037327,-8586.388927,0.000000,0.000000
3448.037665,-7698.141797,1036.288319,1838.629195
3448.038003,-9770.718434,1110.308913,2528.115143
3448.038340,-9400.615463,-296.082377,-1378.971896
3448.038678,-9326.594869,-592.164754,-2528.115143
3448.039016,-8512.368333,-518.144159,-1532.190996
3448.039353,-9992.780217,222.061783,459.657299
3448.039691,-11029.068536,-370.102971,0.000000
3448.040029,-9992.780217,-1258.350101,-1225.752797
3448.040366,-10732.986159,-2146.597232,383.047749
3448.040704,-11917.315666,-592.164754,536.266849
3448.041041,-11325.150913,-1184.329507,-383.047749
3448.041379,-11991.336260,-2886.803174,153.219100
3448.041717,-11473.192101,-3775.050304,536.266849
3448.042054,-9844.739029,-2146.597232,-612.876398
3448.042392,-10510.924376,444.123565,76.609550
3448.042730,-10066.800811,-296.082377,-1149.143247
3448.043067,-9844.739029,-1480.411884,-2068.457845
3448.043405,-10658.965565,-1258.350101,-2221.676944
3448.043743,-9696.697840,-666.185348,-76.609550
3448.044080,-9474.636058,-814.226536,2068.457845
3448.044418,-8808.450710,-740.205942,1532.190996
3448.044756,-8882.471304,-518.144159,1378.971896
3448.045093,-9400.615463,0.000000,2374.896044
3448.045431,-9918.759623,1480.411884,1455.581446
3448.045769,-11621.233289,962.267725,229.828649
3448.046106,-10658.965565,518.144159,-919.314598
3448.046444,-8438.347739,962.267725,-995.924147
3448.046782,-8956.491898,1554.432478,-766.095498
3448.047119,-9030.512492,1258.350101,-1302.362347
3448.047457,-9696.697840,740.205942,-2834.553343
3448.047795,-9844.739029,592.164754,-2145.067394
3448.048132,-8586.388927,0.000000,-1455.581446
3448.048470,-9992.780217,-370.102971,919.314598
3448.048808,-10732.986159,222.061783,1225.752797
3448.049145,-10362.883188,444.123565,919.314598
3448.049483,-11325.150913,-592.164754,1762.019645
3448.049821,-10955.047942,-1036.288319,2681.334243
3448.050158,-9770.718434,296.082377,3294.210641
3448.050496,-11251.130318,-370.102971,3064.381992
3448.050834,-11103.089130,-1628.453072,1532.190996
3448.051171,-10214.842000,-888.247130,153.219100
3448.051509,-9252.574275,-1480.411884,766.095498
3448.051847,-9030.512492,-888.247130,1149.143247
3448.052184,-9474.636058,-666.185348,536.266849
3448.052522,-8956.491898,-740.205942,-306.438199
3448.052860,-9474.636058,-444.123565,-612.876398
3448.053197,-9918.759623,-222.061783,1072.533697
3448.053535,-11325.150913,-962.267725,1072.533697
3448.053873,-11103.089130,-2886.803174,229.828649
3448.054210,-10584.944971,-1702.473667,229.828649
3448.054548,-8808.450710,-814.226536,612.876398
3448.054886,-9548.656652,-1110.308913,995.924147
3448.055223,-9178.553681,-2220.617826,-76.609550
3448.055561,-9696.697840,-1110.308913,-229.828649
3448.055899,-11399.171507,-962.267725,229.828649
3448.056236,-11547.212695,518.144159,-383.047749
3448.056574,-11251.130318,1332.370696,-1608.800546
3448.056912,-10584.944971,666.185348,-919.314598
3448.057249,-9178.553681,1702.473667,536.266849
3448.057587,-9474.636058,1036.288319,995.924147
3448.057925,-10658.965565,1850.514855,1378.971896
3448.058262,-11251.130318,444.123565,1685.410096
3448.058600,-10362.883188,74.020594,1685.410096
3448.058938,-9918.759623,2812.782580,1302.362347
3448.059275,-9548.656652,3997.112087,1225.752797
3448.059613,-10362.883188,3552.988522,-766.095498
3448.059951,-10140.821405,1628.453072,-1455.581446
3448.060288,-9548.656652,888.247130,-1225.752797
3448.060626,-8142.265362,1258.350101,-1532.190996
3448.060964,-8808.450710,1702.473667,-536.266849
3448.061301,-9770.718434,-740.205942,-1762.019645
3448.061639,-8882.471304,-1702.473667,-2374.896044
3448.061977,-8512.368333,-1924.535449,-1455.581446
3448.062314,-8142.265362,-1184.329507,842.705048
3448.062652,-9770.718434,-2368.659014,1072.533697
3448.062990,-11473.192101,-2442.679609,0.000000
3448.063327,-11473.192101,-1702.473667,306.438199
3448.063665,-10140.821405,-1258.350101,-459.657299
3448.064003,-9252.574275,-2146.597232,1378.971896
3448.064340,-10955.047942,-3923.091493,2451.505594
3448.064678,-10066.800811,-2738.761985,3217.601092
3448.065016,-10362.883188,-148.041188,2757.943793
3448.065353,-12805.562797,222.061783,2145.067394
3448.065691,-12213.398043,1184.329507,-612.876398
3448.066029,-12065.356855,-1332.370696,-1072.533697
3448.066366,-10066.800811,-444.123565,-229.828649
3448.066704,-7254.018232,444.123565,153.219100
3448.067042,-9622.677246,0.000000,2145.067394
3448.067379,-10732.986159,-592.164754,842.705048
3448.067717,-10510.924376,-1184.329507,-1072.533697
3448.068055,-10214.842000,518.144159,0.000000
3448.068392,-9474.636058,888.247130,1225.752797
3448.068730,-9696.697840,74.020594,1378.971896
3448.069068,-10955.047942,-1480.411884,536.266849
3448.069405,-8956.491898,-814.226536,-306.438199
3448.069743,-7772.162391,0.000000,153.219100
3448.070081,-8808.450710,444.123565,842.705048
3448.070418,-9844.739029,296.082377,383.047749
3448.070756,-9326.594869,-370.102971,-536.266849
3448.071093,-8512.368333,1628.453072,459.657299
3448.071431,-8956.491898,1998.556043,1915.238745
3448.071769,-10584.944971,1702.473667,1838.629195
3448.072106,-10732.986159,814.226536,1762.019645
3448.072444,-10066.800811,222.061783,1455.581446
3448.072782,-8734.430116,1406.391290,3064.381992
3448.073119,-9696.697840,2294.638420,2757.943793
3448.073457,-12879.583391,1998.556043,919.314598
3448.073795,-11991.336260,1480.411884,-3907.087040
3448.074132,-9030.512492,814.226536,-5362.668486
3448.074470,-8512.368333,74.020594,-2221.676944
3448.074808,-7920.203579,-222.061783,-2604.724693
3448.075145,-9918.759623,-370.102971,-2604.724693
3448.075483,-10584.944971,-1184.329507,-2911.162892
3448.075821,-10288.862594,-592.164754,-2298.286494
3448.076158,-11695.253884,-1776.494261,-306.438199
3448.076496,-12139.377449,-2368.659014,536.266849
3448.076834,-10066.800811,-3256.906145,0.000000
3448.077171,-9326.594869,-3552.988522,1378.971896
3448.077509,-8290.306550,-2886.803174,2374.896044
3448.077847,-9844.739029,-1554.432478,1915.238745
3448.078184,-12805.562797,-2368.659014,1225.752797
3448.078522,-12139.377449,-2294.638420,-1072.533697
3448.078860,-9844.739029,-1184.329507,-766.095498
3448.079197,-7624.121203,0.000000,1302.362347
3448.079535,-8734.430116,-740.205942,2451.505594
3448.079873,-10288.862594,-222.061783,2068.457845
3448.080210,-9030.512492,1110.308913,0.000000
3448.080548,-9622.677246,2516.700203,1838.629195
3448.080886,-11843.295072,3404.947333,2757.943793
3448.081223,-12509.480420,1554.432478,1685.410096
3448.081561,-11547.212695,1924.535449,689.485948
3448.081899,-8364.327145,2812.782580,383.047749
3448.082236,-7920.203579,3552.988522,612.876398
3448.082574,-10362.883188,1998.556043,536.266849
3448.082912,-10732.986159,740.205942,-1378.971896
3448.083249,-9400.615463,296.082377,-2068.457845
3448.083587,-8364.327145,1924.535449,-536.266849
3448.083925,-8290.306550,1850.514855,153.219100
3448.084262,-10955.047942,222.061783,766.095498
3448.084600,-9992.780217,-74.020594,-229.828649
3448.084938,-7994.224174,444.123565,229.828649
3448.085275,-10658.965565,-74.020594,4290.134789
3448.085613,-10881.027347,-740.205942,3217.601092
3448.085951,-11547.212695,-2738.761985,2298.286494
3448.086288,-9474.636058,-814.226536,842.705048
3448.086626,-7476.080014,-370.102971,0.000000
3448.086964,-9770.718434,0.000000,1455.581446
3448.087301,-11103.089130,-1036.288319,-1532.190996
3448.087639,-9548.656652,-1406.391290,-2757.943793
3448.087977,-9918.759623,518.144159,-1608.800546
3448.088314,-9474.636058,-888.247130,-1302.362347
3448.088652,-9622.677246,-1258.350101,-1072.533697
3448.088990,-10658.965565,-2590.720797,-1225.752797
3448.089327,-10584.944971,-2368.659014,-689.485948
3448.089665,-10732.986159,-888.247130,-1532.190996
3448.090003,-10436.903782,-666.185348,-1149.143247
3448.090340,-12065.356855,-2146.597232,-1302.362347
3448.090678,-12435.459826,-3775.050304,-612.876398
3448.091016,-9770.718434,-1776.494261,-306.438199
3448.091353,-7772.162391,-888.247130,-766.095498
3448.091691,-9474.636058,0.000000,459.657299
3448.092028,-11843.295072,-592.164754,-536.266849
3448.092366,-10658.965565,222.061783,-1225.752797
3448.092703,-10140.821405,518.144159,1455.581446
3448.093041,-10510.924376,2072.576638,2604.724693
3448.093378,-10955.047942,1184.329507,1378.971896
3448.093715,-9844.739029,222.061783,1685.410096
3448.094053,-7846.182985,1332.370696,2298.286494
3448.094390,-8512.368333,2220.617826,3524.039291
3448.094728,-9548.656652,3182.885551,1915.238745
3448.095065,-11473.192101,2442.679609,0.000000
3448.095402,-10807.006753,222.061783,-1302.362347
3448.095740,-6809.894666,814.226536,-383.047749
3448.096077,-7105.977043,814.226536,2374.896044
3448.096415,-8882.471304,2368.659014,2068.457845
3448.096752,-10807.006753,0.000000,-2221.676944
3448.097090,-10214.842000,-1406.391290,-1455.581446
3448.097427,-7994.224174,-1406.391290,0.000000
3448.097764,-8808.450710,-296.082377,2987.772442
3448.098102,-11399.171507,0.000000,1685.410096
3448.098439,-11917.315666,-2220.617826,-1149.143247
3448.098777,-11917.315666,-814.226536,-1302.362347
3448.099114,-9104.533087,-1554.432478,689.485948
3448.099451,-9400.615463,-222.061783,2834.553343
3448.099789,-11399.171507,-3404.947333,2374.896044
3448.100126,-11473.192101,-3627.009116,2145.067394
3448.100464,-10807.006753,-296.082377,2145.067394
3448.100801,-10658.965565,666.185348,1149.143247
3448.101138,-11251.130318,-370.102971,0.000000
3448.101476,-11251.130318,-2294.638420,-1762.019645
3448.101813,-9844.739029,-444.123565,-1378.971896
3448.102151,-8660.409521,888.247130,-1762.019645
3448.102488,-9178.553681,1036.288319,-842.705048
3448.102826,-11177.109724,-1924.535449,-1838.629195
3448.103163,-10807.006753,-1924.535449,-1991.848295
3448.103500,-8364.327145,0.000000,-612.876398
3448.103838,-8586.388927,444.123565,1149.143247
3448.104175,-10510.924376,222.061783,383.047749
3448.104513,-10436.903782,-1480.411884,-3064.381992
3448.104850,-9252.574275,-518.144159,-2528.115143
3448.105187,-7328.038826,-444.123565,-766.095498
3448.105525,-8660.409521,296.082377,1225.752797
3448.105862,-11473.192101,-370.102971,995.924147
3448.106200,-10807.006753,-296.082377,-536.266849
3448.106537,-9474.636058,148.041188,153.219100
3448.106874,-9992.780217,3034.844362,1685.410096
3448.107212,-10807.006753,3478.967927,1762.019645
3448.107549,-11621.233289,1628.453072,0.000000
3448.107887,-11399.171507,148.041188,995.924147
3448.108224,-9622.677246,2146.597232,1991.848295
3448.108562,-9770.718434,2738.761985,3294.210641
3448.108899,-12583.501014,2960.823768,2451.505594
3448.109236,-13249.686362,370.102971,-1762.019645
3448.109574,-10732.986159,222.061783,-2987.772442
3448.109911,-6291.750507,1776.494261,-1378.971896
3448.110249,-7179.997637,-444.123565,0.000000
3448.110586,-9474.636058,-1258.350101,-1302.362347
3448.110923,-10214.842000,-2812.782580,-2911.162892
3448.111261,-9622.677246,-1332.370696,-1915.238745
3448.111598,-8586.388927,-962.267725,612.876398
3448.111936,-10066.800811,-1776.494261,2145.067394
3448.112273,-11325.150913,-2738.761985,842.705048
3448.112610,-10732.986159,-3404.947333,383.047749
3448.112948,-9104.533087,-1924.535449,1149.143247
3448.113285,-8586.388927,-1776.494261,1455.581446
3448.113623,-11769.274478,-2886.803174,1532.190996
3448.113960,-11325.150913,-3923.091493,0.000000
3448.114298,-8882.471304,-2368.659014,1838.629195
3448.114635,-9696.697840,0.000000,3907.087040
3448.114972,-10955.047942,1036.288319,2834.553343
3448.115310,-11991.336260,-444.123565,995.924147
3448.115647,-11769.274478,148.041188,229.828649
3448.115985,-10584.944971,444.123565,2145.067394
3448.116322,-10214.842000,2146.597232,3447.429741
3448.116659,-11769.274478,296.082377,2145.067394
3448.116997,-10436.903782,74.020594,-766.095498
3448.117334,-8660.409521,444.123565,-1302.362347
3448.117672,-10362.883188,1258.350101,689.485948
3448.118009,-10362.883188,1184.329507,0.000000
3448.118346,-9326.594869,296.082377,-2681.334243
3448.118684,-9178.553681,-740.205942,-2145.067394
3448.119021,-7772.162391,-148.041188,-1991.848295
3448.119359,-7402.059420,1406.391290,-306.438199
3448.119696,-9326.594869,-1036.288319,612.876398
3448.120034,-9696.697840,-1184.329507,459.657299
3448.120371,-9696.697840,-370.102971,76.609550
3448.120708,-9918.759623,518.144159,919.314598
3448.121046,-9252.574275,0.000000,766.095498
3448.121383,-9992.780217,-1554.432478,-459.657299
3448.121721,-9474.636058,-518.144159,-919.314598
3448.122058,-7624.121203,148.041188,-842.705048
3448.122395,-9770.718434,888.247130,0.000000
3448.122733,-12361.439231,0.000000,-995.924147
3448.123070,-12213.398043,-740.205942,-2834.553343
3448.123408,-10955.047942,0.000000,-1762.019645
3448.123745,-9548.656652,518.144159,-459.657299
3448.124083,-9252.574275,148.041188,0.000000
3448.124420,-10807.006753,-1554.432478,-1072.533697
3448.124757,-12287.418637,-1998.556043,-612.876398
3448.125095,-11029.068536,-814.226536,-995.924147
3448.125432,-10881.027347,222.061783,-1072.533697
3448.125770,-12213.398043,-1110.308913,306.438199
3448.126107,-11103.089130,-1554.432478,-766.095498
3448.126444,-9696.697840,-1184.329507,-1302.362347
3448.126782,-9474.636058,-1480.411884,-306.438199
3448.127119,-8512.368333,-1480.411884,1455.581446
3448.127457,-10362.883188,-2220.617826,1762.019645
3448.127794,-9548.656652,-2368.659014,1838.629195
3448.128131,-8734.430116,-888.247130,2834.553343
3448.128469,-8660.409521,518.144159,3677.258390
3448.128806,-9400.615463,592.164754,2604.724693
3448.129144,-9918.759623,-444.123565,2145.067394
3448.129481,-9844.739029,814.226536,2451.505594
3448.129819,-9548.656652,1258.350101,3064.381992
3448.130156,-9474.636058,2738.761985,1838.629195
3448.130493,-9104.533087,1036.288319,612.876398
3448.130831,-7994.224174,296.082377,76.609550
3448.131168,-7624.121203,2294.638420,2145.067394
3448.131506,-10140.821405,2812.782580,1838.629195
3448.131843,-13323.706956,2664.741391,-383.047749
3448.132180,-12953.603985,888.247130,-2451.505594
3448.132518,-10288.862594,2072.576638,-2834.553343
3448.132855,-7698.141797,222.061783,-1608.800546
3448.133193,-8512.368333,148.041188,1838.629195
3448.133530,-10584.944971,-962.267725,459.657299
3448.133867,-11547.212695,-2072.576638,-766.095498
3448.134205,-11473.192101,-1850.514855,-1378.971896
3448.134542,-11621.233289,-1110.308913,306.438199
3448.134880,-12139.377449,-888.247130,459.657299
3448.135217,-10510.924376,-3182.885551,-536.266849
3448.135555,-8512.368333,-2072.576638,766.095498
3448.135892,-7254.018232,-1332.370696,383.047749
3448.136229,-8660.409521,-1776.494261,-1378.971896
3448.136567,-11843.295072,-2812.782580,-2834.553343
3448.136904,-11251.130318,-2886.803174,-3064.381992
3448.137242,-9474.636058,-1554.432478,-1915.238745
3448.137579,-8734.430116,-1554.432478,-612.876398
3448.137916,-8808.450710,0.000000,-459.657299
3448.138254,-9770.718434,-2294.638420,-1072.533697
3448.138591,-11177.109724,-3034.844362,-689.485948
3448.138929,-11103.089130,-1184.329507,1225.752797
3448.139266,-10955.047942,0.000000,2451.505594
3448.139603,-11251.130318,-962.267725,689.485948
3448.139941,-10732.986159,-1480.411884,-766.095498
3448.140278,-9474.636058,148.041188,-766.095498
3448.140616,-9400.615463,370.102971,0.000000
3448.140953,-11177.109724,592.164754,842.705048
3448.141291,-12213.398043,-666.185348,153.219100
3448.141628,-10362.883188,148.041188,229.828649
3448.141965,-8216.285956,1184.329507,1455.581446
3448.142303,-7920.203579,2220.617826,2374.896044
3448.142640,-9474.636058,814.226536,3524.039291
3448.142978,-11251.130318,-962.267725,2528.115143
3448.143315,-10584.944971,444.123565,2374.896044
3448.143652,-9252.574275,1702.473667,2987.772442
3448.143990,-8956.491898,1998.556043,2451.505594
3448.144327,-9770.718434,518.144159,153.219100
3448.144665,-8956.491898,0.000000,-995.924147
3448.145002,-7846.182985,666.185348,-612.876398
3448.145339,-8068.244768,0.000000,766.095498
3448.145677,-11177.109724,518.144159,0.000000
3448.146014,-10510.924376,-592.164754,-2298.286494
3448.146352,-9474.636058,-740.205942,-1915.238745
3448.146689,-9104.533087,148.041188,-1838.629195
3448.147027,-9770.718434,-1628.453072,153.219100
3448.147364,-11621.233289,-2442.679609,1072.533697
3448.147701,-10658.965565,-3552.988522,612.876398
3448.148039,-10140.821405,-2590.720797,1225.752797
3448.148376,-11399.171507,-962.267725,2145.067394
3448.148714,-12213.398043,-1850.514855,919.314598
3448.149051,-11917.315666,-1998.556043,-766.095498
3448.149388,-9474.636058,-1036.288319,-689.485948
3448.149726,-8808.450710,-1702.473667,689.485948
3448.150063,-10955.047942,-444.123565,2145.067394
3448.150401,-11103.089130,0.000000,306.438199
3448.150738,-10140.821405,-444.123565,-2145.067394
3448.151075,-9918.759623,962.267725,-1455.581446
3448.151413,-7920.203579,666.185348,-536.266849
3448.151750,-9252.574275,0.000000,995.924147
3448.152088,-10214.842000,-74.020594,536.266849
3448.152425,-8660.409521,740.205942,-536.266849
3448.152763,-9474.636058,1850.514855,-1378.971896
3448.153100,-10436.903782,1406.391290,-612.876398
3448.153437,-11029.068536,370.102971,-919.314598
3448.153775,-8660.409521,518.144159,-1608.800546
3448.154112,-7031.956449,148.041188,-689.485948
3448.154450,-8512.368333,444.123565,919.314598
3448.154787,-10510.924376,740.205942,0.000000
3448.155124,-10288.862594,-296.082377,-1455.581446
3448.155462,-10140.821405,666.185348,153.219100
3448.155799,-9104.533087,2220.617826,1302.362347
3448.156137,-10510.924376,1332.370696,1072.533697
3448.156474,-12287.418637,0.000000,1532.190996
3448.156811,-10732.986159,-1258.350101,1225.752797
3448.157149,-10066.800811,-296.082377,2298.286494
3448.157486,-9400.615463,888.247130,2298.286494
3448.157824,-9474.636058,444.123565,1378.971896
3448.158161,-11991.336260,-740.205942,842.705048
3448.158499,-11399.171507,-888.247130,-919.314598
3448.158836,-9474.636058,222.061783,-306.438199
3448.159173,-9844.739029,222.061783,1532.190996
3448.159511,-10955.047942,-1258.350101,-536.266849
3448.159848,-11103.089130,-2146.597232,-1378.971896
3448.160186,-9104.533087,-1036.288319,-459.657299
3448.160523,-7920.203579,-1406.391290,1225.752797
3448.160860,-9770.718434,-1628.453072,536.266849
3448.161198,-11917.315666,-3923.091493,0.000000
3448.161535,-9844.739029,-4293.194464,-229.828649
3448.161873,-8586.388927,-2368.659014,1378.971896
3448.162210,-8882.471304,-592.164754,2528.115143
3448.162548,-10510.924376,-1036.288319,1302.362347
3448.162885,-11177.109724,-2960.823768,-766.095498
3448.163222,-8956.491898,-1924.535449,383.047749
3448.163560,-8956.491898,-296.082377,3370.820191
3448.163897,-10362.883188,370.102971,3370.820191
3448.164235,-11103.089130,74.020594,1149.143247
3448.164572,-10807.006753,666.185348,0.000000
3448.164909,-9252.574275,2294.638420,306.438199
3448.165247,-9326.594869,1850.514855,1838.629195
3448.165584,-11547.212695,1628.453072,919.314598
3448.165922,-11103.089130,0.000000,-1378.971896
3448.166259,-9992.780217,1702.473667,-2221.676944
3448.166596,-8808.450710,1924.535449,-1149.143247
3448.166934,-8586.388927,1406.391290,-612.876398
3448.167271,-10140.821405,-518.144159,-1532.190996
3448.167609,-9548.656652,-592.164754,-1915.238745
3448.167946,-9696.697840,-1036.288319,-536.266849
3448.168284,-9992.780217,-814.226536,459.657299
3448.168621,-10066.800811,-1332.370696,153.219100
3448.168958,-11695.253884,-1480.411884,-306.438199
3448.169296,-10436.903782,-666.185348,-383.047749
3448.169633,-8216.285956,-518.144159,-2221.676944
3448.169971,-7772.162391,0.000000,-1302.362347
3448.170308,-9770.718434,-1850.514855,-1072.533697
3448.170645,-11473.192101,-2516.700203,-306.438199
3448.170983,-11325.150913,-1850.514855,766.095498
3448.171320,-10436.903782,-296.082377,2068.457845
3448.171658,-9474.636058,592.164754,2374.896044
3448.171995,-9844.739029,-1480.411884,1532.190996
3448.172332,-9696.697840,-1406.391290,1225.752797
3448.172670,-9030.512492,-592.164754,2681.334243
3448.173007,-11621.233289,2072.576638,3524.039291
3448.173345,-14359.995275,1406.391290,153.219100
3448.173682,-11843.295072,-518.144159,-3294.210641
3448.174020,-8660.409521,-962.267725,-2374.896044
3448.174357,-7402.059420,74.020594,0.000000
3448.174694,-6883.915261,592.164754,-153.219100
3448.175032,-9918.759623,-740.205942,-383.047749
3448.175369,-11843.295072,-1702.473667,-995.924147
3448.175707,-10288.862594,592.164754,-1072.533697
3448.176044,-10955.047942,222.061783,2145.067394
3448.176381,-10658.965565,666.185348,2298.286494
3448.176719,-9400.615463,-1036.288319,1149.143247
3448.177056,-9104.533087,-1036.288319,3600.648841
3448.177394,-7994.224174,-518.144159,3524.039291
3448.177731,-10510.924376,1998.556043,4136.915689
3448.178068,-13397.727550,370.102971,2068.457845
3448.178406,-11251.130318,-74.020594,-306.438199
3448.178743,-7920.203579,2072.576638,0.000000
3448.179081,-6883.915261,2960.823768,536.266849
3448.179418,-9326.594869,2960.823768,0.000000
3448.179756,-11547.212695,-370.102971,-3294.210641
3448.180093,-10140.821405,1036.288319,-2757.943793
3448.180430,-8660.409521,1406.391290,-306.438199
3448.180768,-10066.800811,1332.370696,1685.410096
3448.181105,-10658.965565,-1554.432478,536.266849
3448.181443,-10584.944971,-2516.700203,-1378.971896
3448.181780,-9252.574275,-592.164754,-842.705048
3448.182117,-9030.512492,-888.247130,-306.438199
3448.182455,-10288.862594,0.000000,-229.828649
3448.182792,-11843.295072,-1850.514855,-2604.724693
3448.183130,-11029.068536,-1554.432478,-3064.381992
3448.183467,-9252.574275,-1480.411884,-766.095498
3448.183804,-9252.574275,-888.247130,1225.752797
3448.184142,-10436.903782,-1480.411884,459.657299
3448.184479,-11917.315666,-2590.720797,-1072.533697
3448.184817,-10510.924376,-1110.308913,-306.438199
3448.185154,-8956.491898,-740.205942,1455.581446
3448.185492,-8956.491898,0.000000,2451.505594
3448.185829,-10066.800811,-1184.329507,2451.505594
3448.186166,-11251.130318,-370.102971,2068.457845
3448.186504,-10807.006753,-296.082377,1455.581446
3448.186841,-10955.047942,1480.411884,1915.238745
3448.187179,-10807.006753,1258.350101,1149.143247
3448.187516,-9992.780217,0.000000,-919.314598
3448.187853,-8586.388927,74.020594,-383.047749
3448.188191,-8438.347739,1480.411884,-229.828649
3448.188528,-7994.224174,888.247130,-1225.752797
3448.188866,-11103.089130,-666.185348,-1608.800546
3448.189203,-11325.150913,-1110.308913,-2068.457845
3448.189540,-8364.327145,-1258.350101,306.438199
3448.189878,-9104.533087,-148.041188,3064.381992
3448.190215,-9326.594869,518.144159,2451.505594
3448.190553,-10510.924376,0.000000,919.314598
3448.190890,-10955.047942,-962.267725,1455.581446
3448.191228,-9844.739029,-444.123565,2681.334243
3448.191565,-11991.336260,666.185348,3447.429741
3448.191902,-12065.356855,1924.535449,1455.581446
3448.192240,-10881.027347,888.247130,-689.485948
3448.192577,-9474.636058,1702.473667,-1225.752797
3448.192915,-8216.285956,1480.411884,-842.705048
3448.193250,-9770.718434,-370.102971,1378.971896
3448.193588,-11251.130318,-962.267725,1838.629195
3448.193925,-10807.006753,-1480.411884,995.924147
3448.194263,-9992.780217,0.000000,842.705048
3448.194600,-9030.512492,518.144159,76.609550
3448.194937,-9696.697840,-74.020594,-919.314598
3448.195275,-9400.615463,-2442.679609,-1915.238745
3448.195612,-7772.162391,-1110.308913,-995.924147
3448.195949,-9030.512492,-962.267725,612.876398
3448.196287,-11399.171507,-962.267725,-1149.143247
3448.196624,-12065.356855,-3034.844362,-2528.115143
3448.196961,-10658.965565,-2960.823768,-2298.286494
3448.197299,-7105.977043,-1998.556043,-536.266849
3448.197636,-7254.018232,-1258.350101,1532.190996
3448.197974,-9474.636058,-1332.370696,1991.848295
3448.198311,-12583.501014,-1702.473667,612.876398
3448.198648,-12805.562797,-518.144159,-76.609550
3448.198986,-11399.171507,1184.329507,1225.752797
3448.199323,-10881.027347,1110.308913,2374.896044
3448.199660,-11251.130318,-148.041188,2451.505594
3448.199998,-9770.718434,1406.391290,842.705048
3448.200335,-9178.553681,1702.473667,995.924147
3448.200672,-10955.047942,1776.494261,2145.067394
3448.201010,-11991.336260,592.164754,766.095498
3448.201347,-12361.439231,444.123565,689.485948
3448.201685,-9548.656652,1184.329507,1072.533697
3448.202022,-8660.409521,1702.473667,1762.019645
3448.202359,-9030.512492,2368.659014,995.924147
3448.202697,-9770.718434,222.061783,-536.266849
3448.203034,-9918.759623,-518.144159,-1991.848295
3448.203371,-8956.491898,0.000000,-2221.676944
3448.203709,-9474.636058,222.061783,-383.047749
3448.204046,-9104.533087,-666.185348,-1532.190996
3448.204383,-8512.368333,-1406.391290,-2145.067394
3448.204721,-7698.141797,-1924.535449,-995.924147
3448.205058,-7105.977043,-2664.741391,919.314598
3448.205396,-9622.677246,-1776.494261,3447.429741
3448.205733,-11843.295072,-888.247130,3294.210641
3448.206070,-12583.501014,444.123565,1608.800546
3448.206408,-12435.459826,148.041188,689.485948
3448.206745,-10955.047942,592.164754,1685.410096
3448.207082,-9400.615463,-148.041188,919.314598
3448.207420,-10658.965565,-666.185348,-306.438199
3448.207757,-10362.883188,-1258.350101,0.000000
3448.208094,-10140.821405,-296.082377,1378.971896
3448.208432,-10140.821405,1110.308913,689.485948
3448.208769,-12213.398043,296.082377,76.609550
3448.209106,-11621.233289,814.226536,-1915.238745
3448.209444,-9474.636058,-370.102971,-2068.457845
3448.209781,-10288.862594,-592.164754,76.609550
3448.210119,-9622.677246,-370.102971,153.219100
3448.210456,-10584.944971,-1850.514855,153.219100
3448.210793,-9622.677246,-2146.597232,-229.828649
3448.211131,-7550.100608,-1406.391290,-229.828649
3448.211468,-8142.265362,222.061783,689.485948
3448.211805,-10510.924376,-2294.638420,76.609550
3448.212143,-9992.780217,-2738.761985,-76.609550
3448.212480,-9030.512492,-222.061783,383.047749
3448.212817,-8216.285956,1110.308913,1685.410096
3448.213155,-9104.533087,1702.473667,1302.362347
3448.213492,-10955.047942,814.226536,-153.219100
3448.213830,-9770.718434,1184.329507,0.000000
3448.214167,-9474.636058,1110.308913,1225.752797
3448.214504,-10955.047942,2220.617826,2834.553343
3448.214842,-11325.150913,2146.597232,766.095498
3448.215179,-11695.253884,814.226536,-459.657299
3448.215516,-11325.150913,2220.617826,995.924147
3448.215854,-9178.553681,2146.597232,1072.533697
3448.216191,-10288.862594,2368.659014,-229.828649
3448.216528,-12065.356855,0.000000,-1685.410096
3448.216866,-12509.480420,-814.226536,-1915.238745
3448.217203,-8660.409521,0.000000,-1302.362347
3448.217541,-8438.347739,-444.123565,-689.485948
3448.217878,-9474.636058,-962.267725,0.000000
3448.218215,-10658.965565,-3256.906145,-459.657299
3448.218553,-8734.430116,-2738.761985,-459.657299
3448.218890,-8956.491898,-1258.350101,842.705048
3448.219227,-10288.862594,-1184.329507,2834.553343
3448.219565,-12731.542202,-2664.741391,536.266849
3448.219902,-10436.903782,-3478.967927,-1302.362347
3448.220239,-6587.832884,-1850.514855,76.609550
3448.220577,-8216.285956,-1332.370696,5975.544884
3448.220914,-10510.924376,-1258.350101,4060.306139
3448.221252,-12065.356855,-1924.535449,1149.143247
3448.221589,-11177.109724,74.020594,153.219100
3448.221926,-9696.697840,1998.556043,612.876398
3448.222264,-10436.903782,1924.535449,919.314598
3448.222601,-12583.501014,222.061783,612.876398
3448.222938,-10140.821405,-296.082377,-1532.190996
3448.223276,-8216.285956,1184.329507,612.876398
3448.223613,-11325.150913,1702.473667,3140.991542
3448.223950,-11621.233289,962.267725,0.000000
3448.224288,-11547.212695,222.061783,-2757.943793
3448.224625,-9696.697840,-222.061783,-2374.896044
3448.224962,-7994.224174,-518.144159,306.438199
3448.225300,-8364.327145,0.000000,2221.676944
3448.225637,-9770.718434,1184.329507,612.876398
3448.225975,-11177.109724,-74.020594,-1378.971896
3448.226312,-9770.718434,888.247130,-2068.457845
3448.226649,-8438.347739,148.041188,-995.924147
3448.226987,-8290.306550,-222.061783,1762.019645
3448.227324,-9548.656652,-888.247130,919.314598
3448.227661,-8956.491898,-148.041188,-536.266849
3448.227999,-8808.450710,1258.350101,0.000000
3448.228336,-9474.636058,-148.041188,612.876398
3448.228673,-11103.089130,-1258.350101,689.485948
3448.229011,-10732.986159,-518.144159,0.000000
3448.229348,-10140.821405,518.144159,536.266849
3448.229686,-9030.512492,1036.288319,-76.609550
3448.230023,-9474.636058,1480.411884,-842.705048
3448.230360,-11251.130318,-370.102971,-1991.848295
3448.230698,-11769.274478,-1332.370696,-1915.238745
3448.231035,-9770.718434,-888.247130,0.000000
3448.231372,-10510.924376,-814.226536,689.485948
3448.231710,-11769.274478,-1332.370696,306.438199
3448.232047,-10658.965565,-2738.761985,-995.924147
3448.232384,-9400.615463,-2886.803174,612.876398
3448.232722,-9548.656652,-1480.411884,1532.190996
3448.233059,-11473.192101,-148.041188,1149.143247
3448.233397,-12657.521608,-1036.288319,306.438199
3448.233734,-10732.986159,-2220.617826,-612.876398
3448.234071,-7772.162391,-962.267725,1762.019645
3448.234409,-8734.430116,296.082377,4366.744339
3448.234746,-10955.047942,-888.247130,4596.572988
3448.235083,-12361.439231,-1184.329507,2681.334243
3448.235421,-10362.883188,296.082377,2604.724693
3448.235758,-9030.512492,1702.473667,2757.943793
3448.236095,-10362.883188,2072.576638,3064.381992
3448.236433,-10732.986159,962.267725,459.657299
3448.236770,-8438.347739,0.000000,-1838.629195
3448.237108,-6661.853478,2516.700203,76.609550
3448.237445,-8512.368333,2590.720797,689.485948
3448.237782,-10807.006753,1258.350101,-2298.286494
3448.238120,-10658.965565,-740.205942,-4826.401637
3448.238457,-7476.080014,-814.226536,-1762.019645
3448.238794,-6143.709319,-666.185348,2221.676944
3448.239132,-9918.759623,888.247130,4060.306139
3448.239469,-11843.295072,-148.041188,76.609550
3448.239806,-12953.603985,-1406.391290,-1915.238745
3448.240144,-11473.192101,-592.164754,-689.485948
3448.240481,-9178.553681,-148.041188,612.876398
3448.240819,-8660.409521,-1850.514855,1225.752797
3448.241156,-11473.192101,-3627.009116,919.314598
3448.241493,-8734.430116,-1702.473667,-2604.724693
3448.241831,-8512.368333,296.082377,-459.657299
3448.242168,-10955.047942,962.267725,1302.362347
3448.242505,-12361.439231,-518.144159,-1072.533697
3448.242843,-13471.748144,-2146.597232,-2298.286494
3448.243180,-10066.800811,-814.226536,-995.924147
3448.243517,-7772.162391,-296.082377,1455.581446
3448.243855,-8364.327145,-666.185348,1225.752797
3448.244192,-11695.253884,-1850.514855,-1838.629195
3448.244529,-10436.903782,-2516.700203,-2604.724693
3448.244867,-8956.491898,-1702.473667,-229.828649
3448.245204,-9178.553681,-1184.329507,1762.019645
3448.245542,-11399.171507,-444.123565,229.828649
3448.245879,-10510.924376,-1924.535449,-2911.162892
3448.246216,-9104.533087,-1776.494261,-1532.190996
3448.246554,-9178.553681,-1258.350101,1455.581446
3448.246891,-9622.677246,1184.329507,2681.334243
3448.247228,-11843.295072,-962.267725,1915.238745
3448.247566,-11473.192101,0.000000,153.219100
3448.247903,-8068.244768,1036.288319,689.485948
3448.248240,-9474.636058,1036.288319,3064.381992
3448.248578,-10807.006753,518.144159,3370.820191
3448.248915,-12435.459826,-296.082377,2298.286494
3448.249253,-9844.739029,814.226536,1838.629195
3448.249590,-7920.203579,2220.617826,2681.334243
3448.249927,-8438.347739,4441.235652,2757.943793
3448.250265,-12213.398043,2146.597232,-306.438199
3448.250602,-11695.253884,1332.370696,-2681.334243
3448.250939,-8216.285956,370.102971,-1762.019645
3448.251277,-7772.162391,814.226536,2374.896044
3448.251614,-9548.656652,740.205942,2145.067394
3448.251951,-10955.047942,-370.102971,-919.314598
3448.252289,-9622.677246,148.041188,-1762.019645
3448.252626,-8882.471304,-740.205942,-459.657299
3448.252964,-9770.718434,0.000000,536.266849
3448.253301,-11991.336260,-2146.597232,229.828649
3448.253638,-12139.377449,-3108.864956,-383.047749
3448.253976,-8956.491898,-3330.926739,-1072.533697
3448.254313,-7550.100608,-1110.308913,766.095498
3448.254650,-8808.450710,-740.205942,1072.533697
3448.254988,-11621.233289,-2960.823768,-153.219100
3448.255325,-12509.480420,-3849.070898,-153.219100
3448.255662,-11177.109724,-740.205942,0.000000
3448.256000,-10066.800811,296.082377,1532.190996
3448.256337,-11029.068536,-74.020594,-459.657299
3448.256675,-10807.006753,-2294.638420,-919.314598
3448.257012,-9326.594869,-1924.535449,689.485948
3448.257349,-7328.038826,0.000000,2374.896044
3448.257687,-9770.718434,1184.329507,2145.067394
3448.258024,-14285.974681,-370.102971,-1838.629195
3448.258361,-12657.521608,-888.247130,-4903.011187
3448.258699,-7698.141797,518.144159,-2451.505594
3448.259036,-6069.688724,1850.514855,842.705048
3448.259373,-7994.224174,1702.473667,-689.485948
3448.259711,-11029.068536,-1036.288319,-3830.477490
3448.260048,-10955.047942,-1406.391290,-2681.334243
3448.260386,-8512.368333,-1258.350101,536.266849
3448.260723,-9548.656652,1258.350101,2911.162892
3448.261060,-10955.047942,518.144159,1302.362347
3448.261398,-9770.718434,-740.205942,-153.219100
3448.261735,-8512.368333,0.000000,383.047749
3448.262072,-9104.533087,296.082377,3064.381992
3448.262410,-10955.047942,1258.350101,3677.258390
3448.262747,-13323.706956,-666.185348,1685.410096
3448.263084,-11399.171507,888.247130,-766.095498
3448.263422,-8142.265362,1702.473667,-689.485948
3448.263759,-7994.224174,2368.659014,2987.772442
3448.264096,-10066.800811,296.082377,1455.581446
3448.264434,-11251.130318,-1406.391290,-1149.143247
3448.264771,-10436.903782,-296.082377,-306.438199
3448.265109,-9844.739029,0.000000,2068.457845
3448.265446,-10066.800811,444.123565,2604.724693
3448.265783,-10658.965565,-888.247130,-383.047749
3448.266121,-10436.903782,-1554.432478,-1072.533697
3448.266458,-8290.306550,-1554.432478,-689.485948
3448.266795,-8142.265362,-666.185348,1149.143247
3448.267133,-11177.109724,-2738.761985,919.314598
3448.267470,-12139.377449,-3182.885551,-1991.848295
3448.267807,-9178.553681,-2812.782580,-1838.629195
3448.268145,-9030.512492,-2146.597232,1608.800546
3448.268482,-8068.244768,-1332.370696,3370.820191
3448.268820,-10362.883188,-2220.617826,1608.800546
3448.269157,-11029.068536,-2368.659014,536.266849
3448.269494,-10807.006753,-1702.473667,3294.210641
3448.269832,-11399.171507,-222.061783,4596.572988
3448.270169,-11399.171507,1110.308913,1991.848295
3448.270506,-10362.883188,222.061783,0.000000
3448.270844,-9770.718434,592.164754,0.000000
3448.271181,-7994.224174,1258.350101,-383.047749
3448.271518,-9548.656652,1850.514855,0.000000
3448.271856,-11991.336260,1702.473667,-995.924147
3448.272193,-11399.171507,518.144159,-3447.429741
3448.272531,-9400.615463,814.226536,-995.924147
3448.272868,-8512.368333,2220.617826,1149.143247
3448.273205,-10288.862594,1850.514855,153.219100
3448.273543,-11177.109724,-222.061783,-2757.943793
3448.273880,-8734.430116,-1702.473667,-3294.210641
3448.274217,-7994.224174,0.000000,-306.438199
3448.274555,-8882.471304,888.247130,383.047749
3448.274892,-11251.130318,222.061783,-995.924147
3448.275229,-10881.027347,-1702.473667,-3140.991542
3448.275567,-9326.594869,-814.226536,-2528.115143
3448.275904,-8808.450710,-592.164754,995.924147
3448.276242,-9400.615463,0.000000,1302.362347
3448.276579,-10807.006753,-1924.535449,-919.314598
3448.276916,-11177.109724,-1628.453072,-766.095498
3448.277254,-8586.388927,0.000000,1225.752797
3448.277591,-9992.780217,0.000000,3217.601092
3448.277928,-11251.130318,-1036.288319,2145.067394
3448.278266,-11769.274478,-1258.350101,0.000000
3448.278603,-10510.924376,222.061783,-153.219100
3448.278940,-9030.512492,814.226536,229.828649
3448.279278,-9548.656652,518.144159,-536.266849
3448.279615,-9844.739029,-962.267725,-1225.752797
3448.279953,-11917.315666,-2738.761985,-766.095498
3448.280290,-9844.739029,-1480.411884,536.266849
3448.280627,-8438.347739,-592.164754,2681.334243
3448.280965,-10732.986159,-444.123565,3064.381992
3448.281302,-11621.233289,-1628.453072,-229.828649
3448.281639,-10066.800811,-740.205942,-1915.238745
3448.281977,-9178.553681,-370.102971,536.266849
3448.282314,-8882.471304,-1110.308913,2451.505594
3448.282651,-10732.986159,-1406.391290,2374.896044
3448.282989,-10658.965565,-666.185348,612.876398
3448.283326,-9474.636058,-444.123565,1838.629195
3448.283663,-9548.656652,592.164754,2681.334243
3448.284001,-10214.842000,1110.308913,2145.067394
3448.284338,-11177.109724,1184.329507,1762.019645
3448.284676,-9992.780217,666.185348,1072.533697
3448.285013,-8734.430116,1406.391290,842.705048
3448.285350,-9474.636058,3108.864956,1149.143247
3448.285688,-11029.068536,1776.494261,612.876398
3448.286025,-11621.233289,1332.370696,-1072.533697
3448.286362,-9178.553681,740.205942,-2221.676944
3448.286700,-8660.409521,1406.391290,306.438199
3448.287037,-9548.656652,-74.020594,-76.609550
3448.287374,-10288.862594,0.000000,-1991.848295
3448.287712,-8290.306550,-592.164754,-4903.011187
3448.288049,-9474.636058,-1406.391290,-2068.457845
3448.288387,-9844.739029,-962.267725,536.266849
3448.288724,-11325.150913,-1702.473667,-306.438199
3448.289061,-10658.965565,-1850.514855,-919.314598
3448.289399,-9770.718434,-1998.556043,-1149.143247
3448.289736,-9326.594869,-1110.308913,-153.219100
3448.290073,-9770.718434,-2220.617826,-1455.581446
3448.290411,-10955.047942,-3108.864956,-1072.533697
3448.290748,-9696.697840,-3256.906145,-1149.143247
3448.291085,-8660.409521,-2738.761985,153.219100
3448.291423,-9252.574275,-1258.350101,1685.410096
3448.291760,-10214.842000,-666.185348,536.266849
3448.292098,-11547.212695,148.041188,0.000000
3448.292435,-11769.274478,0.000000,-459.657299
3448.292772,-11621.233289,296.082377,1225.752797
3448.293110,-10658.965565,296.082377,2221.676944
3448.293447,-11547.212695,-1036.288319,1149.143247
3448.293784,-9548.656652,-592.164754,536.266849
3448.294122,-9622.677246,0.000000,229.828649
3448.294459,-9844.739029,1776.494261,0.000000
3448.294796,-11399.171507,740.205942,-1149.143247
3448.295134,-11103.089130,148.041188,-1915.238745
3448.295471,-9178.553681,-148.041188,-1608.800546
3448.295808,-9326.594869,148.041188,1838.629195
3448.296146,-9326.594869,1184.329507,2911.162892
3448.296483,-10214.842000,-296.082377,1762.019645
3448.296820,-10066.800811,-370.102971,1302.362347
3448.297158,-8956.491898,1258.350101,1762.019645
3448.297495,-8734.430116,1628.453072,2451.505594
3448.297832,-9992.780217,666.185348,3140.991542
3448.298170,-11177.109724,-666.185348,2145.067394
3448.298507,-9918.759623,666.185348,1225.752797
3448.298844,-8660.409521,1110.308913,1302.362347
3448.299181,-9400.615463,1480.411884,3294.210641
3448.299519,-11029.068536,1332.370696,1072.533697
3448.299856,-9992.780217,222.061783,-1685.410096
3448.300193,-8808.450710,296.082377,-842.705048
3448.300531,-9252.574275,-222.061783,1225.752797
3448.300868,-10955.047942,-370.102971,153.219100
3448.301205,-10807.006753,-1554.432478,-1838.629195
3448.301543,-10066.800811,-814.226536,-995.924147
3448.301880,-9548.656652,-740.205942,-76.609550
3448.302217,-9770.718434,-740.205942,-842.705048
3448.302555,-11251.130318,-3034.844362,-306.438199
3448.302892,-11251.130318,-3552.988522,-1149.143247
3448.303229,-9252.574275,-2294.638420,-842.705048
3448.303567,-10510.924376,-1702.473667,1915.238745
3448.303904,-11843.295072,-2220.617826,1378.971896
3448.304241,-10881.027347,-2590.720797,-1608.800546
3448.304579,-9918.759623,-1702.473667,-1838.629195
3448.304916,-7772.162391,-222.061783,-689.485948
3448.305253,-9474.636058,666.185348,995.924147
3448.305590,-11621.233289,518.144159,-842.705048
3448.305928,-12139.377449,-222.061783,-2451.505594
3448.306265,-10658.965565,962.267725,-1072.533697
3448.306602,-9770.718434,666.185348,766.095498
3448.306940,-8882.471304,1036.288319,1608.800546
3448.307277,-9918.759623,0.000000,1532.190996
3448.307614,-9844.739029,-296.082377,-612.876398
3448.307952,-8956.491898,370.102971,0.000000
3448.308289,-9696.697840,1110.308913,306.438199
3448.308626,-10362.883188,444.123565,-612.876398
3448.308964,-9844.739029,370.102971,-3140.991542
3448.309301,-7698.141797,592.164754,-2221.676944
3448.309638,-7698.141797,814.226536,689.485948
3448.309976,-9992.780217,1480.411884,1302.362347
3448.310313,-11177.109724,666.185348,229.828649
3448.310650,-12065.356855,-1184.329507,306.438199
3448.310988,-10362.883188,-296.082377,1685.410096
3448.311325,-8586.388927,444.123565,1838.629195
3448.311662,-9474.636058,0.000000,1838.629195
3448.312000,-10955.047942,-962.267725,689.485948
3448.312337,-9770.718434,296.082377,1072.533697
3448.312674,-9474.636058,2072.576638,1608.800546
3448.313011,-11547.212695,888.247130,2528.115143
3448.313349,-13175.665768,-962.267725,2451.505594
3448.313686,-11029.068536,-1258.350101,459.657299
3448.314023,-8290.306550,-888.247130,1838.629195
3448.314361,-8882.471304,74.020594,4060.306139
3448.314698,-10510.924376,-888.247130,1915.238745
3448.315035,-11843.295072,-1406.391290,-1072.533697
3448.315373,-10066.800811,-1776.494261,-1838.629195
3448.315710,-9030.512492,0.000000,76.609550
3448.316047,-9622.677246,370.102971,-536.266849
3448.316385,-11399.171507,-1776.494261,-2451.505594
3448.316722,-9474.636058,-3108.864956,-2681.334243
3448.317059,-6587.832884,-2368.659014,0.000000
3448.317397,-8586.388927,-1480.411884,3217.601092
3448.317734,-11251.130318,-1924.535449,2757.943793
3448.318071,-11991.336260,-2368.659014,229.828649
3448.318409,-10658.965565,-1258.350101,-612.876398
3448.318746,-8882.471304,888.247130,536.266849
3448.319083,-10066.800811,1554.432478,1532.190996
3448.319420,-11251.130318,296.082377,-383.047749
3448.319758,-9622.677246,-666.185348,-2068.457845
3448.320095,-8956.491898,1924.535449,229.828649
3448.320432,-9622.677246,2294.638420,1838.629195
3448.320770,-11399.171507,1850.514855,689.485948
3448.321107,-11991.336260,1036.288319,-1762.019645
3448.321444,-9696.697840,1110.308913,-2604.724693
3448.321782,-7698.141797,1110.308913,-229.828649
3448.322119,-9178.553681,1924.535449,2451.505594
3448.322456,-11473.192101,-370.102971,-229.828649
3448.322794,-12065.356855,-1480.411884,-2451.505594
3448.323131,-8808.450710,0.000000,-2145.067394
3448.323468,-8216.285956,0.000000,383.047749
3448.323806,-8956.491898,-814.226536,-766.095498
3448.324143,-9104.533087,-2220.617826,-3830.477490
3448.324480,-9770.718434,-2442.679609,-2068.457845
3448.324818,-8956.491898,-1628.453072,-612.876398
3448.325155,-9326.594869,0.000000,2757.943793
3448.325492,-13027.624579,74.020594,1838.629195
3448.325830,-13841.851115,-1184.329507,0.000000
3448.326167,-10436.903782,-888.247130,-306.438199
3448.326504,-8512.368333,-1258.350101,2451.505594
3448.326841,-8512.368333,-592.164754,4060.306139
3448.327179,-11251.130318,-1332.370696,2451.505594
3448.327516,-11843.295072,-222.061783,-995.924147
3448.327853,-9918.759623,-370.102971,76.609550
3448.328191,-9770.718434,518.144159,2221.676944
3448.328528,-9030.512492,740.205942,1762.019645
3448.328865,-11473.192101,-666.185348,689.485948
3448.329203,-9548.656652,-1258.350101,766.095498
3448.329540,-9474.636058,0.000000,2298.286494
3448.329877,-9992.780217,1702.473667,2145.067394
3448.330215,-10955.047942,-222.061783,-383.047749
3448.330552,-10288.862594,-1110.308913,-1838.629195
3448.330889,-8438.347739,-1332.370696,-1072.533697
3448.331227,-7179.997637,-222.061783,1915.238745
3448.331564,-9252.574275,0.000000,2451.505594
3448.331901,-11769.274478,-1554.432478,919.314598
3448.332239,-10881.027347,74.020594,-306.438199
3448.332576,-9252.574275,592.164754,1608.800546
3448.332913,-10140.821405,2738.761985,2604.724693
3448.333250,-11103.089130,666.185348,1455.581446
3448.333588,-10955.047942,0.000000,-919.314598
3448.333925,-9696.697840,148.041188,-229.828649
3448.334262,-8734.430116,2294.638420,2068.457845
3448.334600,-9178.553681,1998.556043,1149.143247
3448.334937,-12065.356855,296.082377,-459.657299
3448.335274,-10732.986159,814.226536,-2604.724693
3448.335612,-8068.244768,2220.617826,-2987.772442
3448.335949,-9696.697840,1184.329507,0.000000
3448.336286,-11843.295072,0.000000,-1838.629195
3448.336624,-10881.027347,-2664.741391,-3447.429741
3448.336961,-8586.388927,-1332.370696,-383.047749
3448.337298,-6365.771101,-296.082377,1762.019645
3448.337636,-9252.574275,-592.164754,612.876398
3448.337973,-11325.150913,-2664.741391,-2911.162892
3448.338310,-10732.986159,-2368.659014,-3983.696590
3448.338648,-10510.924376,-962.267725,-995.924147
3448.338985,-10955.047942,0.000000,2068.457845
3448.339322,-11251.130318,592.164754,-1532.190996
3448.339660,-10658.965565,-2368.659014,-3217.601092
3448.339997,-9400.615463,-1924.535449,-1532.190996
3448.340334,-6883.915261,-1480.411884,2221.676944
3448.340671,-8734.430116,0.000000,5975.544884
3448.341009,-13397.727550,-666.185348,4213.525239
3448.341346,-13767.830521,74.020594,766.095498
3448.341683,-10732.986159,1776.494261,383.047749
3448.342021,-9104.533087,1110.308913,3140.991542
3448.342358,-9474.636058,1924.535449,3370.820191
3448.342695,-11029.068536,0.000000,459.657299
3448.343033,-10362.883188,0.000000,229.828649
3448.343370,-9770.718434,222.061783,1302.362347
3448.343707,-8956.491898,1850.514855,1838.629195
3448.344045,-9844.739029,370.102971,-536.266849
3448.344382,-9326.594869,-296.082377,-3064.381992
3448.344719,-6809.894666,-296.082377,-2145.067394
3448.345057,-8068.244768,-370.102971,1532.190996
3448.345394,-10214.842000,-888.247130,2374.896044
3448.345731,-11843.295072,-1036.288319,459.657299
3448.346069,-11991.336260,-1184.329507,842.705048
3448.346406,-9326.594869,-1998.556043,2221.676944
3448.346743,-7920.203579,-296.082377,2987.772442
3448.347080,-10066.800811,-1110.308913,2221.676944
3448.347418,-10881.027347,-1776.494261,-383.047749
3448.347755,-10584.944971,-1628.453072,-459.657299
3448.348092,-9770.718434,-296.082377,1149.143247
3448.348430,-9326.594869,888.247130,1838.629195
3448.348767,-13027.624579,740.205942,766.095498
3448.349104,-12805.562797,222.061783,-1838.629195
3448.349442,-9548.656652,-296.082377,-1608.800546
3448.349779,-8364.327145,814.226536,612.876398
3448.350116,-10288.862594,518.144159,0.000000
3448.350454,-10955.047942,-592.164754,-2451.505594
3448.350791,-10807.006753,-1850.514855,-2987.772442
3448.351128,-8512.368333,-1258.350101,-612.876398
3448.351466,-8956.491898,222.061783,612.876398
3448.351803,-10955.047942,-962.267725,-1072.533697
3448.352140,-11251.130318,-666.185348,-2374.896044
3448.352478,-9474.636058,-814.226536,-2221.676944
3448.352815,-7846.182985,74.020594,0.000000
3448.353152,-9178.553681,0.000000,1608.800546
3448.353490,-10658.965565,-1258.350101,0.000000
3448.353827,-11177.109724,-1480.411884,-995.924147
3448.354164,-9474.636058,-1110.308913,306.438199
3448.354501,-7772.162391,1850.514855,2987.772442
3448.354839,-9696.697840,1258.350101,2987.772442
3448.355176,-11399.171507,666.185348,0.000000
3448.355513,-10584.944971,1332.370696,-919.314598
3448.355851,-10066.800811,1554.432478,1608.800546
3448.356188,-10732.986159,2590.720797,2528.115143
3448.356525,-10658.965565,1480.411884,383.047749
3448.356863,-10881.027347,1480.411884,689.485948
3448.357200,-8660.409521,1332.370696,612.876398
3448.357537,-9474.636058,1184.329507,459.657299
3448.357875,-11621.233289,888.247130,689.485948
3448.358212,-10066.800811,-740.205942,-2451.505594
3448.358549,-8660.409521,-444.123565,-3370.820191
3448.358887,-8734.430116,444.123565,-1455.581446
3448.359224,-8734.430116,-962.267725,1378.971896
3448.359561,-10881.027347,-1998.556043,1762.019645
3448.359899,-10881.027347,-2146.597232,229.828649
3448.360236,-9178.553681,-74.020594,689.485948
3448.360573,-10362.883188,-370.102971,2451.505594
3448.360910,-11991.336260,-1850.514855,2374.896044
3448.361248,-10807.006753,-2738.761985,689.485948
3448.361585,-9622.677246,-1110.308913,1149.143247
3448.361922,-8882.471304,-814.226536,1762.019645
3448.362260,-9548.656652,-518.144159,2834.553343
3448.362597,-11843.295072,-1110.308913,1685.410096
3448.362934,-11399.171507,-740.205942,-306.438199
3448.363272,-9696.697840,-888.247130,459.657299
3448.363609,-9844.739029,296.082377,2221.676944
3448.363946,-10436.903782,1110.308913,459.657299
3448.364284,-10510.924376,296.082377,-1455.581446
3448.364621,-9474.636058,-444.123565,-1838.629195
3448.364958,-9770.718434,-148.041188,-306.438199
3448.365296,-10288.862594,0.000000,229.828649
3448.365633,-10140.821405,-518.144159,0.000000
3448.365970,-9696.697840,-666.185348,-1838.629195
3448.366308,-9178.553681,-444.123565,-1225.752797
3448.366645,-11251.130318,814.226536,306.438199
3448.366982,-9918.759623,-592.164754,-995.924147
3448.367320,-9104.533087,-2294.638420,-995.924147
3448.367657,-8956.491898,-888.247130,0.000000
3448.367994,-8068.244768,-444.123565,612.876398
3448.368331,-8808.450710,1036.288319,2528.115143
3448.368669,-11621.233289,444.123565,1455.581446
3448.369006,-11843.295072,1036.288319,-1302.362347
3448.369343,-10436.903782,0.000000,-995.924147
3448.369681,-9400.615463,148.041188,2221.676944
3448.370018,-9622.677246,148.041188,1072.533697
3448.370355,-10584.944971,0.000000,0.000000
3448.370693,-9622.677246,-666.185348,-1455.581446
3448.371030,-8956.491898,-1554.432478,612.876398
3448.371367,-9030.512492,-592.164754,1378.971896
3448.371705,-10436.903782,-1036.288319,1838.629195
3448.372042,-12287.418637,296.082377,1378.971896
3448.372379,-11621.233289,666.185348,-1302.362347
3448.372717,-10955.047942,444.123565,-2451.505594
3448.373054,-10658.965565,0.000000,-2068.457845
3448.373391,-10362.883188,-2146.597232,-1991.848295
3448.373729,-7624.121203,-2590.720797,-1915.238745
3448.374066,-7994.224174,-2738.761985,-689.485948
3448.374403,-9696.697840,-1554.432478,1838.629195
3448.374740,-10955.047942,-2368.659014,1225.752797
3448.375078,-12065.356855,-1702.473667,1762.019645
3448.375415,-10807.006753,-1628.453072,2298.286494
3448.375752,-9696.697840,592.164754,3983.696590
3448.376090,-10955.047942,0.000000,4979.620737
3448.376427,-11843.295072,-2146.597232,3907.087040
3448.376764,-10288.862594,-1184.329507,2757.943793
3448.377102,-9622.677246,370.102971,2068.457845
3448.377439,-9178.553681,1406.391290,2451.505594
3448.377776,-10066.800811,370.102971,766.095498
3448.378114,-9992.780217,592.164754,-1225.752797
3448.378451,-8512.368333,1924.535449,-2604.724693
3448.378788,-8956.491898,2146.597232,-1838.629195
3448.379126,-10658.965565,1554.432478,-1915.238745
3448.379463,-10807.006753,296.082377,-1685.410096
3448.379800,-9178.553681,-370.102971,-383.047749
3448.380138,-8586.388927,444.123565,1915.238745
3448.380475,-8586.388927,1036.288319,2681.334243
3448.380812,-10732.986159,592.164754,459.657299
3448.381150,-11399.171507,-592.164754,-995.924147
3448.381487,-10140.821405,0.000000,-1762.019645
3448.381824,-9474.636058,0.000000,-842.705048
3448.382161,-10362.883188,518.144159,306.438199
3448.382499,-10288.862594,-1184.329507,-383.047749
3448.382836,-8512.368333,0.000000,-1302.362347
3448.383173,-8512.368333,1554.432478,-842.705048
3448.383511,-10288.862594,888.247130,0.000000
3448.383848,-12213.398043,-444.123565,-1072.533697
3448.384185,-11399.171507,-2294.638420,-1991.848295
3448.384523,-8216.285956,-666.185348,0.000000
3448.384860,-8068.244768,-518.144159,2451.505594
3448.385197,-9696.697840,148.041188,2604.724693
3448.385535,-11695.253884,-444.123565,153.219100
3448.385872,-12213.398043,-1332.370696,-1455.581446
3448.386209,-10362.883188,-592.164754,-1991.848295
3448.386547,-10066.800811,-1850.514855,-306.438199
3448.386884,-8956.491898,-1480.411884,0.000000
3448.387221,-9104.533087,-2886.803174,-1455.581446
3448.387559,-9178.553681,-2516.700203,-919.314598
3448.387896,-8216.285956,-1258.350101,689.485948
3448.388233,-10584.944971,-962.267725,1838.629195
3448.388570,-12435.459826,-888.247130,995.924147
3448.388908,-11991.336260,-592.164754,0.000000
3448.389245,-9844.739029,-1702.473667,1991.848295
3448.389582,-8660.409521,-1184.329507,4136.915689
3448.389920,-9252.574275,814.226536,4979.620737
3448.390257,-11399.171507,-518.144159,3370.820191
3448.390594,-11473.192101,-592.164754,1838.629195
3448.390932,-9696.697840,1998.556043,1225.752797
3448.391269,-9844.739029,2368.659014,1455.581446
3448.391606,-10288.862594,1628.453072,536.266849
3448.391944,-10658.965565,814.226536,-1915.238745
3448.392281,-7550.100608,1702.473667,-2298.286494
3448.392618,-7846.182985,2294.638420,1072.533697
3448.392956,-10807.006753,814.226536,1302.362347
3448.393293,-12953.603985,-740.205942,-689.485948
3448.393630,-9770.718434,-1332.370696,-2221.676944
3448.393968,-7402.059420,-74.020594,-229.828649
3448.394305,-8068.244768,74.020594,1378.971896
3448.394642,-9770.718434,-962.267725,-306.438199
3448.394980,-11695.253884,-2886.803174,-1838.629195
3448.395317,-10658.965565,-2368.659014,-1608.800546
3448.395654,-8068.244768,-370.102971,-1225.752797
3448.395992,-8068.244768,-518.144159,0.000000
3448.396329,-11547.212695,-1850.514855,306.438199
3448.396667,-10584.944971,-1998.556043,-1378.971896
3448.397004,-8808.450710,-592.164754,0.000000
3448.397342,-11103.089130,0.000000,2604.724693
3448.397679,-10955.047942,-666.185348,1225.752797
3448.398016,-11325.150913,-962.267725,229.828649
3448.398354,-10436.903782,-888.247130,-153.219100
3448.398691,-9326.594869,370.102971,919.314598
3448.399029,-9992.780217,1406.391290,1532.190996
3448.399366,-11769.274478,-962.267725,0.000000
3448.399704,-11695.253884,-888.247130,-2068.457845
3448.400041,-8808.450710,1184.329507,-2681.334243
3448.400379,-8586.388927,1776.494261,-842.705048
3448.400716,-9770.718434,-296.082377,-306.438199
3448.401053,-12139.377449,-1998.556043,-995.924147
3448.401391,-10584.944971,-1480.411884,-995.924147
3448.401728,-7772.162391,0.000000,1225.752797
3448.402066,-9178.553681,592.164754,3370.820191
3448.402403,-11917.315666,222.061783,1455.581446
3448.402741,-11029.068536,-2294.638420,-612.876398
3448.403078,-8882.471304,-666.185348,306.438199
3448.403416,-8586.388927,444.123565,2528.115143
3448.403753,-9844.739029,444.123565,3064.381992
3448.404090,-11473.192101,296.082377,1378.971896
3448.404428,-9474.636058,-814.226536,0.000000
3448.404765,-6957.935855,666.185348,1838.629195
3448.405103,-8808.450710,1554.432478,4673.182538
3448.405440,-13989.892304,1184.329507,4443.353888
3448.405778,-14137.933492,1036.288319,0.000000
3448.406115,-10066.800811,74.020594,-1838.629195
3448.406453,-8068.244768,666.185348,1762.019645
3448.406790,-8142.265362,1036.288319,1685.410096
3448.407128,-9400.615463,-1998.556043,-536.266849
3448.407465,-9844.739029,-666.185348,-3370.820191
3448.407802,-9474.636058,-814.226536,-3677.258390
3448.408140,-10807.006753,666.185348,-1072.533697
3448.408477,-11473.192101,-592.164754,-1685.410096
3448.408815,-11547.212695,-2442.679609,-2374.896044
3448.409152,-8808.450710,-1850.514855,-1072.533697
3448.409490,-8512.368333,-1998.556043,2145.067394
3448.409827,-10214.842000,-2220.617826,3753.867940
3448.410165,-12435.459826,-4811.338623,1608.800546
3448.410502,-10214.842000,-3182.885551,-766.095498
3448.410839,-8956.491898,-1850.514855,1149.143247
3448.411177,-9400.615463,-1110.308913,2987.772442
3448.411514,-9844.739029,-814.226536,1225.752797
3448.411852,-11843.295072,0.000000,-383.047749
3448.412189,-10807.006753,888.247130,-2221.676944
3448.412527,-8660.409521,-814.226536,-995.924147
3448.412864,-8364.327145,888.247130,306.438199
3448.413202,-10140.821405,0.000000,536.266849
3448.413539,-11029.068536,-518.144159,-229.828649
3448.413876,-8808.450710,222.061783,-1991.848295
3448.414214,-8438.347739,1924.535449,-459.657299
3448.414551,-11399.171507,1554.432478,-612.876398
3448.414889,-12287.418637,-444.123565,-2068.457845
3448.415226,-9992.780217,-1110.308913,-1838.629195
3448.415564,-7920.203579,1036.288319,612.876398
3448.415901,-8808.450710,2072.576638,3524.039291
3448.416239,-13619.789333,2516.700203,766.095498
3448.416576,-11917.315666,222.061783,-3294.210641
3448.416913,-9104.533087,-370.102971,-2374.896044
3448.417251,-8438.347739,-444.123565,1455.581446
3448.417588,-9030.512492,74.020594,2604.724693
3448.417926,-11029.068536,-1258.350101,1302.362347
3448.418263,-9474.636058,-518.144159,-459.657299
3448.418601,-7105.977043,1480.411884,995.924147
3448.418938,-10955.047942,2812.782580,3447.429741
3448.419276,-13249.686362,296.082377,2298.286494
3448.419613,-11843.295072,-1702.473667,0.000000
3448.419951,-7772.162391,-222.061783,1685.410096
3448.420288,-6661.853478,0.000000,3064.381992
3448.420625,-9622.677246,-74.020594,3370.820191
3448.420963,-11399.171507,-740.205942,-383.047749
3448.421300,-11251.130318,-1184.329507,-2681.334243
3448.421638,-10140.821405,518.144159,-1838.629195
3448.421975,-9474.636058,-148.041188,-459.657299
3448.422313,-10732.986159,-296.082377,-842.705048
3448.422650,-10584.944971,-2664.741391,-1685.410096
3448.422988,-8734.430116,-2220.617826,-459.657299
3448.423325,-8438.347739,-1628.453072,2068.457845
3448.423662,-11029.068536,-1924.535449,4290.134789
3448.424000,-13323.706956,-1850.514855,2298.286494
3448.424337,-11473.192101,-1480.411884,0.000000
3448.424675,-9770.718434,-592.164754,766.095498
3448.425012,-9474.636058,740.205942,2298.286494
3448.425350,-10214.842000,0.000000,995.924147
3448.425687,-11177.109724,444.123565,-1378.971896
3448.426025,-11029.068536,-370.102971,-1685.410096
3448.426362,-8586.388927,1480.411884,-612.876398
3448.426699,-8290.306550,2072.576638,612.876398
3448.427037,-10362.883188,888.247130,612.876398
3448.427374,-10658.965565,740.205942,-306.438199
3448.427712,-9474.636058,888.247130,-383.047749
3448.428049,-10214.842000,1628.453072,1762.019645
3448.428387,-9918.759623,666.185348,842.705048
3448.428724,-10510.924376,-740.205942,-842.705048
3448.429062,-8586.388927,-888.247130,-2757.943793
3448.429399,-7476.080014,0.000000,-1838.629195
3448.429737,-8216.285956,-962.267725,-459.657299
3448.430074,-9548.656652,-1036.288319,-1532.190996
3448.430411,-10288.862594,-888.247130,-3447.429741
3448.430749,-10658.965565,-888.247130,-1762.019645
3448.431086,-9474.636058,0.000000,536.266849
3448.431424,-8956.491898,666.185348,1685.410096
3448.431761,-11547.212695,-592.164754,459.657299
3448.432099,-11917.315666,-2442.679609,0.000000
3448.432436,-10288.862594,-1406.391290,3140.991542
3448.432774,-11251.130318,-222.061783,5669.106685
3448.433111,-9992.780217,-592.164754,2911.162892
3448.433448,-10732.986159,-1480.411884,-766.095498
3448.433786,-11103.089130,-518.144159,-1149.143247
3448.434123,-9622.677246,-444.123565,612.876398
3448.434461,-8364.327145,1110.308913,1455.581446
3448.434798,-11325.150913,-370.102971,0.000000
3448.435136,-11473.192101,-1480.411884,-2145.067394
3448.435473,-9178.553681,-1036.288319,-766.095498
3448.435811,-7624.121203,-296.082377,3217.601092
3448.436148,-9474.636058,-888.247130,3294.210641
3448.436485,-10214.842000,-2368.659014,0.000000
3448.436823,-9622.677246,-2442.679609,-383.047749
3448.437160,-9474.636058,-1554.432478,919.314598
3448.437498,-9918.759623,-740.205942,2298.286494
3448.437835,-9918.759623,-962.267725,766.095498
3448.438173,-8882.471304,-2072.576638,-612.876398
3448.438510,-8290.306550,-1628.453072,1685.410096
3448.438848,-10955.047942,2368.659014,4366.744339
3448.439185,-11769.274478,2442.679609,2834.553343
3448.439522,-14285.974681,1110.308913,1225.752797
3448.439860,-11917.315666,1924.535449,-1072.533697
3448.440197,-8364.327145,2368.659014,-1149.143247
3448.440535,-8660.409521,1332.370696,1532.190996
3448.440872,-9474.636058,-592.164754,689.485948
3448.441210,-10140.821405,888.247130,-1072.533697
3448.441547,-10658.965565,1480.411884,-3217.601092
3448.441885,-10807.006753,1258.350101,-1608.800546
3448.442222,-10288.862594,1776.494261,-1838.629195
3448.442560,-10066.800811,-592.164754,-2374.896044
3448.442897,-8438.347739,-814.226536,-2068.457845
3448.443234,-8290.306550,-740.205942,-842.705048
3448.443572,-8660.409521,-1554.432478,-842.705048
3448.443909,-9326.594869,-2886.803174,-1225.752797
3448.444247,-11399.171507,-2812.782580,0.000000
3448.444584,-10214.842000,-2738.761985,-689.485948
3448.444922,-8512.368333,-1776.494261,-842.705048
3448.445259,-8290.306550,-592.164754,-306.438199
3448.445597,-10584.944971,-2294.638420,383.047749
3448.445934,-11399.171507,-2220.617826,-766.095498
3448.446271,-10436.903782,-592.164754,153.219100
3448.446609,-10807.006753,-370.102971,2604.724693
3448.446946,-10807.006753,-666.185348,3064.381992
3448.447284,-10362.883188,-296.082377,1608.800546
3448.447621,-9400.615463,518.144159,1455.581446
3448.447959,-10140.821405,814.226536,2528.115143
3448.448296,-12139.377449,888.247130,1685.410096
3448.448634,-13397.727550,1036.288319,229.828649
3448.448971,-11029.068536,1480.411884,-995.924147
3448.449308,-8808.450710,1258.350101,0.000000
3448.449646,-8586.388927,2368.659014,306.438199
3448.449983,-9400.615463,1036.288319,-612.876398
3448.450321,-10214.842000,-370.102971,-689.485948
3448.450658,-9104.533087,-1036.288319,-842.705048
3448.450996,-7402.059420,0.000000,1302.362347
3448.451333,-9178.553681,1036.288319,3064.381992
3448.451671,-10510.924376,296.082377,2298.286494
3448.452008,-10288.862594,296.082377,306.438199
3448.452346,-9844.739029,740.205942,0.000000
3448.452683,-10066.800811,1036.288319,1302.362347
3448.453020,-8512.368333,518.144159,995.924147
3448.453358,-9696.697840,-1332.370696,536.266849
3448.453695,-10584.944971,-370.102971,612.876398
3448.454033,-7550.100608,-962.267725,0.000000
3448.454370,-8660.409521,0.000000,2451.505594
3448.454708,-10955.047942,-740.205942,1991.848295
3448.455045,-11843.295072,222.061783,306.438199
3448.455383,-10510.924376,592.164754,-459.657299
3448.455720,-11177.109724,1850.514855,76.609550
3448.456057,-11251.130318,222.061783,-995.924147
3448.456395,-11325.150913,-1554.432478,-2604.724693
3448.456732,-9326.594869,-1332.370696,-2068.457845
3448.457070,-8808.450710,-1702.473667,-689.485948
3448.457407,-9696.697840,-1332.370696,459.657299
3448.457745,-11547.212695,-1702.473667,-1685.410096
3448.458082,-11695.253884,-2368.659014,-2145.067394
3448.458420,-10436.903782,-1406.391290,-2528.115143
3448.458757,-8956.491898,-1184.329507,-1378.971896
3448.459094,-9622.677246,-1998.556043,1225.752797
3448.459432,-9992.780217,-2664.741391,766.095498
3448.459769,-9104.533087,-2886.803174,612.876398
3448.460107,-9178.553681,-370.102971,1378.971896
3448.460444,-9992.780217,296.082377,3140.991542
3448.460782,-11325.150913,0.000000,1072.533697
3448.461119,-10732.986159,-370.102971,306.438199
3448.461457,-8956.491898,592.164754,306.438199
3448.461794,-9474.636058,1110.308913,1532.190996
3448.462131,-10066.800811,2146.597232,1532.190996
3448.462469,-11621.233289,222.061783,306.438199
3448.462806,-10658.965565,370.102971,0.000000
3448.463144,-7624.121203,2738.761985,0.000000
3448.463481,-9548.656652,3256.906145,1915.238745
3448.463819,-12139.377449,1924.535449,0.000000
3448.464156,-12361.439231,-370.102971,-2757.943793
3448.464494,-9918.759623,370.102971,-2451.505594
3448.464831,-8216.285956,0.000000,0.000000
3448.465169,-8438.347739,-296.082377,1378.971896
3448.465506,-10881.027347,-1258.350101,1225.752797
3448.465843,-9548.656652,-1480.411884,0.000000
3448.466181,-9622.677246,0.000000,919.314598
3448.466518,-11325.150913,-740.205942,1915.238745
3448.466856,-10510.924376,-1332.370696,995.924147
3448.467193,-9696.697840,-2442.679609,383.047749
3448.467531,-8956.491898,-1406.391290,1072.533697
3448.467868,-8734.430116,-148.041188,1991.848295
3448.468206,-9622.677246,296.082377,1608.800546
3448.468543,-10881.027347,-1184.329507,459.657299
3448.468880,-11325.150913,-1406.391290,-612.876398
3448.469218,-9400.615463,-296.082377,306.438199
3448.469555,-9474.636058,518.144159,1532.190996
3448.469893,-10955.047942,-296.082377,1072.533697
3448.470230,-10881.027347,-1850.514855,-536.266849
3448.470568,-8438.347739,-814.226536,-766.095498
3448.470905,-8586.388927,-518.144159,842.705048
3448.471243,-10510.924376,0.000000,536.266849
3448.471580,-11991.336260,0.000000,-2298.286494
3448.471917,-12139.377449,-666.185348,-3677.258390
3448.472255,-8882.471304,-962.267725,-1532.190996
3448.472592,-9178.553681,74.020594,1455.581446
3448.472930,-10140.821405,0.000000,1455.581446
3448.473267,-11473.192101,-740.205942,612.876398
3448.473605,-10362.883188,0.000000,-919.314598
3448.473942,-9104.533087,-518.144159,1072.533697
3448.474280,-10807.006753,148.041188,2834.553343
3448.474617,-11473.192101,0.000000,1838.629195
3448.474955,-9400.615463,592.164754,-76.609550
3448.475292,-8882.471304,1924.535449,383.047749
3448.475629,-9696.697840,2738.761985,229.828649
3448.475967,-9844.739029,1332.370696,-612.876398
3448.476304,-11399.171507,0.000000,-459.657299
3448.476642,-10140.821405,-666.185348,-766.095498
3448.476979,-8438.347739,0.000000,306.438199
3448.477317,-7846.182985,0.000000,2068.457845
3448.477654,-9400.615463,-740.205942,1225.752797
3448.477992,-10140.821405,-1332.370696,306.438199
3448.478329,-11769.274478,-666.185348,76.609550
3448.478666,-10214.842000,666.185348,-1302.362347
3448.479004,-10288.862594,0.000000,-2145.067394
3448.479341,-10807.006753,-1406.391290,-3140.991542
3448.479679,-7179.997637,-2368.659014,-2987.772442
3448.480016,-6883.915261,-1184.329507,766.095498
3448.480354,-9770.718434,-444.123565,2451.505594
3448.480691,-12731.542202,-888.247130,842.705048
3448.481029,-14285.974681,-2368.659014,0.000000
3448.481366,-10881.027347,-3108.864956,1685.410096
3448.481703,-7328.038826,0.000000,4213.525239
3448.482041,-8586.388927,444.123565,4673.182538
3448.482378,-12287.418637,-444.123565,2834.553343
3448.482716,-12139.377449,0.000000,1225.752797
3448.483053,-9548.656652,1628.453072,-1072.533697
3448.483391,-9844.739029,1924.535449,306.438199
3448.483728,-10584.944971,222.061783,0.000000
3448.484066,-10066.800811,-1184.329507,-995.924147
3448.484403,-7698.141797,-666.185348,-229.828649
3448.484741,-6883.915261,740.205942,2221.676944
3448.485078,-10140.821405,1776.494261,2374.896044
3448.485415,-14211.954086,370.102971,-919.314598
3448.485753,-10955.047942,2294.638420,-4060.306139
3448.486090,-8142.265362,1702.473667,-2221.676944
3448.486428,-7179.997637,148.041188,612.876398
3448.486765,-8512.368333,-518.144159,536.266849
3448.487103,-11325.150913,-1406.391290,-919.314598
3448.487440,-9400.615463,148.041188,-2221.676944
3448.487778,-8364.327145,888.247130,-459.657299
3448.488115,-11325.150913,1110.308913,1532.190996
3448.488452,-11843.295072,444.123565,-1991.848295
3448.488790,-10807.006753,0.000000,-3370.820191
3448.489127,-8364.327145,2220.617826,-2145.067394
3448.489465,-8882.471304,1998.556043,0.000000
3448.489802,-11251.130318,1184.329507,-1072.533697
3448.490140,-11029.068536,222.061783,-2528.115143
3448.490477,-10214.842000,0.000000,-1302.362347
3448.490815,-9770.718434,370.102971,0.000000
3448.491152,-9918.759623,1258.350101,-689.485948
3448.491489,-10584.944971,1332.370696,-3677.258390
3448.491827,-11103.089130,148.041188,-4826.401637
3448.492164,-11103.089130,-296.082377,-3524.039291
3448.492502,-9030.512492,-666.185348,-2298.286494
3448.492839,-9474.636058,888.247130,-689.485948
3448.493177,-10510.924376,740.205942,-3753.867940
3448.493514,-10881.027347,-740.205942,-5515.887586
3448.493852,-8364.327145,-814.226536,-3217.601092
3448.494189,-7920.203579,-296.082377,0.000000
3448.494526,-10807.006753,1628.453072,766.095498
3448.494864,-13175.665768,1554.432478,-3064.381992
3448.495201,-11177.109724,0.000000,-3064.381992
3448.495539,-9326.594869,518.144159,536.266849
3448.495876,-7550.100608,1036.288319,3294.210641
3448.496214,-9326.594869,3775.050304,3294.210641
3448.496551,-12213.398043,3849.070898,-459.657299
3448.496889,-12657.521608,3701.029710,-2451.505594
3448.497226,-10955.047942,3404.947333,-1838.629195
3448.497563,-8660.409521,3182.885551,-919.314598
3448.497901,-8512.368333,3034.844362,-612.876398
3448.498238,-10066.800811,4367.215058,-1838.629195
3448.498576,-9178.553681,4145.153275,-4136.915689
3448.498913,-9548.656652,2812.782580,-1532.190996
3448.499251,-9252.574275,3330.926739,-766.095498
3448.499588,-11103.089130,2738.761985,-1915.238745
3448.499926,-12435.459826,2886.803174,-3217.601092
3448.500263,-9474.636058,1628.453072,-4826.401637
3448.500600,-7105.977043,518.144159,-1532.190996
3448.500938,-7476.080014,592.164754,689.485948
3448.501275,-9400.615463,814.226536,-1225.752797
3448.501613,-12213.398043,1628.453072,-2987.772442
3448.501950,-11325.150913,1258.350101,-3370.820191
3448.502288,-9178.553681,2590.720797,-2757.943793
3448.502625,-9918.759623,1110.308913,-306.438199
3448.502962,-10436.903782,1258.350101,-1072.533697
3448.503300,-9992.780217,1110.308913,-2221.676944
3448.503637,-11251.130318,2590.720797,-2298.286494
3448.503975,-10732.986159,1998.556043,-1991.848295
3448.504312,-9918.759623,666.185348,-2451.505594
3448.504650,-9622.677246,1036.288319,-2145.067394
3448.504987,-10436.903782,1628.453072,-1838.629195
3448.505325,-9918.759623,1850.514855,-1302.362347
3448.505662,-10510.924376,2294.638420,-2145.067394
3448.505999,-11843.295072,1480.411884,-3983.696590
3448.506337,-9252.574275,888.247130,-5209.449386
3448.506674,-9104.533087,0.000000,-2911.162892
3448.507012,-9696.697840,-222.061783,-536.266849
3448.507349,-8216.285956,592.164754,-1608.800546
3448.507687,-9252.574275,1258.350101,-2681.334243
3448.508024,-11991.336260,370.102971,-1838.629195
3448.508362,-11769.274478,1628.453072,-2221.676944
3448.508699,-10436.903782,2072.576638,-2298.286494
3448.509036,-9400.615463,1406.391290,-919.314598
3448.509374,-9252.574275,1554.432478,383.047749
3448.509711,-9770.718434,1480.411884,-1302.362347
3448.510049,-9400.615463,2590.720797,-459.657299
3448.510386,-10584.944971,3108.864956,153.219100
3448.510724,-11843.295072,2812.782580,-842.705048
3448.511061,-9918.759623,2886.803174,-1455.581446
3448.511398,-9178.553681,1480.411884,229.828649
3448.511736,-9474.636058,2590.720797,842.705048
3448.512073,-10140.821405,2220.617826,-2145.067394
3448.512411,-10362.883188,2812.782580,-2681.334243
3448.512748,-10066.800811,592.164754,-2374.896044
3448.513086,-8734.430116,1776.494261,-2604.724693
3448.513423,-8660.409521,1924.535449,-2757.943793
3448.513761,-9474.636058,1184.329507,-1608.800546
3448.514098,-11177.109724,148.041188,-2757.943793
3448.514435,-10510.924376,518.144159,-4443.353888
3448.514773,-9400.615463,2072.576638,-2757.943793
3448.515110,-10288.862594,814.226536,-1149.143247
3448.515448,-11251.130318,-148.041188,-2298.286494
3448.515785,-9400.615463,444.123565,-3830.477490
3448.516123,-8956.491898,0.000000,-2451.505594
3448.516460,-9252.574275,-814.226536,0.000000
3448.516798,-11399.171507,-370.102971,76.609550
3448.517135,-11325.150913,2294.638420,-1072.533697
3448.517472,-10584.944971,3034.844362,-1762.019645
3448.517810,-10955.047942,2738.761985,0.000000
3448.518147,-12065.356855,2146.597232,-766.095498
3448.518485,-9622.677246,2960.823768,-2604.724693
3448.518822,-8364.327145,3108.864956,-2681.334243
3448.519160,-8882.471304,2368.659014,-1302.362347
3448.519497,-11917.315666,962.267725,-919.314598
3448.519834,-10955.047942,1406.391290,-2528.115143
3448.520172,-7698.141797,3108.864956,-3294.210641
3448.520509,-8882.471304,3552.988522,-1685.410096
3448.520847,-11251.130318,2146.597232,-2987.772442
3448.521184,-11177.109724,1850.514855,-3600.648841
3448.521522,-7698.141797,2516.700203,-3753.867940
3448.521859,-7698.141797,2294.638420,-1532.190996
3448.522197,-10140.821405,2220.617826,-1225.752797
3448.522534,-11547.212695,222.061783,-383.047749
3448.522871,-8956.491898,370.102971,-612.876398
3448.523209,-7772.162391,1184.329507,0.000000
3448.523546,-11103.089130,3256.906145,459.657299
3448.523884,-12509.480420,2960.823768,-2451.505594
3448.524221,-11029.068536,1776.494261,-3217.601092
3448.524559,-8808.450710,2146.597232,-1532.190996
3448.524896,-9030.512492,2664.741391,-306.438199
3448.525234,-10732.986159,3627.009116,-1225.752797
3448.525571,-11473.192101,2590.720797,-3064.381992
3448.525908,-9178.553681,962.267725,-3064.381992
3448.526246,-9474.636058,814.226536,383.047749
3448.526583,-10955.047942,2146.597232,2221.676944
3448.526921,-11769.274478,2442.679609,-766.095498
3448.527258,-11917.315666,2146.597232,-4979.620737
3448.527596,-9918.759623,1480.411884,-5975.544884
3448.527933,-8290.306550,0.000000,-3370.820191
3448.528271,-8438.347739,0.000000,-153.219100
3448.528608,-10362.883188,-518.144159,-2374.896044
3448.528945,-9992.780217,444.123565,-5975.544884
3448.529283,-9400.615463,518.144159,-5362.668486
3448.529620,-8734.430116,-296.082377,-1838.629195
3448.529958,-9030.512492,-370.102971,-383.047749
3448.530295,-10732.986159,222.061783,689.485948
3448.530633,-12065.356855,1332.370696,766.095498
3448.530970,-11103.089130,2664.741391,76.609550
3448.531307,-10732.986159,2886.803174,-306.438199
3448.531645,-10066.800811,2516.700203,-1072.533697
3448.531982,-9844.739029,2590.720797,-2221.676944
3448.532320,-9918.759623,2590.720797,-2757.943793
3448.532657,-8808.450710,1998.556043,-1072.533697
3448.532995,-8438.347739,1850.514855,-1225.752797
3448.533332,-10510.924376,3330.926739,-1685.410096
3448.533670,-11843.295072,4663.297435,-3600.648841
3448.534007,-10732.986159,4367.215058,-4519.963438
3448.534344,-10807.006753,3701.029710,-3064.381992
3448.534682,-9622.677246,1924.535449,-2757.943793
3448.535019,-7402.059420,2368.659014,-3217.601092
3448.535357,-7772.162391,518.144159,-1455.581446
3448.535694,-9474.636058,0.000000,0.000000
3448.536032,-10881.027347,-962.267725,-153.219100
3448.536369,-10658.965565,666.185348,-1302.362347
3448.536707,-9770.718434,1776.494261,-2604.724693
3448.537044,-10140.821405,1850.514855,-2681.334243
3448.537381,-10881.027347,1036.288319,-3370.820191
3448.537719,-9326.594869,1110.308913,-4290.134789
3448.538056,-8290.306550,1332.370696,-2528.115143
3448.538394,-9474.636058,1850.514855,-842.705048
3448.538731,-10658.965565,1406.391290,-1302.362347
3448.539069,-10807.006753,962.267725,-612.876398
3448.539406,-9696.697840,1036.288319,995.924147
3448.539743,-10732.986159,888.247130,2987.772442
3448.540081,-13027.624579,2738.761985,1378.971896
3448.540418,-12657.521608,3627.009116,-1838.629195
3448.540756,-10881.027347,3330.926739,-4903.011187
3448.541093,-9252.574275,1924.535449,-3983.696590
3448.541431,-9030.512492,666.185348,-2757.943793
3448.541768,-8364.327145,1110.308913,-2987.772442
3448.542106,-8438.347739,1406.391290,-4136.915689
3448.542443,-9400.615463,1480.411884,-3830.477490
3448.542780,-10807.006753,370.102971,-2374.896044
3448.543118,-10955.047942,1998.556043,-995.924147
3448.543455,-11029.068536,1998.556043,0.000000
3448.543793,-10362.883188,2516.700203,-459.657299
3448.544130,-9622.677246,1998.556043,-612.876398
3448.544468,-9178.553681,2220.617826,766.095498
3448.544805,-8290.306550,1628.453072,919.314598
3448.545143,-8882.471304,888.247130,383.047749
3448.545480,-10584.944971,2146.597232,153.219100
3448.545817,-9992.780217,3034.844362,-919.314598
3448.546155,-9696.697840,2812.782580,-1455.581446
3448.546492,-10140.821405,3256.906145,-2221.676944
3448.546830,-10214.842000,4145.153275,-2374.896044
3448.547167,-11547.212695,4663.297435,-3064.381992
3448.547505,-10658.965565,3923.091493,-4443.353888
3448.547842,-8956.491898,2590.720797,-3677.258390
3448.548179,-8512.368333,1258.350101,-2834.553343
3448.548517,-8438.347739,0.000000,-1762.019645
3448.548854,-9400.615463,222.061783,-2068.457845
3448.549192,-10140.821405,74.020594,-2451.505594
3448.549529,-10658.965565,814.226536,-3753.867940
3448.549867,-11251.130318,666.185348,-3140.991542
3448.550204,-10881.027347,518.144159,-2757.943793
3448.550542,-10584.944971,518.144159,-3140.991542
3448.550879,-9992.780217,222.061783,-2604.724693
3448.551216,-8734.430116,-296.082377,-1532.190996
3448.551554,-8660.409521,-666.185348,153.219100
3448.551891,-10066.800811,-740.205942,383.047749
3448.552229,-10881.027347,222.061783,689.485948
3448.552566,-11325.150913,666.185348,229.828649
3448.552904,-11325.150913,222.061783,689.485948
3448.553241,-10955.047942,1480.411884,1302.362347
3448.553579,-10362.883188,1480.411884,536.266849
3448.553916,-10362.883188,2146.597232,76.609550
3448.554253,-9992.780217,1850.514855,-1532.190996
3448.554591,-9178.553681,2294.638420,-2298.286494
3448.554928,-8882.471304,2442.679609,-2681.334243
3448.555266,-9400.615463,1850.514855,-2757.943793
3448.555603,-10066.800811,2294.638420,-3677.258390
3448.555941,-9770.718434,1776.494261,-3217.601092
3448.556278,-10214.842000,2590.720797,-3140.991542
3448.556616,-9770.718434,2220.617826,-3753.867940
3448.556953,-9548.656652,1702.473667,-3753.867940
3448.557290,-9548.656652,1628.453072,-3830.477490
3448.557628,-9030.512492,1554.432478,-3524.039291
3448.557965,-8882.471304,1850.514855,-1838.629195
3448.558303,-9548.656652,1332.370696,-1915.238745
3448.558640,-9696.697840,2220.617826,-1915.238745
3448.558978,-10732.986159,2738.761985,-1455.581446
3448.559315,-10732.986159,3330.926739,-1991.848295
3448.559652,-10658.965565,3182.885551,-1915.238745
3448.559990,-10362.883188,2738.761985,-2298.286494
3448.560327,-9622.677246,2886.803174,-2604.724693
3448.560665,-9474.636058,2664.741391,-1838.629195
3448.561002,-9918.759623,2294.638420,-1072.533697
3448.561340,-10436.903782,2368.659014,-1608.800546
3448.561677,-10584.944971,2886.803174,-2221.676944
3448.562015,-10732.986159,3997.112087,-3064.381992
3448.562352,-10436.903782,4293.194464,-4443.353888
3448.562689,-10510.924376,2664.741391,-3677.258390
3448.563027,-9104.533087,1480.411884,-2987.772442
3448.563364,-9030.512492,1258.350101,-766.095498
3448.563702,-10510.924376,1702.473667,-766.095498
3448.564039,-10732.986159,1406.391290,-1685.410096
3448.564377,-10214.842000,962.267725,-2451.505594
3448.564714,-9178.553681,296.082377,-1685.410096
3448.565052,-9770.718434,1036.288319,689.485948
3448.565389,-10362.883188,1184.329507,-306.438199
3448.565726,-9918.759623,3034.844362,-1991.848295
3448.566064,-9844.739029,2442.679609,-1991.848295
3448.566401,-9474.636058,2072.576638,0.000000
3448.566739,-9770.718434,2220.617826,1225.752797
3448.567076,-10584.944971,2294.638420,2145.067394
3448.567414,-9844.739029,3256.906145,1302.362347
3448.567751,-10955.047942,3404.947333,536.266849
3448.568088,-11843.295072,3478.967927,0.000000
3448.568426,-9474.636058,4367.215058,-2145.067394
3448.568763,-9104.533087,4219.173869,-2604.724693
3448.569101,-9844.739029,3256.906145,-3370.820191
3448.569438,-10140.821405,2368.659014,-3217.601092
3448.569776,-8808.450710,1184.329507,-2987.772442
3448.570113,-8364.327145,1258.350101,-1685.410096
3448.570451,-10510.924376,3034.844362,-612.876398
3448.570788,-12953.603985,2368.659014,-4290.134789
3448.571125,-10658.965565,1924.535449,-6665.030833
3448.571463,-7624.121203,592.164754,-4366.744339
3448.571800,-7624.121203,-296.082377,-383.047749
3448.572138,-9474.636058,0.000000,-306.438199
3448.572475,-10584.944971,-592.164754,-2451.505594
3448.572813,-10732.986159,222.061783,-2604.724693
3448.573150,-10066.800811,74.020594,-2528.115143
3448.573488,-9844.739029,592.164754,-2604.724693
3448.573825,-9622.677246,370.102971,-1608.800546
3448.574162,-10066.800811,74.020594,-1455.581446
3448.574500,-9474.636058,518.144159,-689.485948
3448.574837,-11251.130318,2590.720797,-1225.752797
3448.575175,-11029.068536,2294.638420,-2451.505594
3448.575512,-10436.903782,1850.514855,-3830.477490
3448.575850,-10140.821405,370.102971,-2221.676944
3448.576187,-9400.615463,222.061783,-2068.457845
3448.576524,-9474.636058,-370.102971,-919.314598
3448.576862,-10362.883188,1184.329507,-1685.410096
3448.577199,-10436.903782,1406.391290,-3677.258390
3448.577537,-11843.295072,1628.453072,-3983.696590
3448.577874,-11103.089130,888.247130,-2451.505594
3448.578212,-9030.512492,1036.288319,-689.485948
3448.578549,-9474.636058,2220.617826,-1072.533697
3448.578887,-10066.800811,2812.782580,-2834.553343
3448.579224,-9252.574275,2072.576638,-2757.943793
3448.579561,-9252.574275,962.267725,-1532.190996
3448.579899,-9992.780217,222.061783,1302.362347
3448.580236,-10362.883188,1036.288319,995.924147
3448.580574,-9622.677246,3701.029710,1149.143247
3448.580911,-10584.944971,2738.761985,383.047749
3448.581249,-10658.965565,2220.617826,-689.485948
3448.581586,-10066.800811,3775.050304,-536.266849
3448.581924,-10214.842000,4885.359217,-536.266849
3448.582261,-10288.862594,5847.626942,-1838.629195
3448.582598,-10881.027347,3552.988522,-3370.820191
3448.582936,-8364.327145,1554.432478,-4443.353888
3448.583273,-7031.956449,592.164754,-1455.581446
3448.583611,-8808.450710,2146.597232,229.828649
3448.583948,-11621.233289,1554.432478,-842.705048
3448.584286,-12435.459826,962.267725,-3447.429741
3448.584623,-10066.800811,2442.679609,-3677.258390
3448.584961,-8586.388927,3478.967927,-2911.162892
3448.585298,-10436.903782,2368.659014,-2068.457845
3448.585635,-11917.315666,888.247130,-3524.039291
3448.585973,-10140.821405,-222.061783,-3677.258390
3448.586310,-6587.832884,666.185348,-2451.505594
3448.586648,-8438.347739,370.102971,0.000000
3448.586985,-13767.830521,74.020594,153.219100
3448.587323,-12213.398043,0.000000,-3983.696590
3448.587660,-9178.553681,1036.288319,-4136.915689
3448.587997,-8068.244768,2072.576638,-842.705048
3448.588335,-11029.068536,1702.473667,1608.800546
3448.588672,-11547.212695,2516.700203,-1149.143247
3448.589010,-10584.944971,3256.906145,-2068.457845
3448.589347,-10658.965565,3849.070898,-689.485948
3448.589685,-12583.501014,2664.741391,-995.924147
3448.590022,-11325.150913,2812.782580,-3524.039291
3448.590360,-8068.244768,2220.617826,-4366.744339
3448.590697,-7772.162391,1036.288319,-2374.896044
3448.591034,-8438.347739,1258.350101,-2451.505594
3448.591372,-9474.636058,1554.432478,-2374.896044
3448.591709,-9844.739029,3330.926739,-2221.676944
3448.592047,-10955.047942,2960.823768,-4290.134789
3448.592384,-11325.150913,4293.194464,-4443.353888
3448.592722,-9326.594869,2072.576638,-3140.991542
3448.593059,-7698.141797,1406.391290,76.609550
3448.593397,-8512.368333,1036.288319,-306.438199
3448.593734,-9622.677246,1258.350101,-536.266849
3448.594071,-10510.924376,2294.638420,-842.705048
3448.594409,-11399.171507,1702.473667,-1302.362347
3448.594746,-11325.150913,1924.535449,-2374.896044
3448.595084,-10066.800811,1998.556043,-2221.676944
3448.595421,-10066.800811,1406.391290,-459.657299
3448.595759,-9992.780217,2442.679609,842.705048
3448.596096,-10510.924376,2072.576638,-1072.533697
3448.596433,-10140.821405,2664.741391,-2604.724693
3448.596771,-10584.944971,1924.535449,-2451.505594
3448.597108,-10288.862594,444.123565,-766.095498
3448.597446,-9474.636058,0.000000,-1532.190996
3448.597783,-8586.388927,-370.102971,-1762.019645
3448.598121,-10955.047942,74.020594,-1225.752797
3448.598458,-10955.047942,666.185348,-3600.648841
3448.598795,-10436.903782,0.000000,-5439.278036
3448.599133,-9844.739029,-814.226536,-3983.696590
3448.599470,-8882.471304,-740.205942,-1225.752797
3448.599808,-8512.368333,-222.061783,-689.485948
3448.600145,-9474.636058,222.061783,-995.924147
3448.600483,-10214.842000,814.226536,-1915.238745
3448.600820,-11473.192101,518.144159,-2451.505594
3448.601157,-11029.068536,592.164754,-995.924147
3448.601495,-9622.677246,-444.123565,306.438199
3448.601832,-9252.574275,1184.329507,995.924147
3448.602170,-9474.636058,3034.844362,-1762.019645
3448.602507,-10436.903782,3108.864956,-3370.820191
3448.602845,-10955.047942,3404.947333,-3217.601092
3448.603182,-10732.986159,3034.844362,-1225.752797
3448.603520,-9844.739029,3849.070898,536.266849
3448.603857,-10214.842000,4071.132681,459.657299
3448.604194,-11399.171507,3997.112087,-1991.848295
3448.604532,-9844.739029,3552.988522,-3294.210641
3448.604869,-8956.491898,2072.576638,-3294.210641
3448.605207,-8216.285956,888.247130,-1149.143247
3448.605544,-8734.430116,1850.514855,306.438199
3448.605882,-10140.821405,3404.947333,-1915.238745
3448.606219,-10214.842000,1776.494261,-5898.935335
3448.606556,-9474.636058,1184.329507,-5132.839837
3448.606894,-9030.512492,148.041188,-2757.943793
3448.607231,-9696.697840,0.000000,766.095498
3448.607569,-8956.491898,1628.453072,229.828649
3448.607906,-9548.656652,1036.288319,-1608.800546
3448.608244,-10732.986159,0.000000,-306.438199
3448.608581,-10881.027347,-1110.308913,0.000000
3448.608918,-10658.965565,-296.082377,2068.457845
3448.609256,-9400.615463,1110.308913,153.219100
3448.609593,-9622.677246,1184.329507,-1685.410096
3448.609931,-12287.418637,592.164754,-766.095498
3448.610268,-11621.233289,1036.288319,-995.924147
3448.610606,-10658.965565,2516.700203,-766.095498
3448.610943,-11325.150913,2886.803174,-1225.752797
3448.611280,-10881.027347,1480.411884,-2451.505594
3448.611618,-10658.965565,-1480.411884,-2145.067394
3448.611955,-9104.533087,-1850.514855,229.828649
3448.612293,-8068.244768,222.061783,1302.362347
3448.612630,-9992.780217,1332.370696,-459.657299
3448.612968,-11695.253884,814.226536,-4903.011187
3448.613305,-11029.068536,-1628.453072,-4903.011187
3448.613643,-7846.182985,-1332.370696,-766.095498
3448.613980,-7179.997637,370.102971,2145.067394
3448.614317,-10362.883188,2220.617826,1378.971896
3448.614655,-12213.398043,0.000000,-2298.286494
3448.614992,-10066.800811,0.000000,-3447.429741
3448.615330,-7772.162391,-740.205942,766.095498
3448.615667,-7624.121203,814.226536,4903.011187
3448.616005,-9400.615463,1776.494261,3064.381992
3448.616342,-11621.233289,1332.370696,-766.095498
3448.616679,-10658.965565,1184.329507,-1915.238745
3448.617017,-10732.986159,1480.411884,1685.410096
3448.617354,-9844.739029,2368.659014,3524.039291
3448.617692,-9992.780217,3330.926739,306.438199
3448.618029,-12065.356855,1702.473667,-1225.752797
3448.618367,-10436.903782,1184.329507,-2068.457845
3448.618704,-6957.935855,148.041188,0.000000
3448.619041,-8882.471304,814.226536,2068.457845
3448.619379,-11695.253884,0.000000,76.609550
3448.619716,-11177.109724,-1332.370696,-2604.724693
3448.620054,-9030.512492,-2220.617826,-1302.362347
3448.620391,-7328.038826,-1702.473667,459.657299
3448.620729,-9178.553681,-592.164754,689.485948
3448.621066,-12879.583391,-2072.576638,-766.095498
3448.621403,-10955.047942,-3478.967927,-2528.115143
3448.621741,-7994.224174,-2960.823768,459.657299
3448.622078,-7402.059420,-1850.514855,3447.429741
3448.622416,-11177.109724,-2368.659014,4136.915689
3448.622753,-12065.356855,-3256.906145,1302.362347
3448.623091,-11029.068536,-2812.782580,995.924147
3448.623428,-10066.800811,-1924.535449,3447.429741
3448.623765,-9548.656652,0.000000,4290.134789
3448.624103,-11473.192101,-1184.329507,1149.143247
3448.624440,-12361.439231,-1924.535449,-1532.190996
3448.624778,-9326.594869,-1258.350101,-919.314598
3448.625115,-8290.306550,1110.308913,1225.752797
3448.625453,-9770.718434,1110.308913,995.924147
3448.625790,-11547.212695,592.164754,-1302.362347
3448.626128,-12509.480420,-1184.329507,-1072.533697
3448.626465,-10140.821405,740.205942,229.828649
3448.626802,-8216.285956,592.164754,1378.971896
3448.627140,-10214.842000,666.185348,1532.190996
3448.627477,-9992.780217,-1998.556043,-2681.334243
3448.627815,-10362.883188,-1998.556043,-2604.724693
3448.628152,-8216.285956,-888.247130,689.485948
3448.628490,-8586.388927,222.061783,2681.334243
3448.628827,-10510.924376,1850.514855,842.705048
3448.629164,-10288.862594,1554.432478,-2604.724693
3448.629502,-8660.409521,1480.411884,-2298.286494
3448.629839,-9104.533087,0.000000,1532.190996
3448.630177,-10584.944971,370.102971,2681.334243
3448.630514,-11399.171507,-592.164754,1455.581446
3448.630852,-10881.027347,-518.144159,306.438199
3448.631189,-7031.956449,444.123565,153.219100
3448.631526,-8586.388927,1406.391290,1225.752797
3448.631864,-10881.027347,1480.411884,536.266849
3448.632201,-11399.171507,-740.205942,-2221.676944
3448.632539,-10214.842000,0.000000,-1838.629195
3448.632876,-9622.677246,0.000000,-229.828649
3448.633214,-10140.821405,0.000000,1302.362347
3448.633551,-9474.636058,-1776.494261,-1608.800546
3448.633888,-9400.615463,-1924.535449,-1915.238745
3448.634226,-9474.636058,-1332.370696,-383.047749
3448.634563,-9548.656652,-740.205942,1225.752797
3448.634901,-11251.130318,-888.247130,306.438199
3448.635238,-11769.274478,-2664.741391,-1072.533697
3448.635576,-11621.233289,-444.123565,-842.705048
3448.635913,-7994.224174,222.061783,153.219100
3448.636250,-9474.636058,74.020594,2987.772442
3448.636588,-12139.377449,-2664.741391,1072.533697
3448.636925,-10955.047942,-3182.885551,-689.485948
3448.637263,-8364.327145,-370.102971,2451.505594
3448.637600,-7846.182985,444.123565,4060.306139
3448.637938,-11843.295072,1110.308913,3753.867940
3448.638275,-13545.768739,1628.453072,-1072.533697
3448.638613,-10732.986159,592.164754,0.000000
3448.638950,-9104.533087,1332.370696,2298.286494
3448.639287,-9252.574275,2294.638420,2987.772442
3448.639625,-10436.903782,740.205942,-153.219100
3448.639962,-10066.800811,-296.082377,-2451.505594
3448.640300,-7402.059420,74.020594,-536.266849
3448.640637,-7920.203579,1554.432478,1915.238745
3448.640975,-10584.944971,518.144159,1455.581446
3448.641312,-11029.068536,666.185348,-1685.410096
3448.641649,-10436.903782,0.000000,-1991.848295
3448.641987,-9104.533087,0.000000,-459.657299
3448.642324,-9252.574275,296.082377,766.095498
3448.642662,-10288.862594,0.000000,842.705048
3448.642999,-9474.636058,-2146.597232,-1838.629195
3448.643337,-9252.574275,-3182.885551,229.828649
3448.643674,-9104.533087,-666.185348,2987.772442
3448.644011,-9178.553681,-518.144159,3217.601092
3448.644349,-11843.295072,-1258.350101,1072.533697
3448.644686,-11843.295072,-1184.329507,-919.314598
3448.645024,-10066.800811,0.000000,0.000000
3448.645361,-10066.800811,0.000000,1455.581446
3448.645699,-10362.883188,-222.061783,306.438199
3448.646036,-11177.109724,-2220.617826,0.000000
3448.646373,-10214.842000,-962.267725,-1455.581446
3448.646711,-8142.265362,0.000000,-689.485948
3448.647048,-11325.150913,-1036.288319,1225.752797
3448.647386,-11991.336260,-1924.535449,-1608.800546
3448.647723,-10584.944971,-3034.844362,-3064.381992
3448.648061,-8586.388927,-1480.411884,-306.438199
3448.648398,-7476.080014,-1332.370696,766.095498
3448.648736,-10584.944971,-1628.453072,306.438199
3448.649073,-11917.315666,-1332.370696,-2221.676944
3448.649410,-9918.759623,-1332.370696,-1762.019645
3448.649748,-9104.533087,-1554.432478,919.314598
3448.650085,-8512.368333,-1850.514855,1302.362347
3448.650423,-9622.677246,-1184.329507,2374.896044
3448.650760,-10288.862594,-1332.370696,1302.362347
3448.651098,-9030.512492,1184.329507,612.876398
3448.651435,-11103.089130,1924.535449,1149.143247
3448.651772,-10955.047942,2368.659014,1991.848295
3448.652110,-9696.697840,1776.494261,612.876398
3448.652447,-10066.800811,1554.432478,383.047749
3448.652785,-9104.533087,2368.659014,919.314598
3448.653122,-9770.718434,1850.514855,1455.581446
3448.653460,-11029.068536,1480.411884,383.047749
3448.653797,-10362.883188,0.000000,-612.876398
3448.654134,-9992.780217,666.185348,229.828649
3448.654472,-9622.677246,1036.288319,2374.896044
3448.654809,-10658.965565,222.061783,1302.362347
3448.655147,-9622.677246,74.020594,-1532.190996
3448.655484,-9030.512492,-222.061783,-2987.772442
3448.655822,-8882.471304,-370.102971,-766.095498
3448.656159,-10436.903782,-1036.288319,229.828649
3448.656496,-10140.821405,-2442.679609,-229.828649
3448.656834,-10288.862594,-2072.576638,306.438199
3448.657171,-9326.594869,-1554.432478,842.705048
3448.657509,-9326.594869,-370.102971,1532.190996
3448.657846,-9844.739029,-1628.453072,2145.067394
3448.658184,-11399.171507,-1850.514855,995.924147
3448.658521,-11917.315666,-888.247130,76.609550
3448.658858,-10140.821405,-518.144159,-612.876398
3448.659196,-9252.574275,-370.102971,842.705048
3448.659533,-10584.944971,-1184.329507,1685.410096
3448.659871,-10510.924376,-518.144159,1532.190996
3448.660208,-10214.842000,-888.247130,1838.629195
3448.660546,-11251.130318,518.144159,2911.162892
3448.660883,-11621.233289,0.000000,229.828649
3448.661221,-10955.047942,518.144159,-1302.362347
3448.661558,-11695.253884,74.020594,-383.047749
3448.661895,-9992.780217,-148.041188,-1378.971896
3448.662233,-9030.512492,1332.370696,-1838.629195
3448.662570,-9474.636058,222.061783,-2528.115143
3448.662908,-10288.862594,-2072.576638,-2451.505594
3448.663245,-8290.306550,-1628.453072,-1838.629195
3448.663583,-7402.059420,296.082377,459.657299
3448.663920,-10510.924376,1480.411884,2528.115143
3448.664257,-11843.295072,-370.102971,536.266849
3448.664595,-10732.986159,0.000000,-383.047749
3448.664932,-8586.388927,666.185348,1072.533697
3448.665270,-8586.388927,1036.288319,3140.991542
3448.665607,-10807.006753,444.123565,1608.800546
3448.665945,-11103.089130,-222.061783,153.219100
3448.666282,-7846.182985,888.247130,-1838.629195
3448.666619,-7476.080014,814.226536,0.000000
3448.666957,-10807.006753,-444.123565,2528.115143
3448.667294,-11399.171507,-888.247130,0.000000
3448.667632,-12065.356855,-296.082377,-459.657299
3448.667969,-9030.512492,1776.494261,0.000000
3448.668307,-9252.574275,1406.391290,1762.019645
3448.668644,-11917.315666,-444.123565,1532.190996
3448.668981,-11251.130318,-3108.864956,-2221.676944
3448.669319,-8512.368333,-2368.659014,-995.924147
3448.669656,-7772.162391,-2072.576638,612.876398
3448.669994,-10214.842000,-2220.617826,536.266849
3448.670331,-11695.253884,-3478.967927,-536.266849
3448.670669,-9844.739029,-2738.761985,-1072.533697
3448.671006,-7994.224174,-1110.308913,383.047749
3448.671343,-11251.130318,-1110.308913,2834.553343
3448.671681,-12879.583391,-1036.288319,2451.505594
3448.672018,-12139.377449,-2738.761985,0.000000
3448.672356,-10362.883188,-2072.576638,995.924147
3448.672693,-8438.347739,-370.102971,4673.182538
3448.673031,-8512.368333,888.247130,3524.039291
3448.673368,-10807.006753,148.041188,229.828649
3448.673706,-11399.171507,-1036.288319,-229.828649
3448.674043,-11769.274478,1036.288319,306.438199
3448.674380,-9992.780217,2072.576638,842.705048
3448.674718,-10140.821405,1110.308913,76.609550
3448.675055,-9400.615463,444.123565,-1838.629195
3448.675393,-8660.409521,-592.164754,-1225.752797
3448.675730,-7846.182985,1110.308913,1302.362347
3448.676068,-9326.594869,444.123565,2221.676944
3448.676405,-11399.171507,74.020594,-612.876398
3448.676742,-11547.212695,-296.082377,-3677.258390
3448.677080,-8956.491898,0.000000,-1915.238745
3448.677417,-6661.853478,888.247130,1532.190996
3448.677755,-9326.594869,74.020594,1608.800546
3448.678092,-11843.295072,-296.082377,-1302.362347
3448.678430,-11695.253884,-1258.350101,-2834.553343
3448.678767,-9326.594869,-296.082377,-766.095498
3448.679104,-8216.285956,222.061783,1915.238745
3448.679442,-11177.109724,-148.041188,1608.800546
3448.679779,-11325.150913,-592.164754,-1225.752797
3448.680117,-8734.430116,-1036.288319,-306.438199
3448.680454,-9178.553681,-444.123565,3217.601092
3448.680792,-11843.295072,-666.185348,2987.772442
3448.681129,-12065.356855,740.205942,919.314598
3448.681466,-11325.150913,-444.123565,-1991.848295
3448.681804,-9326.594869,296.082377,-1608.800546
3448.682141,-9400.615463,1184.329507,-842.705048
3448.682479,-10584.944971,-148.041188,-229.828649
3448.682816,-10214.842000,-2442.679609,-1838.629195
3448.683154,-8956.491898,-2960.823768,-1532.190996
3448.683491,-7846.182985,-444.123565,1225.752797
3448.683829,-9918.759623,-814.226536,2374.896044
3448.684166,-12139.377449,-1924.535449,1762.019645
3448.684503,-11251.130318,-2516.700203,76.609550
3448.684841,-9474.636058,-1184.329507,995.924147
3448.685178,-8290.306550,518.144159,2834.553343
3448.685516,-10807.006753,148.041188,2528.115143
3448.685853,-11177.109724,74.020594,-919.314598
3448.686191,-9474.636058,-370.102971,-1685.410096
3448.686528,-7920.203579,2294.638420,1378.971896
3448.686865,-9474.636058,2590.720797,3217.601092
3448.687203,-11547.212695,740.205942,2068.457845
3448.687540,-11621.233289,-518.144159,1149.143247
3448.687878,-9696.697840,2146.597232,2451.505594
3448.688215,-8586.388927,3775.050304,3600.648841
3448.688553,-11325.150913,2738.761985,1838.629195
3448.688890,-11917.315666,74.020594,-1838.629195
3448.689227,-10362.883188,-666.185348,-1455.581446
3448.689565,-7624.121203,518.144159,0.000000
3448.689902,-7772.162391,740.205942,1532.190996
3448.690240,-10584.944971,-518.144159,-689.485948
3448.690577,-10214.842000,-2072.576638,-4213.525239
3448.690915,-7772.162391,-2960.823768,-2451.505594
3448.691252,-7994.224174,-1628.453072,2451.505594
3448.691589,-9474.636058,-888.247130,1915.238745
3448.691927,-11251.130318,-1850.514855,-1302.362347
3448.692264,-11177.109724,-2220.617826,-3447.429741
3448.692602,-7920.203579,-2664.741391,-919.314598
3448.692939,-9252.574275,-1776.494261,3217.601092
3448.693277,-11843.295072,-2442.679609,3830.477490
3448.693614,-13397.727550,-3256.906145,1378.971896
3448.693951,-11177.109724,-1850.514855,0.000000
3448.694289,-9548.656652,518.144159,1532.190996
3448.694626,-11399.171507,814.226536,3294.210641
3448.694964,-13323.706956,0.000000,-76.609550
3448.695301,-11917.315666,-1332.370696,-3294.210641
3448.695639,-8808.450710,-666.185348,-1991.848295
3448.695976,-8142.265362,518.144159,2145.067394
3448.696314,-10584.944971,296.082377,1455.581446
3448.696651,-10732.986159,-518.144159,-2221.676944
3448.696988,-9030.512492,592.164754,-2374.896044
3448.697326,-9844.739029,518.144159,383.047749
3448.697663,-9548.656652,1480.411884,842.705048
3448.698001,-10362.883188,-518.144159,-383.047749
3448.698338,-10140.821405,-1702.473667,-919.314598
3448.698676,-8142.265362,-888.247130,0.000000
3448.699013,-6735.874072,814.226536,1915.238745
3448.699351,-9030.512492,0.000000,2298.286494
3448.699688,-10510.924376,-148.041188,-459.657299
3448.700026,-9770.718434,740.205942,-1455.581446
3448.700363,-8956.491898,888.247130,1455.581446
3448.700701,-10066.800811,2220.617826,3370.820191
3448.701038,-11621.233289,1850.514855,2298.286494
3448.701375,-11547.212695,222.061783,1072.533697
3448.701713,-9844.739029,0.000000,2068.457845
3448.702050,-9326.594869,370.102971,3830.477490
3448.702388,-10362.883188,1702.473667,3217.601092
3448.702725,-11547.212695,-74.020594,76.609550
3448.703063,-11325.150913,-222.061783,-2221.676944
3448.703400,-8808.450710,0.000000,-2604.724693
3448.703738,-8660.409521,962.267725,536.266849
3448.704075,-10732.986159,0.000000,229.828649
3448.704413,-11917.315666,-1628.453072,-2451.505594
3448.704750,-10140.821405,-1850.514855,-3294.210641
3448.705087,-8734.430116,-1332.370696,689.485948
3448.705425,-10436.903782,-2294.638420,2451.505594
3448.705762,-10584.944971,-1480.411884,0.000000
3448.706100,-9844.739029,-3923.091493,-153.219100
3448.706437,-8438.347739,-2146.597232,919.314598
3448.706775,-8586.388927,-1406.391290,1915.238745
3448.707112,-11621.233289,0.000000,2451.505594
3448.707450,-13619.789333,-1332.370696,-1302.362347
3448.707787,-10807.006753,-740.205942,-1991.848295
3448.708125,-7254.018232,0.000000,-76.609550
3448.708462,-7698.141797,74.020594,3447.429741
3448.708799,-11177.109724,-740.205942,2911.162892
3448.709137,-11917.315666,-1184.329507,229.828649
3448.709474,-10066.800811,1332.370696,-536.266849
3448.709812,-7846.182985,1702.473667,2604.724693
3448.710149,-12953.603985,2886.803174,1838.629195
3448.710487,-11325.150913,1776.494261,-1991.848295
3448.710824,-9622.677246,0.000000,-3983.696590
3448.711162,-8956.491898,370.102971,-536.266849
3448.711499,-8808.450710,888.247130,0.000000
3448.711837,-9548.656652,1110.308913,-1378.971896
3448.712174,-10510.924376,-962.267725,-2604.724693
3448.712512,-8956.491898,-666.185348,-1149.143247
3448.712849,-9326.594869,888.247130,842.705048
3448.713186,-11547.212695,0.000000,919.314598
3448.713524,-9696.697840,-1702.473667,-459.657299
3448.713861,-10807.006753,-2146.597232,-306.438199
3448.714199,-8808.450710,-592.164754,3140.991542
3448.714536,-8956.491898,444.123565,3217.601092
3448.714874,-11769.274478,222.061783,2221.676944
3448.715211,-11843.295072,-1628.453072,-153.219100
3448.715549,-9992.780217,-1184.329507,-919.314598
3448.715886,-7402.059420,518.144159,1072.533697
3448.716224,-9030.512492,148.041188,1915.238745
3448.716561,-11029.068536,-592.164754,919.314598
3448.716898,-11843.295072,-2368.659014,-1532.190996
3448.717236,-9770.718434,-444.123565,-459.657299
3448.717573,-7920.203579,1036.288319,1608.800546
3448.717911,-10066.800811,74.020594,2298.286494
3448.718248,-12879.583391,-1776.494261,-995.924147
3448.718586,-9992.780217,-3404.947333,-1838.629195
3448.718923,-7846.182985,-1184.329507,1302.362347
3448.719261,-9474.636058,-370.102971,3217.601092
3448.719598,-11843.295072,-296.082377,1149.143247
3448.719936,-13249.686362,-962.267725,-1455.581446
3448.720273,-10066.800811,-962.267725,-1608.800546
3448.720611,-7624.121203,518.144159,306.438199
3448.720948,-9474.636058,0.000000,2681.334243
3448.721285,-10955.047942,-222.061783,1072.533697
3448.721623,-10955.047942,-370.102971,-995.924147
3448.721960,-9178.553681,0.000000,995.924147
3448.722298,-9992.780217,1184.329507,4749.792088
3448.722635,-11103.089130,1110.308913,4366.744339
3448.722973,-11621.233289,1406.391290,0.000000
3448.723310,-8512.368333,1110.308913,-1991.848295
3448.723648,-8142.265362,2072.576638,766.095498
3448.723985,-9918.759623,1332.370696,2298.286494
3448.724323,-11029.068536,222.061783,-995.924147
3448.724660,-9844.739029,-148.041188,-3217.601092
3448.724997,-7920.203579,814.226536,-2374.896044
3448.725335,-7105.977043,0.000000,76.609550
3448.725672,-9474.636058,0.000000,-153.219100
3448.726010,-10214.842000,-2072.576638,-2221.676944
3448.726347,-10881.027347,-1628.453072,-3140.991542
3448.726685,-9400.615463,0.000000,-1455.581446
3448.727022,-8956.491898,-1110.308913,536.266849
3448.727360,-9400.615463,-1258.350101,919.314598
3448.727697,-10510.924376,-1998.556043,-766.095498
3448.728035,-10881.027347,-592.164754,153.219100
3448.728372,-11695.253884,-370.102971,1302.362347
3448.728709,-12657.521608,-666.185348,2757.943793
3448.729047,-13175.665768,-1998.556043,1532.190996
3448.729384,-10066.800811,-1332.370696,459.657299
3448.729722,-8586.388927,-1184.329507,2374.896044
3448.730059,-9326.594869,-148.041188,3447.429741
3448.730397,-11695.253884,814.226536,1838.629195
3448.730734,-13767.830521,74.020594,-612.876398
3448.731072,-10584.944971,1406.391290,-2145.067394
3448.731409,-8660.409521,1702.473667,0.000000
3448.731747,-10510.924376,518.144159,1991.848295
3448.732084,-10436.903782,-1924.535449,-612.876398
3448.732422,-7031.956449,-1184.329507,-1532.190996
3448.732759,-8068.244768,-666.185348,1838.629195
3448.733096,-10288.862594,74.020594,2068.457845
3448.733434,-10732.986159,222.061783,-383.047749
3448.733771,-10066.800811,-1332.370696,-995.924147
3448.734109,-8660.409521,-1110.308913,-383.047749
3448.734446,-7698.141797,1258.350101,1072.533697
3448.734784,-8956.491898,222.061783,2604.724693
3448.735121,-9474.636058,-814.226536,919.314598
3448.735459,-10362.883188,370.102971,0.000000
3448.735796,-10955.047942,1998.556043,689.485948
3448.736134,-9844.739029,2146.597232,2068.457845
3448.736471,-9918.759623,-222.061783,2068.457845
3448.736808,-11103.089130,814.226536,1072.533697
3448.737146,-10066.800811,1110.308913,-1072.533697
3448.737483,-10362.883188,1036.288319,842.705048
3448.737821,-11325.150913,518.144159,1378.971896
3448.738158,-11547.212695,592.164754,-1302.362347
3448.738496,-10436.903782,74.020594,-2145.067394
3448.738833,-9696.697840,0.000000,-383.047749
3448.739171,-9104.533087,0.000000,383.047749
3448.739508,-10584.944971,-1036.288319,-536.266849
3448.739846,-10881.027347,-2294.638420,-1532.190996
3448.740183,-9622.677246,-2442.679609,-1991.848295
3448.740521,-9622.677246,-1998.556043,-383.047749
3448.740858,-9844.739029,-2664.741391,76.609550
3448.741195,-9400.615463,-2516.700203,-229.828649
3448.741533,-9548.656652,-2368.659014,-1455.581446
3448.741870,-8808.450710,-2368.659014,-1915.238745
3448.742208,-9770.718434,-888.247130,76.609550
3448.742545,-10140.821405,-1332.370696,1302.362347
3448.742883,-10066.800811,-1628.453072,1455.581446
3448.743220,-9992.780217,-148.041188,1762.019645
3448.743558,-10140.821405,0.000000,2681.334243
3448.743895,-11399.171507,296.082377,3524.039291
3448.744233,-11547.212695,0.000000,612.876398
3448.744570,-11177.109724,1036.288319,919.314598
3448.744907,-9548.656652,1036.288319,0.000000
3448.745245,-9548.656652,2072.576638,-229.828649
3448.745582,-11251.130318,2368.659014,-459.657299
3448.745920,-10658.965565,518.144159,-2145.067394
3448.746257,-8882.471304,518.144159,-1608.800546
3448.746595,-9030.512492,1110.308913,153.219100
3448.746932,-8882.471304,814.226536,229.828649
3448.747270,-10584.944971,444.123565,76.609550
3448.747607,-11251.130318,-1110.308913,766.095498
3448.747945,-9548.656652,148.041188,842.705048
3448.748282,-9770.718434,-296.082377,1455.581446
3448.748619,-11029.068536,-296.082377,2068.457845
3448.748957,-9030.512492,-666.185348,459.657299
3448.749294,-9104.533087,-1850.514855,-153.219100
3448.749632,-8068.244768,-666.185348,76.609550
3448.749969,-9400.615463,-888.247130,1378.971896
3448.750307,-11621.233289,-1480.411884,1838.629195
3448.750644,-9474.636058,-1184.329507,306.438199
3448.750982,-8882.471304,888.247130,1915.238745
3448.751319,-10658.965565,2294.638420,2221.676944
3448.751657,-11695.253884,888.247130,0.000000
3448.751994,-11769.274478,-518.144159,383.047749
3448.752332,-10807.006753,-1628.453072,383.047749
3448.752669,-9030.512492,0.000000,1378.971896
3448.753006,-9252.574275,518.144159,536.266849
3448.753344,-11473.192101,0.000000,0.000000
3448.753681,-12287.418637,-1480.411884,-2298.286494
3448.754019,-8734.430116,-222.061783,-3753.867940
3448.754356,-8660.409521,-370.102971,-1532.190996
3448.754694,-11251.130318,-1850.514855,1378.971896
3448.755031,-10214.842000,-2072.576638,-1072.533697
3448.755369,-9844.739029,-2442.679609,-919.314598
3448.755706,-8808.450710,444.123565,0.000000
3448.756044,-9252.574275,592.164754,536.266849
3448.756381,-12139.377449,-74.020594,536.266849
3448.756718,-11399.171507,-2146.597232,-536.266849
3448.757056,-7624.121203,-888.247130,1762.019645
3448.757393,-7772.162391,0.000000,3907.087040
3448.757731,-9992.780217,-222.061783,3294.210641
3448.758068,-11843.295072,148.041188,1608.800546
3448.758406,-11695.253884,1036.288319,-1455.581446
3448.758743,-7920.203579,2294.638420,-1302.362347
3448.759081,-8512.368333,2368.659014,612.876398
3448.759418,-10510.924376,2294.638420,383.047749
3448.759756,-10214.842000,888.247130,-2528.115143
