#time,accel_x,accel_y,accel_z
2975.315350,-9400.615463,-592.164754,0.000000
2975.315688,-9770.718434,-962.267725,76.609550
2975.316025,-9918.759623,-962.267725,689.485948
2975.316363,-10362.883188,-666.185348,383.047749
2975.316701,-9178.553681,-518.144159,76.609550
2975.317038,-9400.615463,148.041188,689.485948
2975.317376,-10288.862594,0.000000,383.047749
2975.317714,-10658.965565,-148.041188,0.000000
2975.318051,-10066.800811,666.185348,0.000000
2975.318389,-10066.800811,1332.370696,0.000000
2975.318727,-9770.718434,740.205942,-689.485948
2975.319064,-10732.986159,0.000000,153.219100
2975.319402,-9696.697840,-370.102971,-1072.533697
2975.319740,-9474.636058,0.000000,-842.705048
2975.320077,-10214.842000,0.000000,-842.705048
2975.320415,-10881.027347,-1036.288319,-2221.676944
2975.320753,-10584.944971,-1554.432478,-1532.190996
2975.321090,-9696.697840,-2220.617826,-1838.629195
2975.321428,-8956.491898,-2442.679609,-1378.971896
2975.321766,-9918.759623,-2072.576638,-1378.971896
2975.322103,-10510.924376,-3552.988522,-1608.800546
2975.322441,-9622.677246,-2664.741391,-1608.800546
2975.322779,-9622.677246,-3330.926739,229.828649
2975.323116,-9918.759623,-2368.659014,612.876398
2975.323454,-10510.924376,-1924.535449,-76.609550
2975.323792,-11621.233289,-1332.370696,-1302.362347
2975.324129,-10510.924376,-2294.638420,-1532.190996
2975.324467,-9622.677246,-2738.761985,-612.876398
2975.324805,-10214.842000,-1554.432478,842.705048
2975.325142,-10658.965565,-296.082377,153.219100
2975.325480,-10658.965565,-666.185348,-1532.190996
2975.325818,-9548.656652,-962.267725,-1608.800546
2975.326155,-9548.656652,-1776.494261,76.609550
2975.326493,-10362.883188,-444.123565,0.000000
2975.326831,-10807.006753,-518.144159,-2374.896044
2975.327168,-11251.130318,-592.164754,-3600.648841
2975.327506,-9548.656652,-1924.535449,-4213.525239
2975.327844,-8290.306550,-2664.741391,-3447.429741
2975.328182,-8512.368333,-3256.906145,-1915.238745
2975.328519,-8216.285956,-2368.659014,-1991.848295
2975.328857,-9104.533087,-2294.638420,-2528.115143
2975.329195,-9918.759623,-1924.535449,-2374.896044
2975.329532,-10214.842000,-2368.659014,-1915.238745
2975.329870,-11473.192101,-2516.700203,-2757.943793
2975.330208,-10066.800811,-3330.926739,-3294.210641
2975.330545,-9696.697840,-4885.359217,-2451.505594
2975.330883,-9770.718434,-5181.441594,-766.095498
2975.331221,-8142.265362,-4885.359217,-995.924147
2975.331558,-8808.450710,-3923.091493,-459.657299
2975.331896,-10510.924376,-2516.700203,-383.047749
2975.332234,-11473.192101,-2220.617826,-2298.286494
2975.332571,-11547.212695,-1184.329507,-3447.429741
2975.332909,-10955.047942,-2516.700203,-2834.553343
2975.333247,-10807.006753,-3701.029710,-2298.286494
2975.333584,-9918.759623,-4589.276840,-1762.019645
2975.333922,-9548.656652,-3330.926739,-919.314598
2975.334260,-9474.636058,-3775.050304,-1532.190996
2975.334597,-9770.718434,-4071.132681,-2145.067394
2975.334935,-9844.739029,-4885.359217,-2451.505594
2975.335273,-9992.780217,-3701.029710,-2068.457845
2975.335610,-9548.656652,-2664.741391,-1608.800546
2975.335948,-9770.718434,-592.164754,-1991.848295
2975.336286,-11029.068536,-1850.514855,-2604.724693
2975.336623,-11399.171507,-2738.761985,-3600.648841
2975.336961,-10955.047942,-3923.091493,-2451.505594
2975.337299,-9548.656652,-3404.947333,-919.314598
2975.337636,-8882.471304,-3701.029710,-612.876398
2975.337974,-9030.512492,-3108.864956,-1838.629195
2975.338312,-9474.636058,-3330.926739,-1302.362347
2975.338649,-9844.739029,-1702.473667,-306.438199
2975.338987,-9770.718434,74.020594,-536.266849
2975.339325,-9474.636058,1776.494261,-1072.533697
2975.339662,-11029.068536,1776.494261,-383.047749
2975.340000,-12879.583391,296.082377,-306.438199
2975.340338,-10881.027347,1258.350101,-536.266849
2975.340675,-8364.327145,0.000000,-459.657299
2975.341013,-8438.347739,-1554.432478,1225.752797
2975.341351,-9844.739029,-2146.597232,76.609550
2975.341688,-9696.697840,-1110.308913,-2145.067394
2975.342026,-8660.409521,-888.247130,-2298.286494
2975.342364,-9770.718434,-1480.411884,-2451.505594
2975.342701,-11399.171507,-888.247130,-3830.477490
2975.343039,-10807.006753,-1184.329507,-5745.716235
2975.343377,-9178.553681,-1258.350101,-3447.429741
2975.343714,-8882.471304,-2368.659014,-1608.800546
2975.344052,-9696.697840,-2590.720797,-2374.896044
2975.344390,-11177.109724,-3701.029710,-2298.286494
2975.344727,-10288.862594,-4515.256246,-1608.800546
2975.345065,-9178.553681,-4737.318029,-1532.190996
2975.345403,-9770.718434,-3849.070898,0.000000
2975.345740,-10881.027347,-2664.741391,612.876398
2975.346078,-11325.150913,-2072.576638,-1685.410096
2975.346416,-11029.068536,-1554.432478,-3753.867940
2975.346753,-11177.109724,-2146.597232,-3753.867940
2975.347091,-10510.924376,-2516.700203,-3217.601092
2975.347429,-10066.800811,-2590.720797,-2681.334243
2975.347767,-8734.430116,-2368.659014,-3140.991542
2975.348104,-9252.574275,-3256.906145,-2451.505594
2975.348442,-9474.636058,-3256.906145,-2298.286494
2975.348780,-9252.574275,-2812.782580,-1225.752797
2975.349117,-10436.903782,-1776.494261,153.219100
2975.349455,-12065.356855,-962.267725,-766.095498
2975.349793,-11843.295072,-444.123565,-2068.457845
2975.350130,-11177.109724,-1924.535449,-3753.867940
2975.350468,-9918.759623,-3404.947333,-3907.087040
2975.350806,-9252.574275,-4367.215058,-2145.067394
2975.351143,-7476.080014,-3775.050304,-2451.505594
2975.351481,-7994.224174,-4589.276840,-2221.676944
2975.351819,-9104.533087,-4737.318029,-1685.410096
2975.352156,-8808.450710,-3108.864956,-1302.362347
2975.352494,-10584.944971,-1702.473667,1455.581446
2975.352832,-9770.718434,74.020594,1762.019645
2975.353169,-10214.842000,0.000000,1149.143247
2975.353507,-11843.295072,0.000000,536.266849
2975.353845,-11769.274478,-888.247130,0.000000
2975.354182,-11029.068536,-2664.741391,-689.485948
2975.354520,-9474.636058,-2516.700203,-1838.629195
2975.354858,-8068.244768,-4219.173869,-1762.019645
2975.355195,-7994.224174,-3997.112087,-2528.115143
2975.355533,-7920.203579,-3775.050304,-2068.457845
2975.355871,-9474.636058,-2294.638420,-1915.238745
2975.356208,-10807.006753,-1480.411884,-2374.896044
2975.356546,-11325.150913,-296.082377,-3983.696590
2975.356884,-12805.562797,-666.185348,-3983.696590
2975.357221,-10955.047942,-2146.597232,-3677.258390
2975.357559,-9030.512492,-4663.297435,-1302.362347
2975.357897,-9104.533087,-5773.606348,-383.047749
2975.358234,-8956.491898,-5921.647536,153.219100
2975.358572,-10362.883188,-5033.400406,-459.657299
2975.358910,-8956.491898,-4589.276840,-2221.676944
2975.359247,-9474.636058,-3182.885551,-2451.505594
2975.359585,-11177.109724,-1998.556043,-3447.429741
2975.359923,-11547.212695,-888.247130,-3983.696590
2975.360260,-10362.883188,-518.144159,-2834.553343
2975.360598,-9474.636058,-1332.370696,-153.219100
2975.360936,-9992.780217,-740.205942,2298.286494
2975.361273,-11399.171507,0.000000,2528.115143
2975.361611,-11917.315666,-666.185348,1991.848295
2975.361949,-11473.192101,-1702.473667,0.000000
2975.362286,-10881.027347,-1850.514855,-536.266849
2975.362624,-8808.450710,-1258.350101,-1149.143247
2975.362962,-8364.327145,-666.185348,-689.485948
2975.363299,-8956.491898,444.123565,-2451.505594
2975.363637,-9474.636058,1702.473667,-3140.991542
2975.363975,-9548.656652,2664.741391,-2834.553343
2975.364312,-9992.780217,2516.700203,-1762.019645
2975.364650,-12435.459826,2220.617826,-153.219100
2975.364988,-11547.212695,0.000000,-1072.533697
2975.365325,-9030.512492,-2294.638420,229.828649
2975.365663,-6957.935855,-4441.235652,3830.477490
2975.366001,-6291.750507,-2738.761985,5362.668486
2975.366338,-9770.718434,-814.226536,4749.792088
2975.366676,-12287.418637,888.247130,919.314598
2975.367014,-11843.295072,2590.720797,-2374.896044
2975.367352,-12065.356855,1628.453072,-1608.800546
2975.367689,-10066.800811,1184.329507,-689.485948
2975.368027,-8808.450710,0.000000,766.095498
2975.368365,-8882.471304,592.164754,1225.752797
2975.368702,-8734.430116,74.020594,612.876398
2975.369040,-9918.759623,-962.267725,995.924147
2975.369378,-11325.150913,-1554.432478,2145.067394
2975.369715,-12213.398043,-1850.514855,919.314598
2975.370053,-11843.295072,-1480.411884,-76.609550
2975.370391,-9770.718434,-1480.411884,-1378.971896
2975.370728,-8734.430116,-444.123565,-1685.410096
2975.371066,-8660.409521,-592.164754,-2451.505594
2975.371404,-9252.574275,-1036.288319,-1915.238745
2975.371741,-10436.903782,-1406.391290,-1532.190996
2975.372079,-10436.903782,-1628.453072,-1378.971896
2975.372417,-11177.109724,-1702.473667,229.828649
2975.372754,-10807.006753,-2738.761985,0.000000
2975.373092,-9548.656652,-2960.823768,1762.019645
2975.373429,-9400.615463,-1702.473667,2221.676944
2975.373767,-9992.780217,-814.226536,1455.581446
2975.374104,-10436.903782,0.000000,612.876398
2975.374442,-10807.006753,74.020594,-995.924147
2975.374779,-9992.780217,370.102971,0.000000
2975.375117,-9326.594869,518.144159,1302.362347
2975.375454,-9918.759623,2294.638420,2681.334243
2975.375792,-10066.800811,1776.494261,1532.190996
2975.376129,-10140.821405,1702.473667,689.485948
2975.376467,-11399.171507,1332.370696,919.314598
2975.376804,-10881.027347,-74.020594,0.000000
2975.377142,-9844.739029,-222.061783,229.828649
2975.377479,-9326.594869,-1332.370696,995.924147
2975.377817,-8216.285956,-74.020594,0.000000
2975.378154,-8142.265362,1184.329507,-612.876398
2975.378492,-10140.821405,962.267725,-1072.533697
2975.378829,-10584.944971,1332.370696,-2068.457845
2975.379167,-11991.336260,-148.041188,-3140.991542
2975.379504,-11769.274478,-1110.308913,-995.924147
2975.379842,-9474.636058,-1258.350101,536.266849
2975.380179,-8142.265362,-2368.659014,2145.067394
2975.380517,-8438.347739,-2664.741391,2834.553343
2975.380854,-10362.883188,-2294.638420,2528.115143
2975.381192,-11399.171507,-1554.432478,1455.581446
2975.381529,-11769.274478,-1480.411884,0.000000
2975.381867,-10510.924376,-1036.288319,-612.876398
2975.382204,-9844.739029,-592.164754,-153.219100
2975.382542,-9548.656652,148.041188,0.000000
2975.382879,-8956.491898,222.061783,306.438199
2975.383217,-10881.027347,0.000000,76.609550
2975.383554,-11473.192101,-666.185348,-459.657299
2975.383892,-11103.089130,-1776.494261,-153.219100
2975.384229,-11029.068536,-2516.700203,919.314598
2975.384567,-10140.821405,-3182.885551,842.705048
2975.384904,-8364.327145,-1628.453072,459.657299
2975.385242,-8956.491898,814.226536,-612.876398
2975.385579,-9252.574275,-592.164754,-1991.848295
2975.385917,-10584.944971,-296.082377,-2528.115143
2975.386254,-10362.883188,-1184.329507,-1532.190996
2975.386592,-10658.965565,-592.164754,1302.362347
2975.386929,-9326.594869,-740.205942,306.438199
2975.387267,-9030.512492,-1924.535449,1838.629195
2975.387604,-9178.553681,-1332.370696,3677.258390
2975.387942,-9696.697840,-296.082377,3677.258390
2975.388279,-10584.944971,1036.288319,2987.772442
2975.388617,-10881.027347,518.144159,1532.190996
2975.388954,-10436.903782,814.226536,919.314598
2975.389292,-10140.821405,2368.659014,1225.752797
2975.389629,-9326.594869,2590.720797,842.705048
2975.389967,-9474.636058,2442.679609,1072.533697
2975.390304,-10584.944971,2294.638420,536.266849
2975.390642,-10362.883188,2220.617826,-1378.971896
2975.390979,-10732.986159,592.164754,-229.828649
2975.391317,-10807.006753,-296.082377,536.266849
2975.391654,-9770.718434,-1184.329507,0.000000
2975.391992,-9622.677246,444.123565,-995.924147
2975.392329,-8882.471304,370.102971,-1532.190996
2975.392667,-9696.697840,-518.144159,-1608.800546
2975.393004,-10584.944971,-1702.473667,-2298.286494
2975.393342,-10288.862594,-1850.514855,-1302.362347
2975.393679,-10140.821405,-2072.576638,0.000000
2975.394017,-9474.636058,-1924.535449,-383.047749
2975.394354,-9548.656652,-2072.576638,153.219100
2975.394692,-9992.780217,-2664.741391,536.266849
2975.395029,-9918.759623,-1850.514855,306.438199
2975.395367,-10066.800811,-1776.494261,689.485948
2975.395704,-11103.089130,-1776.494261,689.485948
2975.396042,-10955.047942,-1258.350101,1072.533697
2975.396379,-10807.006753,-1258.350101,612.876398
2975.396717,-9104.533087,0.000000,1149.143247
2975.397054,-9770.718434,666.185348,1532.190996
2975.397392,-10584.944971,518.144159,1302.362347
2975.397729,-10584.944971,222.061783,-612.876398
2975.398067,-11325.150913,0.000000,0.000000
2975.398404,-10955.047942,0.000000,-612.876398
2975.398742,-9030.512492,0.000000,76.609550
2975.399079,-9400.615463,444.123565,612.876398
2975.399417,-8364.327145,0.000000,-306.438199
2975.399754,-10214.842000,518.144159,-76.609550
2975.400092,-9770.718434,222.061783,-229.828649
2975.400429,-10584.944971,-296.082377,536.266849
2975.400767,-10436.903782,444.123565,766.095498
2975.401104,-9474.636058,74.020594,76.609550
2975.401442,-9326.594869,222.061783,1378.971896
2975.401779,-9400.615463,-370.102971,1915.238745
2975.402117,-9918.759623,-518.144159,2145.067394
2975.402454,-9474.636058,888.247130,612.876398
2975.402792,-10807.006753,-296.082377,1762.019645
2975.403129,-10955.047942,444.123565,1532.190996
2975.403467,-9178.553681,518.144159,536.266849
2975.403804,-9474.636058,370.102971,1072.533697
2975.404142,-10214.842000,0.000000,612.876398
2975.404479,-10510.924376,-592.164754,-459.657299
2975.404817,-11029.068536,-74.020594,0.000000
2975.405154,-10584.944971,-740.205942,76.609550
2975.405491,-10066.800811,-1036.288319,0.000000
2975.405829,-10214.842000,-1036.288319,-536.266849
2975.406166,-9474.636058,-1554.432478,0.000000
2975.406504,-9992.780217,-962.267725,-766.095498
2975.406841,-10584.944971,-1554.432478,-1838.629195
2975.407179,-10732.986159,-1924.535449,-1455.581446
2975.407516,-11251.130318,-2664.741391,-919.314598
2975.407854,-10288.862594,-1332.370696,-1072.533697
2975.408191,-9918.759623,-1776.494261,76.609550
2975.408529,-9178.553681,-1776.494261,459.657299
2975.408866,-9400.615463,-2590.720797,1455.581446
2975.409204,-10658.965565,-1036.288319,2145.067394
2975.409541,-10955.047942,0.000000,1455.581446
2975.409879,-11251.130318,370.102971,1685.410096
2975.410216,-10066.800811,666.185348,0.000000
2975.410554,-8956.491898,814.226536,153.219100
2975.410891,-9548.656652,814.226536,1685.410096
2975.411229,-9844.739029,1110.308913,1838.629195
2975.411566,-10436.903782,1480.411884,1915.238745
2975.411904,-11103.089130,1998.556043,1378.971896
2975.412241,-10732.986159,740.205942,383.047749
2975.412579,-9992.780217,1776.494261,0.000000
2975.412916,-8734.430116,1110.308913,153.219100
2975.413254,-8586.388927,666.185348,-689.485948
2975.413591,-8660.409521,666.185348,-612.876398
2975.413929,-9400.615463,1702.473667,-766.095498
2975.414266,-10436.903782,1036.288319,-995.924147
2975.414604,-11029.068536,888.247130,-1072.533697
2975.414941,-10214.842000,666.185348,-229.828649
2975.415279,-9622.677246,0.000000,-536.266849
2975.415616,-8290.306550,-1924.535449,0.000000
2975.415954,-8586.388927,-1776.494261,1532.190996
2975.416291,-9696.697840,-1998.556043,2451.505594
2975.416629,-10362.883188,-74.020594,2221.676944
2975.416966,-11029.068536,0.000000,1838.629195
2975.417304,-11177.109724,814.226536,1072.533697
2975.417641,-11251.130318,0.000000,306.438199
2975.417979,-11251.130318,0.000000,-459.657299
2975.418316,-9104.533087,-518.144159,-536.266849
2975.418654,-9252.574275,-666.185348,-766.095498
2975.418991,-9400.615463,-1406.391290,-1072.533697
2975.419329,-9844.739029,-1332.370696,-1225.752797
2975.419666,-10584.944971,-1036.288319,-995.924147
2975.420004,-10955.047942,-1850.514855,0.000000
2975.420341,-9844.739029,-1036.288319,536.266849
2975.420679,-10066.800811,-1480.411884,0.000000
2975.421016,-10362.883188,-1332.370696,-536.266849
2975.421354,-9844.739029,-1776.494261,-1072.533697
2975.421691,-9770.718434,-2146.597232,-766.095498
2975.422029,-9252.574275,-1258.350101,153.219100
2975.422366,-9696.697840,-740.205942,0.000000
2975.422704,-10066.800811,0.000000,153.219100
2975.423041,-10807.006753,296.082377,306.438199
2975.423379,-10807.006753,814.226536,1149.143247
2975.423716,-10362.883188,962.267725,1915.238745
2975.424054,-10288.862594,1480.411884,2451.505594
2975.424391,-9992.780217,1258.350101,2374.896044
2975.424729,-10214.842000,1554.432478,2221.676944
2975.425066,-10436.903782,1776.494261,1378.971896
2975.425404,-9844.739029,2294.638420,536.266849
2975.425741,-10214.842000,1850.514855,612.876398
2975.426079,-10362.883188,2220.617826,76.609550
2975.426416,-9474.636058,2220.617826,-919.314598
2975.426754,-9844.739029,1406.391290,-766.095498
2975.427091,-9474.636058,0.000000,-1072.533697
2975.427429,-8808.450710,-814.226536,-766.095498
2975.427766,-8882.471304,-962.267725,-153.219100
2975.428104,-8808.450710,-1184.329507,0.000000
2975.428441,-8956.491898,-1184.329507,383.047749
2975.428779,-9548.656652,-1110.308913,0.000000
2975.429116,-9696.697840,0.000000,-1225.752797
2975.429454,-11251.130318,-1110.308913,0.000000
2975.429791,-11621.233289,-1332.370696,76.609550
2975.430129,-11177.109724,-2220.617826,459.657299
2975.430466,-10288.862594,-1480.411884,1608.800546
2975.430804,-9992.780217,-962.267725,2145.067394
2975.431141,-9992.780217,-666.185348,919.314598
2975.431479,-10510.924376,-666.185348,383.047749
2975.431816,-10584.944971,-814.226536,0.000000
2975.432154,-10140.821405,0.000000,383.047749
2975.432491,-11103.089130,148.041188,1608.800546
2975.432829,-10955.047942,518.144159,919.314598
2975.433166,-10362.883188,666.185348,-689.485948
2975.433504,-9844.739029,888.247130,-536.266849
2975.433841,-9548.656652,0.000000,306.438199
2975.434179,-9548.656652,-1406.391290,153.219100
2975.434516,-9548.656652,-1184.329507,229.828649
2975.434854,-9770.718434,-1110.308913,0.000000
2975.435191,-9474.636058,148.041188,-229.828649
2975.435529,-8808.450710,0.000000,-383.047749
2975.435866,-9252.574275,888.247130,-459.657299
2975.436204,-9252.574275,222.061783,-459.657299
2975.436541,-9844.739029,-74.020594,-842.705048
2975.436879,-10214.842000,-370.102971,-229.828649
2975.437216,-9252.574275,0.000000,383.047749
2975.437554,-9400.615463,518.144159,2834.553343
2975.437891,-10066.800811,1776.494261,2374.896044
2975.438229,-10510.924376,2220.617826,1072.533697
2975.438566,-11991.336260,1480.411884,383.047749
2975.438904,-11251.130318,0.000000,0.000000
2975.439241,-10658.965565,518.144159,383.047749
2975.439579,-9474.636058,518.144159,1225.752797
2975.439916,-9252.574275,0.000000,1072.533697
2975.440254,-9622.677246,888.247130,766.095498
2975.440591,-10658.965565,666.185348,-766.095498
2975.440929,-10510.924376,962.267725,-995.924147
2975.441266,-10436.903782,-518.144159,-995.924147
2975.441603,-11029.068536,-1184.329507,-1225.752797
2975.441941,-9548.656652,-1850.514855,-1532.190996
2975.442278,-8438.347739,-2072.576638,229.828649
2975.442616,-8586.388927,-1554.432478,459.657299
2975.442953,-9474.636058,-1998.556043,-459.657299
2975.443291,-10807.006753,-1702.473667,-919.314598
2975.443628,-11103.089130,-1480.411884,-612.876398
2975.443966,-10732.986159,-2220.617826,0.000000
2975.444303,-9252.574275,-1924.535449,1685.410096
2975.444641,-9326.594869,-962.267725,3140.991542
2975.444978,-9400.615463,0.000000,2757.943793
2975.445316,-10362.883188,814.226536,1149.143247
2975.445653,-11473.192101,0.000000,842.705048
2975.445991,-11251.130318,666.185348,459.657299
2975.446328,-10436.903782,74.020594,536.266849
2975.446666,-9548.656652,1110.308913,1455.581446
2975.447003,-8586.388927,1184.329507,1532.190996
2975.447341,-9770.718434,1850.514855,766.095498
2975.447678,-10140.821405,1702.473667,-153.219100
2975.448016,-10510.924376,1258.350101,-766.095498
2975.448353,-10807.006753,814.226536,-536.266849
2975.448691,-9548.656652,74.020594,-1302.362347
2975.449028,-7698.141797,-370.102971,-766.095498
2975.449366,-7698.141797,0.000000,0.000000
2975.449703,-7920.203579,148.041188,-459.657299
2975.450041,-10066.800811,222.061783,-229.828649
2975.450378,-11399.171507,-296.082377,0.000000
2975.450716,-11843.295072,-1184.329507,-229.828649
2975.451053,-9992.780217,-1850.514855,766.095498
2975.451391,-9104.533087,-2664.741391,2834.553343
2975.451728,-9326.594869,-2146.597232,3524.039291
2975.452066,-9104.533087,-296.082377,1685.410096
2975.452403,-10214.842000,222.061783,306.438199
2975.452741,-11547.212695,-74.020594,0.000000
2975.453078,-12657.521608,-518.144159,76.609550
2975.453416,-11917.315666,148.041188,-842.705048
2975.453753,-10658.965565,0.000000,-459.657299
2975.454091,-9770.718434,0.000000,306.438199
2975.454428,-8512.368333,0.000000,-612.876398
2975.454766,-9548.656652,-370.102971,0.000000
2975.455103,-10955.047942,-888.247130,-612.876398
2975.455441,-11917.315666,-1776.494261,-383.047749
2975.455778,-11103.089130,-2442.679609,-459.657299
2975.456116,-9030.512492,-814.226536,383.047749
2975.456453,-9400.615463,-962.267725,459.657299
2975.456791,-9252.574275,-666.185348,-842.705048
2975.457128,-9770.718434,-666.185348,-842.705048
2975.457466,-10510.924376,-1258.350101,-306.438199
2975.457803,-10288.862594,-444.123565,-383.047749
2975.458141,-9474.636058,-296.082377,459.657299
2975.458478,-10584.944971,-1332.370696,1838.629195
2975.458816,-9622.677246,592.164754,2298.286494
2975.459153,-8734.430116,1850.514855,2068.457845
2975.459491,-9992.780217,1702.473667,2451.505594
2975.459828,-11177.109724,2072.576638,919.314598
2975.460166,-11917.315666,1776.494261,0.000000
2975.460503,-10140.821405,1628.453072,459.657299
2975.460841,-8956.491898,1776.494261,1685.410096
2975.461178,-9178.553681,2368.659014,995.924147
2975.461516,-8882.471304,2220.617826,0.000000
2975.461853,-9918.759623,1554.432478,-76.609550
2975.462191,-11103.089130,444.123565,0.000000
2975.462528,-11029.068536,518.144159,-689.485948
2975.462866,-9400.615463,-740.205942,0.000000
2975.463203,-9104.533087,-1036.288319,306.438199
2975.463541,-8364.327145,-74.020594,0.000000
2975.463878,-8956.491898,-370.102971,-995.924147
2975.464216,-10066.800811,-444.123565,-76.609550
2975.464553,-11621.233289,-1998.556043,-766.095498
2975.464891,-10881.027347,-2294.638420,-1072.533697
2975.465228,-9400.615463,-2368.659014,0.000000
2975.465566,-9030.512492,-2516.700203,2987.772442
2975.465903,-9178.553681,-1702.473667,2528.115143
2975.466241,-10510.924376,-1554.432478,1378.971896
2975.466578,-11769.274478,-296.082377,-76.609550
2975.466916,-11843.295072,-1036.288319,-995.924147
2975.467253,-10955.047942,-1554.432478,383.047749
2975.467591,-10510.924376,-962.267725,1302.362347
2975.467928,-10510.924376,-814.226536,1072.533697
2975.468266,-9548.656652,148.041188,766.095498
2975.468603,-9622.677246,518.144159,-459.657299
2975.468941,-10362.883188,74.020594,-1302.362347
2975.469278,-11399.171507,-296.082377,-1532.190996
2975.469616,-10658.965565,-1332.370696,-1608.800546
2975.469953,-9844.739029,-2368.659014,-459.657299
2975.470291,-8734.430116,-1332.370696,1225.752797
2975.470628,-8068.244768,0.000000,383.047749
2975.470966,-9474.636058,370.102971,612.876398
2975.471303,-11251.130318,0.000000,-306.438199
2975.471640,-10955.047942,-888.247130,-1608.800546
2975.471978,-8956.491898,-1628.453072,-459.657299
2975.472315,-8660.409521,-1258.350101,1838.629195
2975.472653,-8512.368333,0.000000,2451.505594
2975.472990,-9326.594869,888.247130,1838.629195
2975.473327,-10584.944971,1776.494261,1455.581446
2975.473665,-11695.253884,1406.391290,842.705048
2975.474002,-12065.356855,962.267725,1072.533697
2975.474339,-11029.068536,222.061783,995.924147
2975.474677,-9770.718434,0.000000,1915.238745
2975.475014,-9400.615463,1332.370696,1455.581446
2975.475352,-9104.533087,1406.391290,0.000000
2975.475689,-9474.636058,370.102971,-612.876398
2975.476026,-10362.883188,1036.288319,-383.047749
2975.476364,-12213.398043,0.000000,-919.314598
2975.476701,-11103.089130,-296.082377,-995.924147
2975.477039,-10066.800811,-1332.370696,-842.705048
2975.477376,-8290.306550,-1332.370696,0.000000
2975.477713,-7254.018232,-1998.556043,-612.876398
2975.478051,-9326.594869,-2146.597232,153.219100
2975.478388,-10658.965565,-2220.617826,-383.047749
2975.478725,-10362.883188,-2294.638420,-1225.752797
2975.479063,-10658.965565,-2220.617826,229.828649
2975.479400,-9844.739029,-2072.576638,1072.533697
2975.479738,-9474.636058,-962.267725,2145.067394
2975.480075,-9844.739029,-1184.329507,1915.238745
2975.480412,-10140.821405,-592.164754,1378.971896
2975.480750,-11251.130318,0.000000,1302.362347
2975.481087,-11177.109724,-592.164754,0.000000
2975.481424,-10140.821405,0.000000,1532.190996
2975.481762,-10732.986159,740.205942,1149.143247
2975.482099,-9770.718434,1332.370696,1455.581446
2975.482437,-9992.780217,1850.514855,0.000000
2975.482774,-10732.986159,1036.288319,0.000000
2975.483111,-11103.089130,666.185348,-306.438199
2975.483449,-10214.842000,222.061783,-1608.800546
2975.483786,-9696.697840,0.000000,76.609550
2975.484124,-9252.574275,-518.144159,766.095498
2975.484461,-8068.244768,0.000000,-536.266849
2975.484798,-8734.430116,666.185348,-536.266849
2975.485136,-10066.800811,740.205942,-459.657299
2975.485473,-10658.965565,0.000000,-1685.410096
2975.485810,-11103.089130,-888.247130,-2451.505594
2975.486148,-9770.718434,-592.164754,0.000000
2975.486485,-9030.512492,-1480.411884,1225.752797
2975.486823,-8586.388927,-1258.350101,1302.362347
2975.487160,-9030.512492,-666.185348,1838.629195
2975.487497,-10732.986159,0.000000,1838.629195
2975.487835,-11547.212695,0.000000,229.828649
2975.488172,-12213.398043,-592.164754,229.828649
2975.488510,-10955.047942,0.000000,383.047749
2975.488847,-9548.656652,296.082377,1378.971896
2975.489184,-10066.800811,962.267725,1225.752797
2975.489522,-10140.821405,296.082377,-459.657299
2975.489859,-10510.924376,444.123565,-842.705048
2975.490196,-10658.965565,-74.020594,-383.047749
2975.490534,-10807.006753,-1332.370696,-1149.143247
2975.490871,-10732.986159,-1184.329507,0.000000
2975.491209,-9326.594869,-1776.494261,-1302.362347
2975.491546,-8586.388927,-962.267725,-306.438199
2975.491883,-9474.636058,-1406.391290,-153.219100
2975.492221,-9548.656652,-1628.453072,-383.047749
2975.492558,-10436.903782,-592.164754,0.000000
2975.492896,-10362.883188,-1554.432478,0.000000
2975.493233,-9548.656652,-1628.453072,1072.533697
2975.493570,-8956.491898,-1406.391290,995.924147
2975.493908,-9030.512492,-518.144159,1762.019645
2975.494245,-9548.656652,-666.185348,2145.067394
2975.494582,-10140.821405,74.020594,1838.629195
2975.494920,-10955.047942,296.082377,1991.848295
2975.495257,-11399.171507,296.082377,1455.581446
2975.495595,-10288.862594,0.000000,1915.238745
2975.495932,-9474.636058,1332.370696,1302.362347
2975.496269,-8438.347739,1110.308913,1225.752797
2975.496607,-9770.718434,1998.556043,919.314598
2975.496944,-10955.047942,814.226536,0.000000
2975.497282,-11325.150913,888.247130,-1532.190996
2975.497619,-10658.965565,-74.020594,-995.924147
2975.497956,-10436.903782,-444.123565,-153.219100
2975.498294,-8808.450710,-518.144159,-689.485948
2975.498631,-7846.182985,-1258.350101,-1685.410096
2975.498968,-7994.224174,-1702.473667,-1302.362347
2975.499306,-9104.533087,-1554.432478,-536.266849
2975.499643,-10955.047942,-1924.535449,-689.485948
2975.499981,-11473.192101,-2590.720797,-612.876398
2975.500318,-10510.924376,-1332.370696,689.485948
2975.500655,-9844.739029,-2368.659014,1225.752797
2975.500993,-10288.862594,-2294.638420,2757.943793
2975.501330,-10214.842000,-1554.432478,2681.334243
2975.501668,-11103.089130,-1702.473667,1302.362347
2975.502005,-11325.150913,-1480.411884,612.876398
2975.502342,-11473.192101,-1406.391290,76.609550
2975.502680,-10584.944971,-444.123565,612.876398
2975.503017,-9770.718434,-518.144159,0.000000
2975.503354,-9548.656652,296.082377,-229.828649
2975.503692,-10362.883188,666.185348,-153.219100
2975.504029,-10881.027347,740.205942,-459.657299
2975.504367,-10066.800811,370.102971,-612.876398
2975.504704,-9770.718434,-518.144159,0.000000
2975.505041,-10436.903782,-592.164754,383.047749
2975.505379,-9992.780217,0.000000,-995.924147
2975.505716,-8586.388927,0.000000,-1378.971896
2975.506054,-8586.388927,-592.164754,-1378.971896
2975.506391,-8734.430116,0.000000,-766.095498
2975.506728,-9622.677246,0.000000,-306.438199
2975.507066,-10955.047942,-518.144159,229.828649
2975.507403,-9696.697840,-222.061783,0.000000
2975.507740,-9252.574275,0.000000,229.828649
2975.508078,-10436.903782,222.061783,2451.505594
2975.508415,-10584.944971,74.020594,2374.896044
2975.508753,-10955.047942,814.226536,2221.676944
2975.509090,-10658.965565,1850.514855,842.705048
2975.509427,-11103.089130,666.185348,1455.581446
2975.509765,-10436.903782,1258.350101,1225.752797
2975.510102,-9548.656652,74.020594,-306.438199
2975.510440,-9548.656652,296.082377,0.000000
2975.510777,-9104.533087,74.020594,536.266849
2975.511114,-9548.656652,-148.041188,0.000000
2975.511452,-9548.656652,-592.164754,459.657299
2975.511789,-10140.821405,-1036.288319,1072.533697
2975.512126,-10584.944971,-74.020594,0.000000
2975.512464,-9770.718434,-592.164754,-306.438199
2975.512801,-9696.697840,-962.267725,-536.266849
2975.513139,-9252.574275,-2368.659014,-842.705048
2975.513476,-9844.739029,-1628.453072,-383.047749
2975.513813,-10140.821405,-1628.453072,-689.485948
2975.514151,-10658.965565,-2146.597232,-153.219100
2975.514488,-10362.883188,-1258.350101,-995.924147
2975.514826,-10066.800811,-2294.638420,536.266849
2975.515163,-10066.800811,-1776.494261,1608.800546
2975.515500,-9770.718434,-2146.597232,2834.553343
2975.515838,-11177.109724,-1184.329507,3140.991542
2975.516175,-11103.089130,-518.144159,1685.410096
2975.516512,-11325.150913,148.041188,1302.362347
2975.516850,-9844.739029,222.061783,689.485948
2975.517187,-9844.739029,888.247130,1225.752797
2975.517525,-10288.862594,1332.370696,1072.533697
2975.517862,-10436.903782,592.164754,-842.705048
2975.518199,-9622.677246,222.061783,-536.266849
2975.518537,-10140.821405,-222.061783,-995.924147
2975.518874,-9252.574275,-962.267725,-306.438199
2975.519212,-9178.553681,0.000000,-76.609550
2975.519549,-9104.533087,222.061783,-229.828649
2975.519886,-8660.409521,-518.144159,-1378.971896
2975.520224,-9992.780217,-222.061783,-459.657299
2975.520561,-10066.800811,-666.185348,-612.876398
2975.520898,-10214.842000,-148.041188,-153.219100
2975.521236,-10288.862594,-1036.288319,-459.657299
2975.521573,-9770.718434,-666.185348,0.000000
2975.521911,-8660.409521,-1628.453072,-383.047749
2975.522248,-9918.759623,-1258.350101,995.924147
2975.522585,-10362.883188,-1332.370696,1225.752797
2975.522923,-9770.718434,-1480.411884,842.705048
2975.523260,-9548.656652,74.020594,919.314598
2975.523598,-10288.862594,222.061783,1608.800546
2975.523935,-10807.006753,0.000000,612.876398
2975.524272,-10214.842000,-962.267725,229.828649
2975.524610,-9548.656652,-444.123565,689.485948
2975.524947,-9548.656652,-666.185348,1685.410096
2975.525284,-9918.759623,-296.082377,919.314598
2975.525622,-11399.171507,-518.144159,383.047749
2975.525959,-10807.006753,222.061783,-995.924147
2975.526297,-10807.006753,222.061783,-1685.410096
2975.526634,-11399.171507,148.041188,-1762.019645
2975.526971,-9400.615463,0.000000,-2451.505594
2975.527309,-9696.697840,-1184.329507,-919.314598
2975.527646,-9696.697840,-666.185348,153.219100
2975.527984,-9844.739029,-370.102971,995.924147
2975.528321,-10658.965565,-1110.308913,1762.019645
2975.528658,-10584.944971,-888.247130,995.924147
2975.528996,-9622.677246,-1036.288319,1455.581446
2975.529333,-9622.677246,0.000000,2298.286494
2975.529670,-8956.491898,-296.082377,2681.334243
2975.530008,-9548.656652,296.082377,1378.971896
2975.530345,-9992.780217,370.102971,1838.629195
2975.530683,-10066.800811,666.185348,612.876398
2975.531020,-9622.677246,1406.391290,766.095498
2975.531357,-10288.862594,740.205942,842.705048
2975.531695,-9622.677246,1110.308913,689.485948
2975.532032,-9474.636058,1184.329507,459.657299
2975.532370,-9400.615463,444.123565,153.219100
2975.532707,-9622.677246,740.205942,0.000000
2975.533044,-11029.068536,0.000000,-383.047749
2975.533382,-11251.130318,592.164754,-2221.676944
2975.533719,-11325.150913,-592.164754,-2528.115143
2975.534056,-8808.450710,-740.205942,-536.266849
2975.534394,-8438.347739,-1480.411884,-536.266849
2975.534731,-9770.718434,-1850.514855,0.000000
2975.535069,-10436.903782,-2072.576638,-919.314598
2975.535406,-11029.068536,-2220.617826,-229.828649
2975.535743,-11621.233289,-2146.597232,229.828649
2975.536081,-9992.780217,-1406.391290,612.876398
2975.536418,-10584.944971,-1998.556043,1838.629195
2975.536756,-10140.821405,-1480.411884,1149.143247
2975.537093,-8808.450710,-962.267725,306.438199
2975.537430,-10140.821405,-740.205942,2145.067394
2975.537768,-10584.944971,0.000000,459.657299
2975.538105,-11177.109724,296.082377,-76.609550
2975.538442,-11991.336260,0.000000,-383.047749
2975.538780,-9844.739029,222.061783,-306.438199
2975.539117,-9104.533087,0.000000,153.219100
2975.539455,-9326.594869,370.102971,1149.143247
2975.539792,-9548.656652,592.164754,0.000000
2975.540129,-10288.862594,592.164754,-459.657299
2975.540467,-10436.903782,518.144159,-536.266849
2975.540804,-10066.800811,962.267725,-1149.143247
2975.541142,-10362.883188,0.000000,-842.705048
2975.541479,-9252.574275,-370.102971,-612.876398
2975.541816,-8660.409521,-296.082377,306.438199
2975.542154,-9030.512492,74.020594,1762.019645
2975.542491,-9844.739029,592.164754,919.314598
2975.542828,-9918.759623,74.020594,0.000000
2975.543166,-9770.718434,-444.123565,0.000000
2975.543503,-10214.842000,74.020594,1378.971896
2975.543841,-9178.553681,0.000000,1455.581446
2975.544178,-9252.574275,1110.308913,2681.334243
2975.544515,-10214.842000,962.267725,2298.286494
2975.544853,-10732.986159,1480.411884,1149.143247
2975.545190,-10955.047942,888.247130,919.314598
2975.545528,-10881.027347,-740.205942,1225.752797
2975.545865,-10214.842000,-814.226536,229.828649
2975.546202,-8882.471304,-740.205942,0.000000
2975.546540,-9770.718434,-666.185348,689.485948
2975.546877,-9178.553681,-962.267725,-919.314598
2975.547214,-9696.697840,-592.164754,-536.266849
2975.547552,-11103.089130,0.000000,-1072.533697
2975.547889,-11251.130318,-1110.308913,-1991.848295
2975.548227,-11399.171507,-1554.432478,-1149.143247
2975.548564,-9326.594869,-2368.659014,-1072.533697
2975.548901,-9104.533087,-3182.885551,612.876398
2975.549239,-9178.553681,-1924.535449,766.095498
2975.549576,-8808.450710,-2442.679609,-76.609550
2975.549914,-10584.944971,-1480.411884,76.609550
2975.550251,-11547.212695,-1628.453072,229.828649
2975.550588,-11029.068536,-1184.329507,0.000000
2975.550926,-10658.965565,-1924.535449,1302.362347
2975.551263,-10140.821405,-962.267725,2757.943793
2975.551600,-8956.491898,74.020594,2451.505594
2975.551938,-9918.759623,148.041188,2298.286494
2975.552275,-10584.944971,518.144159,1762.019645
2975.552613,-10881.027347,814.226536,0.000000
2975.552950,-11177.109724,814.226536,0.000000
2975.553287,-10066.800811,1258.350101,-229.828649
2975.553625,-9326.594869,1406.391290,0.000000
2975.553962,-8734.430116,1776.494261,-766.095498
2975.554300,-9548.656652,1184.329507,-919.314598
2975.554637,-10140.821405,1184.329507,-459.657299
2975.554974,-10436.903782,962.267725,-1838.629195
2975.555312,-10214.842000,740.205942,-1915.238745
2975.555649,-9178.553681,74.020594,-919.314598
2975.555986,-8808.450710,740.205942,153.219100
2975.556324,-9474.636058,0.000000,306.438199
2975.556661,-9326.594869,592.164754,0.000000
2975.556999,-10288.862594,-444.123565,383.047749
2975.557336,-10955.047942,-1036.288319,995.924147
2975.557673,-9770.718434,-1184.329507,229.828649
2975.558011,-9400.615463,-888.247130,1762.019645
2975.558348,-9696.697840,-1332.370696,2145.067394
2975.558686,-8956.491898,222.061783,689.485948
2975.559023,-10066.800811,592.164754,766.095498
2975.559360,-11029.068536,0.000000,842.705048
2975.559698,-11473.192101,-222.061783,229.828649
2975.560035,-11177.109724,0.000000,-306.438199
2975.560372,-10362.883188,0.000000,536.266849
2975.560710,-9548.656652,-518.144159,383.047749
2975.561047,-9252.574275,0.000000,-536.266849
2975.561385,-9178.553681,-1258.350101,-536.266849
2975.561722,-10881.027347,-1702.473667,-306.438199
2975.562059,-11473.192101,-1480.411884,0.000000
2975.562397,-10658.965565,-1406.391290,-1072.533697
2975.562734,-9844.739029,-1998.556043,842.705048
2975.563072,-9622.677246,-1406.391290,1455.581446
2975.563409,-8808.450710,-222.061783,459.657299
2975.563746,-10436.903782,-518.144159,842.705048
2975.564084,-11103.089130,-666.185348,1072.533697
2975.564421,-10807.006753,-1110.308913,306.438199
2975.564758,-10362.883188,-666.185348,1455.581446
2975.565096,-9696.697840,-370.102971,3140.991542
2975.565433,-9104.533087,296.082377,2604.724693
2975.565771,-9104.533087,666.185348,1991.848295
2975.566108,-9178.553681,1924.535449,1685.410096
2975.566445,-11177.109724,1110.308913,1532.190996
2975.566783,-11473.192101,1480.411884,842.705048
2975.567120,-9696.697840,1924.535449,0.000000
2975.567458,-9622.677246,1480.411884,1225.752797
2975.567795,-8364.327145,2220.617826,0.000000
2975.568132,-9104.533087,1258.350101,-842.705048
2975.568470,-10362.883188,1480.411884,-1149.143247
2975.568807,-10362.883188,74.020594,-1608.800546
2975.569144,-10510.924376,-1480.411884,-2145.067394
2975.569482,-9252.574275,-1628.453072,-1838.629195
2975.569819,-8660.409521,-814.226536,-689.485948
2975.570157,-9474.636058,-1332.370696,-766.095498
2975.570494,-9400.615463,-1258.350101,-1149.143247
2975.570831,-10140.821405,-888.247130,76.609550
2975.571169,-11473.192101,-1924.535449,0.000000
2975.571506,-11029.068536,-1702.473667,153.219100
2975.571844,-10807.006753,-1850.514855,766.095498
2975.572181,-10436.903782,-1628.453072,1762.019645
2975.572518,-9992.780217,-444.123565,1915.238745
2975.572856,-10214.842000,296.082377,1149.143247
2975.573193,-10807.006753,592.164754,1149.143247
2975.573530,-12657.521608,444.123565,-536.266849
2975.573868,-12139.377449,222.061783,-1225.752797
2975.574205,-10214.842000,-370.102971,0.000000
2975.574543,-8956.491898,0.000000,1532.190996
2975.574880,-8438.347739,444.123565,1608.800546
2975.575217,-9770.718434,740.205942,306.438199
2975.575555,-9844.739029,-296.082377,-306.438199
2975.575892,-10732.986159,-518.144159,-612.876398
2975.576230,-9770.718434,-592.164754,-919.314598
2975.576567,-9326.594869,0.000000,153.219100
2975.576904,-9326.594869,-666.185348,306.438199
2975.577242,-7994.224174,222.061783,-1072.533697
2975.577579,-8660.409521,0.000000,-383.047749
2975.577917,-9178.553681,-444.123565,0.000000
2975.578254,-9548.656652,-962.267725,-383.047749
2975.578591,-10140.821405,-740.205942,689.485948
2975.578929,-9474.636058,-962.267725,2145.067394
2975.579266,-9474.636058,740.205942,3447.429741
2975.579604,-10214.842000,1480.411884,2528.115143
2975.579941,-10066.800811,1036.288319,1608.800546
2975.580278,-10955.047942,1776.494261,1455.581446
2975.580616,-11917.315666,592.164754,612.876398
2975.580953,-11251.130318,666.185348,-306.438199
2975.581291,-9844.739029,74.020594,306.438199
2975.581628,-8808.450710,74.020594,229.828649
2975.581965,-9252.574275,1036.288319,0.000000
2975.582303,-9992.780217,370.102971,-1225.752797
2975.582640,-10362.883188,-888.247130,-1378.971896
2975.582978,-11399.171507,-2072.576638,-1685.410096
2975.583315,-10510.924376,-2220.617826,-1225.752797
2975.583652,-10362.883188,-2664.741391,0.000000
2975.583990,-9252.574275,-2442.679609,383.047749
2975.584327,-8216.285956,-2294.638420,0.000000
2975.584665,-9104.533087,-1998.556043,689.485948
2975.585002,-10732.986159,-1850.514855,-383.047749
2975.585339,-10658.965565,-1924.535449,-1378.971896
2975.585677,-10955.047942,-1628.453072,-612.876398
2975.586014,-10732.986159,-1184.329507,995.924147
2975.586351,-9326.594869,-814.226536,1302.362347
2975.586689,-9696.697840,-370.102971,1302.362347
2975.587026,-9474.636058,148.041188,1455.581446
2975.587364,-10807.006753,296.082377,1991.848295
2975.587701,-11621.233289,814.226536,1685.410096
2975.588038,-10732.986159,1628.453072,1072.533697
2975.588376,-10881.027347,1998.556043,1225.752797
2975.588713,-10214.842000,2442.679609,459.657299
2975.589051,-9992.780217,2516.700203,-536.266849
2975.589388,-9844.739029,2368.659014,-536.266849
2975.589725,-10214.842000,1184.329507,-1072.533697
2975.590063,-10066.800811,1036.288319,-1838.629195
2975.590400,-9400.615463,1036.288319,-1378.971896
2975.590738,-9474.636058,222.061783,-612.876398
2975.591075,-8586.388927,518.144159,0.000000
2975.591412,-8586.388927,592.164754,689.485948
2975.591750,-9474.636058,592.164754,1149.143247
2975.592087,-10436.903782,296.082377,153.219100
2975.592425,-10658.965565,-814.226536,153.219100
2975.592762,-9622.677246,-666.185348,766.095498
2975.593099,-9252.574275,-2368.659014,2145.067394
2975.593437,-8586.388927,-148.041188,2145.067394
2975.593774,-9030.512492,74.020594,1455.581446
2975.594112,-9770.718434,-296.082377,76.609550
2975.594449,-11029.068536,0.000000,-919.314598
2975.594786,-11399.171507,-296.082377,-459.657299
2975.595124,-10732.986159,-814.226536,612.876398
2975.595461,-9474.636058,-1554.432478,766.095498
2975.595799,-9844.739029,-740.205942,2374.896044
2975.596136,-10436.903782,0.000000,995.924147
2975.596473,-10807.006753,-888.247130,459.657299
2975.596811,-11695.253884,-1554.432478,536.266849
2975.597148,-11251.130318,-1258.350101,-1685.410096
2975.597486,-11325.150913,-1924.535449,-1072.533697
2975.597823,-10510.924376,-1776.494261,-1915.238745
2975.598160,-8586.388927,-1850.514855,-1532.190996
2975.598498,-9252.574275,-1776.494261,-995.924147
2975.598835,-9252.574275,-1776.494261,-612.876398
2975.599172,-10362.883188,-1480.411884,459.657299
2975.599510,-11325.150913,-1776.494261,1149.143247
2975.599847,-10288.862594,-1554.432478,1915.238745
2975.600185,-9992.780217,-1110.308913,2298.286494
2975.600522,-9548.656652,0.000000,2681.334243
2975.600859,-8660.409521,1036.288319,1455.581446
2975.601197,-10066.800811,888.247130,1072.533697
2975.601534,-10807.006753,1480.411884,612.876398
2975.601872,-10584.944971,666.185348,153.219100
2975.602209,-11177.109724,592.164754,612.876398
2975.602546,-8660.409521,1480.411884,0.000000
2975.602884,-8364.327145,1776.494261,383.047749
2975.603221,-8586.388927,1702.473667,536.266849
2975.603559,-10214.842000,1480.411884,536.266849
2975.603896,-11769.274478,1258.350101,-689.485948
2975.604233,-11695.253884,962.267725,-1991.848295
2975.604571,-11177.109724,148.041188,-1455.581446
2975.604908,-9474.636058,-666.185348,-689.485948
2975.605246,-8808.450710,-296.082377,-1072.533697
2975.605583,-8586.388927,-1110.308913,-612.876398
2975.605920,-9474.636058,-518.144159,-1149.143247
2975.606258,-10362.883188,-1258.350101,-689.485948
2975.606595,-12065.356855,-1702.473667,-383.047749
2975.606933,-11029.068536,-1628.453072,306.438199
2975.607270,-9844.739029,-1554.432478,1608.800546
2975.607607,-9696.697840,-1184.329507,2221.676944
2975.607945,-9474.636058,-444.123565,1991.848295
2975.608282,-10436.903782,-888.247130,1455.581446
2975.608620,-11103.089130,-1406.391290,536.266849
2975.608957,-10362.883188,-1776.494261,306.438199
2975.609294,-10955.047942,-444.123565,1149.143247
2975.609632,-9770.718434,-740.205942,612.876398
2975.609969,-9104.533087,-518.144159,0.000000
2975.610307,-8808.450710,0.000000,0.000000
2975.610644,-9622.677246,222.061783,-612.876398
2975.610981,-10658.965565,0.000000,-995.924147
2975.611319,-10436.903782,-962.267725,-919.314598
2975.611656,-10140.821405,-962.267725,0.000000
2975.611993,-9844.739029,-666.185348,153.219100
2975.612331,-9474.636058,-740.205942,689.485948
2975.612668,-9474.636058,-296.082377,919.314598
2975.613006,-10436.903782,-444.123565,1072.533697
2975.613343,-10436.903782,370.102971,229.828649
2975.613680,-10066.800811,74.020594,766.095498
2975.614018,-10436.903782,592.164754,1608.800546
2975.614355,-10436.903782,444.123565,1149.143247
2975.614693,-10140.821405,1554.432478,1455.581446
2975.615030,-9104.533087,1036.288319,1225.752797
2975.615367,-8956.491898,1036.288319,1149.143247
2975.615705,-9696.697840,0.000000,2298.286494
2975.616042,-10955.047942,740.205942,1991.848295
2975.616380,-11621.233289,666.185348,1072.533697
2975.616717,-10510.924376,740.205942,612.876398
2975.617054,-8882.471304,814.226536,229.828649
2975.617392,-8364.327145,370.102971,-153.219100
2975.617729,-9622.677246,-148.041188,-689.485948
2975.618067,-10066.800811,-518.144159,-2298.286494
2975.618404,-10658.965565,-2072.576638,-1762.019645
2975.618741,-9400.615463,-1406.391290,-2145.067394
2975.619079,-8734.430116,-2072.576638,-1072.533697
2975.619416,-9770.718434,-1998.556043,459.657299
2975.619754,-10066.800811,-1628.453072,0.000000
2975.620091,-10584.944971,-1554.432478,0.000000
2975.620428,-10881.027347,-1850.514855,0.000000
2975.620766,-11547.212695,-2220.617826,459.657299
2975.621103,-11843.295072,-1776.494261,842.705048
2975.621441,-10584.944971,-1850.514855,459.657299
2975.621778,-9548.656652,-740.205942,1225.752797
2975.622115,-9844.739029,-518.144159,1378.971896
2975.622453,-10362.883188,0.000000,1149.143247
2975.622790,-10362.883188,0.000000,612.876398
2975.623128,-11103.089130,0.000000,1225.752797
2975.623465,-10288.862594,2072.576638,689.485948
2975.623802,-10732.986159,1554.432478,-76.609550
2975.624140,-10214.842000,1628.453072,536.266849
2975.624477,-9474.636058,518.144159,-306.438199
2975.624814,-9326.594869,962.267725,153.219100
2975.625152,-9474.636058,296.082377,383.047749
2975.625489,-9844.739029,-518.144159,0.000000
2975.625827,-9178.553681,-370.102971,-766.095498
2975.626164,-8438.347739,0.000000,-1149.143247
2975.626501,-9030.512492,-962.267725,612.876398
2975.626839,-8586.388927,-444.123565,0.000000
2975.627176,-8438.347739,296.082377,0.000000
2975.627514,-9844.739029,592.164754,0.000000
2975.627851,-10584.944971,-296.082377,-459.657299
2975.628188,-10140.821405,222.061783,76.609550
2975.628526,-9622.677246,-592.164754,383.047749
2975.628863,-9918.759623,-666.185348,1838.629195
2975.629201,-10584.944971,74.020594,1378.971896
2975.629538,-10288.862594,-370.102971,383.047749
2975.629875,-10436.903782,-370.102971,919.314598
2975.630213,-11251.130318,-740.205942,1915.238745
2975.630550,-10658.965565,444.123565,689.485948
2975.630888,-11103.089130,-518.144159,229.828649
2975.631225,-10658.965565,-370.102971,383.047749
2975.631562,-9252.574275,-740.205942,-612.876398
2975.631900,-10436.903782,-888.247130,-766.095498
2975.632237,-10732.986159,-1776.494261,-1225.752797
2975.632575,-10288.862594,-2220.617826,-1991.848295
2975.632912,-9918.759623,-2294.638420,-1302.362347
2975.633249,-9770.718434,-2368.659014,-919.314598
2975.633587,-9844.739029,-2442.679609,0.000000
2975.633924,-9326.594869,-2442.679609,0.000000
2975.634262,-9474.636058,-2368.659014,0.000000
2975.634599,-10140.821405,-1850.514855,1149.143247
2975.634936,-10140.821405,-1850.514855,1762.019645
2975.635274,-9474.636058,-1110.308913,1225.752797
2975.635611,-9918.759623,-666.185348,1225.752797
2975.635949,-10510.924376,740.205942,1608.800546
2975.636286,-11473.192101,962.267725,1532.190996
2975.636623,-10140.821405,1258.350101,536.266849
2975.636961,-9918.759623,1110.308913,1072.533697
2975.637298,-9992.780217,1184.329507,1915.238745
2975.637635,-9844.739029,1406.391290,1225.752797
2975.637973,-10066.800811,2072.576638,229.828649
2975.638310,-10436.903782,1702.473667,919.314598
2975.638648,-9992.780217,1776.494261,0.000000
2975.638985,-10288.862594,740.205942,153.219100
2975.639322,-10955.047942,1702.473667,383.047749
2975.639660,-9548.656652,888.247130,-766.095498
2975.639997,-10584.944971,0.000000,-689.485948
2975.640335,-9474.636058,-1110.308913,-1455.581446
2975.640672,-8586.388927,-666.185348,-995.924147
2975.641009,-9030.512492,-1110.308913,-459.657299
2975.641347,-8216.285956,-1554.432478,0.000000
2975.641684,-9770.718434,-1554.432478,0.000000
2975.642022,-10288.862594,-1184.329507,-306.438199
2975.642359,-10214.842000,-1554.432478,-766.095498
2975.642696,-10436.903782,-1554.432478,919.314598
2975.643034,-9770.718434,-962.267725,1685.410096
2975.643371,-9844.739029,-592.164754,1225.752797
2975.643709,-11177.109724,-666.185348,1072.533697
2975.644046,-10214.842000,-1184.329507,842.705048
2975.644383,-10214.842000,-1110.308913,-306.438199
2975.644721,-10584.944971,-518.144159,76.609550
2975.645058,-9844.739029,-518.144159,0.000000
2975.645396,-10214.842000,0.000000,-919.314598
2975.645733,-9770.718434,-962.267725,-536.266849
2975.646070,-10658.965565,-370.102971,459.657299
2975.646408,-11769.274478,-1480.411884,995.924147
2975.646745,-10584.944971,-1554.432478,459.657299
2975.647083,-10066.800811,-740.205942,383.047749
2975.647420,-10510.924376,-1332.370696,229.828649
2975.647757,-9696.697840,-1258.350101,-689.485948
2975.648095,-9622.677246,-1258.350101,-1225.752797
2975.648432,-8956.491898,-666.185348,-383.047749
2975.648770,-9474.636058,-518.144159,-306.438199
2975.649107,-10288.862594,0.000000,-153.219100
2975.649444,-10066.800811,0.000000,459.657299
2975.649782,-10436.903782,0.000000,2221.676944
2975.650119,-9770.718434,74.020594,2911.162892
2975.650456,-9622.677246,1406.391290,2834.553343
2975.650794,-10362.883188,1332.370696,2757.943793
2975.651131,-10584.944971,1110.308913,842.705048
2975.651469,-9992.780217,1776.494261,-229.828649
2975.651806,-10066.800811,1998.556043,-153.219100
2975.652143,-9918.759623,888.247130,-536.266849
2975.652481,-9400.615463,1258.350101,-1532.190996
2975.652818,-8734.430116,888.247130,-1838.629195
2975.653156,-9252.574275,-222.061783,-459.657299
2975.653493,-10510.924376,-370.102971,-306.438199
2975.653830,-10510.924376,-222.061783,-536.266849
2975.654168,-10214.842000,-1036.288319,0.000000
2975.654505,-10214.842000,-740.205942,229.828649
2975.654843,-10436.903782,-1406.391290,612.876398
2975.655180,-10881.027347,-2146.597232,76.609550
2975.655517,-10214.842000,-2146.597232,-153.219100
2975.655855,-10140.821405,-1628.453072,-153.219100
2975.656192,-10436.903782,-1110.308913,-689.485948
2975.656530,-10214.842000,-1406.391290,-459.657299
2975.656867,-10214.842000,-2220.617826,306.438199
2975.657204,-9696.697840,-666.185348,306.438199
2975.657542,-9992.780217,-1110.308913,1225.752797
2975.657879,-10584.944971,-1184.329507,2145.067394
2975.658217,-9696.697840,-740.205942,2451.505594
2975.658554,-10658.965565,74.020594,2221.676944
2975.658891,-10807.006753,148.041188,1685.410096
2975.659229,-10658.965565,0.000000,766.095498
2975.659566,-9770.718434,0.000000,153.219100
2975.659904,-9326.594869,518.144159,0.000000
2975.660241,-8882.471304,740.205942,-306.438199
2975.660578,-9548.656652,296.082377,-919.314598
2975.660916,-10510.924376,444.123565,-1455.581446
2975.661253,-9844.739029,0.000000,-2221.676944
2975.661591,-9252.574275,-148.041188,-689.485948
2975.661928,-9844.739029,-296.082377,1149.143247
2975.662265,-9622.677246,-518.144159,1532.190996
2975.662603,-10066.800811,296.082377,1762.019645
2975.662940,-11103.089130,148.041188,1225.752797
2975.663277,-10658.965565,370.102971,612.876398
2975.663615,-10362.883188,-370.102971,1072.533697
2975.663952,-10955.047942,-740.205942,1762.019645
2975.664290,-10584.944971,370.102971,689.485948
2975.664627,-9992.780217,148.041188,766.095498
2975.664964,-9400.615463,0.000000,612.876398
2975.665302,-8660.409521,-74.020594,459.657299
2975.665639,-10288.862594,74.020594,1455.581446
2975.665977,-10807.006753,-888.247130,919.314598
2975.666314,-10807.006753,-370.102971,306.438199
2975.666651,-10510.924376,-592.164754,0.000000
2975.666989,-9696.697840,-518.144159,919.314598
2975.667326,-9548.656652,-592.164754,536.266849
2975.667664,-10362.883188,222.061783,-766.095498
2975.668001,-11251.130318,-666.185348,-1072.533697
2975.668338,-9918.759623,-1554.432478,-2604.724693
2975.668676,-9770.718434,-2220.617826,-1915.238745
2975.669013,-9474.636058,-1628.453072,-1685.410096
2975.669351,-8882.471304,-1480.411884,-536.266849
2975.669688,-9844.739029,-1480.411884,383.047749
2975.670025,-10140.821405,-740.205942,-76.609550
2975.670363,-10732.986159,-888.247130,306.438199
2975.670700,-11177.109724,-1702.473667,1838.629195
2975.671038,-10732.986159,-222.061783,2221.676944
2975.671375,-9844.739029,296.082377,1685.410096
2975.671712,-9918.759623,592.164754,2068.457845
2975.672050,-9326.594869,1036.288319,842.705048
2975.672387,-9844.739029,1184.329507,383.047749
2975.672725,-10288.862594,2072.576638,153.219100
2975.673062,-9844.739029,1776.494261,0.000000
2975.673399,-9548.656652,2294.638420,0.000000
2975.673737,-9474.636058,1184.329507,-612.876398
2975.674074,-9252.574275,814.226536,306.438199
2975.674412,-9178.553681,1480.411884,153.219100
2975.674749,-10214.842000,1480.411884,0.000000
2975.675086,-10436.903782,444.123565,-153.219100
2975.675424,-9622.677246,-296.082377,-1302.362347
2975.675761,-10066.800811,-1406.391290,-306.438199
2975.676099,-8290.306550,-444.123565,1149.143247
2975.676436,-9844.739029,-1554.432478,1149.143247
2975.676774,-10066.800811,-1184.329507,612.876398
2975.677111,-9326.594869,-370.102971,-1225.752797
2975.677448,-10140.821405,-1036.288319,-459.657299
2975.677786,-10658.965565,-1924.535449,0.000000
2975.678123,-9770.718434,-1406.391290,459.657299
2975.678461,-10066.800811,-296.082377,1685.410096
2975.678798,-10436.903782,222.061783,1991.848295
2975.679136,-10732.986159,518.144159,919.314598
2975.679473,-11399.171507,74.020594,536.266849
2975.679810,-11177.109724,-222.061783,459.657299
2975.680148,-10881.027347,-592.164754,459.657299
2975.680485,-10436.903782,-740.205942,612.876398
2975.680823,-9548.656652,-740.205942,459.657299
2975.681160,-9622.677246,-1036.288319,995.924147
2975.681498,-9400.615463,296.082377,0.000000
2975.681835,-10140.821405,592.164754,-1149.143247
2975.682172,-10732.986159,-74.020594,-1532.190996
2975.682510,-10362.883188,-1406.391290,-1991.848295
2975.682847,-9548.656652,-2072.576638,-1072.533697
2975.683185,-8364.327145,-2294.638420,229.828649
2975.683522,-8216.285956,-1332.370696,1685.410096
2975.683860,-8586.388927,-1184.329507,1302.362347
2975.684197,-9770.718434,-1110.308913,1149.143247
2975.684534,-11251.130318,-1258.350101,1455.581446
2975.684872,-11325.150913,-814.226536,1915.238745
2975.685209,-10807.006753,74.020594,1915.238745
2975.685547,-10288.862594,666.185348,2604.724693
2975.685884,-10436.903782,1258.350101,1915.238745
2975.686222,-9178.553681,2368.659014,1302.362347
2975.686559,-10955.047942,1554.432478,766.095498
2975.686896,-10658.965565,1406.391290,-766.095498
2975.687234,-10807.006753,1406.391290,-1608.800546
2975.687571,-10732.986159,740.205942,-1378.971896
2975.687909,-9326.594869,296.082377,-842.705048
2975.688246,-9104.533087,-296.082377,306.438199
2975.688584,-9548.656652,0.000000,0.000000
2975.688921,-9252.574275,-444.123565,76.609550
2975.689258,-10807.006753,-888.247130,536.266849
2975.689596,-11251.130318,-1628.453072,-306.438199
2975.689933,-9622.677246,-2072.576638,-842.705048
2975.690271,-9474.636058,-2072.576638,229.828649
2975.690608,-9178.553681,-2146.597232,-459.657299
2975.690945,-8882.471304,-1258.350101,-995.924147
2975.691283,-9030.512492,-888.247130,-1378.971896
2975.691620,-9622.677246,-1406.391290,-842.705048
2975.691958,-11547.212695,-1850.514855,-919.314598
2975.692295,-10955.047942,-1776.494261,0.000000
2975.692633,-9622.677246,-888.247130,995.924147
2975.692970,-9548.656652,0.000000,2604.724693
2975.693307,-10214.842000,666.185348,1685.410096
2975.693645,-10881.027347,592.164754,1378.971896
2975.693982,-11547.212695,370.102971,1378.971896
2975.694320,-11029.068536,814.226536,0.000000
2975.694657,-10288.862594,1110.308913,0.000000
2975.694995,-10436.903782,1036.288319,383.047749
2975.695332,-9696.697840,2220.617826,-306.438199
2975.695669,-9400.615463,1480.411884,-1225.752797
2975.696007,-10066.800811,1776.494261,-1302.362347
2975.696344,-9918.759623,-74.020594,-842.705048
2975.696682,-9992.780217,-888.247130,-459.657299
2975.697019,-9030.512492,-740.205942,536.266849
2975.697357,-9326.594869,-518.144159,2528.115143
2975.697694,-9474.636058,740.205942,2221.676944
2975.698031,-9548.656652,1036.288319,153.219100
2975.698369,-10214.842000,0.000000,0.000000
2975.698706,-10066.800811,296.082377,-536.266849
2975.699044,-9696.697840,-666.185348,229.828649
2975.699381,-9474.636058,-296.082377,1532.190996
2975.699719,-9400.615463,-518.144159,1302.362347
2975.700056,-9696.697840,370.102971,2374.896044
2975.700393,-9622.677246,1628.453072,1762.019645
2975.700731,-9992.780217,1258.350101,1685.410096
2975.701068,-11991.336260,370.102971,1302.362347
2975.701406,-11769.274478,0.000000,0.000000
2975.701743,-10436.903782,222.061783,-383.047749
2975.702081,-9252.574275,222.061783,0.000000
2975.702418,-9104.533087,222.061783,459.657299
2975.702755,-9474.636058,518.144159,-306.438199
2975.703093,-11399.171507,-370.102971,-842.705048
2975.703430,-10807.006753,-962.267725,-1915.238745
2975.703768,-10658.965565,-2664.741391,-1685.410096
2975.704105,-10436.903782,-2368.659014,306.438199
2975.704443,-9474.636058,-2368.659014,0.000000
2975.704780,-9400.615463,-666.185348,383.047749
2975.705117,-9104.533087,-1332.370696,459.657299
2975.705455,-9770.718434,-1628.453072,153.219100
2975.705792,-10732.986159,-1924.535449,766.095498
2975.706130,-10362.883188,-1628.453072,842.705048
2975.706467,-10510.924376,-2146.597232,2834.553343
2975.706805,-10214.842000,-740.205942,2834.553343
2975.707142,-9252.574275,1628.453072,2528.115143
2975.707479,-9918.759623,1776.494261,919.314598
2975.707817,-10510.924376,1258.350101,-306.438199
2975.708154,-10955.047942,962.267725,-612.876398
2975.708492,-10807.006753,1110.308913,-76.609550
2975.708829,-9474.636058,888.247130,536.266849
2975.709167,-9474.636058,592.164754,229.828649
2975.709504,-9622.677246,1184.329507,76.609550
2975.709841,-9548.656652,1702.473667,-153.219100
2975.710179,-10436.903782,592.164754,76.609550
2975.710516,-10658.965565,0.000000,-1378.971896
2975.710854,-10584.944971,-1036.288319,-1378.971896
2975.711191,-10066.800811,-962.267725,-612.876398
2975.711528,-8438.347739,-1258.350101,-612.876398
2975.711866,-9400.615463,-1110.308913,-459.657299
2975.712203,-9400.615463,-1480.411884,0.000000
2975.712541,-9622.677246,-1924.535449,-306.438199
2975.712878,-10066.800811,-2146.597232,536.266849
2975.713216,-10066.800811,-1850.514855,689.485948
2975.713553,-10807.006753,-1702.473667,1608.800546
2975.713890,-10362.883188,-2146.597232,1762.019645
2975.714228,-10288.862594,0.000000,1838.629195
2975.714565,-10140.821405,296.082377,766.095498
2975.714903,-10288.862594,-296.082377,76.609550
2975.715240,-10732.986159,-1258.350101,-612.876398
2975.715578,-10288.862594,-1332.370696,-536.266849
2975.715915,-10214.842000,148.041188,536.266849
2975.716252,-9992.780217,-666.185348,1072.533697
2975.716590,-9918.759623,0.000000,1072.533697
2975.716927,-10362.883188,222.061783,-459.657299
2975.717265,-10066.800811,888.247130,-689.485948
2975.717602,-10140.821405,0.000000,-612.876398
2975.717940,-11547.212695,-888.247130,-766.095498
2975.718277,-11029.068536,-814.226536,-459.657299
2975.718614,-8956.491898,0.000000,-536.266849
2975.718952,-8290.306550,592.164754,612.876398
2975.719289,-8882.471304,148.041188,459.657299
2975.719627,-9622.677246,148.041188,612.876398
2975.719964,-10288.862594,-148.041188,766.095498
2975.720302,-10362.883188,0.000000,1072.533697
2975.720639,-10362.883188,518.144159,2221.676944
2975.720976,-9770.718434,1110.308913,2604.724693
2975.721314,-9252.574275,1776.494261,1685.410096
2975.721651,-9178.553681,2072.576638,1915.238745
2975.721989,-9770.718434,1702.473667,689.485948
2975.722326,-10140.821405,1628.453072,229.828649
2975.722664,-10881.027347,1480.411884,153.219100
2975.723001,-11251.130318,1480.411884,0.000000
2975.723338,-9992.780217,1554.432478,-1762.019645
2975.723676,-8512.368333,1036.288319,-919.314598
2975.724013,-8660.409521,0.000000,0.000000
2975.724351,-9918.759623,-370.102971,-919.314598
2975.724688,-10362.883188,-1480.411884,-1838.629195
2975.725026,-11547.212695,-2072.576638,0.000000
2975.725363,-10288.862594,-1554.432478,0.000000
2975.725700,-9474.636058,-1258.350101,76.609550
2975.726038,-10066.800811,-888.247130,0.000000
2975.726375,-9918.759623,-2146.597232,76.609550
2975.726713,-10881.027347,-1110.308913,-766.095498
2975.727050,-10510.924376,-2146.597232,-919.314598
2975.727388,-11251.130318,-2368.659014,689.485948
2975.727725,-10140.821405,-1628.453072,919.314598
2975.728062,-10214.842000,-1702.473667,1225.752797
2975.728400,-8882.471304,-592.164754,1532.190996
2975.728737,-9252.574275,0.000000,1378.971896
2975.729075,-11325.150913,-74.020594,1455.581446
2975.729412,-11029.068536,-222.061783,536.266849
2975.729749,-10732.986159,814.226536,306.438199
2975.730087,-10066.800811,518.144159,612.876398
2975.730424,-9548.656652,1184.329507,229.828649
2975.730762,-9252.574275,962.267725,612.876398
2975.731099,-9770.718434,0.000000,0.000000
2975.731437,-9474.636058,444.123565,-919.314598
2975.731774,-10288.862594,222.061783,-842.705048
2975.732111,-10140.821405,0.000000,-536.266849
2975.732449,-8956.491898,-518.144159,-383.047749
2975.732786,-8808.450710,-444.123565,0.000000
2975.733124,-9400.615463,-296.082377,1762.019645
2975.733461,-9474.636058,0.000000,995.924147
2975.733799,-10066.800811,0.000000,689.485948
2975.734136,-9844.739029,-888.247130,1149.143247
2975.734473,-10288.862594,-1110.308913,1838.629195
2975.734811,-10066.800811,-518.144159,2757.943793
2975.735148,-10510.924376,0.000000,2068.457845
2975.735486,-9844.739029,-296.082377,1608.800546
2975.735823,-10214.842000,0.000000,459.657299
2975.736161,-10140.821405,0.000000,689.485948
2975.736498,-10732.986159,-814.226536,689.485948
2975.736835,-10955.047942,-1184.329507,459.657299
2975.737173,-9770.718434,666.185348,-1225.752797
2975.737510,-9844.739029,-740.205942,-153.219100
2975.737848,-10362.883188,-814.226536,-306.438199
2975.738185,-9770.718434,-1332.370696,-919.314598
2975.738523,-10584.944971,-1258.350101,-1608.800546
2975.738860,-10436.903782,-1554.432478,-1302.362347
2975.739197,-10807.006753,-2368.659014,-1455.581446
2975.739535,-10510.924376,-1924.535449,-1149.143247
2975.739872,-9770.718434,-2368.659014,-229.828649
2975.740210,-9030.512492,-1406.391290,153.219100
2975.740547,-9918.759623,-1628.453072,383.047749
2975.740885,-10658.965565,-1406.391290,153.219100
2975.741222,-9918.759623,-1406.391290,-229.828649
2975.741559,-10362.883188,-592.164754,766.095498
2975.741897,-9992.780217,0.000000,919.314598
2975.742234,-10288.862594,592.164754,1072.533697
2975.742572,-10288.862594,1924.535449,1072.533697
2975.742909,-9770.718434,1406.391290,459.657299
2975.743247,-9992.780217,1702.473667,919.314598
2975.743584,-10066.800811,1480.411884,1072.533697
2975.743921,-10362.883188,1702.473667,306.438199
2975.744259,-9770.718434,2812.782580,0.000000
2975.744596,-9474.636058,1998.556043,229.828649
2975.744934,-9252.574275,1480.411884,0.000000
2975.745271,-9030.512492,1406.391290,-383.047749
2975.745609,-9178.553681,2220.617826,-536.266849
2975.745946,-10732.986159,666.185348,-306.438199
2975.746283,-9844.739029,-222.061783,-1149.143247
2975.746621,-9474.636058,-148.041188,-306.438199
2975.746958,-9548.656652,-666.185348,995.924147
2975.747296,-9400.615463,-1036.288319,1072.533697
2975.747633,-10140.821405,-1406.391290,995.924147
2975.747970,-10436.903782,-1702.473667,842.705048
2975.748308,-10732.986159,-1036.288319,612.876398
2975.748645,-10140.821405,-740.205942,612.876398
2975.748983,-9844.739029,-296.082377,383.047749
2975.749320,-9696.697840,-1480.411884,1072.533697
2975.749658,-10436.903782,-518.144159,1532.190996
2975.749995,-9696.697840,-296.082377,229.828649
2975.750332,-10362.883188,-518.144159,1072.533697
2975.750670,-11325.150913,-370.102971,1532.190996
2975.751007,-10807.006753,-296.082377,229.828649
2975.751345,-10955.047942,74.020594,536.266849
2975.751682,-9844.739029,-1184.329507,689.485948
2975.752020,-9474.636058,-740.205942,0.000000
2975.752357,-10362.883188,-1628.453072,229.828649
2975.752694,-9770.718434,-370.102971,0.000000
2975.753032,-10140.821405,-666.185348,-919.314598
2975.753369,-10807.006753,0.000000,-1378.971896
2975.753707,-9622.677246,-1332.370696,-842.705048
2975.754044,-8956.491898,-1554.432478,306.438199
2975.754382,-9622.677246,-740.205942,459.657299
2975.754719,-10140.821405,-592.164754,459.657299
2975.755056,-10140.821405,-518.144159,689.485948
2975.755394,-9622.677246,-1036.288319,612.876398
2975.755731,-10362.883188,-888.247130,2528.115143
2975.756069,-9918.759623,444.123565,2451.505594
2975.756406,-10066.800811,-370.102971,2451.505594
2975.756744,-10214.842000,1036.288319,2145.067394
2975.757081,-9326.594869,962.267725,536.266849
2975.757418,-10955.047942,1184.329507,1378.971896
2975.757756,-10732.986159,592.164754,-153.219100
2975.758093,-9030.512492,1184.329507,-2451.505594
2975.758431,-10214.842000,814.226536,-995.924147
2975.758768,-9400.615463,0.000000,-1225.752797
2975.759106,-8808.450710,-148.041188,-1685.410096
2975.759443,-9474.636058,-962.267725,-1149.143247
2975.759780,-10066.800811,-814.226536,-689.485948
2975.760118,-10881.027347,-1554.432478,-1149.143247
2975.760455,-10584.944971,-1924.535449,-1302.362347
2975.760793,-9474.636058,-2220.617826,-842.705048
2975.761130,-10066.800811,-2812.782580,459.657299
2975.761468,-10584.944971,-1628.453072,306.438199
2975.761805,-9918.759623,-1998.556043,-1149.143247
2975.762142,-10436.903782,-1628.453072,76.609550
2975.762480,-10288.862594,-2368.659014,0.000000
2975.762817,-10436.903782,-1924.535449,0.000000
2975.763155,-10955.047942,-1776.494261,842.705048
2975.763492,-9992.780217,-1628.453072,1072.533697
2975.763830,-10214.842000,-1184.329507,1149.143247
2975.764167,-9622.677246,148.041188,1532.190996
2975.764504,-10658.965565,1332.370696,1838.629195
2975.764842,-10732.986159,666.185348,1225.752797
2975.765179,-10362.883188,444.123565,229.828649
2975.765517,-9548.656652,0.000000,153.219100
2975.765854,-9400.615463,0.000000,1225.752797
2975.766192,-8882.471304,1184.329507,1455.581446
2975.766529,-10362.883188,444.123565,229.828649
2975.766866,-9400.615463,1258.350101,-383.047749
2975.767204,-9252.574275,1036.288319,-1225.752797
2975.767541,-10214.842000,74.020594,0.000000
2975.767879,-9696.697840,-592.164754,76.609550
2975.768216,-9770.718434,-370.102971,842.705048
2975.768553,-9252.574275,592.164754,1455.581446
2975.768891,-9178.553681,666.185348,229.828649
2975.769228,-10362.883188,1110.308913,306.438199
2975.769566,-9992.780217,74.020594,919.314598
2975.769903,-10214.842000,592.164754,995.924147
2975.770241,-10807.006753,592.164754,1608.800546
2975.770578,-10288.862594,518.144159,1225.752797
2975.770915,-9548.656652,888.247130,766.095498
2975.771253,-10066.800811,444.123565,842.705048
2975.771590,-10584.944971,740.205942,1378.971896
2975.771928,-9992.780217,296.082377,383.047749
2975.772265,-10732.986159,-296.082377,0.000000
2975.772603,-9770.718434,296.082377,-612.876398
2975.772940,-10288.862594,148.041188,-76.609550
2975.773277,-10732.986159,-370.102971,-383.047749
2975.773615,-9918.759623,-814.226536,-1302.362347
2975.773952,-10362.883188,-666.185348,-1072.533697
2975.774290,-10362.883188,-1258.350101,-1455.581446
2975.774627,-9844.739029,-2220.617826,-2221.676944
2975.774965,-9474.636058,-2220.617826,-1072.533697
2975.775302,-10214.842000,-1628.453072,76.609550
2975.775640,-9992.780217,-1998.556043,0.000000
2975.775977,-9992.780217,-1332.370696,229.828649
2975.776314,-9844.739029,-1776.494261,1532.190996
2975.776652,-10732.986159,-1184.329507,2451.505594
2975.776989,-11103.089130,-814.226536,1225.752797
2975.777327,-9918.759623,0.000000,1302.362347
2975.777664,-10214.842000,0.000000,1378.971896
2975.778002,-9696.697840,148.041188,1302.362347
2975.778339,-9400.615463,444.123565,1838.629195
2975.778677,-9770.718434,1480.411884,1302.362347
2975.779014,-10288.862594,1110.308913,1225.752797
2975.779352,-10658.965565,888.247130,689.485948
2975.779689,-9548.656652,1110.308913,-306.438199
2975.780027,-9400.615463,1110.308913,306.438199
2975.780364,-9030.512492,962.267725,0.000000
2975.780701,-8882.471304,0.000000,0.000000
2975.781039,-9844.739029,592.164754,536.266849
2975.781376,-10362.883188,0.000000,-229.828649
2975.781714,-9844.739029,-666.185348,-995.924147
2975.782051,-9548.656652,-1332.370696,-689.485948
2975.782389,-9844.739029,-1184.329507,-229.828649
2975.782726,-8808.450710,-962.267725,0.000000
2975.783064,-10362.883188,-1998.556043,0.000000
2975.783401,-9918.759623,-1480.411884,-995.924147
2975.783739,-9548.656652,-1776.494261,-842.705048
2975.784076,-9844.739029,-1480.411884,536.266849
2975.784413,-10436.903782,-2368.659014,383.047749
2975.784751,-11399.171507,-1776.494261,1225.752797
2975.785088,-9770.718434,-1480.411884,995.924147
2975.785426,-10436.903782,-518.144159,1991.848295
2975.785763,-11325.150913,-592.164754,1532.190996
2975.786101,-10955.047942,592.164754,-383.047749
2975.786438,-10881.027347,-1110.308913,-459.657299
2975.786776,-10955.047942,-962.267725,-995.924147
2975.787113,-9844.739029,-888.247130,-1149.143247
2975.787451,-9770.718434,-888.247130,-536.266849
2975.787788,-10140.821405,-1554.432478,-459.657299
2975.788126,-9548.656652,-666.185348,-459.657299
2975.788463,-10214.842000,-370.102971,-766.095498
2975.788800,-9548.656652,-888.247130,-1149.143247
2975.789138,-9844.739029,-1184.329507,-383.047749
2975.789475,-9918.759623,-1258.350101,383.047749
2975.789813,-9992.780217,-222.061783,766.095498
2975.790150,-10140.821405,-222.061783,1915.238745
2975.790488,-9918.759623,666.185348,153.219100
2975.790825,-10066.800811,1036.288319,0.000000
2975.791163,-10288.862594,518.144159,1149.143247
2975.791500,-9474.636058,74.020594,1762.019645
2975.791838,-9474.636058,74.020594,1915.238745
2975.792175,-9252.574275,1924.535449,2911.162892
2975.792513,-10140.821405,2368.659014,2911.162892
2975.792850,-10584.944971,3404.947333,1149.143247
2975.793187,-10362.883188,3108.864956,-612.876398
2975.793525,-10732.986159,2072.576638,0.000000
2975.793862,-10214.842000,1184.329507,-536.266849
2975.794200,-9622.677246,1110.308913,-459.657299
2975.794537,-8956.491898,740.205942,-459.657299
2975.794875,-8808.450710,74.020594,0.000000
2975.795212,-9844.739029,888.247130,-612.876398
2975.795550,-10510.924376,-370.102971,-2145.067394
2975.795887,-10214.842000,-962.267725,-1532.190996
2975.796225,-10658.965565,-2664.741391,-842.705048
2975.796562,-9178.553681,-2072.576638,0.000000
2975.796899,-9400.615463,-1776.494261,1302.362347
2975.797237,-10584.944971,-1776.494261,1915.238745
2975.797574,-10436.903782,-962.267725,0.000000
2975.797912,-11251.130318,-1850.514855,-842.705048
2975.798249,-10732.986159,-1924.535449,76.609550
2975.798587,-10288.862594,-1480.411884,153.219100
2975.798924,-9770.718434,-1998.556043,1149.143247
2975.799262,-9844.739029,-814.226536,1991.848295
2975.799599,-9548.656652,-370.102971,1532.190996
2975.799937,-9992.780217,0.000000,1072.533697
2975.800274,-10955.047942,0.000000,1378.971896
2975.800612,-10658.965565,0.000000,919.314598
2975.800949,-10955.047942,-296.082377,612.876398
2975.801286,-9992.780217,74.020594,383.047749
2975.801624,-9770.718434,0.000000,995.924147
2975.801961,-10140.821405,74.020594,842.705048
2975.802299,-9474.636058,518.144159,-1225.752797
2975.802636,-9474.636058,518.144159,-842.705048
2975.802974,-10436.903782,-888.247130,0.000000
2975.803311,-9770.718434,-1554.432478,-842.705048
2975.803649,-8660.409521,-814.226536,1149.143247
2975.803986,-9252.574275,-296.082377,2528.115143
2975.804324,-9844.739029,0.000000,1072.533697
2975.804661,-10436.903782,1702.473667,-76.609550
2975.804999,-10362.883188,1036.288319,536.266849
2975.805336,-10658.965565,74.020594,0.000000
2975.805673,-8956.491898,-814.226536,0.000000
2975.806011,-9474.636058,-666.185348,1378.971896
2975.806348,-9844.739029,-888.247130,3140.991542
2975.806686,-9326.594869,814.226536,1685.410096
2975.807023,-10066.800811,1184.329507,689.485948
2975.807361,-11843.295072,444.123565,306.438199
2975.807698,-10807.006753,-518.144159,-1378.971896
2975.808036,-9548.656652,-666.185348,-1685.410096
2975.808373,-8438.347739,-740.205942,-459.657299
2975.808711,-8882.471304,-666.185348,-459.657299
2975.809048,-9400.615463,-888.247130,-1608.800546
2975.809385,-9622.677246,-148.041188,-2451.505594
2975.809723,-10732.986159,-1184.329507,-2221.676944
2975.810060,-11103.089130,-1554.432478,-2221.676944
2975.810398,-10436.903782,-1628.453072,-1302.362347
2975.810735,-10510.924376,-1776.494261,0.000000
2975.811073,-10807.006753,-1702.473667,842.705048
2975.811410,-10288.862594,0.000000,-76.609550
2975.811748,-10362.883188,-1036.288319,229.828649
2975.812085,-10658.965565,-1628.453072,1685.410096
2975.812423,-11029.068536,-1406.391290,1685.410096
2975.812760,-10436.903782,148.041188,1378.971896
2975.813098,-10214.842000,0.000000,3140.991542
2975.813435,-10436.903782,444.123565,2528.115143
2975.813772,-10436.903782,1480.411884,1532.190996
2975.814110,-10362.883188,1702.473667,1302.362347
2975.814447,-9548.656652,1554.432478,919.314598
2975.814785,-9844.739029,592.164754,383.047749
2975.815122,-9030.512492,222.061783,536.266849
2975.815460,-7550.100608,814.226536,306.438199
2975.815797,-8808.450710,370.102971,1149.143247
2975.816135,-9178.553681,1702.473667,153.219100
2975.816472,-9326.594869,888.247130,-689.485948
2975.816810,-10658.965565,1036.288319,0.000000
2975.817147,-9622.677246,814.226536,-919.314598
2975.817485,-9474.636058,-962.267725,459.657299
2975.817822,-10955.047942,-444.123565,1762.019645
2975.818159,-9918.759623,-222.061783,229.828649
2975.818497,-10362.883188,370.102971,0.000000
2975.818834,-10362.883188,0.000000,-536.266849
2975.819172,-9474.636058,-1258.350101,-689.485948
2975.819509,-10214.842000,-1184.329507,-459.657299
2975.819847,-10362.883188,-740.205942,612.876398
2975.820184,-10658.965565,-1184.329507,766.095498
2975.820522,-10732.986159,-666.185348,1302.362347
2975.820859,-10732.986159,740.205942,1378.971896
2975.821197,-11029.068536,444.123565,842.705048
2975.821534,-11177.109724,0.000000,229.828649
2975.821871,-9992.780217,-666.185348,-536.266849
2975.822209,-9696.697840,-1258.350101,-383.047749
2975.822546,-9548.656652,-1258.350101,-306.438199
2975.822884,-9918.759623,-1702.473667,-919.314598
2975.823221,-9844.739029,-296.082377,-1455.581446
2975.823559,-9252.574275,-592.164754,-1608.800546
2975.823896,-9992.780217,-888.247130,-1072.533697
2975.824234,-9474.636058,-1628.453072,-1072.533697
2975.824571,-9326.594869,-1998.556043,-459.657299
2975.824909,-9474.636058,-1850.514855,1608.800546
2975.825246,-10288.862594,-888.247130,1762.019645
2975.825584,-11029.068536,148.041188,1378.971896
2975.825921,-10510.924376,-888.247130,995.924147
2975.826258,-9918.759623,-444.123565,1072.533697
2975.826596,-10436.903782,-296.082377,1072.533697
2975.826933,-10510.924376,0.000000,2451.505594
2975.827271,-9622.677246,518.144159,1838.629195
2975.827608,-9770.718434,1480.411884,1762.019645
2975.827946,-10288.862594,1998.556043,1072.533697
2975.828283,-9992.780217,2368.659014,459.657299
2975.828621,-10584.944971,1628.453072,459.657299
2975.828958,-9992.780217,1406.391290,-76.609550
2975.829296,-9474.636058,592.164754,536.266849
2975.829633,-9844.739029,592.164754,383.047749
2975.829971,-9992.780217,518.144159,0.000000
2975.830308,-9992.780217,222.061783,-459.657299
2975.830645,-9844.739029,-888.247130,-919.314598
2975.830983,-8956.491898,-1776.494261,-1149.143247
2975.831320,-8808.450710,-2146.597232,-1072.533697
2975.831658,-8882.471304,-2146.597232,-383.047749
2975.831995,-9844.739029,-1776.494261,-306.438199
2975.832333,-10584.944971,-518.144159,-766.095498
2975.832670,-10658.965565,148.041188,-1608.800546
2975.833008,-10732.986159,-1998.556043,-766.095498
2975.833345,-10732.986159,-2146.597232,-383.047749
2975.833683,-9326.594869,-2072.576638,383.047749
2975.834020,-9326.594869,-2146.597232,2374.896044
2975.834357,-10510.924376,-1554.432478,1838.629195
2975.834695,-11325.150913,-518.144159,1608.800546
2975.835032,-11251.130318,296.082377,1455.581446
2975.835370,-10288.862594,444.123565,1149.143247
2975.835707,-11029.068536,0.000000,1608.800546
2975.836045,-11029.068536,444.123565,306.438199
2975.836382,-10066.800811,-296.082377,306.438199
2975.836720,-9770.718434,-666.185348,612.876398
2975.837057,-9474.636058,666.185348,-612.876398
2975.837395,-9548.656652,1036.288319,-1149.143247
2975.837732,-10140.821405,-296.082377,-842.705048
2975.838070,-9548.656652,-296.082377,-1532.190996
2975.838407,-9030.512492,-740.205942,-1532.190996
2975.838744,-9326.594869,-1110.308913,1149.143247
2975.839082,-9474.636058,-1332.370696,2221.676944
2975.839419,-10066.800811,0.000000,1838.629195
2975.839757,-9992.780217,1332.370696,1608.800546
2975.840094,-10584.944971,1110.308913,1455.581446
2975.840432,-10955.047942,1258.350101,842.705048
2975.840769,-10214.842000,518.144159,-76.609550
2975.841107,-9548.656652,666.185348,153.219100
2975.841444,-9622.677246,962.267725,689.485948
2975.841782,-9770.718434,1184.329507,536.266849
2975.842119,-9104.533087,1702.473667,536.266849
2975.842457,-9992.780217,740.205942,0.000000
2975.842794,-10362.883188,1036.288319,-153.219100
2975.843131,-10288.862594,-296.082377,-153.219100
2975.843469,-9770.718434,222.061783,689.485948
2975.843806,-9844.739029,0.000000,383.047749
2975.844144,-9622.677246,1036.288319,76.609550
2975.844481,-10288.862594,518.144159,-919.314598
2975.844819,-10288.862594,-74.020594,-1455.581446
2975.845156,-9844.739029,-1110.308913,-1915.238745
2975.845494,-10140.821405,-1332.370696,-1838.629195
2975.845831,-9918.759623,-2220.617826,-1302.362347
2975.846169,-9030.512492,-962.267725,-1532.190996
2975.846506,-10362.883188,-2368.659014,-153.219100
2975.846843,-10436.903782,-1554.432478,766.095498
2975.847181,-9696.697840,-1554.432478,919.314598
2975.847518,-10362.883188,-2368.659014,2451.505594
2975.847856,-10066.800811,-2146.597232,2528.115143
2975.848193,-10140.821405,-1332.370696,2987.772442
2975.848531,-11547.212695,0.000000,3140.991542
2975.848868,-10584.944971,296.082377,919.314598
2975.849206,-9474.636058,1110.308913,612.876398
2975.849543,-10510.924376,296.082377,1455.581446
2975.849881,-10214.842000,296.082377,306.438199
2975.850218,-10066.800811,-740.205942,383.047749
2975.850556,-9770.718434,296.082377,995.924147
2975.850893,-9400.615463,1110.308913,459.657299
2975.851230,-10881.027347,1110.308913,536.266849
2975.851568,-10140.821405,518.144159,0.000000
2975.851905,-10066.800811,-296.082377,-459.657299
2975.852243,-9696.697840,-296.082377,0.000000
2975.852580,-9474.636058,-962.267725,-459.657299
2975.852918,-9548.656652,-666.185348,0.000000
2975.853255,-9992.780217,-740.205942,-459.657299
2975.853593,-9548.656652,-962.267725,-383.047749
2975.853930,-10362.883188,-666.185348,0.000000
2975.854268,-10214.842000,-1924.535449,0.000000
2975.854605,-9104.533087,-1332.370696,-383.047749
2975.854943,-8660.409521,-1628.453072,153.219100
2975.855280,-9400.615463,222.061783,306.438199
2975.855617,-10214.842000,-370.102971,0.000000
2975.855955,-10732.986159,-370.102971,-383.047749
2975.856292,-10288.862594,-222.061783,76.609550
2975.856630,-9844.739029,0.000000,919.314598
2975.856967,-9622.677246,-592.164754,1532.190996
2975.857305,-11029.068536,-1184.329507,1302.362347
2975.857642,-10732.986159,-740.205942,76.609550
2975.857980,-9992.780217,0.000000,-919.314598
2975.858317,-9844.739029,-666.185348,0.000000
2975.858655,-10584.944971,-444.123565,-1072.533697
2975.858992,-9548.656652,-1184.329507,-1838.629195
2975.859329,-9474.636058,0.000000,-1685.410096
2975.859667,-9770.718434,-1332.370696,-1608.800546
2975.860004,-10807.006753,-518.144159,-995.924147
2975.860342,-10584.944971,-592.164754,-612.876398
2975.860679,-9622.677246,-370.102971,383.047749
2975.861017,-10584.944971,518.144159,1608.800546
2975.861354,-10658.965565,0.000000,766.095498
2975.861692,-9844.739029,0.000000,766.095498
2975.862029,-10881.027347,-666.185348,1838.629195
2975.862367,-9992.780217,148.041188,2528.115143
2975.862704,-9252.574275,1036.288319,1838.629195
2975.863042,-10362.883188,1110.308913,2757.943793
2975.863379,-9696.697840,1850.514855,1149.143247
2975.863716,-8734.430116,1702.473667,229.828649
2975.864054,-9918.759623,1554.432478,1149.143247
2975.864391,-10362.883188,518.144159,1149.143247
2975.864729,-9918.759623,1998.556043,229.828649
2975.865066,-9252.574275,1258.350101,-842.705048
2975.865404,-9696.697840,814.226536,-306.438199
2975.865741,-9104.533087,-370.102971,0.000000
2975.866079,-9104.533087,-370.102971,-842.705048
2975.866416,-9178.553681,-1110.308913,0.000000
2975.866754,-9844.739029,-814.226536,-1072.533697
2975.867091,-10288.862594,-592.164754,-766.095498
2975.867429,-11769.274478,-740.205942,-383.047749
2975.867766,-10510.924376,-1036.288319,229.828649
2975.868103,-10584.944971,-666.185348,76.609550
2975.868441,-10288.862594,-370.102971,-229.828649
2975.868778,-9992.780217,-1184.329507,459.657299
2975.869116,-9918.759623,-1332.370696,1302.362347
2975.869453,-10436.903782,-1480.411884,919.314598
2975.869791,-11251.130318,-740.205942,1072.533697
2975.870128,-11843.295072,-1332.370696,1225.752797
2975.870466,-10584.944971,-370.102971,306.438199
2975.870803,-9474.636058,-518.144159,612.876398
2975.871141,-9548.656652,-74.020594,2221.676944
2975.871478,-9696.697840,-814.226536,1455.581446
2975.871815,-10510.924376,0.000000,229.828649
2975.872153,-9548.656652,-370.102971,-536.266849
2975.872490,-9992.780217,-370.102971,-306.438199
2975.872828,-9622.677246,-666.185348,0.000000
2975.873165,-9474.636058,-962.267725,-1225.752797
2975.873503,-9326.594869,0.000000,-919.314598
2975.873840,-9400.615463,-518.144159,-995.924147
2975.874178,-9992.780217,-222.061783,-1149.143247
2975.874515,-9252.574275,-740.205942,-919.314598
2975.874853,-10214.842000,-888.247130,536.266849
2975.875190,-10584.944971,-296.082377,1149.143247
2975.875528,-10362.883188,0.000000,919.314598
2975.875865,-9770.718434,370.102971,2068.457845
2975.876202,-10214.842000,-370.102971,1532.190996
2975.876540,-10658.965565,962.267725,919.314598
2975.876877,-11473.192101,888.247130,919.314598
2975.877215,-11547.212695,0.000000,919.314598
2975.877552,-9622.677246,0.000000,-536.266849
2975.877890,-8290.306550,222.061783,-919.314598
2975.878227,-8068.244768,0.000000,153.219100
2975.878564,-8808.450710,-1036.288319,-536.266849
2975.878902,-9548.656652,-296.082377,-689.485948
2975.879239,-10288.862594,-370.102971,-1149.143247
2975.879577,-10584.944971,-370.102971,-536.266849
2975.879914,-10510.924376,-370.102971,-612.876398
2975.880252,-9400.615463,-666.185348,-229.828649
2975.880589,-9474.636058,-1480.411884,0.000000
2975.880927,-9918.759623,-1850.514855,0.000000
2975.881264,-10214.842000,-1998.556043,-842.705048
2975.881602,-10584.944971,-2146.597232,-383.047749
2975.881939,-11103.089130,-1776.494261,383.047749
2975.882277,-10362.883188,-222.061783,-383.047749
2975.882614,-10214.842000,0.000000,0.000000
2975.882952,-10881.027347,-592.164754,1072.533697
2975.883289,-10584.944971,-814.226536,689.485948
2975.883627,-9474.636058,518.144159,1149.143247
2975.883964,-10362.883188,222.061783,1762.019645
2975.884302,-11251.130318,-148.041188,2681.334243
2975.884639,-10436.903782,296.082377,1762.019645
2975.884977,-9622.677246,962.267725,1685.410096
2975.885314,-9178.553681,1110.308913,2145.067394
2975.885652,-9474.636058,814.226536,1762.019645
2975.885989,-10214.842000,1258.350101,0.000000
2975.886327,-9918.759623,296.082377,-459.657299
2975.886664,-9252.574275,518.144159,-459.657299
2975.887002,-9474.636058,518.144159,-383.047749
2975.887339,-8734.430116,592.164754,-1072.533697
2975.887677,-7920.203579,518.144159,-995.924147
2975.888014,-9400.615463,-370.102971,-766.095498
2975.888352,-9844.739029,148.041188,-1072.533697
2975.888689,-10955.047942,-888.247130,-459.657299
2975.889027,-10584.944971,-1184.329507,766.095498
2975.889364,-9104.533087,-370.102971,306.438199
2975.889702,-9918.759623,-296.082377,842.705048
2975.890039,-10362.883188,-740.205942,1608.800546
2975.890376,-10140.821405,-518.144159,1225.752797
2975.890714,-10732.986159,370.102971,153.219100
2975.891051,-11399.171507,592.164754,229.828649
2975.891389,-10955.047942,296.082377,-383.047749
2975.891726,-10140.821405,-666.185348,0.000000
2975.892064,-9918.759623,-222.061783,536.266849
2975.892401,-9844.739029,-518.144159,459.657299
2975.892739,-10066.800811,-370.102971,0.000000
2975.893076,-10362.883188,-962.267725,536.266849
2975.893414,-10066.800811,-1332.370696,-689.485948
2975.893751,-10140.821405,-1332.370696,0.000000
2975.894089,-9992.780217,-1406.391290,153.219100
2975.894426,-9252.574275,-1110.308913,-612.876398
2975.894764,-9252.574275,-888.247130,-1072.533697
2975.895101,-9696.697840,-1184.329507,-1072.533697
2975.895439,-9474.636058,-1258.350101,-1302.362347
2975.895776,-9992.780217,-1850.514855,-536.266849
2975.896114,-9548.656652,-888.247130,-383.047749
2975.896451,-9622.677246,-962.267725,612.876398
2975.896789,-10362.883188,-888.247130,2145.067394
2975.897126,-9770.718434,222.061783,1302.362347
2975.897464,-10955.047942,-444.123565,1838.629195
2975.897801,-11251.130318,370.102971,2145.067394
2975.898139,-10658.965565,592.164754,1762.019645
2975.898476,-10362.883188,592.164754,1378.971896
2975.898814,-9622.677246,1110.308913,1608.800546
2975.899151,-9548.656652,444.123565,1838.629195
2975.899489,-9696.697840,1702.473667,842.705048
2975.899826,-10658.965565,1628.453072,-536.266849
2975.900164,-9622.677246,814.226536,-995.924147
2975.900501,-9992.780217,148.041188,-383.047749
2975.900839,-10288.862594,0.000000,383.047749
2975.901176,-9252.574275,-666.185348,-689.485948
2975.901514,-9030.512492,-1110.308913,-766.095498
2975.901851,-9326.594869,-888.247130,-1225.752797
2975.902188,-9770.718434,-1554.432478,-1378.971896
2975.902526,-10436.903782,-1110.308913,-919.314598
2975.902863,-9770.718434,-1998.556043,-1378.971896
2975.903201,-9474.636058,-1480.411884,-766.095498
2975.903538,-9770.718434,-888.247130,153.219100
2975.903876,-10510.924376,-1554.432478,306.438199
2975.904213,-10140.821405,-1258.350101,153.219100
2975.904551,-10140.821405,-1110.308913,76.609550
2975.904888,-10066.800811,-740.205942,1072.533697
2975.905226,-10807.006753,-518.144159,383.047749
2975.905563,-9844.739029,-148.041188,-536.266849
2975.905901,-10214.842000,-518.144159,612.876398
2975.906238,-9992.780217,-222.061783,919.314598
2975.906576,-10066.800811,666.185348,689.485948
2975.906913,-10881.027347,740.205942,1302.362347
2975.907251,-10658.965565,74.020594,612.876398
2975.907588,-9992.780217,-222.061783,306.438199
2975.907926,-9992.780217,-222.061783,459.657299
2975.908263,-9918.759623,0.000000,1225.752797
2975.908601,-10510.924376,-296.082377,0.000000
2975.908938,-9622.677246,740.205942,-1378.971896
2975.909276,-9400.615463,0.000000,-1608.800546
2975.909613,-9696.697840,-814.226536,306.438199
2975.909951,-9844.739029,74.020594,-229.828649
2975.910288,-10066.800811,0.000000,0.000000
2975.910626,-9696.697840,444.123565,689.485948
2975.910963,-10140.821405,518.144159,919.314598
2975.911301,-9918.759623,1184.329507,459.657299
2975.911638,-9770.718434,-222.061783,1225.752797
2975.911976,-9474.636058,0.000000,1838.629195
2975.912313,-10288.862594,0.000000,2451.505594
2975.912651,-10510.924376,592.164754,1685.410096
2975.912988,-10436.903782,296.082377,2298.286494
2975.913326,-10955.047942,740.205942,1072.533697
2975.913663,-9844.739029,1628.453072,0.000000
2975.914000,-9548.656652,148.041188,-842.705048
2975.914338,-9474.636058,-518.144159,-919.314598
2975.914675,-9474.636058,-1184.329507,-995.924147
2975.915013,-8882.471304,-962.267725,-766.095498
2975.915350,-10140.821405,-370.102971,0.000000
2975.915688,-10436.903782,-666.185348,-766.095498
2975.916025,-10436.903782,-444.123565,-1838.629195
2975.916363,-9696.697840,-1776.494261,-1149.143247
2975.916700,-10140.821405,-1998.556043,0.000000
2975.917038,-9844.739029,-2886.803174,0.000000
2975.917375,-9992.780217,-2368.659014,1225.752797
2975.917713,-11177.109724,-1776.494261,1762.019645
2975.918050,-10140.821405,-1554.432478,689.485948
2975.918388,-10584.944971,-962.267725,1532.190996
2975.918725,-10658.965565,-814.226536,1378.971896
2975.919063,-9770.718434,-592.164754,306.438199
2975.919400,-10732.986159,0.000000,1149.143247
2975.919738,-10214.842000,-444.123565,1378.971896
2975.920075,-9918.759623,-222.061783,2068.457845
2975.920413,-10214.842000,1110.308913,2068.457845
2975.920750,-9844.739029,1036.288319,766.095498
2975.921088,-10066.800811,1184.329507,229.828649
2975.921425,-10362.883188,370.102971,-229.828649
2975.921763,-9252.574275,148.041188,-459.657299
2975.922100,-9622.677246,962.267725,766.095498
2975.922438,-9400.615463,592.164754,153.219100
2975.922775,-9326.594869,814.226536,-1455.581446
2975.923113,-9400.615463,370.102971,-1608.800546
2975.923450,-8882.471304,74.020594,-1455.581446
2975.923788,-10066.800811,-1036.288319,-689.485948
2975.924125,-10066.800811,-592.164754,-689.485948
2975.924463,-9548.656652,-518.144159,-689.485948
2975.924800,-9696.697840,-962.267725,459.657299
2975.925138,-9400.615463,-666.185348,153.219100
2975.925475,-9252.574275,-518.144159,383.047749
2975.925812,-10510.924376,-1184.329507,766.095498
2975.926150,-10214.842000,-296.082377,-536.266849
2975.926487,-10881.027347,-1480.411884,229.828649
2975.926825,-10140.821405,-296.082377,1455.581446
2975.927162,-10214.842000,0.000000,1915.238745
2975.927500,-10436.903782,814.226536,1838.629195
2975.927837,-10362.883188,1036.288319,-536.266849
2975.928175,-10584.944971,0.000000,-919.314598
2975.928512,-11547.212695,-444.123565,153.219100
2975.928850,-9992.780217,-962.267725,-383.047749
2975.929187,-10436.903782,-518.144159,0.000000
2975.929525,-10584.944971,-592.164754,229.828649
2975.929862,-9252.574275,444.123565,-1532.190996
2975.930200,-9400.615463,-962.267725,-612.876398
2975.930537,-9844.739029,-1924.535449,0.000000
2975.930875,-10288.862594,-2146.597232,0.000000
2975.931212,-10881.027347,-1998.556043,612.876398
2975.931550,-9844.739029,-962.267725,1532.190996
2975.931887,-9104.533087,-592.164754,1149.143247
2975.932225,-9992.780217,592.164754,1991.848295
2975.932562,-10362.883188,0.000000,612.876398
2975.932900,-10288.862594,0.000000,1302.362347
2975.933237,-10436.903782,-592.164754,1072.533697
2975.933575,-9178.553681,296.082377,1685.410096
2975.933912,-9178.553681,740.205942,1838.629195
2975.934250,-9400.615463,1554.432478,2451.505594
2975.934587,-9770.718434,1776.494261,842.705048
2975.934925,-10732.986159,1998.556043,459.657299
2975.935262,-10658.965565,1998.556043,-383.047749
2975.935600,-9844.739029,370.102971,-306.438199
2975.935937,-9844.739029,666.185348,-153.219100
2975.936275,-9844.739029,666.185348,0.000000
2975.936612,-10362.883188,518.144159,-306.438199
2975.936950,-9548.656652,148.041188,-1378.971896
2975.937287,-9992.780217,-296.082377,-1915.238745
2975.937624,-10436.903782,-1702.473667,-1302.362347
2975.937962,-10214.842000,-2072.576638,-1915.238745
2975.938299,-9844.739029,-2886.803174,-612.876398
2975.938637,-9992.780217,-1850.514855,76.609550
2975.938974,-9178.553681,-1406.391290,383.047749
2975.939312,-10140.821405,-1258.350101,459.657299
2975.939649,-10436.903782,-2368.659014,0.000000
2975.939987,-10584.944971,-2442.679609,919.314598
2975.940324,-10732.986159,-2368.659014,2068.457845
2975.940662,-10140.821405,-1776.494261,2145.067394
2975.940999,-10362.883188,-370.102971,2068.457845
2975.941337,-10658.965565,222.061783,1072.533697
2975.941674,-10140.821405,370.102971,-383.047749
2975.942012,-9918.759623,-222.061783,-459.657299
2975.942349,-9844.739029,0.000000,0.000000
2975.942687,-9474.636058,-740.205942,0.000000
2975.943024,-9622.677246,-518.144159,1532.190996
2975.943362,-9844.739029,296.082377,1072.533697
2975.943699,-9992.780217,814.226536,612.876398
2975.944037,-10658.965565,1036.288319,-306.438199
2975.944374,-10584.944971,0.000000,-1149.143247
2975.944712,-10066.800811,-296.082377,-1378.971896
2975.945049,-9030.512492,-370.102971,-766.095498
2975.945387,-9474.636058,0.000000,612.876398
2975.945724,-9844.739029,-814.226536,1149.143247
2975.946062,-9918.759623,888.247130,-306.438199
2975.946399,-10362.883188,1702.473667,76.609550
2975.946737,-11325.150913,740.205942,383.047749
2975.947074,-10066.800811,74.020594,766.095498
2975.947412,-9918.759623,370.102971,1762.019645
2975.947749,-9844.739029,888.247130,2834.553343
2975.948087,-10955.047942,888.247130,2834.553343
2975.948424,-11103.089130,1480.411884,1762.019645
2975.948762,-9770.718434,592.164754,-383.047749
2975.949099,-10066.800811,0.000000,-612.876398
2975.949436,-8586.388927,148.041188,-1149.143247
2975.949774,-7846.182985,-814.226536,-1532.190996
2975.950111,-9252.574275,-1480.411884,-459.657299
2975.950449,-9326.594869,-370.102971,-459.657299
2975.950786,-10658.965565,222.061783,-383.047749
2975.951124,-11251.130318,0.000000,-842.705048
2975.951461,-9992.780217,-1110.308913,-1455.581446
2975.951799,-9770.718434,-1628.453072,-612.876398
2975.952136,-9918.759623,-1998.556043,0.000000
2975.952474,-10510.924376,-2368.659014,842.705048
2975.952811,-10955.047942,-1850.514855,689.485948
2975.953149,-10288.862594,-888.247130,383.047749
2975.953486,-10658.965565,-666.185348,229.828649
2975.953824,-11399.171507,-814.226536,536.266849
2975.954161,-10584.944971,-814.226536,0.000000
2975.954499,-9770.718434,-888.247130,919.314598
2975.954836,-9622.677246,148.041188,2757.943793
2975.955174,-10955.047942,518.144159,2451.505594
2975.955511,-10807.006753,1480.411884,1302.362347
2975.955849,-10288.862594,1776.494261,766.095498
2975.956186,-10436.903782,814.226536,229.828649
2975.956524,-8956.491898,814.226536,-229.828649
2975.956861,-8364.327145,814.226536,0.000000
2975.957199,-9326.594869,148.041188,842.705048
2975.957536,-9770.718434,518.144159,0.000000
2975.957874,-10066.800811,740.205942,-919.314598
2975.958211,-9474.636058,1110.308913,0.000000
2975.958549,-9178.553681,0.000000,-459.657299
2975.958886,-9696.697840,-518.144159,-383.047749
2975.959224,-9474.636058,-1332.370696,0.000000
2975.959561,-9400.615463,-666.185348,229.828649
2975.959899,-9548.656652,-740.205942,612.876398
2975.960236,-10362.883188,0.000000,536.266849
2975.960574,-10807.006753,-222.061783,0.000000
2975.960911,-11621.233289,-962.267725,0.000000
2975.961248,-10362.883188,-962.267725,-153.219100
2975.961586,-9474.636058,-888.247130,536.266849
2975.961923,-9770.718434,-740.205942,1838.629195
2975.962261,-10288.862594,0.000000,995.924147
2975.962598,-11177.109724,592.164754,306.438199
2975.962936,-11103.089130,0.000000,1302.362347
2975.963273,-10807.006753,-666.185348,919.314598
2975.963611,-10140.821405,0.000000,919.314598
2975.963948,-10140.821405,-1258.350101,306.438199
2975.964286,-9400.615463,-2368.659014,76.609550
2975.964623,-9622.677246,-1850.514855,0.000000
2975.964961,-9918.759623,-666.185348,0.000000
2975.965298,-10288.862594,-1184.329507,-1455.581446
2975.965636,-9770.718434,-1184.329507,-1991.848295
2975.965973,-9104.533087,-2294.638420,-1532.190996
2975.966311,-9622.677246,-2368.659014,689.485948
2975.966648,-9548.656652,-1924.535449,842.705048
2975.966986,-10066.800811,-1480.411884,1072.533697
2975.967323,-10658.965565,-666.185348,919.314598
2975.967661,-10732.986159,-592.164754,1608.800546
2975.967998,-10955.047942,-518.144159,1915.238745
2975.968336,-9696.697840,0.000000,1532.190996
2975.968673,-10510.924376,0.000000,2145.067394
2975.969011,-10140.821405,1776.494261,1991.848295
2975.969348,-10214.842000,2812.782580,459.657299
2975.969686,-10436.903782,2146.597232,612.876398
2975.970023,-10510.924376,1924.535449,76.609550
2975.970361,-9622.677246,2220.617826,-229.828649
2975.970698,-9474.636058,2220.617826,0.000000
2975.971036,-9622.677246,1258.350101,1532.190996
2975.971373,-9326.594869,1924.535449,0.000000
2975.971711,-9844.739029,1480.411884,-1532.190996
2975.972048,-11325.150913,1110.308913,-229.828649
2975.972386,-10066.800811,0.000000,-995.924147
2975.972723,-9474.636058,-888.247130,-1991.848295
2975.973060,-8586.388927,-1776.494261,-536.266849
2975.973398,-8290.306550,-1628.453072,-76.609550
2975.973735,-9252.574275,-1110.308913,153.219100
2975.974073,-10658.965565,-1628.453072,-995.924147
2975.974410,-10066.800811,-370.102971,-919.314598
2975.974748,-10510.924376,-888.247130,76.609550
2975.975085,-10362.883188,-1554.432478,766.095498
2975.975423,-9474.636058,-1702.473667,1149.143247
2975.975760,-9844.739029,-2294.638420,2911.162892
2975.976098,-10881.027347,-518.144159,1455.581446
2975.976435,-11177.109724,-518.144159,766.095498
2975.976773,-11473.192101,0.000000,689.485948
2975.977110,-10881.027347,-592.164754,383.047749
2975.977448,-10658.965565,-740.205942,306.438199
2975.977785,-10140.821405,0.000000,612.876398
2975.978122,-9548.656652,-296.082377,306.438199
2975.978460,-9696.697840,0.000000,995.924147
2975.978797,-10807.006753,592.164754,0.000000
2975.979134,-10881.027347,592.164754,-766.095498
2975.979472,-10807.006753,74.020594,-1532.190996
2975.979809,-9844.739029,-518.144159,-995.924147
2975.980146,-8586.388927,-1406.391290,-612.876398
2975.980484,-8512.368333,-1554.432478,459.657299
2975.980821,-9326.594869,-740.205942,1455.581446
2975.981158,-10066.800811,-740.205942,1149.143247
2975.981496,-10732.986159,222.061783,1762.019645
2975.981833,-10066.800811,-370.102971,1302.362347
2975.982170,-9548.656652,74.020594,1608.800546
2975.982508,-9548.656652,888.247130,1608.800546
2975.982845,-9918.759623,148.041188,1302.362347
2975.983182,-9918.759623,1554.432478,1225.752797
2975.983520,-9696.697840,1924.535449,0.000000
2975.983857,-10584.944971,1480.411884,919.314598
2975.984195,-10436.903782,740.205942,-536.266849
2975.984532,-9844.739029,592.164754,-766.095498
2975.984869,-9992.780217,740.205942,-459.657299
2975.985207,-9178.553681,-518.144159,-919.314598
2975.985544,-8808.450710,370.102971,-459.657299
2975.985881,-9992.780217,-666.185348,76.609550
2975.986219,-10510.924376,-444.123565,-459.657299
2975.986556,-11547.212695,-1036.288319,-689.485948
2975.986893,-10732.986159,-888.247130,-306.438199
2975.987231,-10214.842000,-1554.432478,-766.095498
2975.987568,-10510.924376,-1998.556043,-995.924147
2975.987905,-9992.780217,-1554.432478,-1608.800546
2975.988243,-9474.636058,-2294.638420,-1302.362347
2975.988580,-9770.718434,-2368.659014,0.000000
2975.988917,-9252.574275,-2812.782580,0.000000
2975.989255,-9770.718434,-2220.617826,1302.362347
2975.989592,-10362.883188,-2072.576638,2145.067394
2975.989929,-10362.883188,-1406.391290,2068.457845
2975.990267,-10066.800811,0.000000,2834.553343
2975.990604,-10510.924376,74.020594,2911.162892
2975.990941,-11399.171507,518.144159,2374.896044
2975.991279,-10584.944971,444.123565,1072.533697
2975.991616,-9696.697840,1110.308913,306.438199
2975.991953,-9992.780217,1480.411884,-689.485948
2975.992291,-9326.594869,740.205942,-1149.143247
2975.992628,-9030.512492,222.061783,-1149.143247
2975.992965,-8586.388927,148.041188,-612.876398
2975.993303,-9474.636058,444.123565,306.438199
2975.993640,-9918.759623,814.226536,0.000000
2975.993977,-10955.047942,0.000000,-153.219100
2975.994315,-10658.965565,148.041188,-536.266849
2975.994652,-9696.697840,0.000000,-229.828649
2975.994989,-10362.883188,-74.020594,689.485948
2975.995327,-10288.862594,-296.082377,76.609550
2975.995664,-9992.780217,0.000000,-306.438199
2975.996001,-9622.677246,-888.247130,-459.657299
2975.996339,-9622.677246,-666.185348,919.314598
2975.996676,-9844.739029,-518.144159,919.314598
2975.997014,-10288.862594,-592.164754,-76.609550
2975.997351,-9992.780217,518.144159,0.000000
2975.997688,-11103.089130,-518.144159,76.609550
2975.998026,-10140.821405,-222.061783,0.000000
2975.998363,-8734.430116,-962.267725,842.705048
2975.998700,-9622.677246,-444.123565,1608.800546
2975.999038,-9326.594869,222.061783,459.657299
2975.999375,-10881.027347,0.000000,-612.876398
2975.999712,-10658.965565,-1554.432478,-459.657299
2976.000050,-10066.800811,-1554.432478,-383.047749
2976.000387,-10140.821405,-666.185348,-153.219100
2976.000724,-9992.780217,-888.247130,-766.095498
2976.001062,-9548.656652,-740.205942,-842.705048
2976.001399,-9622.677246,-1480.411884,-1455.581446
2976.001736,-9992.780217,-1332.370696,-1302.362347
2976.002074,-10140.821405,-1258.350101,0.000000
2976.002411,-10807.006753,-1258.350101,919.314598
2976.002748,-10584.944971,-74.020594,459.657299
2976.003086,-9548.656652,-444.123565,1149.143247
2976.003423,-10140.821405,592.164754,1685.410096
2976.003760,-10362.883188,-222.061783,2068.457845
2976.004098,-10955.047942,518.144159,2298.286494
2976.004435,-10288.862594,814.226536,1378.971896
2976.004772,-9474.636058,962.267725,2068.457845
2976.005110,-9622.677246,1406.391290,1608.800546
2976.005447,-9326.594869,2294.638420,306.438199
2976.005784,-10436.903782,1258.350101,612.876398
2976.006122,-9622.677246,1998.556043,-919.314598
2976.006459,-9548.656652,814.226536,-612.876398
2976.006796,-9104.533087,1628.453072,-612.876398
2976.007134,-8882.471304,222.061783,0.000000
2976.007471,-9992.780217,592.164754,383.047749
2976.007808,-9918.759623,222.061783,-1532.190996
2976.008146,-10140.821405,-370.102971,0.000000
2976.008483,-9844.739029,-1036.288319,0.000000
2976.008821,-10066.800811,-1406.391290,-766.095498
2976.009158,-9770.718434,-1480.411884,0.000000
2976.009495,-11029.068536,-1998.556043,766.095498
2976.009833,-9622.677246,-1332.370696,1149.143247
2976.010170,-10214.842000,-1258.350101,1455.581446
2976.010507,-10955.047942,-888.247130,1302.362347
2976.010845,-11103.089130,-1554.432478,536.266849
2976.011182,-11251.130318,-1332.370696,766.095498
2976.011519,-10362.883188,-1480.411884,1302.362347
2976.011857,-10584.944971,-1554.432478,1915.238745
2976.012194,-10288.862594,-740.205942,1608.800546
2976.012531,-10510.924376,-1258.350101,306.438199
2976.012869,-10288.862594,148.041188,229.828649
2976.013206,-10066.800811,74.020594,-689.485948
2976.013543,-10140.821405,0.000000,-842.705048
2976.013881,-9548.656652,-1258.350101,-1302.362347
2976.014218,-9770.718434,-1258.350101,-689.485948
2976.014555,-9252.574275,-592.164754,-689.485948
2976.014893,-9770.718434,148.041188,76.609550
2976.015230,-10881.027347,0.000000,-536.266849
2976.015567,-10510.924376,-740.205942,-1149.143247
2976.015905,-9104.533087,-1110.308913,-383.047749
2976.016242,-9474.636058,-370.102971,306.438199
2976.016579,-9844.739029,-814.226536,383.047749
2976.016917,-9252.574275,-148.041188,-383.047749
2976.017254,-9326.594869,296.082377,383.047749
2976.017591,-9400.615463,592.164754,1762.019645
2976.017929,-10066.800811,2072.576638,919.314598
2976.018266,-10584.944971,1036.288319,536.266849
2976.018603,-10732.986159,1184.329507,919.314598
2976.018941,-10807.006753,814.226536,1225.752797
2976.019278,-10658.965565,1184.329507,1225.752797
2976.019615,-9918.759623,888.247130,766.095498
2976.019953,-9844.739029,666.185348,766.095498
2976.020290,-9696.697840,814.226536,0.000000
2976.020628,-9178.553681,370.102971,-1608.800546
2976.020965,-9474.636058,0.000000,-383.047749
2976.021302,-10955.047942,-888.247130,-842.705048
2976.021640,-9622.677246,0.000000,-1225.752797
2976.021977,-10214.842000,-814.226536,-919.314598
2976.022314,-9992.780217,-962.267725,0.000000
2976.022652,-9548.656652,-1258.350101,-536.266849
2976.022989,-9992.780217,-2146.597232,0.000000
2976.023326,-10436.903782,-2738.761985,153.219100
2976.023664,-9622.677246,-2886.803174,76.609550
2976.024001,-9844.739029,-2072.576638,1225.752797
2976.024338,-10288.862594,-1924.535449,2145.067394
2976.024676,-9992.780217,-888.247130,1225.752797
2976.025013,-10436.903782,-296.082377,76.609550
2976.025350,-10807.006753,-1036.288319,919.314598
2976.025688,-10288.862594,-1332.370696,766.095498
2976.026025,-10066.800811,-370.102971,1532.190996
2976.026362,-10288.862594,222.061783,2987.772442
2976.026700,-11029.068536,740.205942,1685.410096
2976.027037,-10955.047942,888.247130,459.657299
2976.027374,-11251.130318,1480.411884,306.438199
2976.027712,-9992.780217,814.226536,-459.657299
2976.028049,-9992.780217,0.000000,-306.438199
2976.028386,-9474.636058,-592.164754,-383.047749
2976.028724,-9548.656652,1110.308913,229.828649
2976.029061,-10066.800811,1110.308913,0.000000
2976.029398,-10214.842000,814.226536,-1685.410096
2976.029736,-9400.615463,148.041188,-1149.143247
2976.030073,-8882.471304,-1184.329507,0.000000
2976.030410,-8734.430116,-814.226536,612.876398
2976.030748,-9104.533087,-1110.308913,842.705048
2976.031085,-10362.883188,-370.102971,1685.410096
2976.031422,-10807.006753,-740.205942,229.828649
2976.031760,-10288.862594,518.144159,536.266849
2976.032097,-9918.759623,0.000000,1225.752797
2976.032434,-9622.677246,-1406.391290,995.924147
2976.032772,-9622.677246,-1332.370696,919.314598
2976.033109,-10066.800811,-814.226536,1149.143247
2976.033447,-10881.027347,0.000000,1685.410096
2976.033784,-10362.883188,296.082377,306.438199
2976.034121,-9770.718434,814.226536,-229.828649
2976.034459,-10436.903782,0.000000,-612.876398
2976.034796,-10214.842000,0.000000,-689.485948
2976.035133,-9770.718434,-1184.329507,-1532.190996
2976.035471,-9252.574275,-1850.514855,-995.924147
2976.035808,-10658.965565,-296.082377,-995.924147
2976.036145,-10436.903782,-592.164754,-1378.971896
2976.036483,-10288.862594,-888.247130,-2374.896044
2976.036820,-9696.697840,-1184.329507,-1302.362347
2976.037157,-9844.739029,-2072.576638,-536.266849
2976.037495,-9622.677246,-2368.659014,76.609550
2976.037832,-10288.862594,-1628.453072,689.485948
2976.038169,-10658.965565,-1258.350101,1378.971896
2976.038507,-10362.883188,-1184.329507,919.314598
2976.038844,-10436.903782,-296.082377,1225.752797
2976.039181,-9770.718434,-518.144159,1455.581446
2976.039519,-9326.594869,-592.164754,1072.533697
2976.039856,-9178.553681,-296.082377,459.657299
2976.040193,-9548.656652,296.082377,2298.286494
2976.040531,-10436.903782,1258.350101,2681.334243
2976.040868,-10658.965565,1924.535449,1915.238745
2976.041205,-11177.109724,2294.638420,689.485948
2976.041543,-10510.924376,2294.638420,0.000000
2976.041880,-9252.574275,1628.453072,-766.095498
2976.042217,-9178.553681,814.226536,-612.876398
2976.042555,-9474.636058,-222.061783,0.000000
2976.042892,-9548.656652,666.185348,-76.609550
2976.043229,-9696.697840,518.144159,-689.485948
2976.043567,-9992.780217,1406.391290,-1608.800546
2976.043904,-10584.944971,-962.267725,-995.924147
2976.044241,-10658.965565,-1850.514855,-383.047749
2976.044579,-8956.491898,-1554.432478,-306.438199
2976.044916,-8438.347739,-1332.370696,1915.238745
2976.045254,-10436.903782,-1924.535449,2451.505594
2976.045591,-10732.986159,-1110.308913,1149.143247
2976.045928,-11547.212695,-1110.308913,919.314598
2976.046266,-11029.068536,-740.205942,1455.581446
2976.046603,-10807.006753,-1332.370696,842.705048
2976.046940,-9622.677246,-1332.370696,76.609550
2976.047278,-9326.594869,-74.020594,383.047749
2976.047615,-9548.656652,222.061783,995.924147
2976.047952,-10807.006753,-74.020594,536.266849
2976.048290,-10362.883188,444.123565,76.609550
2976.048627,-10510.924376,0.000000,306.438199
2976.048964,-10288.862594,148.041188,766.095498
2976.049302,-9474.636058,0.000000,-1225.752797
2976.049639,-9622.677246,-370.102971,229.828649
2976.049976,-9548.656652,-296.082377,536.266849
2976.050314,-10214.842000,370.102971,-1762.019645
2976.050651,-10881.027347,444.123565,-1302.362347
2976.050988,-10955.047942,-962.267725,-459.657299
2976.051326,-9770.718434,-1776.494261,-306.438199
2976.051663,-8808.450710,-1702.473667,383.047749
2976.052000,-9030.512492,-296.082377,1608.800546
2976.052338,-9474.636058,-740.205942,1378.971896
2976.052675,-10807.006753,666.185348,1072.533697
2976.053012,-10140.821405,1258.350101,229.828649
2976.053350,-10658.965565,444.123565,612.876398
2976.053687,-10436.903782,74.020594,1302.362347
2976.054024,-9178.553681,0.000000,1302.362347
2976.054362,-9104.533087,666.185348,1455.581446
2976.054699,-9178.553681,1110.308913,1455.581446
2976.055036,-10658.965565,1184.329507,1378.971896
2976.055374,-11029.068536,1332.370696,0.000000
2976.055711,-10881.027347,518.144159,-459.657299
2976.056048,-10436.903782,-222.061783,-919.314598
2976.056386,-8364.327145,-1036.288319,-1225.752797
2976.056723,-8882.471304,-962.267725,-306.438199
2976.057060,-9548.656652,-1332.370696,-612.876398
2976.057398,-9918.759623,74.020594,-766.095498
2976.057735,-10658.965565,-518.144159,-1532.190996
2976.058073,-11251.130318,-1776.494261,-1455.581446
2976.058410,-10288.862594,-2368.659014,-689.485948
2976.058747,-10214.842000,-1850.514855,612.876398
2976.059085,-9696.697840,-2664.741391,229.828649
2976.059422,-9622.677246,-2294.638420,536.266849
2976.059759,-10288.862594,-1628.453072,1072.533697
2976.060097,-9770.718434,-1184.329507,536.266849
2976.060434,-12065.356855,-1110.308913,2757.943793
2976.060771,-11621.233289,-1924.535449,2221.676944
2976.061109,-9252.574275,-1776.494261,2528.115143
2976.061446,-10732.986159,-740.205942,2145.067394
2976.061783,-9844.739029,518.144159,1991.848295
2976.062121,-9770.718434,1110.308913,1532.190996
2976.062458,-9622.677246,888.247130,612.876398
2976.062795,-11325.150913,1036.288319,-459.657299
2976.063133,-10510.924376,1184.329507,-2451.505594
2976.063470,-8660.409521,444.123565,-1455.581446
2976.063807,-8438.347739,888.247130,306.438199
2976.064145,-9622.677246,962.267725,-536.266849
2976.064482,-10436.903782,592.164754,-1378.971896
2976.064819,-10214.842000,296.082377,-766.095498
2976.065157,-9770.718434,-74.020594,919.314598
2976.065494,-9918.759623,-222.061783,536.266849
2976.065831,-10214.842000,-740.205942,766.095498
2976.066169,-9696.697840,-370.102971,-76.609550
2976.066506,-8734.430116,-666.185348,0.000000
2976.066843,-9918.759623,592.164754,1378.971896
2976.067181,-9844.739029,518.144159,-459.657299
2976.067518,-10288.862594,296.082377,-766.095498
2976.067855,-11473.192101,0.000000,-153.219100
2976.068193,-10436.903782,-370.102971,689.485948
2976.068530,-8734.430116,-592.164754,2604.724693
2976.068867,-9548.656652,0.000000,1532.190996
2976.069205,-10362.883188,592.164754,995.924147
2976.069542,-10658.965565,296.082377,-383.047749
2976.069880,-10362.883188,148.041188,-383.047749
2976.070217,-9622.677246,-370.102971,-995.924147
2976.070554,-10436.903782,-740.205942,-536.266849
2976.070892,-9918.759623,-1258.350101,-1915.238745
2976.071229,-9844.739029,-370.102971,-1762.019645
2976.071566,-9548.656652,0.000000,-1608.800546
2976.071904,-9696.697840,-1258.350101,-1762.019645
2976.072241,-10510.924376,-2146.597232,-306.438199
2976.072578,-10066.800811,-2072.576638,-229.828649
2976.072916,-9696.697840,-2220.617826,1149.143247
2976.073253,-10658.965565,-1628.453072,2298.286494
2976.073590,-10436.903782,-740.205942,2068.457845
2976.073928,-10288.862594,-296.082377,1302.362347
2976.074265,-10807.006753,0.000000,1685.410096
2976.074602,-10288.862594,888.247130,1149.143247
2976.074940,-10658.965565,-518.144159,1302.362347
2976.075277,-9622.677246,-296.082377,1378.971896
2976.075614,-9252.574275,444.123565,2145.067394
2976.075952,-9622.677246,1554.432478,2451.505594
2976.076289,-9622.677246,2368.659014,1455.581446
2976.076626,-10214.842000,1184.329507,459.657299
2976.076964,-9696.697840,1628.453072,76.609550
2976.077301,-9400.615463,1036.288319,-153.219100
2976.077639,-10807.006753,0.000000,1149.143247
2976.077976,-9474.636058,370.102971,-383.047749
2976.078313,-9030.512492,74.020594,-306.438199
2976.078651,-10140.821405,592.164754,-306.438199
2976.078988,-9918.759623,74.020594,-1149.143247
2976.079325,-9918.759623,-2146.597232,-1302.362347
2976.079663,-9992.780217,-2812.782580,153.219100
2976.080000,-8956.491898,-2738.761985,689.485948
2976.080337,-9548.656652,-1850.514855,1149.143247
2976.080675,-9770.718434,-1480.411884,459.657299
2976.081012,-10362.883188,-1332.370696,1072.533697
2976.081349,-11769.274478,-1110.308913,536.266849
2976.081687,-11473.192101,-666.185348,1302.362347
2976.082024,-10732.986159,-592.164754,766.095498
2976.082362,-9918.759623,-1554.432478,1685.410096
2976.082699,-10140.821405,-1184.329507,995.924147
2976.083036,-9696.697840,-740.205942,1072.533697
2976.083374,-10066.800811,-370.102971,536.266849
2976.083711,-9770.718434,-518.144159,0.000000
2976.084048,-10214.842000,740.205942,-612.876398
2976.084386,-10214.842000,0.000000,-766.095498
2976.084723,-10288.862594,-1036.288319,-459.657299
2976.085060,-9252.574275,-1036.288319,-919.314598
2976.085398,-9252.574275,74.020594,-766.095498
2976.085735,-9474.636058,222.061783,-153.219100
2976.086073,-10140.821405,222.061783,-1838.629195
2976.086410,-10362.883188,-1184.329507,-1685.410096
2976.086747,-9992.780217,-888.247130,-1378.971896
2976.087085,-9548.656652,-1110.308913,842.705048
2976.087422,-9104.533087,148.041188,689.485948
2976.087759,-9104.533087,296.082377,689.485948
2976.088097,-10807.006753,370.102971,1072.533697
2976.088434,-10658.965565,740.205942,766.095498
2976.088771,-9474.636058,0.000000,689.485948
2976.089109,-9622.677246,518.144159,2834.553343
2976.089446,-10066.800811,370.102971,2451.505594
2976.089783,-10066.800811,1332.370696,1378.971896
2976.090121,-10362.883188,1184.329507,766.095498
2976.090458,-10658.965565,2146.597232,536.266849
2976.090796,-9992.780217,962.267725,-919.314598
2976.091133,-9992.780217,518.144159,-306.438199
2976.091470,-9770.718434,74.020594,76.609550
2976.091808,-9992.780217,-592.164754,0.000000
2976.092145,-9918.759623,222.061783,0.000000
2976.092482,-10214.842000,-1110.308913,-459.657299
2976.092820,-10510.924376,-296.082377,229.828649
2976.093157,-10584.944971,-962.267725,0.000000
2976.093494,-10362.883188,-1258.350101,0.000000
2976.093832,-10288.862594,-2368.659014,536.266849
2976.094169,-10436.903782,-1628.453072,76.609550
2976.094507,-9770.718434,-1036.288319,-1225.752797
2976.094844,-10140.821405,-1406.391290,-842.705048
2976.095181,-10288.862594,-1406.391290,76.609550
2976.095519,-9548.656652,-1332.370696,536.266849
2976.095856,-10214.842000,-888.247130,2604.724693
2976.096193,-10732.986159,-592.164754,2681.334243
2976.096531,-10658.965565,-296.082377,2681.334243
2976.096868,-9770.718434,0.000000,1991.848295
2976.097205,-10140.821405,518.144159,2451.505594
2976.097543,-10510.924376,962.267725,2221.676944
2976.097880,-9474.636058,1184.329507,-919.314598
2976.098217,-9548.656652,296.082377,919.314598
2976.098555,-11621.233289,888.247130,-689.485948
2976.098892,-8512.368333,74.020594,-612.876398
2976.099230,-9548.656652,444.123565,-1762.019645
2976.099567,-9104.533087,222.061783,-383.047749
2976.099904,-8364.327145,1258.350101,-766.095498
2976.100242,-9178.553681,370.102971,-1532.190996
2976.100579,-9770.718434,-296.082377,-995.924147
2976.100916,-10288.862594,-888.247130,0.000000
2976.101254,-10807.006753,-518.144159,306.438199
2976.101591,-9178.553681,444.123565,-229.828649
2976.101928,-10732.986159,-222.061783,306.438199
2976.102266,-11547.212695,0.000000,0.000000
2976.102603,-9474.636058,-666.185348,1225.752797
2976.102941,-10658.965565,-592.164754,2911.162892
2976.103278,-10436.903782,-1776.494261,1838.629195
2976.103615,-10066.800811,-370.102971,229.828649
2976.103953,-9844.739029,-296.082377,-229.828649
2976.104290,-9622.677246,-592.164754,1225.752797
2976.104627,-10140.821405,-222.061783,76.609550
2976.104965,-9548.656652,-814.226536,-1072.533697
2976.105302,-10140.821405,-148.041188,383.047749
2976.105639,-10066.800811,-1628.453072,-306.438199
2976.105977,-10140.821405,-1258.350101,-842.705048
2976.106314,-8882.471304,-1554.432478,-1302.362347
2976.106652,-9548.656652,-2072.576638,-612.876398
2976.106989,-9622.677246,-1184.329507,-612.876398
2976.107326,-10066.800811,-1184.329507,-1762.019645
2976.107664,-9770.718434,-1850.514855,-383.047749
2976.108001,-11325.150913,-2294.638420,-153.219100
2976.108338,-10288.862594,-1184.329507,0.000000
2976.108676,-9622.677246,-444.123565,76.609550
2976.109013,-10362.883188,-814.226536,1225.752797
2976.109350,-10881.027347,-518.144159,1378.971896
2976.109688,-10066.800811,-296.082377,459.657299
2976.110025,-9992.780217,814.226536,2451.505594
2976.110362,-10881.027347,592.164754,2145.067394
2976.110700,-11103.089130,1036.288319,1225.752797
2976.111037,-10362.883188,1184.329507,1455.581446
2976.111375,-9770.718434,370.102971,1608.800546
2976.111712,-9400.615463,2146.597232,2221.676944
2976.112049,-9622.677246,1702.473667,842.705048
2976.112387,-9252.574275,1998.556043,0.000000
2976.112724,-9252.574275,1480.411884,-612.876398
2976.113061,-9548.656652,1554.432478,-1378.971896
2976.113399,-9844.739029,74.020594,-842.705048
2976.113736,-9696.697840,-518.144159,-612.876398
2976.114073,-9178.553681,0.000000,-919.314598
2976.114411,-8142.265362,-740.205942,-1072.533697
2976.114748,-9030.512492,-888.247130,459.657299
2976.115086,-9548.656652,-1850.514855,536.266849
2976.115423,-10510.924376,-962.267725,-766.095498
2976.115760,-10881.027347,-1110.308913,-995.924147
2976.116098,-10732.986159,-1702.473667,-612.876398
2976.116435,-10807.006753,-814.226536,689.485948
2976.116772,-9474.636058,-592.164754,995.924147
2976.117110,-9918.759623,0.000000,1225.752797
2976.117447,-10955.047942,-370.102971,229.828649
2976.117784,-11103.089130,-666.185348,153.219100
2976.118122,-11029.068536,-740.205942,766.095498
2976.118459,-10288.862594,-740.205942,1532.190996
2976.118796,-10362.883188,148.041188,1149.143247
2976.119134,-10732.986159,370.102971,229.828649
2976.119471,-10140.821405,740.205942,-612.876398
2976.119809,-10066.800811,296.082377,-919.314598
2976.120146,-10436.903782,0.000000,-536.266849
2976.120483,-9548.656652,-962.267725,-689.485948
2976.120821,-9474.636058,-962.267725,-229.828649
2976.121158,-8660.409521,-222.061783,-459.657299
2976.121495,-8956.491898,-666.185348,-612.876398
2976.121833,-10066.800811,-888.247130,459.657299
2976.122170,-9992.780217,-1258.350101,0.000000
2976.122507,-9030.512492,-296.082377,459.657299
2976.122845,-10066.800811,592.164754,536.266849
2976.123182,-10807.006753,-370.102971,536.266849
2976.123520,-9548.656652,-222.061783,766.095498
2976.123857,-9178.553681,-518.144159,1608.800546
2976.124194,-9400.615463,814.226536,3064.381992
2976.124532,-10436.903782,814.226536,2451.505594
2976.124869,-11399.171507,1406.391290,1838.629195
2976.125206,-11621.233289,518.144159,842.705048
2976.125544,-10881.027347,666.185348,612.876398
2976.125881,-10362.883188,1110.308913,536.266849
2976.126218,-9622.677246,1184.329507,612.876398
2976.126556,-9548.656652,0.000000,-153.219100
2976.126893,-9548.656652,-592.164754,-1149.143247
2976.127230,-9548.656652,-148.041188,-919.314598
2976.127568,-9770.718434,-1036.288319,-383.047749
2976.127905,-10436.903782,-1776.494261,-459.657299
2976.128243,-9622.677246,-1184.329507,-2221.676944
2976.128580,-9474.636058,-2146.597232,-919.314598
2976.128917,-9474.636058,-2368.659014,383.047749
2976.129255,-8882.471304,-2072.576638,229.828649
2976.129592,-10881.027347,-1924.535449,0.000000
2976.129929,-11621.233289,-1554.432478,-76.609550
2976.130267,-10881.027347,-2368.659014,-995.924147
2976.130604,-9622.677246,-2146.597232,0.000000
2976.130941,-9474.636058,-2146.597232,2374.896044
2976.131279,-9474.636058,-1110.308913,2068.457845
2976.131616,-10288.862594,-592.164754,766.095498
2976.131954,-10288.862594,0.000000,536.266849
2976.132291,-10214.842000,222.061783,1225.752797
2976.132628,-11103.089130,444.123565,1149.143247
2976.132966,-10362.883188,370.102971,1149.143247
2976.133303,-10066.800811,444.123565,612.876398
2976.133640,-9030.512492,2072.576638,-383.047749
2976.133978,-9400.615463,1628.453072,-76.609550
2976.134315,-9622.677246,1554.432478,-1072.533697
2976.134652,-9770.718434,148.041188,-1838.629195
2976.134990,-9918.759623,-592.164754,-383.047749
2976.135327,-9030.512492,-296.082377,766.095498
2976.135664,-9400.615463,-296.082377,1225.752797
2976.136002,-9548.656652,222.061783,766.095498
2976.136339,-9252.574275,222.061783,-459.657299
2976.136677,-10436.903782,222.061783,229.828649
2976.137014,-10658.965565,222.061783,689.485948
2976.137351,-9178.553681,148.041188,76.609550
2976.137689,-9770.718434,370.102971,1532.190996
2976.138026,-10436.903782,1332.370696,1455.581446
2976.138363,-10066.800811,1628.453072,766.095498
2976.138701,-11251.130318,1776.494261,1072.533697
2976.139038,-9918.759623,740.205942,995.924147
2976.139375,-10807.006753,814.226536,1302.362347
2976.139713,-10807.006753,444.123565,2145.067394
2976.140050,-10066.800811,296.082377,2374.896044
2976.140388,-9918.759623,518.144159,3753.867940
2976.140725,-10362.883188,1850.514855,1762.019645
2976.141062,-10658.965565,2368.659014,383.047749
2976.141400,-10436.903782,888.247130,0.000000
2976.141737,-10881.027347,444.123565,383.047749
2976.142074,-10140.821405,0.000000,-153.219100
2976.142412,-9474.636058,444.123565,306.438199
2976.142749,-9622.677246,-74.020594,459.657299
2976.143086,-10214.842000,-888.247130,1378.971896
2976.143424,-9992.780217,-962.267725,1991.848295
2976.143761,-9474.636058,0.000000,2834.553343
