#time,accel_x,accel_y,accel_z
3210.146195,-9844.739029,-444.123565,4519.963438
3210.146533,-10436.903782,-592.164754,3753.867940
3210.146871,-10066.800811,814.226536,2681.334243
3210.147209,-9548.656652,592.164754,1838.629195
3210.147547,-10436.903782,370.102971,1072.533697
3210.147885,-8956.491898,0.000000,536.266849
3210.148223,-7624.121203,518.144159,-612.876398
3210.148561,-8808.450710,1184.329507,-459.657299
3210.148899,-9844.739029,-74.020594,-536.266849
3210.149237,-10807.006753,-666.185348,-919.314598
3210.149575,-10066.800811,-1332.370696,-306.438199
3210.149913,-9770.718434,-1406.391290,76.609550
3210.150251,-9770.718434,-1850.514855,1072.533697
3210.150589,-10066.800811,-2146.597232,1685.410096
3210.150926,-9474.636058,-2294.638420,1991.848295
3210.151264,-10658.965565,-1184.329507,1762.019645
3210.151602,-11177.109724,-1258.350101,1838.629195
3210.151940,-11621.233289,-1036.288319,1991.848295
3210.152278,-12139.377449,-2664.741391,2757.943793
3210.152616,-11029.068536,-2516.700203,2987.772442
3210.152954,-9770.718434,-2220.617826,4136.915689
3210.153292,-9548.656652,-1776.494261,4519.963438
3210.153630,-9326.594869,-1850.514855,3677.258390
3210.153968,-10955.047942,-1406.391290,2451.505594
3210.154306,-10510.924376,-1702.473667,2298.286494
3210.154644,-10658.965565,-1036.288319,2911.162892
3210.154982,-9770.718434,-666.185348,2298.286494
3210.155320,-9178.553681,-1628.453072,2604.724693
3210.155658,-9252.574275,-1924.535449,3064.381992
3210.155996,-9770.718434,-2886.803174,3907.087040
3210.156334,-9844.739029,-2960.823768,3983.696590
3210.156672,-9474.636058,-2442.679609,3447.429741
3210.157009,-9844.739029,-3182.885551,2681.334243
3210.157347,-9844.739029,-2516.700203,2451.505594
3210.157685,-9770.718434,-2886.803174,1991.848295
3210.158023,-9030.512492,-1924.535449,1608.800546
3210.158361,-8734.430116,-2072.576638,1532.190996
3210.158699,-9844.739029,-2812.782580,1225.752797
3210.159037,-10362.883188,-3256.906145,2221.676944
3210.159375,-10510.924376,-2516.700203,3294.210641
3210.159713,-9770.718434,-2220.617826,4060.306139
3210.160051,-10066.800811,-1850.514855,3064.381992
3210.160389,-11029.068536,-1406.391290,2757.943793
3210.160727,-10881.027347,-1850.514855,1838.629195
3210.161065,-9622.677246,-814.226536,383.047749
3210.161403,-10214.842000,-814.226536,459.657299
3210.161741,-11029.068536,-1628.453072,76.609550
3210.162079,-10658.965565,-2738.761985,-689.485948
3210.162417,-10362.883188,-2960.823768,-919.314598
3210.162754,-9622.677246,-3108.864956,-1072.533697
3210.163092,-9474.636058,-2516.700203,-2374.896044
3210.163430,-8808.450710,-3330.926739,-3370.820191
3210.163768,-9548.656652,-3034.844362,-3524.039291
3210.164106,-9400.615463,-2960.823768,-3064.381992
3210.164444,-9622.677246,-2960.823768,-2528.115143
3210.164782,-9400.615463,-3256.906145,-2145.067394
3210.165120,-9696.697840,-2812.782580,-919.314598
3210.165458,-9992.780217,-1554.432478,-459.657299
3210.165796,-10510.924376,-740.205942,-1608.800546
3210.166134,-10807.006753,-1184.329507,-919.314598
3210.166472,-10807.006753,-1702.473667,689.485948
3210.166810,-9992.780217,-1258.350101,1685.410096
3210.167148,-10436.903782,-148.041188,3524.039291
3210.167486,-11029.068536,2590.720797,2604.724693
3210.167824,-11251.130318,2442.679609,76.609550
3210.168161,-10955.047942,3478.967927,-689.485948
3210.168499,-10584.944971,2738.761985,-383.047749
3210.168836,-9326.594869,2516.700203,306.438199
3210.169174,-9252.574275,2812.782580,842.705048
3210.169511,-10510.924376,2960.823768,2374.896044
3210.169849,-11621.233289,2368.659014,1302.362347
3210.170186,-10288.862594,2664.741391,0.000000
3210.170524,-8660.409521,2146.597232,842.705048
3210.170861,-7920.203579,2812.782580,1838.629195
3210.171199,-9770.718434,1406.391290,3064.381992
3210.171537,-10584.944971,1480.411884,2451.505594
3210.171874,-10066.800811,2072.576638,383.047749
3210.172212,-9844.739029,1850.514855,76.609550
3210.172549,-9696.697840,740.205942,612.876398
3210.172887,-8438.347739,0.000000,306.438199
3210.173224,-8364.327145,-888.247130,1608.800546
3210.173562,-7476.080014,0.000000,2374.896044
3210.173899,-9622.677246,296.082377,2451.505594
3210.174237,-12213.398043,962.267725,1532.190996
3210.174574,-11843.295072,1480.411884,-842.705048
3210.174912,-9992.780217,1628.453072,-153.219100
3210.175250,-9400.615463,444.123565,2145.067394
3210.175587,-10214.842000,-74.020594,3294.210641
3210.175925,-10955.047942,-370.102971,995.924147
3210.176262,-11029.068536,0.000000,-459.657299
3210.176600,-11251.130318,-222.061783,-1455.581446
3210.176937,-11843.295072,-740.205942,-1378.971896
3210.177275,-10807.006753,-1924.535449,-2528.115143
3210.177612,-8660.409521,-2368.659014,-2911.162892
3210.177950,-7846.182985,-2294.638420,-2298.286494
3210.178287,-9770.718434,-1184.329507,-1149.143247
3210.178625,-11473.192101,-2294.638420,-2068.457845
3210.178962,-11251.130318,-1850.514855,-2221.676944
3210.179300,-10362.883188,-1850.514855,-766.095498
3210.179638,-10066.800811,-2146.597232,1991.848295
3210.179975,-9474.636058,-2960.823768,2757.943793
3210.180313,-9474.636058,-3478.967927,3064.381992
3210.180650,-9992.780217,-2294.638420,2911.162892
3210.180988,-10584.944971,-370.102971,1225.752797
3210.181325,-11769.274478,148.041188,383.047749
3210.181663,-9918.759623,0.000000,-1225.752797
3210.182000,-7920.203579,-888.247130,-1302.362347
3210.182338,-7846.182985,0.000000,153.219100
3210.182675,-8586.388927,592.164754,536.266849
3210.183013,-10436.903782,370.102971,229.828649
3210.183350,-10807.006753,1036.288319,0.000000
3210.183688,-9326.594869,74.020594,-689.485948
3210.184026,-9474.636058,0.000000,1455.581446
3210.184363,-10066.800811,-1480.411884,3217.601092
3210.184701,-10214.842000,-1776.494261,2298.286494
3210.185038,-10584.944971,-1480.411884,919.314598
3210.185376,-10881.027347,-814.226536,-612.876398
3210.185713,-11103.089130,-1036.288319,-1532.190996
3210.186051,-10807.006753,-1924.535449,-2451.505594
3210.186388,-8882.471304,-2442.679609,-1762.019645
3210.186726,-7846.182985,-2294.638420,-919.314598
3210.187063,-8956.491898,-2220.617826,1149.143247
3210.187401,-11251.130318,-1702.473667,2298.286494
3210.187738,-11325.150913,-1776.494261,1762.019645
3210.188076,-11251.130318,-1554.432478,1149.143247
3210.188414,-10214.842000,-1332.370696,3140.991542
3210.188751,-10140.821405,-1702.473667,4060.306139
3210.189089,-10288.862594,-1924.535449,4366.744339
3210.189426,-10436.903782,-1036.288319,2221.676944
3210.189764,-10288.862594,222.061783,0.000000
3210.190101,-11547.212695,1554.432478,-919.314598
3210.190439,-10658.965565,-592.164754,-2298.286494
3210.190776,-8438.347739,-444.123565,-2757.943793
3210.191114,-7105.977043,-666.185348,-1608.800546
3210.191451,-8216.285956,444.123565,-229.828649
3210.191789,-9770.718434,0.000000,-995.924147
3210.192127,-11399.171507,444.123565,-1608.800546
3210.192464,-10881.027347,814.226536,-1915.238745
3210.192802,-9770.718434,1628.453072,-536.266849
3210.193139,-10140.821405,222.061783,2451.505594
3210.193477,-10807.006753,370.102971,2145.067394
3210.193814,-9918.759623,444.123565,1455.581446
3210.194152,-9844.739029,1776.494261,842.705048
3210.194489,-10807.006753,2220.617826,306.438199
3210.194827,-11251.130318,1036.288319,-383.047749
3210.195164,-9548.656652,1628.453072,-383.047749
3210.195502,-7550.100608,1850.514855,-229.828649
3210.195839,-8734.430116,2738.761985,689.485948
3210.196177,-11177.109724,2664.741391,1302.362347
3210.196515,-11251.130318,2590.720797,-536.266849
3210.196852,-10510.924376,2516.700203,-306.438199
3210.197190,-10214.842000,2368.659014,1532.190996
3210.197527,-10140.821405,222.061783,2451.505594
3210.197865,-10584.944971,-1332.370696,2987.772442
3210.198202,-9400.615463,-962.267725,919.314598
3210.198540,-9548.656652,-888.247130,-842.705048
3210.198877,-10510.924376,-296.082377,-1532.190996
3210.199215,-10362.883188,-1850.514855,-2834.553343
3210.199552,-9252.574275,-2294.638420,-2911.162892
3210.199890,-7920.203579,-2146.597232,-2834.553343
3210.200227,-9030.512492,-1554.432478,-689.485948
3210.200565,-11103.089130,-2516.700203,0.000000
3210.200903,-11177.109724,-1998.556043,-995.924147
3210.201240,-10584.944971,-2220.617826,-306.438199
3210.201578,-9918.759623,-2368.659014,1838.629195
3210.201915,-10732.986159,-2294.638420,3983.696590
3210.202253,-11917.315666,-2960.823768,4443.353888
3210.202590,-10584.944971,-1850.514855,2834.553343
3210.202928,-10510.924376,-814.226536,1225.752797
3210.203265,-11473.192101,-296.082377,612.876398
3210.203603,-10288.862594,-444.123565,-1225.752797
3210.203940,-9548.656652,-148.041188,-1685.410096
3210.204278,-8142.265362,-222.061783,-1685.410096
3210.204616,-8512.368333,74.020594,-842.705048
3210.204953,-9992.780217,-740.205942,306.438199
3210.205291,-10584.944971,-518.144159,-1072.533697
3210.205628,-10214.842000,74.020594,-766.095498
3210.205966,-9548.656652,-444.123565,689.485948
3210.206303,-9178.553681,-1554.432478,2145.067394
3210.206641,-9178.553681,-2590.720797,2451.505594
3210.206978,-9844.739029,-2072.576638,1991.848295
3210.207316,-9992.780217,-740.205942,995.924147
3210.207653,-10881.027347,-148.041188,-536.266849
3210.207991,-10584.944971,-222.061783,-1915.238745
3210.208328,-9474.636058,-1406.391290,-2298.286494
3210.208666,-7994.224174,-888.247130,-1455.581446
3210.209004,-7772.162391,-814.226536,383.047749
3210.209341,-9918.759623,-814.226536,1455.581446
3210.209679,-10955.047942,0.000000,689.485948
3210.210016,-11547.212695,296.082377,-536.266849
3210.210354,-10658.965565,296.082377,459.657299
3210.210691,-10510.924376,814.226536,2681.334243
3210.211029,-11769.274478,-1184.329507,3753.867940
3210.211366,-10955.047942,296.082377,1915.238745
3210.211704,-10510.924376,-74.020594,-153.219100
3210.212041,-11325.150913,518.144159,-842.705048
3210.212379,-10807.006753,-592.164754,-2451.505594
3210.212716,-10436.903782,-1332.370696,-3064.381992
3210.213054,-8808.450710,-1332.370696,-2681.334243
3210.213392,-7846.182985,-962.267725,-2451.505594
3210.213729,-9548.656652,-962.267725,-306.438199
3210.214067,-11029.068536,-1184.329507,-766.095498
3210.214404,-10955.047942,148.041188,-76.609550
3210.214742,-10436.903782,-666.185348,459.657299
3210.215079,-10288.862594,-370.102971,3600.648841
3210.215417,-10362.883188,-1258.350101,4519.963438
3210.215754,-10807.006753,-370.102971,4290.134789
3210.216092,-9992.780217,740.205942,2451.505594
3210.216429,-10732.986159,1628.453072,919.314598
3210.216767,-11325.150913,1850.514855,536.266849
3210.217104,-9326.594869,1036.288319,-1149.143247
3210.217442,-7994.224174,1850.514855,-306.438199
3210.217780,-7772.162391,1924.535449,536.266849
3210.218117,-9474.636058,2146.597232,229.828649
3210.218455,-10288.862594,2664.741391,-383.047749
3210.218792,-10658.965565,2590.720797,-1378.971896
3210.219130,-9400.615463,2072.576638,-153.219100
3210.219467,-9474.636058,962.267725,1838.629195
3210.219805,-10140.821405,444.123565,3294.210641
3210.220142,-10584.944971,0.000000,1991.848295
3210.220480,-10288.862594,-148.041188,-383.047749
3210.220817,-10584.944971,518.144159,-1149.143247
3210.221155,-10807.006753,-1036.288319,-2068.457845
3210.221493,-9548.656652,-814.226536,-3217.601092
3210.221830,-7698.141797,-1110.308913,-3294.210641
3210.222168,-7994.224174,-1480.411884,-766.095498
3210.222505,-9104.533087,-1110.308913,0.000000
3210.222843,-11029.068536,-1628.453072,842.705048
3210.223180,-11621.233289,-592.164754,536.266849
3210.223518,-10955.047942,-962.267725,1378.971896
3210.223855,-10658.965565,-1258.350101,3753.867940
3210.224193,-11029.068536,-1554.432478,4136.915689
3210.224530,-10955.047942,-1850.514855,4136.915689
3210.224868,-10807.006753,-1850.514855,1685.410096
3210.225205,-10436.903782,-740.205942,-306.438199
3210.225543,-10807.006753,0.000000,-1225.752797
3210.225881,-10362.883188,-1554.432478,-2681.334243
3210.226218,-8142.265362,-1480.411884,-2604.724693
3210.226556,-7254.018232,-1850.514855,-1302.362347
3210.226893,-9474.636058,-740.205942,536.266849
3210.227231,-10955.047942,-444.123565,0.000000
3210.227568,-11621.233289,-740.205942,-1072.533697
3210.227906,-10658.965565,-1554.432478,76.609550
3210.228243,-9474.636058,-1776.494261,1532.190996
3210.228581,-10436.903782,-1554.432478,3983.696590
3210.228918,-10510.924376,-2294.638420,3983.696590
3210.229256,-9918.759623,-962.267725,1915.238745
3210.229593,-10362.883188,0.000000,689.485948
3210.229931,-11103.089130,518.144159,0.000000
3210.230269,-9918.759623,0.000000,-1149.143247
3210.230606,-9030.512492,74.020594,-919.314598
3210.230944,-7476.080014,814.226536,229.828649
3210.231281,-8734.430116,1110.308913,1149.143247
3210.231619,-10362.883188,888.247130,2068.457845
3210.231956,-11029.068536,1554.432478,383.047749
3210.232294,-10584.944971,592.164754,306.438199
3210.232631,-10140.821405,888.247130,1915.238745
3210.232969,-9918.759623,-740.205942,2528.115143
3210.233306,-10510.924376,-1036.288319,2681.334243
3210.233644,-9326.594869,-888.247130,306.438199
3210.233982,-9844.739029,-518.144159,-1378.971896
3210.234319,-10214.842000,-148.041188,-2834.553343
3210.234657,-10436.903782,-1332.370696,-3447.429741
3210.234994,-9104.533087,-1702.473667,-3064.381992
3210.235332,-7698.141797,-2294.638420,-2298.286494
3210.235669,-8734.430116,-666.185348,153.219100
3210.236007,-11103.089130,-962.267725,0.000000
3210.236344,-11843.295072,-962.267725,-229.828649
3210.236682,-11103.089130,-740.205942,0.000000
3210.237019,-10214.842000,-1036.288319,2145.067394
3210.237357,-11177.109724,-296.082377,3907.087040
3210.237694,-11769.274478,-1406.391290,4290.134789
3210.238032,-10658.965565,-296.082377,2681.334243
3210.238370,-9992.780217,962.267725,1149.143247
3210.238707,-10658.965565,1702.473667,-766.095498
3210.239045,-10288.862594,962.267725,-1532.190996
3210.239382,-9770.718434,666.185348,-2145.067394
3210.239720,-7846.182985,1480.411884,-995.924147
3210.240057,-8364.327145,1924.535449,-459.657299
3210.240395,-10436.903782,2146.597232,536.266849
3210.240732,-10955.047942,1480.411884,-306.438199
3210.241070,-9918.759623,1628.453072,-995.924147
3210.241407,-9400.615463,1480.411884,536.266849
3210.241745,-9992.780217,222.061783,3217.601092
3210.242082,-9400.615463,-592.164754,3064.381992
3210.242420,-9622.677246,-370.102971,1685.410096
3210.242758,-10658.965565,888.247130,459.657299
3210.243095,-10584.944971,1776.494261,-919.314598
3210.243433,-10140.821405,740.205942,-1378.971896
3210.243770,-9252.574275,0.000000,-1378.971896
3210.244108,-7624.121203,0.000000,-842.705048
3210.244445,-8660.409521,888.247130,1225.752797
3210.244783,-10362.883188,444.123565,1455.581446
3210.245120,-11325.150913,444.123565,842.705048
3210.245458,-10732.986159,518.144159,459.657299
3210.245795,-9844.739029,592.164754,1608.800546
3210.246133,-10362.883188,-296.082377,3140.991542
3210.246471,-10807.006753,-1702.473667,3447.429741
3210.246808,-10436.903782,-666.185348,1072.533697
3210.247146,-10510.924376,-444.123565,-383.047749
3210.247483,-11399.171507,740.205942,-1225.752797
3210.247821,-10732.986159,-1258.350101,-3600.648841
3210.248158,-9326.594869,-1776.494261,-3907.087040
3210.248496,-7994.224174,-1924.535449,-2911.162892
3210.248833,-8438.347739,-2294.638420,-1532.190996
3210.249171,-9770.718434,-2220.617826,-689.485948
3210.249508,-11547.212695,-2368.659014,0.000000
3210.249846,-11325.150913,-1776.494261,229.828649
3210.250183,-10362.883188,-1184.329507,1072.533697
3210.250521,-10436.903782,-2220.617826,3370.820191
3210.250859,-10436.903782,-2220.617826,4290.134789
3210.251196,-10362.883188,-2146.597232,3830.477490
3210.251534,-10362.883188,0.000000,2298.286494
3210.251871,-11177.109724,740.205942,306.438199
3210.252209,-10807.006753,666.185348,-383.047749
3210.252546,-9622.677246,0.000000,-766.095498
3210.252884,-7698.141797,814.226536,-229.828649
3210.253221,-8068.244768,740.205942,842.705048
3210.253559,-9400.615463,740.205942,919.314598
3210.253896,-10436.903782,1406.391290,0.000000
3210.254234,-10436.903782,1406.391290,-153.219100
3210.254571,-9400.615463,1628.453072,0.000000
3210.254909,-9474.636058,444.123565,1991.848295
3210.255247,-10066.800811,-148.041188,3064.381992
3210.255584,-9844.739029,-814.226536,1302.362347
3210.255922,-10140.821405,-370.102971,-459.657299
3210.256259,-10807.006753,74.020594,-1608.800546
3210.256597,-10732.986159,-1258.350101,-2221.676944
3210.256934,-9770.718434,-1480.411884,-2298.286494
3210.257272,-7846.182985,-1110.308913,-2221.676944
3210.257609,-7846.182985,-1406.391290,-459.657299
3210.257947,-9622.677246,-1850.514855,612.876398
3210.258284,-11325.150913,-592.164754,995.924147
3210.258622,-11843.295072,0.000000,383.047749
3210.258959,-11251.130318,0.000000,1608.800546
3210.259297,-10807.006753,-444.123565,2528.115143
3210.259635,-11251.130318,-1036.288319,4290.134789
3210.259972,-10436.903782,-518.144159,2681.334243
3210.260310,-10066.800811,-444.123565,766.095498
3210.260647,-11473.192101,296.082377,-612.876398
3210.260985,-10807.006753,592.164754,-2374.896044
3210.261322,-10362.883188,-592.164754,-2451.505594
3210.261660,-7994.224174,-444.123565,-2834.553343
3210.261997,-7254.018232,-296.082377,-1455.581446
3210.262335,-9696.697840,0.000000,229.828649
3210.262672,-10732.986159,74.020594,-1149.143247
3210.263010,-10807.006753,74.020594,-995.924147
3210.263348,-10658.965565,518.144159,76.609550
3210.263685,-9474.636058,-518.144159,1072.533697
3210.264023,-10288.862594,-296.082377,3140.991542
3210.264360,-10732.986159,-962.267725,3140.991542
3210.264698,-9252.574275,444.123565,1455.581446
3210.265035,-10362.883188,1036.288319,612.876398
3210.265373,-10881.027347,1110.308913,0.000000
3210.265710,-9918.759623,1184.329507,-612.876398
3210.266048,-8956.491898,1480.411884,-306.438199
3210.266385,-7846.182985,1924.535449,842.705048
3210.266723,-9252.574275,1998.556043,1838.629195
3210.267060,-10584.944971,2146.597232,1685.410096
3210.267398,-11029.068536,1924.535449,-229.828649
3210.267736,-10214.842000,1850.514855,459.657299
3210.268073,-9844.739029,740.205942,1915.238745
3210.268411,-10066.800811,-296.082377,2681.334243
3210.268748,-9622.677246,-740.205942,1838.629195
3210.269086,-10214.842000,-962.267725,-536.266849
3210.269423,-10140.821405,-518.144159,-1838.629195
3210.269761,-9474.636058,-888.247130,-3064.381992
3210.270098,-9696.697840,-1332.370696,-3600.648841
3210.270435,-9178.553681,-2146.597232,-3064.381992
3210.270773,-8142.265362,-2146.597232,-1915.238745
3210.271110,-9474.636058,-1924.535449,0.000000
3210.271448,-11325.150913,-1850.514855,0.000000
3210.271785,-11029.068536,-2368.659014,-995.924147
3210.272122,-10436.903782,-1924.535449,0.000000
3210.272460,-10436.903782,-2220.617826,1838.629195
3210.272797,-10584.944971,-1776.494261,3370.820191
3210.273135,-11399.171507,-1776.494261,3370.820191
3210.273472,-11029.068536,-740.205942,1072.533697
3210.273809,-10658.965565,-148.041188,383.047749
3210.274147,-11029.068536,444.123565,-153.219100
3210.274484,-10140.821405,370.102971,-1302.362347
3210.274822,-8660.409521,0.000000,-919.314598
3210.275159,-7920.203579,148.041188,-153.219100
3210.275496,-8956.491898,518.144159,536.266849
3210.275834,-10732.986159,814.226536,1072.533697
3210.276171,-11547.212695,518.144159,459.657299
3210.276509,-9696.697840,444.123565,-919.314598
3210.276846,-9252.574275,222.061783,1149.143247
3210.277183,-9474.636058,-370.102971,2681.334243
3210.277521,-9400.615463,-888.247130,2911.162892
3210.277858,-9548.656652,-740.205942,1685.410096
3210.278196,-9548.656652,222.061783,0.000000
3210.278533,-10510.924376,222.061783,-919.314598
3210.278870,-10288.862594,74.020594,-995.924147
3210.279208,-8808.450710,-740.205942,-842.705048
3210.279545,-8068.244768,-296.082377,536.266849
3210.279883,-8808.450710,222.061783,1762.019645
3210.280220,-10732.986159,666.185348,1532.190996
3210.280557,-11621.233289,-296.082377,306.438199
3210.280895,-10214.842000,444.123565,-306.438199
3210.281232,-10066.800811,-222.061783,1915.238745
3210.281570,-9992.780217,-666.185348,2834.553343
3210.281907,-10436.903782,-814.226536,2451.505594
3210.282244,-10881.027347,-1184.329507,919.314598
3210.282582,-10510.924376,296.082377,-842.705048
3210.282919,-11251.130318,296.082377,-1762.019645
3210.283257,-11177.109724,-962.267725,-2374.896044
3210.283594,-9104.533087,-1924.535449,-3370.820191
3210.283931,-8216.285956,-1628.453072,-2221.676944
3210.284269,-8808.450710,-1850.514855,-995.924147
3210.284606,-10436.903782,-1258.350101,-229.828649
3210.284944,-11621.233289,-1776.494261,-689.485948
3210.285281,-10807.006753,-1406.391290,-766.095498
3210.285619,-9844.739029,-814.226536,842.705048
3210.285956,-10436.903782,-1480.411884,3064.381992
3210.286293,-10362.883188,-1554.432478,2911.162892
3210.286631,-10362.883188,-740.205942,2451.505594
3210.286968,-10362.883188,444.123565,1685.410096
3210.287306,-10362.883188,2072.576638,229.828649
3210.287643,-10732.986159,1184.329507,-1072.533697
3210.287980,-9400.615463,1036.288319,-612.876398
3210.288318,-8142.265362,1184.329507,0.000000
3210.288655,-8438.347739,2516.700203,1302.362347
3210.288993,-10066.800811,2368.659014,689.485948
3210.289330,-10510.924376,2294.638420,-536.266849
3210.289667,-9770.718434,2294.638420,-1378.971896
3210.290005,-8956.491898,1850.514855,-306.438199
3210.290342,-9548.656652,814.226536,2145.067394
3210.290680,-10140.821405,518.144159,1685.410096
3210.291017,-10066.800811,-222.061783,689.485948
3210.291354,-10140.821405,1036.288319,-919.314598
3210.291692,-10807.006753,370.102971,-1838.629195
3210.292029,-10732.986159,-222.061783,-1838.629195
3210.292367,-9030.512492,-1332.370696,-2451.505594
3210.292704,-8068.244768,-1480.411884,-995.924147
3210.293041,-8438.347739,-1036.288319,919.314598
3210.293379,-10066.800811,-1480.411884,995.924147
3210.293716,-11251.130318,-1554.432478,842.705048
3210.294054,-11103.089130,-1332.370696,612.876398
3210.294391,-10214.842000,-370.102971,1838.629195
3210.294728,-10807.006753,-1332.370696,2987.772442
3210.295066,-10732.986159,-1776.494261,3753.867940
3210.295403,-10140.821405,-1554.432478,2145.067394
3210.295741,-10807.006753,-444.123565,766.095498
3210.296078,-11325.150913,0.000000,-919.314598
3210.296415,-10658.965565,-814.226536,-2451.505594
3210.296753,-9622.677246,-1258.350101,-1685.410096
3210.297090,-8142.265362,-2072.576638,-1762.019645
3210.297428,-8512.368333,-666.185348,-229.828649
3210.297765,-9992.780217,-888.247130,76.609550
3210.298102,-11325.150913,-888.247130,-1302.362347
3210.298440,-10732.986159,-592.164754,-842.705048
3210.298777,-10140.821405,-444.123565,842.705048
3210.299115,-10066.800811,-740.205942,2298.286494
3210.299452,-9844.739029,-1184.329507,2528.115143
3210.299789,-10140.821405,-592.164754,2757.943793
3210.300127,-10510.924376,-148.041188,1838.629195
3210.300464,-10140.821405,444.123565,919.314598
3210.300802,-9992.780217,962.267725,76.609550
3210.301139,-9844.739029,74.020594,153.219100
3210.301476,-8216.285956,814.226536,536.266849
3210.301814,-8068.244768,1110.308913,919.314598
3210.302151,-9400.615463,1628.453072,2298.286494
3210.302489,-10658.965565,1554.432478,766.095498
3210.302826,-10584.944971,1480.411884,229.828649
3210.303164,-9918.759623,1776.494261,306.438199
3210.303501,-9770.718434,74.020594,1455.581446
3210.303838,-9918.759623,-666.185348,2145.067394
3210.304176,-9548.656652,-1184.329507,612.876398
3210.304513,-9918.759623,0.000000,-536.266849
3210.304851,-9992.780217,-296.082377,-2374.896044
3210.305188,-10066.800811,-1184.329507,-3600.648841
3210.305525,-9474.636058,-2072.576638,-3677.258390
3210.305863,-9030.512492,-2590.720797,-2298.286494
3210.306200,-7624.121203,-1924.535449,-1072.533697
3210.306538,-10066.800811,-2294.638420,0.000000
3210.306875,-11769.274478,-1480.411884,153.219100
3210.307212,-11473.192101,-1702.473667,-1149.143247
3210.307550,-10732.986159,-1480.411884,153.219100
3210.307887,-10807.006753,-2294.638420,2757.943793
3210.308225,-10584.944971,-2294.638420,3370.820191
3210.308562,-11029.068536,-1480.411884,3294.210641
3210.308899,-11251.130318,-888.247130,2298.286494
3210.309237,-10510.924376,592.164754,0.000000
3210.309574,-11029.068536,370.102971,-766.095498
3210.309912,-10584.944971,370.102971,-689.485948
3210.310249,-8512.368333,148.041188,-995.924147
3210.310586,-8512.368333,444.123565,536.266849
3210.310924,-9400.615463,1480.411884,689.485948
3210.311261,-10955.047942,888.247130,0.000000
3210.311599,-11399.171507,1110.308913,0.000000
3210.311936,-10066.800811,1702.473667,-383.047749
3210.312273,-9252.574275,296.082377,1225.752797
3210.312611,-9474.636058,-444.123565,2451.505594
3210.312948,-9252.574275,-592.164754,2068.457845
3210.313286,-9548.656652,222.061783,1685.410096
3210.313623,-10288.862594,1184.329507,229.828649
3210.313960,-10362.883188,1184.329507,-689.485948
3210.314298,-9918.759623,444.123565,-1225.752797
3210.314635,-8956.491898,222.061783,229.828649
3210.314973,-8216.285956,518.144159,1072.533697
3210.315310,-8956.491898,148.041188,1838.629195
3210.315647,-10732.986159,1332.370696,1838.629195
3210.315985,-11399.171507,592.164754,229.828649
3210.316322,-10510.924376,814.226536,459.657299
3210.316660,-9844.739029,0.000000,1685.410096
3210.316997,-10288.862594,-888.247130,2681.334243
3210.317334,-10214.842000,-814.226536,1991.848295
3210.317672,-10584.944971,-1480.411884,153.219100
3210.318009,-10584.944971,-518.144159,-1072.533697
3210.318347,-11103.089130,-814.226536,-2221.676944
3210.318684,-10807.006753,-1332.370696,-2757.943793
3210.319022,-9326.594869,-2072.576638,-3217.601092
3210.319359,-8216.285956,-2664.741391,-2145.067394
3210.319696,-9030.512492,-2738.761985,-612.876398
3210.320034,-10584.944971,-2738.761985,-612.876398
3210.320371,-11695.253884,-1998.556043,-383.047749
3210.320709,-11029.068536,-2368.659014,-306.438199
3210.321046,-9918.759623,-2072.576638,919.314598
3210.321383,-10214.842000,-2368.659014,2374.896044
3210.321721,-10807.006753,-1998.556043,3370.820191
3210.322058,-10214.842000,-1554.432478,2374.896044
3210.322396,-10288.862594,-222.061783,459.657299
3210.322733,-10732.986159,518.144159,-536.266849
3210.323070,-10362.883188,74.020594,-1225.752797
3210.323408,-9474.636058,296.082377,-229.828649
3210.323745,-8364.327145,74.020594,153.219100
3210.324083,-7994.224174,1406.391290,306.438199
3210.324420,-9844.739029,1554.432478,153.219100
3210.324757,-11177.109724,1702.473667,-612.876398
3210.325095,-9992.780217,1184.329507,-1149.143247
3210.325432,-9030.512492,1332.370696,76.609550
3210.325770,-9474.636058,740.205942,1378.971896
3210.326107,-9696.697840,74.020594,1455.581446
3210.326444,-10066.800811,0.000000,689.485948
3210.326782,-10140.821405,222.061783,-229.828649
3210.327119,-10732.986159,0.000000,-1072.533697
3210.327457,-10955.047942,0.000000,-919.314598
3210.327794,-9400.615463,-1554.432478,-1455.581446
3210.328131,-7920.203579,-888.247130,-766.095498
3210.328469,-8068.244768,-1480.411884,842.705048
3210.328806,-10362.883188,-1036.288319,1915.238745
3210.329144,-11251.130318,-962.267725,995.924147
3210.329481,-11695.253884,-296.082377,1302.362347
3210.329818,-10658.965565,0.000000,2145.067394
3210.330156,-9992.780217,-666.185348,3140.991542
3210.330493,-10807.006753,-1554.432478,3983.696590
3210.330831,-10436.903782,-1184.329507,2145.067394
3210.331168,-10658.965565,-444.123565,612.876398
3210.331505,-11177.109724,296.082377,-536.266849
3210.331843,-10881.027347,-814.226536,-2221.676944
3210.332180,-9326.594869,-1480.411884,-1991.848295
3210.332518,-8068.244768,-2368.659014,-1762.019645
3210.332855,-7920.203579,-888.247130,-383.047749
3210.333192,-9918.759623,-888.247130,-536.266849
3210.333530,-11103.089130,-740.205942,-1378.971896
3210.333867,-10436.903782,-814.226536,-2374.896044
3210.334205,-10140.821405,-444.123565,0.000000
3210.334542,-10140.821405,-444.123565,1915.238745
3210.334879,-9918.759623,-1480.411884,2221.676944
3210.335217,-9918.759623,-888.247130,1532.190996
3210.335554,-10140.821405,-222.061783,842.705048
3210.335892,-10658.965565,888.247130,459.657299
3210.336229,-10510.924376,962.267725,-153.219100
3210.336567,-9992.780217,370.102971,-459.657299
3210.336904,-8512.368333,888.247130,153.219100
3210.337241,-8364.327145,1406.391290,1225.752797
3210.337579,-10140.821405,2590.720797,1838.629195
3210.337916,-11251.130318,1184.329507,689.485948
3210.338254,-10362.883188,2590.720797,0.000000
3210.338591,-9918.759623,1850.514855,306.438199
3210.338928,-9918.759623,1258.350101,2145.067394
3210.339266,-10066.800811,222.061783,1608.800546
3210.339603,-10362.883188,-814.226536,1149.143247
3210.339941,-9992.780217,0.000000,-919.314598
3210.340278,-10140.821405,0.000000,-2221.676944
3210.340615,-10288.862594,-962.267725,-3064.381992
3210.340953,-8734.430116,-1924.535449,-2987.772442
3210.341290,-8438.347739,-2812.782580,-1149.143247
3210.341628,-8364.327145,-1332.370696,229.828649
3210.341965,-10362.883188,-1406.391290,459.657299
3210.342302,-12139.377449,-1554.432478,0.000000
3210.342640,-11251.130318,-1406.391290,-1302.362347
3210.342977,-9918.759623,-1258.350101,1149.143247
3210.343315,-10288.862594,-1702.473667,3370.820191
3210.343652,-10510.924376,-2590.720797,3447.429741
3210.343989,-11029.068536,-1628.453072,2757.943793
3210.344327,-11251.130318,-962.267725,1455.581446
3210.344664,-10807.006753,888.247130,0.000000
3210.345002,-11325.150913,-444.123565,0.000000
3210.345339,-9918.759623,-518.144159,-995.924147
3210.345676,-7846.182985,-222.061783,-612.876398
3210.346014,-8364.327145,0.000000,536.266849
3210.346351,-9474.636058,148.041188,995.924147
3210.346689,-10807.006753,-222.061783,0.000000
3210.347026,-11177.109724,370.102971,-306.438199
3210.347363,-9918.759623,296.082377,-383.047749
3210.347701,-8956.491898,-518.144159,1378.971896
3210.348038,-9252.574275,-1702.473667,1838.629195
3210.348376,-9474.636058,-1184.329507,2145.067394
3210.348713,-9400.615463,-148.041188,536.266849
3210.349050,-10881.027347,740.205942,0.000000
3210.349388,-10732.986159,518.144159,-1532.190996
3210.349725,-9400.615463,-814.226536,-1378.971896
3210.350063,-8660.409521,0.000000,-459.657299
3210.350400,-8142.265362,0.000000,995.924147
3210.350737,-9622.677246,888.247130,1149.143247
3210.351075,-11029.068536,666.185348,459.657299
3210.351412,-11325.150913,1480.411884,-766.095498
3210.351750,-10288.862594,962.267725,-689.485948
3210.352087,-9992.780217,370.102971,1225.752797
3210.352425,-10362.883188,-592.164754,2451.505594
3210.352762,-9770.718434,-592.164754,612.876398
3210.353099,-9992.780217,-592.164754,0.000000
3210.353437,-10881.027347,518.144159,-1378.971896
3210.353774,-11251.130318,-518.144159,-2068.457845
3210.354112,-10881.027347,-962.267725,-2834.553343
3210.354449,-8512.368333,-1554.432478,-3294.210641
3210.354786,-7994.224174,-1998.556043,-1762.019645
3210.355124,-9474.636058,-1998.556043,-306.438199
3210.355461,-10288.862594,-2294.638420,-536.266849
3210.355799,-11029.068536,-1628.453072,-766.095498
3210.356136,-11103.089130,-1258.350101,383.047749
3210.356473,-9770.718434,-1406.391290,1302.362347
3210.356811,-9992.780217,-2146.597232,3217.601092
3210.357148,-10510.924376,-1776.494261,3830.477490
3210.357486,-10436.903782,-444.123565,2681.334243
3210.357823,-11325.150913,592.164754,2145.067394
3210.358160,-10362.883188,1184.329507,76.609550
3210.358498,-10214.842000,0.000000,383.047749
3210.358835,-9474.636058,666.185348,383.047749
3210.359173,-8216.285956,1110.308913,1072.533697
3210.359510,-9326.594869,1702.473667,1455.581446
3210.359847,-10510.924376,1924.535449,383.047749
3210.360185,-11177.109724,2294.638420,-995.924147
3210.360522,-10288.862594,1036.288319,-1302.362347
3210.360860,-8956.491898,1628.453072,1149.143247
3210.361197,-9770.718434,0.000000,2757.943793
3210.361534,-9548.656652,-370.102971,2451.505594
3210.361872,-9400.615463,0.000000,0.000000
3210.362209,-11621.233289,592.164754,0.000000
3210.362547,-10807.006753,370.102971,-1991.848295
3210.362884,-10066.800811,-296.082377,-1991.848295
3210.363221,-8956.491898,-888.247130,-1685.410096
3210.363559,-7328.038826,-444.123565,-995.924147
3210.363896,-9030.512492,-1184.329507,1149.143247
3210.364234,-10658.965565,-962.267725,689.485948
3210.364571,-11029.068536,-148.041188,306.438199
3210.364908,-11473.192101,-518.144159,612.876398
3210.365246,-10362.883188,-148.041188,1838.629195
3210.365583,-10066.800811,-592.164754,3830.477490
3210.365921,-11325.150913,-1036.288319,4060.306139
3210.366258,-10140.821405,-814.226536,1302.362347
3210.366595,-10362.883188,-370.102971,-306.438199
3210.366933,-10955.047942,-222.061783,-1455.581446
3210.367270,-10288.862594,-592.164754,-2221.676944
3210.367608,-8586.388927,-1850.514855,-2987.772442
3210.367945,-7920.203579,-1332.370696,-1302.362347
3210.368283,-8586.388927,-1332.370696,-153.219100
3210.368620,-10584.944971,-222.061783,-919.314598
3210.368957,-11251.130318,-814.226536,-1915.238745
3210.369295,-10510.924376,-666.185348,-1378.971896
3210.369632,-9770.718434,-962.267725,995.924147
3210.369970,-9918.759623,-1332.370696,2604.724693
3210.370307,-10066.800811,-1406.391290,3370.820191
3210.370644,-10658.965565,-370.102971,2068.457845
3210.370982,-10658.965565,-296.082377,1378.971896
3210.371319,-10807.006753,888.247130,536.266849
3210.371656,-10288.862594,518.144159,-229.828649
3210.371994,-9548.656652,444.123565,0.000000
3210.372331,-7994.224174,740.205942,383.047749
3210.372669,-8512.368333,1998.556043,1608.800546
3210.373006,-10362.883188,1850.514855,2221.676944
3210.373343,-10881.027347,1554.432478,459.657299
3210.373681,-10510.924376,1702.473667,536.266849
3210.374018,-9622.677246,1184.329507,1762.019645
3210.374356,-9326.594869,296.082377,2987.772442
3210.374693,-10066.800811,-592.164754,3064.381992
3210.375030,-10436.903782,-592.164754,995.924147
3210.375368,-10066.800811,-370.102971,-1762.019645
3210.375705,-10584.944971,-74.020594,-2298.286494
3210.376042,-10066.800811,-1258.350101,-3140.991542
3210.376380,-8438.347739,-2738.761985,-2834.553343
3210.376717,-7402.059420,-2368.659014,-1838.629195
3210.377055,-8364.327145,-1850.514855,-612.876398
3210.377392,-10807.006753,-1110.308913,0.000000
3210.377729,-12361.439231,-1480.411884,-536.266849
3210.378067,-11769.274478,-1110.308913,-689.485948
3210.378404,-9844.739029,-1480.411884,1225.752797
3210.378742,-10510.924376,-1184.329507,3983.696590
3210.379079,-11103.089130,-2146.597232,3907.087040
3210.379416,-10732.986159,-1406.391290,1608.800546
3210.379754,-10732.986159,0.000000,459.657299
3210.380091,-11325.150913,592.164754,-536.266849
3210.380428,-10732.986159,296.082377,-1378.971896
3210.380766,-9844.739029,0.000000,-2221.676944
3210.381103,-7846.182985,-296.082377,-1149.143247
3210.381441,-7772.162391,296.082377,0.000000
3210.381778,-9918.759623,740.205942,229.828649
3210.382115,-11547.212695,518.144159,-383.047749
3210.382453,-10955.047942,518.144159,-1225.752797
3210.382790,-9696.697840,444.123565,229.828649
3210.383128,-9326.594869,0.000000,1762.019645
3210.383465,-9474.636058,-1110.308913,2987.772442
3210.383802,-9474.636058,-1184.329507,2221.676944
3210.384140,-9548.656652,740.205942,76.609550
3210.384477,-10436.903782,1258.350101,-459.657299
3210.384814,-10955.047942,518.144159,-842.705048
3210.385152,-9770.718434,0.000000,-995.924147
3210.385489,-7994.224174,370.102971,0.000000
3210.385827,-8586.388927,1110.308913,1762.019645
3210.386164,-9992.780217,1702.473667,1532.190996
3210.386501,-11695.253884,1110.308913,459.657299
3210.386839,-11103.089130,1702.473667,153.219100
3210.387176,-10140.821405,962.267725,1225.752797
3210.387513,-10510.924376,518.144159,3064.381992
3210.387851,-10584.944971,-888.247130,3447.429741
3210.388188,-9770.718434,-962.267725,1378.971896
3210.388526,-10140.821405,0.000000,536.266849
3210.388863,-10955.047942,222.061783,-689.485948
3210.389200,-10881.027347,-222.061783,-2451.505594
3210.389538,-10140.821405,-1554.432478,-3370.820191
3210.389875,-8512.368333,-1480.411884,-2451.505594
3210.390213,-7624.121203,-1554.432478,-1149.143247
3210.390550,-9770.718434,-1924.535449,306.438199
3210.390887,-10955.047942,-1480.411884,76.609550
3210.391225,-11621.233289,-1850.514855,0.000000
3210.391562,-10436.903782,-1480.411884,1302.362347
3210.391899,-10288.862594,-1628.453072,3064.381992
3210.392237,-10807.006753,-2368.659014,4979.620737
3210.392574,-10807.006753,-1628.453072,3140.991542
3210.392912,-9918.759623,0.000000,1685.410096
3210.393249,-10807.006753,1036.288319,459.657299
3210.393586,-10732.986159,962.267725,-76.609550
3210.393924,-9622.677246,148.041188,-1225.752797
3210.394261,-7994.224174,518.144159,-1608.800546
3210.394599,-8142.265362,1924.535449,153.219100
3210.394936,-9770.718434,1850.514855,536.266849
3210.395273,-10807.006753,1258.350101,-919.314598
3210.395611,-10288.862594,1702.473667,-1455.581446
3210.395948,-9474.636058,1110.308913,-919.314598
3210.396285,-8956.491898,1332.370696,1302.362347
3210.396623,-9474.636058,-518.144159,1915.238745
3210.396960,-9918.759623,-666.185348,1532.190996
3210.397298,-9844.739029,0.000000,-766.095498
3210.397635,-10807.006753,148.041188,-1225.752797
3210.397972,-11177.109724,148.041188,-1991.848295
3210.398310,-10288.862594,-962.267725,-2451.505594
3210.398647,-8438.347739,-888.247130,-2374.896044
3210.398985,-7105.977043,-1702.473667,-919.314598
3210.399322,-9474.636058,-1184.329507,995.924147
3210.399659,-11103.089130,-1406.391290,995.924147
3210.399997,-11399.171507,-1184.329507,612.876398
3210.400334,-10955.047942,0.000000,1378.971896
3210.400671,-10807.006753,-888.247130,3600.648841
3210.401009,-11177.109724,-1480.411884,4596.572988
3210.401346,-11029.068536,-2072.576638,3447.429741
3210.401684,-10807.006753,-518.144159,1608.800546
3210.402021,-11029.068536,0.000000,-306.438199
3210.402358,-10955.047942,-666.185348,-1608.800546
3210.402696,-10066.800811,-1406.391290,-2221.676944
3210.403033,-8068.244768,-1554.432478,-2451.505594
3210.403371,-7772.162391,-1258.350101,-1072.533697
3210.403708,-9326.594869,-1332.370696,-383.047749
3210.404045,-10436.903782,-814.226536,-842.705048
3210.404383,-11029.068536,-740.205942,-1378.971896
3210.404720,-10436.903782,-592.164754,0.000000
3210.405057,-9770.718434,-296.082377,1838.629195
3210.405395,-10807.006753,-1406.391290,3983.696590
3210.405732,-10658.965565,-1184.329507,3907.087040
3210.406070,-9844.739029,-296.082377,2221.676944
3210.406407,-10658.965565,666.185348,1532.190996
3210.406744,-11103.089130,1110.308913,229.828649
3210.407082,-10584.944971,1036.288319,-459.657299
3210.407419,-8882.471304,1110.308913,0.000000
3210.407757,-7772.162391,1184.329507,0.000000
3210.408094,-8586.388927,1850.514855,1378.971896
3210.408431,-10658.965565,1702.473667,919.314598
3210.408769,-10955.047942,2738.761985,229.828649
3210.409106,-10140.821405,2220.617826,-459.657299
3210.409443,-9548.656652,1628.453072,1762.019645
3210.409781,-9770.718434,0.000000,3064.381992
3210.410118,-10140.821405,0.000000,1838.629195
3210.410456,-10362.883188,74.020594,0.000000
3210.410793,-10510.924376,370.102971,-2451.505594
3210.411130,-9992.780217,-370.102971,-3370.820191
3210.411468,-9548.656652,-1184.329507,-4213.525239
3210.411805,-8216.285956,-2146.597232,-3140.991542
3210.412143,-7328.038826,-2072.576638,-1685.410096
3210.412480,-8956.491898,-1998.556043,76.609550
3210.412817,-10436.903782,-1184.329507,-383.047749
3210.413155,-11991.336260,-1480.411884,-612.876398
3210.413492,-11251.130318,-1258.350101,689.485948
3210.413829,-9918.759623,-1850.514855,1838.629195
3210.414167,-10955.047942,-1924.535449,4136.915689
3210.414504,-11547.212695,-1554.432478,3983.696590
3210.414842,-11103.089130,-1702.473667,1762.019645
3210.415179,-11177.109724,0.000000,383.047749
3210.415516,-11325.150913,0.000000,-306.438199
3210.415854,-10881.027347,444.123565,-1608.800546
3210.416191,-9474.636058,-222.061783,-2221.676944
3210.416529,-7698.141797,-148.041188,-1378.971896
3210.416866,-8216.285956,296.082377,383.047749
3210.417203,-11103.089130,518.144159,383.047749
3210.417541,-11547.212695,888.247130,-306.438199
3210.417878,-11177.109724,0.000000,-536.266849
3210.418215,-9622.677246,962.267725,1225.752797
3210.418553,-9622.677246,-1480.411884,2681.334243
3210.418890,-10066.800811,-1110.308913,3370.820191
3210.419228,-9326.594869,-666.185348,1378.971896
3210.419565,-10214.842000,222.061783,536.266849
3210.419902,-9918.759623,592.164754,-842.705048
3210.420240,-9770.718434,0.000000,-1685.410096
3210.420577,-9178.553681,-370.102971,-383.047749
3210.420914,-7031.956449,1110.308913,0.000000
3210.421252,-8734.430116,518.144159,1762.019645
3210.421589,-10288.862594,1628.453072,1608.800546
3210.421927,-11103.089130,1332.370696,153.219100
3210.422264,-11325.150913,1406.391290,1378.971896
3210.422601,-9622.677246,444.123565,995.924147
3210.422939,-9918.759623,74.020594,3217.601092
3210.423276,-11103.089130,-814.226536,2911.162892
3210.423614,-9844.739029,-1406.391290,689.485948
3210.423951,-9770.718434,-444.123565,-1378.971896
3210.424288,-10881.027347,-444.123565,-2068.457845
3210.424626,-10732.986159,222.061783,-3600.648841
3210.424963,-10214.842000,-1776.494261,-4060.306139
3210.425300,-8068.244768,-1924.535449,-2834.553343
3210.425638,-7772.162391,-2220.617826,-1302.362347
3210.425975,-10732.986159,-2072.576638,459.657299
3210.426313,-11547.212695,-1850.514855,-459.657299
3210.426650,-11473.192101,-2368.659014,-612.876398
3210.426987,-10510.924376,-1776.494261,1685.410096
3210.427325,-10436.903782,-2368.659014,3447.429741
3210.427662,-10732.986159,-2220.617826,3830.477490
3210.428000,-10881.027347,-2220.617826,2757.943793
3210.428337,-10214.842000,0.000000,1608.800546
3210.428674,-9992.780217,666.185348,-153.219100
3210.429012,-10732.986159,518.144159,-536.266849
3210.429349,-9548.656652,0.000000,-1149.143247
3210.429686,-7846.182985,148.041188,-306.438199
3210.430024,-8216.285956,1850.514855,919.314598
3210.430361,-10140.821405,1628.453072,995.924147
3210.430699,-11621.233289,2146.597232,-1225.752797
3210.431036,-10288.862594,1554.432478,-1915.238745
3210.431373,-9548.656652,1776.494261,459.657299
3210.431711,-9252.574275,888.247130,2145.067394
3210.432048,-9696.697840,0.000000,2681.334243
3210.432386,-10066.800811,0.000000,995.924147
3210.432723,-9918.759623,666.185348,-1225.752797
3210.433060,-10584.944971,1110.308913,-995.924147
3210.433398,-11029.068536,518.144159,-1455.581446
3210.433735,-9474.636058,-444.123565,-2374.896044
3210.434072,-8068.244768,0.000000,-1532.190996
3210.434410,-7476.080014,-888.247130,229.828649
3210.434747,-9770.718434,-370.102971,1455.581446
3210.435085,-11695.253884,-666.185348,1149.143247
3210.435422,-11473.192101,-740.205942,842.705048
3210.435759,-10140.821405,0.000000,2221.676944
3210.436097,-10584.944971,-740.205942,3907.087040
3210.436434,-10436.903782,-1480.411884,3907.087040
3210.436772,-10881.027347,-1850.514855,2451.505594
3210.437109,-10584.944971,-740.205942,689.485948
3210.437446,-10807.006753,222.061783,-1225.752797
3210.437784,-11251.130318,-888.247130,-1608.800546
3210.438121,-9474.636058,-1628.453072,-3217.601092
3210.438458,-7476.080014,-2664.741391,-2681.334243
3210.438796,-7846.182985,-1480.411884,-842.705048
3210.439133,-9622.677246,-1332.370696,-612.876398
3210.439471,-11473.192101,-1258.350101,-1532.190996
3210.439808,-11399.171507,-1036.288319,-1838.629195
3210.440145,-9918.759623,-370.102971,-306.438199
3210.440483,-10066.800811,-1332.370696,2298.286494
3210.440820,-10362.883188,-1702.473667,2834.553343
3210.441158,-10584.944971,-2220.617826,2681.334243
3210.441495,-10214.842000,-1036.288319,1378.971896
3210.441832,-10436.903782,740.205942,0.000000
3210.442170,-11547.212695,296.082377,0.000000
3210.442507,-10066.800811,370.102971,-1302.362347
3210.442844,-8660.409521,888.247130,-766.095498
3210.443182,-8216.285956,1036.288319,1072.533697
3210.443519,-9030.512492,2220.617826,1532.190996
3210.443857,-11325.150913,1702.473667,1225.752797
3210.444194,-10807.006753,2072.576638,0.000000
3210.444531,-9474.636058,2442.679609,536.266849
3210.444869,-9548.656652,962.267725,2374.896044
3210.445206,-10066.800811,0.000000,3600.648841
3210.445544,-9696.697840,-592.164754,2221.676944
3210.445881,-10362.883188,222.061783,536.266849
3210.446218,-10658.965565,666.185348,-1991.848295
3210.446556,-10140.821405,148.041188,-3447.429741
3210.446893,-9104.533087,-1258.350101,-3447.429741
3210.447230,-7772.162391,-2072.576638,-2221.676944
3210.447568,-7254.018232,-1776.494261,-919.314598
3210.447905,-9326.594869,-1480.411884,229.828649
3210.448243,-10807.006753,-1184.329507,0.000000
3210.448580,-11991.336260,-962.267725,-383.047749
3210.448917,-11177.109724,-888.247130,842.705048
3210.449255,-10214.842000,-1036.288319,3217.601092
3210.449592,-10584.944971,-1850.514855,3983.696590
3210.449929,-11473.192101,-1628.453072,2987.772442
3210.450267,-10881.027347,-1184.329507,919.314598
3210.450604,-10807.006753,0.000000,0.000000
3210.450942,-11325.150913,0.000000,-536.266849
3210.451279,-10658.965565,0.000000,-1915.238745
3210.451616,-8364.327145,-370.102971,-2068.457845
3210.451954,-7624.121203,74.020594,-689.485948
3210.452291,-8512.368333,74.020594,459.657299
3210.452629,-10955.047942,0.000000,229.828649
3210.452966,-11473.192101,148.041188,0.000000
3210.453303,-10732.986159,444.123565,-536.266849
3210.453641,-9400.615463,148.041188,1302.362347
3210.453978,-10066.800811,-1110.308913,2911.162892
3210.454315,-9696.697840,-1480.411884,2374.896044
3210.454653,-9474.636058,-888.247130,1072.533697
3210.454990,-9918.759623,592.164754,229.828649
3210.455328,-10214.842000,74.020594,-1302.362347
3210.455665,-9844.739029,74.020594,-1532.190996
3210.456002,-8882.471304,148.041188,-1302.362347
3210.456340,-7328.038826,370.102971,383.047749
3210.456677,-8660.409521,666.185348,1532.190996
3210.457015,-11029.068536,1110.308913,1838.629195
3210.457352,-10955.047942,1998.556043,76.609550
3210.457689,-11029.068536,1406.391290,689.485948
3210.458027,-10658.965565,444.123565,1915.238745
3210.458364,-10140.821405,0.000000,2987.772442
3210.458701,-10807.006753,-592.164754,2298.286494
3210.459039,-9992.780217,-888.247130,229.828649
3210.459376,-9474.636058,-666.185348,-1455.581446
3210.459714,-10436.903782,0.000000,-1915.238745
3210.460051,-10510.924376,-666.185348,-3370.820191
3210.460388,-9474.636058,-1184.329507,-4136.915689
3210.460726,-8512.368333,-1480.411884,-2681.334243
3210.461063,-8882.471304,-1998.556043,-76.609550
3210.461401,-10732.986159,-1924.535449,383.047749
3210.461738,-11547.212695,-1776.494261,-306.438199
3210.462075,-11325.150913,-1850.514855,153.219100
3210.462413,-10362.883188,-1776.494261,1915.238745
3210.462750,-10584.944971,-2738.761985,3524.039291
3210.463087,-11251.130318,-2368.659014,3064.381992
3210.463425,-10658.965565,-1702.473667,2374.896044
3210.463762,-10362.883188,-444.123565,1149.143247
3210.464100,-10658.965565,962.267725,0.000000
3210.464437,-10214.842000,0.000000,-919.314598
3210.464774,-9474.636058,0.000000,-1225.752797
3210.465112,-7994.224174,444.123565,76.609550
3210.465449,-8438.347739,1110.308913,1225.752797
3210.465787,-10807.006753,1702.473667,1225.752797
3210.466124,-11177.109724,1554.432478,-1225.752797
3210.466461,-10140.821405,1628.453072,-919.314598
3210.466799,-9178.553681,1110.308913,1225.752797
3210.467136,-8956.491898,74.020594,2145.067394
3210.467473,-10066.800811,444.123565,2145.067394
3210.467811,-10066.800811,-148.041188,229.828649
3210.468148,-9474.636058,296.082377,-1225.752797
3210.468486,-10658.965565,592.164754,-1302.362347
3210.468823,-10658.965565,518.144159,-1532.190996
3210.469160,-9178.553681,0.000000,-2604.724693
3210.469498,-7920.203579,-592.164754,-1608.800546
3210.469835,-8734.430116,-222.061783,612.876398
3210.470172,-10066.800811,0.000000,1302.362347
3210.470510,-11695.253884,-592.164754,1378.971896
3210.470847,-11177.109724,148.041188,842.705048
3210.471184,-10510.924376,-148.041188,2451.505594
3210.471522,-10510.924376,-148.041188,3600.648841
3210.471859,-11103.089130,-814.226536,3524.039291
3210.472196,-10510.924376,-888.247130,1915.238745
3210.472534,-10436.903782,-518.144159,-383.047749
3210.472871,-10807.006753,370.102971,-1072.533697
3210.473208,-10140.821405,-814.226536,-2221.676944
3210.473546,-9400.615463,-1554.432478,-2604.724693
3210.473883,-7772.162391,-2294.638420,-1915.238745
3210.474220,-8142.265362,-1036.288319,-919.314598
3210.474558,-10288.862594,-962.267725,-306.438199
3210.474895,-11473.192101,-1554.432478,-2221.676944
3210.475232,-10807.006753,-1110.308913,-1378.971896
3210.475570,-9770.718434,-1184.329507,536.266849
3210.475907,-10362.883188,-1332.370696,2451.505594
3210.476244,-10510.924376,-1406.391290,2451.505594
3210.476582,-10510.924376,-1554.432478,1225.752797
3210.476919,-10362.883188,-666.185348,919.314598
3210.477256,-10732.986159,444.123565,229.828649
3210.477594,-10881.027347,814.226536,-76.609550
3210.477931,-10066.800811,518.144159,-689.485948
3210.478268,-8068.244768,444.123565,0.000000
3210.478606,-8364.327145,1480.411884,1532.190996
3210.478943,-9622.677246,2072.576638,1991.848295
3210.479280,-11251.130318,2146.597232,1302.362347
3210.479618,-10732.986159,1702.473667,383.047749
3210.479955,-9622.677246,1998.556043,1225.752797
3210.480292,-9326.594869,1110.308913,2298.286494
3210.480630,-10066.800811,-222.061783,3294.210641
3210.480967,-9548.656652,-666.185348,1378.971896
3210.481304,-9992.780217,148.041188,-766.095498
3210.481642,-10510.924376,888.247130,-1915.238745
3210.481979,-9992.780217,-518.144159,-3830.477490
3210.482316,-8586.388927,-2368.659014,-2911.162892
3210.482654,-7624.121203,-2812.782580,-1915.238745
3210.482991,-7328.038826,-1850.514855,0.000000
3210.483328,-9474.636058,-1554.432478,459.657299
3210.483666,-11399.171507,-1554.432478,0.000000
3210.484003,-11991.336260,-1480.411884,-153.219100
3210.484340,-11029.068536,-1258.350101,1149.143247
3210.484678,-10584.944971,-1332.370696,3524.039291
3210.485015,-11029.068536,-1702.473667,4213.525239
3210.485353,-11399.171507,-1702.473667,2604.724693
3210.485690,-10510.924376,-1184.329507,995.924147
3210.486027,-11029.068536,0.000000,0.000000
3210.486365,-11325.150913,0.000000,-459.657299
3210.486702,-10066.800811,-962.267725,-2451.505594
3210.487039,-8364.327145,-296.082377,-2145.067394
3210.487377,-7994.224174,74.020594,-459.657299
3210.487714,-9548.656652,148.041188,536.266849
3210.488051,-11251.130318,74.020594,-76.609550
3210.488389,-11473.192101,518.144159,-689.485948
3210.488726,-10362.883188,666.185348,0.000000
3210.489063,-9548.656652,-370.102971,1225.752797
3210.489401,-9992.780217,-666.185348,2681.334243
3210.489738,-9844.739029,-1702.473667,2068.457845
3210.490075,-9548.656652,0.000000,842.705048
3210.490413,-9770.718434,740.205942,-995.924147
3210.490750,-10436.903782,666.185348,-1225.752797
3210.491087,-9400.615463,-370.102971,-919.314598
3210.491425,-8438.347739,666.185348,-842.705048
3210.491762,-7624.121203,1184.329507,842.705048
3210.492099,-9178.553681,1258.350101,1378.971896
3210.492437,-11251.130318,1332.370696,1455.581446
3210.492774,-10955.047942,2146.597232,-229.828649
3210.493111,-10436.903782,1850.514855,1149.143247
3210.493449,-10362.883188,1406.391290,2681.334243
3210.493786,-10140.821405,0.000000,2987.772442
3210.494123,-10584.944971,-370.102971,2145.067394
3210.494461,-10214.842000,0.000000,306.438199
3210.494798,-10140.821405,74.020594,-1685.410096
3210.495135,-10436.903782,0.000000,-2604.724693
3210.495473,-10214.842000,-1258.350101,-3217.601092
3210.495810,-8956.491898,-1258.350101,-3140.991542
3210.496147,-8290.306550,-1924.535449,-2068.457845
3210.496485,-9326.594869,-1702.473667,-229.828649
3210.496822,-10955.047942,-1998.556043,0.000000
3210.497159,-11843.295072,-2146.597232,0.000000
3210.497497,-10881.027347,-1332.370696,229.828649
3210.497834,-10658.965565,-2516.700203,2068.457845
3210.498171,-10436.903782,-2368.659014,3217.601092
3210.498509,-10732.986159,-2960.823768,2987.772442
3210.498846,-10288.862594,-1554.432478,2068.457845
3210.499183,-10510.924376,-370.102971,383.047749
3210.499521,-10807.006753,222.061783,229.828649
3210.499858,-9992.780217,0.000000,-689.485948
3210.500195,-8956.491898,74.020594,-612.876398
3210.500533,-8438.347739,518.144159,1149.143247
3210.500870,-8364.327145,1628.453072,536.266849
3210.501207,-11029.068536,1628.453072,766.095498
3210.501545,-11325.150913,1480.411884,-766.095498
3210.501882,-9844.739029,1628.453072,-459.657299
3210.502219,-9474.636058,962.267725,1072.533697
3210.502557,-9400.615463,0.000000,2374.896044
3210.502894,-9400.615463,148.041188,1608.800546
3210.503231,-10362.883188,74.020594,459.657299
3210.503569,-9992.780217,666.185348,-1072.533697
3210.503906,-10214.842000,666.185348,-1225.752797
3210.504243,-10288.862594,74.020594,-1838.629195
3210.504581,-8660.409521,148.041188,-2221.676944
3210.504918,-7846.182985,-518.144159,-995.924147
3210.505255,-8808.450710,-148.041188,1378.971896
3210.505593,-10288.862594,-888.247130,1302.362347
3210.505930,-11695.253884,0.000000,1149.143247
3210.506268,-10881.027347,74.020594,1225.752797
3210.506605,-10214.842000,-222.061783,2451.505594
3210.506942,-10140.821405,-814.226536,3600.648841
3210.507280,-10658.965565,-1702.473667,2911.162892
3210.507617,-10214.842000,-592.164754,1685.410096
3210.507954,-10955.047942,-888.247130,0.000000
3210.508292,-10955.047942,666.185348,-1225.752797
3210.508629,-10362.883188,-962.267725,-2834.553343
3210.508966,-9474.636058,-1480.411884,-2451.505594
3210.509304,-7920.203579,-2220.617826,-1762.019645
3210.509641,-8364.327145,-1850.514855,-1532.190996
3210.509978,-10214.842000,-1036.288319,-919.314598
3210.510316,-11399.171507,-1628.453072,-1685.410096
3210.510653,-10807.006753,-1332.370696,-1225.752797
3210.510990,-9474.636058,-1776.494261,76.609550
3210.511328,-10362.883188,-1480.411884,2604.724693
3210.511665,-10658.965565,-1850.514855,2451.505594
3210.512002,-10436.903782,-1554.432478,1072.533697
3210.512340,-10658.965565,0.000000,1302.362347
3210.512677,-10807.006753,518.144159,-153.219100
3210.513014,-10214.842000,740.205942,-459.657299
3210.513352,-10066.800811,444.123565,-612.876398
3210.513689,-7698.141797,666.185348,0.000000
3210.514026,-8290.306550,1998.556043,766.095498
3210.514364,-9918.759623,1702.473667,1455.581446
3210.514701,-11547.212695,2072.576638,229.828649
3210.515038,-10955.047942,3182.885551,919.314598
3210.515376,-9622.677246,1776.494261,919.314598
3210.515713,-8956.491898,1480.411884,2528.115143
3210.516050,-9844.739029,444.123565,3064.381992
3210.516388,-10066.800811,444.123565,766.095498
3210.516725,-10362.883188,518.144159,-1072.533697
3210.517062,-10510.924376,1184.329507,-2145.067394
3210.517400,-9918.759623,0.000000,-3370.820191
3210.517737,-9178.553681,-1702.473667,-1991.848295
3210.518074,-7328.038826,-2220.617826,-1455.581446
3210.518412,-7846.182985,-1850.514855,229.828649
3210.518749,-9844.739029,-888.247130,766.095498
3210.519086,-11547.212695,-1110.308913,0.000000
3210.519424,-11621.233289,-1258.350101,0.000000
3210.519761,-10510.924376,-1110.308913,1838.629195
3210.520098,-10214.842000,-962.267725,3753.867940
3210.520436,-11029.068536,-1776.494261,4136.915689
3210.520773,-10807.006753,-1258.350101,1685.410096
3210.521110,-10510.924376,-1110.308913,842.705048
3210.521448,-11251.130318,0.000000,0.000000
3210.521785,-10807.006753,74.020594,-1149.143247
3210.522122,-10881.027347,-1184.329507,-1149.143247
3210.522460,-8586.388927,-592.164754,-1149.143247
3210.522797,-7772.162391,-814.226536,-229.828649
3210.523134,-10066.800811,-148.041188,995.924147
3210.523472,-10807.006753,-370.102971,-306.438199
3210.523809,-11621.233289,-518.144159,-536.266849
3210.524146,-10510.924376,444.123565,306.438199
3210.524484,-9844.739029,-666.185348,1532.190996
3210.524821,-10362.883188,-1702.473667,2451.505594
3210.525158,-9992.780217,-1628.453072,1685.410096
3210.525496,-9474.636058,-592.164754,536.266849
3210.525833,-10140.821405,592.164754,0.000000
3210.526171,-10436.903782,370.102971,-1302.362347
3210.526508,-9696.697840,-518.144159,-1225.752797
3210.526845,-8734.430116,296.082377,0.000000
3210.527183,-8142.265362,1184.329507,1225.752797
3210.527520,-9548.656652,1628.453072,1225.752797
3210.527857,-11029.068536,1776.494261,536.266849
3210.528195,-10362.883188,1332.370696,0.000000
3210.528532,-9992.780217,1702.473667,536.266849
3210.528869,-9918.759623,962.267725,1991.848295
3210.529207,-10510.924376,148.041188,2145.067394
3210.529544,-10510.924376,-592.164754,842.705048
3210.529881,-9844.739029,-148.041188,-1378.971896
3210.530219,-10066.800811,0.000000,-1685.410096
3210.530556,-10214.842000,-296.082377,-2757.943793
3210.530893,-9696.697840,-1258.350101,-2451.505594
3210.531231,-9178.553681,-1554.432478,-2834.553343
3210.531568,-8290.306550,-1776.494261,-1302.362347
3210.531905,-10066.800811,-1480.411884,536.266849
3210.532243,-11325.150913,-1998.556043,153.219100
3210.532580,-11251.130318,-2072.576638,-383.047749
3210.532917,-10214.842000,-1628.453072,842.705048
3210.533255,-10436.903782,-1998.556043,2221.676944
3210.533592,-10362.883188,-2368.659014,3370.820191
3210.533929,-11029.068536,-2886.803174,3217.601092
3210.534267,-10214.842000,-1110.308913,1532.190996
3210.534604,-10732.986159,74.020594,1378.971896
3210.534941,-10881.027347,0.000000,383.047749
3210.535279,-9548.656652,-592.164754,-459.657299
3210.535616,-8660.409521,0.000000,995.924147
3210.535953,-8142.265362,370.102971,1455.581446
3210.536291,-9474.636058,1110.308913,1838.629195
3210.536628,-10955.047942,1628.453072,306.438199
3210.536965,-11325.150913,962.267725,-612.876398
3210.537303,-9622.677246,1924.535449,-383.047749
3210.537640,-8956.491898,888.247130,689.485948
3210.537977,-9548.656652,0.000000,1685.410096
3210.538315,-9104.533087,-444.123565,612.876398
3210.538652,-9992.780217,518.144159,0.000000
3210.538989,-10066.800811,740.205942,-612.876398
3210.539327,-10140.821405,222.061783,-1455.581446
3210.539664,-9918.759623,518.144159,-995.924147
3210.540001,-9326.594869,148.041188,-1225.752797
3210.540339,-7698.141797,-222.061783,-306.438199
3210.540676,-9474.636058,148.041188,1225.752797
3210.541013,-11473.192101,0.000000,1455.581446
3210.541351,-11473.192101,222.061783,76.609550
3210.541688,-10436.903782,74.020594,76.609550
3210.542025,-9622.677246,-222.061783,1915.238745
3210.542363,-9918.759623,-740.205942,3370.820191
3210.542700,-10362.883188,-1258.350101,2145.067394
3210.543037,-10288.862594,-444.123565,612.876398
3210.543375,-10732.986159,222.061783,-842.705048
3210.543712,-10955.047942,-148.041188,-1685.410096
3210.544049,-10140.821405,-1036.288319,-2451.505594
3210.544387,-8660.409521,-1776.494261,-2451.505594
3210.544724,-8068.244768,-1924.535449,-1378.971896
3210.545061,-8956.491898,-1332.370696,-612.876398
3210.545399,-10214.842000,-1480.411884,-1915.238745
3210.545736,-11621.233289,-1554.432478,-1838.629195
3210.546073,-10955.047942,-1184.329507,-1762.019645
3210.546411,-9474.636058,-1776.494261,766.095498
3210.546748,-10288.862594,-1998.556043,2604.724693
3210.547086,-10288.862594,-2146.597232,2451.505594
3210.547423,-10436.903782,-888.247130,1532.190996
3210.547760,-10955.047942,-370.102971,1302.362347
3210.548098,-10658.965565,74.020594,459.657299
3210.548435,-10214.842000,148.041188,76.609550
3210.548772,-9770.718434,666.185348,995.924147
3210.549110,-8438.347739,592.164754,1149.143247
3210.549447,-8734.430116,1184.329507,1762.019645
3210.549784,-10288.862594,1406.391290,1532.190996
3210.550122,-11029.068536,1850.514855,766.095498
3210.550459,-10214.842000,1850.514855,383.047749
3210.550796,-8956.491898,1776.494261,1149.143247
3210.551134,-9326.594869,296.082377,3217.601092
3210.551471,-9770.718434,592.164754,2834.553343
3210.551808,-10140.821405,370.102971,1455.581446
3210.552146,-10510.924376,888.247130,-76.609550
3210.552483,-10584.944971,518.144159,-2068.457845
3210.552820,-10066.800811,-888.247130,-2528.115143
3210.553158,-8660.409521,-1776.494261,-2221.676944
3210.553495,-7476.080014,-2072.576638,-766.095498
3210.553832,-8290.306550,-1850.514855,0.000000
3210.554170,-10066.800811,-1036.288319,0.000000
3210.554507,-11769.274478,-888.247130,-459.657299
3210.554844,-12139.377449,-1332.370696,-536.266849
3210.555182,-10140.821405,-1036.288319,1532.190996
3210.555519,-10288.862594,-1702.473667,3140.991542
3210.555856,-11325.150913,-1702.473667,3600.648841
3210.556194,-10881.027347,-1110.308913,1685.410096
3210.556531,-10732.986159,-888.247130,-153.219100
3210.556868,-11177.109724,0.000000,0.000000
3210.557206,-10955.047942,-518.144159,-1608.800546
3210.557543,-9918.759623,-1036.288319,-1762.019645
3210.557880,-8216.285956,-1110.308913,-1685.410096
3210.558218,-8364.327145,-592.164754,-306.438199
3210.558555,-10140.821405,74.020594,76.609550
3210.558892,-11103.089130,0.000000,-766.095498
3210.559230,-11177.109724,74.020594,-995.924147
3210.559567,-10066.800811,-148.041188,536.266849
3210.559904,-9548.656652,-740.205942,1762.019645
3210.560242,-9992.780217,-1406.391290,2528.115143
3210.560579,-10362.883188,-962.267725,2068.457845
3210.560916,-10214.842000,-74.020594,229.828649
3210.561254,-10214.842000,740.205942,-229.828649
3210.561591,-10214.842000,888.247130,-536.266849
3210.561928,-9474.636058,148.041188,-306.438199
3210.562266,-8290.306550,0.000000,229.828649
3210.562603,-8808.450710,666.185348,1838.629195
3210.562940,-9622.677246,1998.556043,1762.019645
3210.563278,-11029.068536,1998.556043,536.266849
3210.563615,-11103.089130,1628.453072,383.047749
3210.563952,-9474.636058,1850.514855,1072.533697
3210.564290,-9696.697840,814.226536,2911.162892
3210.564627,-10658.965565,888.247130,3447.429741
3210.564964,-10584.944971,0.000000,995.924147
3210.565302,-10288.862594,222.061783,0.000000
3210.565639,-9770.718434,296.082377,-1608.800546
3210.565976,-9770.718434,-296.082377,-2604.724693
3210.566314,-9622.677246,-1110.308913,-2911.162892
3210.566651,-8216.285956,-2220.617826,-2451.505594
3210.566989,-7772.162391,-1702.473667,-1608.800546
3210.567326,-10436.903782,-1480.411884,-536.266849
3210.567663,-11843.295072,-1628.453072,0.000000
3210.568001,-11547.212695,-2072.576638,-842.705048
3210.568338,-9918.759623,-1850.514855,306.438199
3210.568675,-9696.697840,-2072.576638,2451.505594
3210.569013,-10362.883188,-2664.741391,3447.429741
3210.569350,-11103.089130,-1998.556043,2374.896044
3210.569687,-10881.027347,-1406.391290,766.095498
3210.570025,-11029.068536,222.061783,0.000000
3210.570362,-10658.965565,0.000000,-689.485948
3210.570700,-10510.924376,0.000000,-536.266849
3210.571037,-7920.203579,-740.205942,383.047749
3210.571374,-8142.265362,444.123565,1455.581446
3210.571712,-9992.780217,1406.391290,995.924147
3210.572049,-11399.171507,1110.308913,-766.095498
3210.572387,-11029.068536,888.247130,-1685.410096
3210.572724,-9252.574275,1110.308913,-995.924147
3210.573061,-8586.388927,148.041188,1838.629195
3210.573399,-9622.677246,148.041188,2451.505594
3210.573736,-9252.574275,-962.267725,153.219100
3210.574074,-9992.780217,0.000000,-612.876398
3210.574411,-10214.842000,592.164754,-919.314598
3210.574748,-10584.944971,222.061783,-1225.752797
3210.575086,-10066.800811,296.082377,-1608.800546
3210.575423,-8438.347739,-962.267725,-1072.533697
3210.575761,-8216.285956,222.061783,76.609550
3210.576098,-9918.759623,-148.041188,1378.971896
3210.576436,-11251.130318,148.041188,1455.581446
3210.576773,-11399.171507,0.000000,383.047749
3210.577110,-10658.965565,222.061783,1455.581446
3210.577448,-10066.800811,74.020594,2298.286494
3210.577785,-10288.862594,-1258.350101,3753.867940
3210.578123,-10362.883188,-962.267725,2451.505594
3210.578460,-10732.986159,-888.247130,995.924147
3210.578797,-11325.150913,666.185348,-76.609550
3210.579135,-11251.130318,-148.041188,-2068.457845
3210.579472,-10436.903782,-1184.329507,-1991.848295
3210.579810,-8364.327145,-2294.638420,-1762.019645
3210.580147,-7698.141797,-1628.453072,-766.095498
3210.580484,-9474.636058,-2146.597232,229.828649
3210.580822,-10881.027347,-1110.308913,-1991.848295
3210.581159,-11029.068536,-1850.514855,-1915.238745
3210.581497,-10584.944971,-1776.494261,-459.657299
3210.581834,-9178.553681,-1406.391290,1991.848295
3210.582172,-10436.903782,-2368.659014,4136.915689
3210.582509,-10214.842000,-2146.597232,2451.505594
3210.582846,-9770.718434,-1332.370696,1532.190996
3210.583184,-11103.089130,0.000000,1532.190996
3210.583521,-11029.068536,444.123565,536.266849
3210.583859,-10584.944971,296.082377,0.000000
3210.584196,-9326.594869,518.144159,383.047749
3210.584533,-7772.162391,1480.411884,1072.533697
3210.584871,-9326.594869,1554.432478,1991.848295
3210.585208,-10881.027347,1850.514855,1149.143247
3210.585546,-10807.006753,2294.638420,-536.266849
3210.585883,-10510.924376,2516.700203,229.828649
3210.586220,-9030.512492,1850.514855,689.485948
3210.586558,-9252.574275,666.185348,2374.896044
3210.586895,-9770.718434,74.020594,2298.286494
3210.587233,-10066.800811,592.164754,766.095498
3210.587570,-10288.862594,1850.514855,-1838.629195
3210.587908,-10955.047942,148.041188,-2681.334243
3210.588245,-9844.739029,-296.082377,-3140.991542
3210.588582,-8512.368333,-1924.535449,-2681.334243
3210.588920,-7698.141797,-1406.391290,-153.219100
3210.589257,-8364.327145,-1406.391290,-306.438199
3210.589595,-10362.883188,-1776.494261,-612.876398
3210.589932,-11621.233289,-1184.329507,-1685.410096
3210.590269,-10955.047942,-1332.370696,0.000000
3210.590607,-10214.842000,-1332.370696,1838.629195
3210.590944,-10066.800811,-1850.514855,3677.258390
3210.591282,-11251.130318,-1480.411884,3294.210641
3210.591619,-10214.842000,-1554.432478,842.705048
3210.591957,-10584.944971,-296.082377,-536.266849
3210.592294,-11843.295072,-296.082377,-229.828649
3210.592631,-11547.212695,-666.185348,-1608.800546
3210.592969,-9474.636058,-370.102971,-1991.848295
3210.593306,-8660.409521,-814.226536,-1225.752797
3210.593644,-8364.327145,-222.061783,153.219100
3210.593981,-10214.842000,-518.144159,383.047749
3210.594318,-11251.130318,-370.102971,-383.047749
3210.594656,-10881.027347,296.082377,-612.876398
3210.594993,-10362.883188,74.020594,766.095498
3210.595331,-9844.739029,-1184.329507,2451.505594
3210.595668,-9918.759623,-1480.411884,3524.039291
3210.596005,-10066.800811,-888.247130,2298.286494
3210.596343,-9770.718434,222.061783,306.438199
3210.596680,-10362.883188,370.102971,-459.657299
3210.597018,-9918.759623,0.000000,306.438199
3210.597355,-9474.636058,0.000000,76.609550
3210.597693,-7920.203579,74.020594,1532.190996
3210.598030,-9030.512492,888.247130,1685.410096
3210.598367,-9918.759623,2294.638420,2068.457845
3210.598705,-10658.965565,1554.432478,76.609550
3210.599042,-9992.780217,1776.494261,612.876398
3210.599380,-9326.594869,1332.370696,1762.019645
3210.599717,-9622.677246,888.247130,2604.724693
3210.600054,-10732.986159,666.185348,2451.505594
3210.600392,-10732.986159,-148.041188,76.609550
3210.600729,-9992.780217,592.164754,-1685.410096
3210.601067,-9770.718434,-518.144159,-2068.457845
3210.601404,-10362.883188,-444.123565,-2528.115143
3210.601741,-9474.636058,-1406.391290,-3064.381992
3210.602079,-9178.553681,-1924.535449,-2298.286494
3210.602416,-8216.285956,-1702.473667,-612.876398
3210.602754,-10658.965565,-2220.617826,76.609550
3210.603091,-12435.459826,-1850.514855,0.000000
3210.603429,-11325.150913,-1702.473667,-995.924147
3210.603766,-10288.862594,-2220.617826,689.485948
3210.604103,-10214.842000,-2368.659014,2681.334243
3210.604441,-10510.924376,-2738.761985,3217.601092
3210.604778,-11325.150913,-2146.597232,2298.286494
3210.605116,-11029.068536,-1480.411884,612.876398
3210.605453,-10436.903782,-296.082377,-153.219100
3210.605790,-11029.068536,-370.102971,-229.828649
3210.606128,-9918.759623,-518.144159,-689.485948
3210.606465,-8512.368333,-222.061783,153.219100
3210.606803,-8808.450710,296.082377,1762.019645
3210.607140,-10066.800811,1110.308913,1149.143247
3210.607477,-11029.068536,1110.308913,-766.095498
3210.607815,-11029.068536,1406.391290,-766.095498
3210.608152,-9474.636058,592.164754,0.000000
3210.608490,-8586.388927,888.247130,1225.752797
3210.608827,-9326.594869,0.000000,1225.752797
3210.609165,-9548.656652,-444.123565,0.000000
3210.609502,-9844.739029,962.267725,-306.438199
3210.609839,-10214.842000,518.144159,-1225.752797
3210.610177,-10436.903782,592.164754,-919.314598
3210.610514,-10066.800811,370.102971,-1378.971896
3210.610852,-8364.327145,148.041188,-153.219100
3210.611189,-8512.368333,444.123565,1072.533697
3210.611526,-10214.842000,0.000000,1915.238745
3210.611864,-11695.253884,1184.329507,1685.410096
3210.612201,-11473.192101,0.000000,306.438199
3210.612539,-9844.739029,814.226536,1455.581446
3210.612876,-9474.636058,0.000000,3294.210641
3210.613213,-10214.842000,-666.185348,3064.381992
3210.613551,-10066.800811,-444.123565,1685.410096
3210.613888,-10362.883188,-740.205942,0.000000
3210.614226,-10510.924376,666.185348,-1302.362347
3210.614563,-10955.047942,-148.041188,-2221.676944
3210.614901,-10362.883188,-1258.350101,-2451.505594
3210.615238,-8068.244768,-2442.679609,-2451.505594
3210.615575,-7550.100608,-1924.535449,-306.438199
3210.615913,-9400.615463,-1776.494261,153.219100
3210.616250,-11029.068536,-2220.617826,-1225.752797
3210.616588,-11177.109724,-2146.597232,-1608.800546
3210.616925,-9918.759623,-2368.659014,-229.828649
3210.617262,-9474.636058,-1110.308913,2298.286494
3210.617600,-10658.965565,-2220.617826,2834.553343
3210.617937,-10732.986159,-2368.659014,1378.971896
3210.618275,-10214.842000,-888.247130,459.657299
3210.618612,-10807.006753,-296.082377,995.924147
3210.618950,-10732.986159,0.000000,306.438199
3210.619287,-10510.924376,-148.041188,-612.876398
3210.619624,-9474.636058,740.205942,919.314598
3210.619962,-9030.512492,888.247130,2221.676944
3210.620299,-9770.718434,1702.473667,1685.410096
3210.620637,-11029.068536,1998.556043,459.657299
3210.620974,-11177.109724,2072.576638,-229.828649
3210.621311,-9844.739029,1998.556043,306.438199
3210.621649,-8586.388927,1110.308913,1225.752797
3210.621986,-9326.594869,592.164754,2451.505594
3210.622324,-9548.656652,222.061783,1685.410096
3210.622661,-10066.800811,518.144159,-383.047749
3210.622998,-10436.903782,2072.576638,-1991.848295
3210.623336,-10658.965565,222.061783,-2911.162892
3210.623673,-9400.615463,-1258.350101,-2834.553343
3210.624011,-7920.203579,-1850.514855,-2221.676944
3210.624348,-7550.100608,-1332.370696,0.000000
3210.624686,-8956.491898,-1110.308913,1072.533697
3210.625023,-11103.089130,-1258.350101,76.609550
3210.625360,-11103.089130,-1332.370696,-229.828649
3210.625698,-10807.006753,-1702.473667,766.095498
3210.626035,-9992.780217,-370.102971,1991.848295
3210.626373,-10955.047942,-1258.350101,3677.258390
3210.626710,-11177.109724,-1184.329507,2834.553343
3210.627047,-10510.924376,-1036.288319,0.000000
3210.627385,-11029.068536,518.144159,0.000000
3210.627722,-11621.233289,0.000000,-612.876398
3210.628060,-10732.986159,-1480.411884,-1608.800546
3210.628397,-8808.450710,-962.267725,-1225.752797
3210.628734,-8216.285956,-1184.329507,76.609550
3210.629072,-9400.615463,-444.123565,995.924147
3210.629409,-10807.006753,-962.267725,0.000000
3210.629747,-11251.130318,-148.041188,-76.609550
3210.630084,-10214.842000,0.000000,-536.266849
3210.630422,-9474.636058,-1110.308913,1072.533697
3210.630759,-9992.780217,-1332.370696,2221.676944
3210.631096,-9992.780217,-1554.432478,2221.676944
3210.631434,-9918.759623,0.000000,536.266849
3210.631771,-9844.739029,518.144159,-229.828649
3210.632109,-10362.883188,518.144159,-919.314598
3210.632446,-10140.821405,0.000000,-383.047749
3210.632783,-9104.533087,-740.205942,0.000000
3210.633121,-8290.306550,592.164754,1532.190996
3210.633458,-9400.615463,1480.411884,2451.505594
3210.633796,-10732.986159,1628.453072,1378.971896
3210.634133,-10658.965565,1998.556043,-612.876398
3210.634470,-9918.759623,2368.659014,612.876398
3210.634808,-9252.574275,1628.453072,1455.581446
3210.635145,-9844.739029,1110.308913,3217.601092
3210.635483,-10732.986159,222.061783,1532.190996
3210.635820,-10140.821405,0.000000,-536.266849
3210.636158,-10362.883188,666.185348,-1608.800546
3210.636495,-10288.862594,0.000000,-2451.505594
3210.636832,-10140.821405,-814.226536,-2681.334243
3210.637170,-8660.409521,-1850.514855,-2834.553343
3210.637507,-8216.285956,-1776.494261,-1225.752797
3210.637845,-9104.533087,-1332.370696,536.266849
3210.638182,-11029.068536,-2072.576638,459.657299
3210.638519,-11843.295072,-1628.453072,-153.219100
3210.638857,-10658.965565,-1480.411884,-766.095498
3210.639194,-10066.800811,-1924.535449,1608.800546
3210.639532,-10140.821405,-2664.741391,3217.601092
3210.639869,-10732.986159,-2738.761985,2757.943793
3210.640206,-10658.965565,-1110.308913,1608.800546
3210.640544,-11029.068536,-592.164754,459.657299
3210.640881,-11251.130318,370.102971,-766.095498
3210.641219,-10658.965565,-370.102971,-1149.143247
3210.641556,-9400.615463,-740.205942,76.609550
3210.641894,-8216.285956,0.000000,1072.533697
3210.642231,-9326.594869,518.144159,1685.410096
3210.642568,-10807.006753,1258.350101,919.314598
3210.642906,-11103.089130,1258.350101,-459.657299
3210.643243,-10362.883188,1480.411884,-229.828649
3210.643581,-9474.636058,962.267725,536.266849
3210.643918,-9178.553681,222.061783,1455.581446
3210.644255,-9548.656652,-222.061783,1072.533697
3210.644593,-9548.656652,0.000000,-153.219100
3210.644930,-9474.636058,740.205942,-1378.971896
3210.645268,-10214.842000,666.185348,-919.314598
3210.645605,-10362.883188,0.000000,-1302.362347
3210.645942,-9178.553681,222.061783,-919.314598
3210.646280,-8364.327145,74.020594,0.000000
3210.646617,-8734.430116,0.000000,1302.362347
3210.646955,-10510.924376,74.020594,1762.019645
3210.647292,-11399.171507,1036.288319,1685.410096
3210.647630,-10881.027347,518.144159,536.266849
3210.647967,-9770.718434,592.164754,1608.800546
3210.648304,-9400.615463,0.000000,2451.505594
3210.648642,-10214.842000,-814.226536,2681.334243
3210.648979,-10362.883188,-592.164754,995.924147
3210.649317,-10362.883188,222.061783,0.000000
3210.649654,-10658.965565,518.144159,-995.924147
3210.649991,-10732.986159,-222.061783,-2451.505594
3210.650329,-9622.677246,-1702.473667,-2221.676944
3210.650666,-8586.388927,-1998.556043,-1608.800546
3210.651004,-7994.224174,-2368.659014,0.000000
3210.651341,-10214.842000,-1554.432478,153.219100
3210.651679,-11621.233289,-2368.659014,-1225.752797
3210.652016,-10732.986159,-1850.514855,-1302.362347
3210.652353,-10362.883188,-2368.659014,842.705048
3210.652691,-9696.697840,-1850.514855,2068.457845
3210.653028,-10214.842000,-2368.659014,2451.505594
3210.653366,-10658.965565,-1850.514855,995.924147
3210.653703,-10066.800811,-1258.350101,0.000000
3210.654040,-11177.109724,0.000000,919.314598
3210.654378,-11177.109724,296.082377,-76.609550
3210.654715,-9844.739029,-222.061783,-536.266849
3210.655053,-9104.533087,444.123565,612.876398
3210.655390,-8956.491898,592.164754,1685.410096
3210.655727,-10140.821405,1406.391290,2604.724693
3210.656065,-11325.150913,1258.350101,842.705048
3210.656402,-10807.006753,2072.576638,306.438199
3210.656740,-9622.677246,2294.638420,536.266849
3210.657077,-8956.491898,888.247130,2145.067394
3210.657415,-9104.533087,814.226536,1838.629195
3210.657752,-9548.656652,0.000000,1302.362347
3210.658089,-9918.759623,1184.329507,-1225.752797
3210.658427,-10066.800811,370.102971,-1915.238745
3210.658764,-10362.883188,592.164754,-2987.772442
3210.659102,-9178.553681,-1110.308913,-3294.210641
3210.659439,-8142.265362,-1554.432478,-1149.143247
3210.659776,-7402.059420,-1480.411884,536.266849
3210.660114,-9474.636058,-1036.288319,1378.971896
3210.660451,-11251.130318,-1332.370696,612.876398
3210.660789,-11399.171507,-518.144159,-995.924147
3210.661126,-10214.842000,-1480.411884,1072.533697
3210.661463,-10140.821405,0.000000,2681.334243
3210.661801,-10362.883188,-888.247130,3677.258390
3210.662138,-11177.109724,-1036.288319,2987.772442
3210.662476,-10214.842000,-370.102971,153.219100
3210.662813,-11103.089130,0.000000,-766.095498
3210.663151,-11769.274478,74.020594,-919.314598
3210.663488,-10658.965565,-962.267725,-1915.238745
3210.663825,-8808.450710,-888.247130,-995.924147
3210.664163,-8142.265362,-1406.391290,0.000000
3210.664500,-9918.759623,0.000000,919.314598
3210.664838,-11177.109724,-888.247130,-153.219100
3210.665175,-11325.150913,-148.041188,-1302.362347
3210.665512,-9844.739029,-666.185348,-1149.143247
3210.665850,-9622.677246,-888.247130,1225.752797
3210.666187,-9844.739029,-1480.411884,2298.286494
3210.666525,-9844.739029,-1850.514855,1225.752797
3210.666862,-9548.656652,-296.082377,383.047749
3210.667199,-9918.759623,148.041188,-306.438199
3210.667537,-10362.883188,592.164754,-766.095498
3210.667874,-10436.903782,-444.123565,-689.485948
3210.668212,-8734.430116,-148.041188,0.000000
3210.668549,-8142.265362,370.102971,1608.800546
3210.668887,-9696.697840,1554.432478,2757.943793
3210.669224,-10807.006753,2294.638420,1455.581446
3210.669561,-10807.006753,1554.432478,536.266849
3210.669899,-10066.800811,2220.617826,1149.143247
3210.670236,-9474.636058,1850.514855,2451.505594
3210.670574,-10436.903782,1036.288319,2681.334243
3210.670911,-10732.986159,962.267725,612.876398
3210.671248,-10436.903782,444.123565,-153.219100
3210.671586,-9844.739029,666.185348,-1685.410096
3210.671923,-9770.718434,518.144159,-2528.115143
3210.672261,-10140.821405,-1258.350101,-2528.115143
3210.672598,-8586.388927,-1480.411884,-3140.991542
3210.672936,-7624.121203,-2220.617826,-842.705048
3210.673273,-9992.780217,-1258.350101,842.705048
3210.673610,-11029.068536,-1776.494261,842.705048
3210.673948,-12213.398043,-1406.391290,76.609550
3210.674285,-10732.986159,-1554.432478,0.000000
3210.674623,-9696.697840,-1850.514855,1838.629195
3210.674960,-10955.047942,-2368.659014,3447.429741
3210.675298,-10732.986159,-3182.885551,2451.505594
3210.675635,-10140.821405,-1776.494261,1302.362347
3210.675973,-11177.109724,-592.164754,306.438199
3210.676310,-11029.068536,74.020594,-1149.143247
3210.676647,-10214.842000,-814.226536,-919.314598
3210.676985,-9326.594869,-740.205942,76.609550
3210.677322,-8068.244768,-296.082377,766.095498
3210.677660,-9696.697840,444.123565,2298.286494
3210.677997,-11103.089130,444.123565,766.095498
3210.678335,-11029.068536,296.082377,-306.438199
3210.678672,-10066.800811,1110.308913,-536.266849
3210.679009,-9474.636058,740.205942,1302.362347
3210.679347,-9252.574275,-444.123565,1225.752797
3210.679684,-9474.636058,-814.226536,306.438199
3210.680022,-9548.656652,0.000000,-612.876398
3210.680359,-9400.615463,296.082377,-1378.971896
3210.680697,-10140.821405,592.164754,-1149.143247
3210.681034,-10066.800811,-518.144159,-1225.752797
3210.681371,-9178.553681,370.102971,-1149.143247
3210.681709,-7772.162391,0.000000,229.828649
3210.682046,-9696.697840,0.000000,2528.115143
3210.682384,-10807.006753,888.247130,1991.848295
3210.682721,-11843.295072,666.185348,995.924147
3210.683059,-10732.986159,592.164754,1072.533697
3210.683396,-9400.615463,296.082377,1991.848295
3210.683733,-9696.697840,-592.164754,2834.553343
3210.684071,-10436.903782,-666.185348,2145.067394
3210.684408,-9918.759623,-74.020594,383.047749
3210.684746,-10955.047942,370.102971,-612.876398
3210.685083,-10807.006753,592.164754,-1532.190996
3210.685421,-10288.862594,-592.164754,-2604.724693
3210.685758,-9696.697840,-1110.308913,-1991.848295
3210.686096,-7994.224174,-1554.432478,-1302.362347
3210.686433,-9030.512492,-1480.411884,383.047749
3210.686770,-10658.965565,-1554.432478,-153.219100
3210.687108,-11399.171507,-2072.576638,-1685.410096
3210.687445,-10584.944971,-1480.411884,-1762.019645
3210.687783,-9844.739029,-1332.370696,842.705048
3210.688120,-10214.842000,-2442.679609,1608.800546
3210.688458,-9918.759623,-2294.638420,1608.800546
3210.688795,-10214.842000,-1628.453072,536.266849
3210.689132,-10955.047942,-444.123565,0.000000
3210.689470,-11029.068536,444.123565,0.000000
3210.689807,-10288.862594,0.000000,-842.705048
3210.690145,-9474.636058,74.020594,-459.657299
3210.690482,-8808.450710,814.226536,842.705048
3210.690820,-9770.718434,1406.391290,2374.896044
3210.691157,-10658.965565,1776.494261,1991.848295
3210.691494,-11325.150913,1776.494261,229.828649
3210.691832,-10584.944971,2664.741391,536.266849
3210.692169,-8808.450710,1702.473667,536.266849
3210.692507,-8586.388927,444.123565,2528.115143
3210.692844,-9104.533087,-296.082377,2145.067394
3210.693182,-9326.594869,148.041188,766.095498
3210.693519,-9992.780217,1554.432478,-383.047749
3210.693856,-10584.944971,814.226536,-2221.676944
3210.694194,-9844.739029,222.061783,-2528.115143
3210.694531,-9252.574275,-962.267725,-2221.676944
3210.694869,-8142.265362,-1332.370696,-229.828649
3210.695206,-7920.203579,-1110.308913,1072.533697
3210.695544,-10140.821405,-1036.288319,1915.238745
3210.695881,-11547.212695,-962.267725,842.705048
3210.696219,-11547.212695,-740.205942,0.000000
3210.696556,-10140.821405,-740.205942,1838.629195
3210.696893,-10066.800811,-1258.350101,2911.162892
3210.697231,-10881.027347,-962.267725,3600.648841
3210.697568,-10955.047942,-518.144159,1685.410096
3210.697906,-10955.047942,-814.226536,0.000000
3210.698243,-11103.089130,0.000000,-383.047749
3210.698581,-11547.212695,-296.082377,-995.924147
3210.698918,-9992.780217,-1480.411884,-1302.362347
3210.699255,-7994.224174,-1628.453072,-1302.362347
3210.699593,-8586.388927,-1258.350101,919.314598
3210.699930,-10288.862594,-1628.453072,842.705048
3210.700268,-10955.047942,-1184.329507,-536.266849
3210.700605,-11251.130318,-592.164754,-1225.752797
3210.700943,-9696.697840,-740.205942,-689.485948
3210.701280,-9326.594869,-1702.473667,1072.533697
3210.701617,-9844.739029,-2072.576638,1838.629195
3210.701955,-9622.677246,-1332.370696,842.705048
3210.702292,-9992.780217,-148.041188,-306.438199
3210.702630,-10881.027347,0.000000,-995.924147
3210.702967,-9992.780217,0.000000,-1455.581446
3210.703305,-9770.718434,-740.205942,-766.095498
3210.703642,-8734.430116,0.000000,766.095498
3210.703980,-8882.471304,592.164754,1762.019645
3210.704317,-10288.862594,1258.350101,2145.067394
3210.704654,-11325.150913,2368.659014,766.095498
3210.704992,-11029.068536,2072.576638,76.609550
3210.705329,-9844.739029,2294.638420,919.314598
3210.705667,-9548.656652,1480.411884,2068.457845
3210.706004,-9992.780217,1332.370696,1532.190996
3210.706342,-10066.800811,518.144159,306.438199
3210.706679,-10732.986159,814.226536,-1225.752797
3210.707016,-10214.842000,518.144159,-2451.505594
3210.707354,-10066.800811,296.082377,-3140.991542
3210.707691,-9770.718434,-888.247130,-2834.553343
3210.708029,-7846.182985,-1850.514855,-2528.115143
3210.708366,-7476.080014,-1480.411884,153.219100
3210.708704,-9696.697840,-2072.576638,1455.581446
3210.709041,-11251.130318,-1110.308913,766.095498
3210.709378,-11917.315666,-1332.370696,-459.657299
3210.709716,-10807.006753,-1258.350101,306.438199
3210.710053,-9474.636058,-1850.514855,1915.238745
3210.710391,-9918.759623,-3034.844362,3753.867940
3210.710728,-10658.965565,-2146.597232,2834.553343
3210.711066,-10288.862594,-2072.576638,1225.752797
3210.711403,-11399.171507,74.020594,612.876398
3210.711740,-11029.068536,0.000000,-612.876398
3210.712078,-10362.883188,-666.185348,76.609550
3210.712415,-9326.594869,-592.164754,1225.752797
3210.712753,-8290.306550,-370.102971,1991.848295
3210.713090,-9326.594869,518.144159,2604.724693
3210.713428,-11399.171507,814.226536,995.924147
3210.713765,-11177.109724,296.082377,-536.266849
3210.714103,-10288.862594,814.226536,153.219100
3210.714440,-9474.636058,814.226536,1149.143247
3210.714777,-9030.512492,0.000000,766.095498
3210.715115,-9474.636058,-814.226536,0.000000
3210.715452,-9178.553681,-444.123565,-383.047749
3210.715790,-9474.636058,518.144159,-766.095498
3210.716127,-10140.821405,518.144159,-995.924147
3210.716465,-9844.739029,0.000000,-1225.752797
3210.716802,-8660.409521,-370.102971,-689.485948
3210.717139,-8290.306550,222.061783,919.314598
3210.717477,-9622.677246,148.041188,2221.676944
3210.717814,-10732.986159,962.267725,1532.190996
3210.718152,-11621.233289,222.061783,229.828649
3210.718489,-10066.800811,666.185348,612.876398
3210.718827,-9474.636058,814.226536,1685.410096
3210.719164,-10362.883188,-296.082377,2068.457845
3210.719501,-10214.842000,-814.226536,1302.362347
3210.719839,-9844.739029,-814.226536,-229.828649
3210.720176,-10140.821405,740.205942,-1302.362347
3210.720514,-10955.047942,-518.144159,-2068.457845
3210.720851,-9918.759623,-518.144159,-2451.505594
3210.721189,-9252.574275,-2294.638420,-2374.896044
3210.721526,-8660.409521,-1628.453072,-612.876398
3210.721863,-9104.533087,-1480.411884,-306.438199
3210.722201,-10955.047942,-1924.535449,-612.876398
3210.722538,-11251.130318,-2072.576638,-1455.581446
3210.722876,-9992.780217,-2072.576638,-1532.190996
3210.723213,-9548.656652,-1850.514855,689.485948
3210.723551,-10658.965565,-1850.514855,1991.848295
3210.723888,-10288.862594,-2442.679609,1225.752797
3210.724226,-10584.944971,-1480.411884,612.876398
3210.724563,-10436.903782,-222.061783,612.876398
3210.724900,-10807.006753,222.061783,766.095498
3210.725238,-10658.965565,0.000000,919.314598
3210.725575,-9474.636058,0.000000,842.705048
3210.725913,-8586.388927,518.144159,2374.896044
3210.726250,-9992.780217,1554.432478,3753.867940
3210.726588,-11177.109724,1850.514855,1991.848295
3210.726925,-11103.089130,1332.370696,459.657299
3210.727262,-9992.780217,2442.679609,1149.143247
3210.727600,-9104.533087,1776.494261,1149.143247
3210.727937,-8956.491898,740.205942,2451.505594
3210.728275,-9104.533087,148.041188,1532.190996
3210.728612,-9696.697840,296.082377,536.266849
3210.728950,-10066.800811,1998.556043,-1302.362347
3210.729287,-9992.780217,1036.288319,-2451.505594
3210.729624,-9844.739029,-518.144159,-2068.457845
3210.729962,-8956.491898,-1406.391290,-2374.896044
3210.730299,-7698.141797,-1184.329507,0.000000
3210.730637,-8882.471304,-666.185348,1455.581446
3210.730974,-10214.842000,-1110.308913,1149.143247
3210.731312,-11621.233289,-1258.350101,0.000000
3210.731649,-10955.047942,-1184.329507,-306.438199
3210.731986,-9696.697840,0.000000,1455.581446
3210.732324,-11029.068536,-1406.391290,2604.724693
3210.732661,-10510.924376,-1110.308913,2298.286494
3210.732999,-10584.944971,-888.247130,842.705048
3210.733336,-11029.068536,-148.041188,-76.609550
3210.733674,-10881.027347,-296.082377,-1532.190996
3210.734011,-11251.130318,-740.205942,-1455.581446
3210.734349,-9548.656652,-1480.411884,-1532.190996
3210.734686,-7698.141797,-1258.350101,-1149.143247
3210.735023,-9326.594869,-962.267725,689.485948
3210.735361,-11029.068536,-1406.391290,-536.266849
3210.735698,-11103.089130,-666.185348,-1149.143247
3210.736036,-10881.027347,-148.041188,-1302.362347
3210.736373,-9622.677246,-518.144159,-459.657299
3210.736711,-9696.697840,-1036.288319,1378.971896
3210.737048,-10362.883188,-1998.556043,766.095498
3210.737385,-10066.800811,-592.164754,229.828649
3210.737723,-10140.821405,0.000000,-306.438199
3210.738060,-10362.883188,814.226536,-536.266849
3210.738398,-10584.944971,-296.082377,-306.438199
3210.738735,-9474.636058,0.000000,229.828649
3210.739073,-8216.285956,814.226536,1532.190996
3210.739410,-9252.574275,1036.288319,2528.115143
3210.739747,-10732.986159,1924.535449,1685.410096
3210.740085,-11029.068536,2738.761985,689.485948
3210.740422,-10510.924376,2220.617826,229.828649
3210.740760,-9030.512492,2886.803174,1378.971896
3210.741097,-9474.636058,666.185348,2987.772442
3210.741435,-9696.697840,1628.453072,2145.067394
3210.741772,-9696.697840,0.000000,612.876398
3210.742109,-10732.986159,888.247130,306.438199
3210.742447,-10214.842000,888.247130,-1915.238745
3210.742784,-9770.718434,-74.020594,-2145.067394
3210.743122,-9178.553681,-666.185348,-2451.505594
3210.743459,-7624.121203,-2294.638420,-1608.800546
3210.743797,-8586.388927,-2368.659014,766.095498
3210.744134,-10510.924376,-2368.659014,1378.971896
3210.744472,-11399.171507,-1480.411884,459.657299
3210.744809,-11621.233289,-1702.473667,-306.438199
3210.745146,-10881.027347,-1554.432478,919.314598
3210.745484,-9770.718434,-2664.741391,2298.286494
3210.745821,-10436.903782,-2812.782580,2987.772442
3210.746159,-10436.903782,-1998.556043,1838.629195
3210.746496,-10658.965565,-1332.370696,0.000000
3210.746834,-11251.130318,-222.061783,-383.047749
3210.747171,-10955.047942,-888.247130,-1302.362347
3210.747508,-10140.821405,-370.102971,-689.485948
3210.747846,-9178.553681,-740.205942,153.219100
3210.748183,-8586.388927,0.000000,919.314598
3210.748521,-10140.821405,296.082377,766.095498
3210.748858,-11399.171507,444.123565,-153.219100
3210.749196,-11251.130318,666.185348,-1302.362347
3210.749533,-9844.739029,814.226536,-612.876398
3210.749870,-9400.615463,592.164754,1455.581446
3210.750208,-9252.574275,-592.164754,612.876398
3210.750545,-9548.656652,-814.226536,-612.876398
3210.750883,-9548.656652,592.164754,-842.705048
3210.751220,-10362.883188,222.061783,-612.876398
3210.751558,-9918.759623,518.144159,-1302.362347
3210.751895,-9400.615463,666.185348,-1378.971896
3210.752232,-9104.533087,0.000000,459.657299
3210.752570,-8438.347739,740.205942,1608.800546
3210.752907,-9844.739029,222.061783,2681.334243
3210.753245,-11547.212695,1850.514855,1685.410096
3210.753582,-11399.171507,962.267725,1149.143247
3210.753920,-10584.944971,1480.411884,1915.238745
3210.754257,-9622.677246,370.102971,2374.896044
3210.754595,-10066.800811,74.020594,3140.991542
3210.754932,-10288.862594,-222.061783,1685.410096
3210.755269,-10066.800811,0.000000,0.000000
3210.755607,-10288.862594,888.247130,-459.657299
3210.755944,-10881.027347,-296.082377,-1455.581446
3210.756282,-9622.677246,-666.185348,-2451.505594
3210.756619,-9104.533087,-1998.556043,-1838.629195
3210.756957,-8438.347739,-1998.556043,-153.219100
3210.757294,-9178.553681,-1628.453072,0.000000
3210.757631,-11103.089130,-1998.556043,-536.266849
3210.757969,-11029.068536,-2294.638420,-1378.971896
3210.758306,-9992.780217,-2146.597232,-1225.752797
3210.758644,-9548.656652,-2220.617826,1072.533697
3210.758981,-10288.862594,-2516.700203,1762.019645
3210.759319,-9992.780217,-2664.741391,842.705048
3210.759656,-10436.903782,-1776.494261,459.657299
3210.759993,-11325.150913,0.000000,995.924147
3210.760331,-10510.924376,0.000000,229.828649
3210.760668,-11177.109724,222.061783,-766.095498
3210.761006,-9474.636058,-370.102971,459.657299
3210.761343,-8882.471304,444.123565,1685.410096
3210.761681,-10066.800811,740.205942,2604.724693
3210.762018,-11547.212695,1554.432478,1302.362347
3210.762355,-11399.171507,1628.453072,-229.828649
3210.762693,-10214.842000,1924.535449,0.000000
3210.763030,-8808.450710,962.267725,995.924147
3210.763368,-8882.471304,444.123565,1915.238745
3210.763705,-9252.574275,74.020594,1072.533697
3210.764043,-9696.697840,740.205942,-459.657299
3210.764380,-9770.718434,1258.350101,-1685.410096
3210.764718,-9918.759623,222.061783,-2221.676944
3210.765055,-9844.739029,74.020594,-2145.067394
3210.765392,-8586.388927,-1702.473667,-1532.190996
3210.765730,-7698.141797,-518.144159,306.438199
3210.766067,-8808.450710,-814.226536,459.657299
3210.766405,-10732.986159,-518.144159,153.219100
3210.766742,-11251.130318,-518.144159,-689.485948
3210.767080,-10584.944971,-740.205942,536.266849
3210.767417,-9844.739029,-296.082377,1838.629195
3210.767754,-10658.965565,-888.247130,3447.429741
3210.768092,-11029.068536,-962.267725,2145.067394
3210.768429,-11103.089130,-888.247130,612.876398
3210.768767,-11029.068536,148.041188,-153.219100
3210.769104,-11177.109724,370.102971,-689.485948
3210.769442,-11029.068536,-592.164754,-1072.533697
3210.769779,-9474.636058,-1332.370696,-1378.971896
3210.770116,-8290.306550,-1184.329507,-536.266849
3210.770454,-9252.574275,-962.267725,306.438199
3210.770791,-11473.192101,-1110.308913,536.266849
3210.771129,-11177.109724,-1110.308913,-995.924147
3210.771466,-10510.924376,-814.226536,-995.924147
3210.771804,-9622.677246,-1258.350101,766.095498
3210.772141,-9548.656652,-1850.514855,2298.286494
3210.772479,-9918.759623,-1924.535449,2374.896044
3210.772816,-10140.821405,-1184.329507,1455.581446
3210.773154,-9622.677246,222.061783,0.000000
3210.773491,-10362.883188,370.102971,-306.438199
3210.773829,-10658.965565,-518.144159,0.000000
3210.774166,-8956.491898,-370.102971,76.609550
3210.774504,-8068.244768,296.082377,2298.286494
3210.774841,-9030.512492,1258.350101,2528.115143
3210.775179,-10362.883188,2220.617826,1762.019645
3210.775516,-10955.047942,2072.576638,689.485948
3210.775854,-10288.862594,2220.617826,153.219100
3210.776191,-8956.491898,2368.659014,1915.238745
3210.776529,-9474.636058,1406.391290,2834.553343
3210.776866,-10140.821405,962.267725,1455.581446
3210.777204,-9992.780217,666.185348,383.047749
3210.777541,-10584.944971,1850.514855,-536.266849
3210.777879,-10807.006753,666.185348,-2451.505594
3210.778216,-10066.800811,222.061783,-3447.429741
3210.778554,-9030.512492,-1036.288319,-3370.820191
3210.778891,-7698.141797,-1924.535449,-1532.190996
3210.779229,-8290.306550,-1554.432478,0.000000
3210.779566,-10510.924376,-1702.473667,1455.581446
3210.779904,-12139.377449,-1480.411884,766.095498
3210.780241,-11473.192101,-1184.329507,-536.266849
3210.780579,-10807.006753,-1406.391290,689.485948
3210.780916,-9696.697840,-2220.617826,2451.505594
3210.781254,-10436.903782,-2368.659014,3753.867940
3210.781591,-10658.965565,-1998.556043,1608.800546
3210.781929,-10510.924376,-592.164754,-383.047749
3210.782266,-11177.109724,0.000000,-1225.752797
3210.782603,-11325.150913,-1184.329507,-1532.190996
3210.782941,-9178.553681,-1258.350101,-995.924147
3210.783278,-8660.409521,-740.205942,383.047749
3210.783616,-9030.512492,148.041188,1455.581446
3210.783953,-10436.903782,148.041188,229.828649
3210.784291,-11473.192101,0.000000,-919.314598
3210.784628,-10732.986159,444.123565,-919.314598
3210.784966,-9548.656652,296.082377,153.219100
3210.785303,-9844.739029,0.000000,1608.800546
3210.785641,-9474.636058,-888.247130,1302.362347
3210.785978,-9770.718434,-1036.288319,0.000000
3210.786316,-9696.697840,222.061783,-306.438199
3210.786653,-10362.883188,148.041188,-383.047749
3210.786991,-10732.986159,222.061783,-459.657299
3210.787328,-9918.759623,518.144159,-689.485948
3210.787666,-8512.368333,0.000000,842.705048
3210.788003,-8808.450710,222.061783,1838.629195
3210.788341,-10140.821405,888.247130,3140.991542
3210.788678,-11251.130318,962.267725,1991.848295
3210.789016,-10881.027347,1406.391290,766.095498
3210.789353,-10140.821405,1184.329507,1838.629195
3210.789691,-9992.780217,0.000000,3447.429741
3210.790028,-9770.718434,-222.061783,2681.334243
3210.790366,-9548.656652,-296.082377,1838.629195
3210.790703,-10140.821405,740.205942,-76.609550
3210.791041,-10066.800811,222.061783,-1302.362347
3210.791378,-10584.944971,0.000000,-2068.457845
3210.791716,-9474.636058,-1184.329507,-2604.724693
3210.792053,-8882.471304,-1702.473667,-1378.971896
3210.792391,-8660.409521,-1554.432478,0.000000
3210.792728,-9548.656652,-1554.432478,-383.047749
3210.793066,-11103.089130,-1850.514855,-1072.533697
3210.793403,-11399.171507,-1554.432478,-2068.457845
3210.793741,-9770.718434,-2072.576638,-306.438199
3210.794078,-10066.800811,-1850.514855,1072.533697
3210.794416,-10955.047942,-2664.741391,2145.067394
3210.794753,-10362.883188,-2146.597232,1072.533697
3210.795091,-10436.903782,-1110.308913,459.657299
3210.795428,-10732.986159,-74.020594,76.609550
3210.795766,-10732.986159,0.000000,-459.657299
3210.796103,-10584.944971,0.000000,-229.828649
3210.796441,-9104.533087,0.000000,459.657299
3210.796778,-8956.491898,740.205942,1838.629195
3210.797116,-10140.821405,962.267725,1915.238745
3210.797453,-11177.109724,1258.350101,229.828649
3210.797791,-10955.047942,1850.514855,0.000000
3210.798128,-9696.697840,1628.453072,0.000000
3210.798466,-8956.491898,666.185348,1225.752797
3210.798803,-9178.553681,296.082377,1915.238745
3210.799141,-9474.636058,0.000000,1149.143247
3210.799478,-9548.656652,666.185348,-766.095498
3210.799816,-9474.636058,888.247130,-1762.019645
3210.800153,-10214.842000,1184.329507,-1378.971896
3210.800491,-10066.800811,-962.267725,-1685.410096
3210.800828,-8216.285956,-222.061783,-1302.362347
3210.801166,-8290.306550,-666.185348,0.000000
3210.801503,-9696.697840,-444.123565,1225.752797
3210.801841,-10140.821405,-814.226536,0.000000
3210.802178,-11029.068536,-296.082377,0.000000
3210.802516,-10436.903782,-296.082377,766.095498
3210.802853,-9696.697840,-444.123565,2221.676944
3210.803191,-11177.109724,-740.205942,4060.306139
3210.803528,-10881.027347,-592.164754,1685.410096
3210.803866,-10658.965565,-518.144159,536.266849
3210.804203,-10955.047942,74.020594,0.000000
3210.804541,-11251.130318,814.226536,-689.485948
3210.804878,-10955.047942,-666.185348,-1838.629195
3210.805216,-9030.512492,-1332.370696,-1608.800546
3210.805553,-7772.162391,-1776.494261,-612.876398
3210.805891,-9474.636058,-888.247130,689.485948
3210.806228,-11325.150913,-962.267725,229.828649
3210.806566,-10881.027347,-1110.308913,-1915.238745
3210.806903,-10140.821405,-1184.329507,-919.314598
3210.807241,-9178.553681,-1332.370696,1225.752797
3210.807578,-9548.656652,-2294.638420,2298.286494
3210.807916,-10362.883188,-2220.617826,2604.724693
3210.808253,-9844.739029,-962.267725,842.705048
3210.808591,-10214.842000,-666.185348,76.609550
3210.808928,-10362.883188,0.000000,0.000000
3210.809266,-10214.842000,-740.205942,-459.657299
3210.809603,-9474.636058,0.000000,459.657299
3210.809941,-8364.327145,148.041188,1532.190996
3210.810278,-9326.594869,1110.308913,2221.676944
3210.810616,-10584.944971,1628.453072,1532.190996
3210.810953,-11029.068536,2220.617826,229.828649
3210.811291,-10436.903782,1702.473667,612.876398
3210.811628,-8956.491898,1998.556043,1838.629195
3210.811966,-9548.656652,1258.350101,2681.334243
3210.812303,-10658.965565,74.020594,1991.848295
3210.812641,-9992.780217,518.144159,-383.047749
3210.812978,-10436.903782,1036.288319,-919.314598
3210.813316,-11325.150913,666.185348,-2221.676944
3210.813653,-9844.739029,-296.082377,-3753.867940
3210.813991,-8660.409521,-1036.288319,-3370.820191
3210.814328,-7476.080014,-1998.556043,-1608.800546
3210.814666,-8808.450710,-1702.473667,0.000000
3210.815003,-11029.068536,-1332.370696,1149.143247
3210.815341,-11251.130318,-1850.514855,-995.924147
3210.815678,-10807.006753,-1110.308913,229.828649
3210.816016,-10288.862594,-1258.350101,1838.629195
3210.816353,-9992.780217,-2368.659014,3830.477490
3210.816691,-10881.027347,-2368.659014,3524.039291
3210.817028,-10807.006753,-1924.535449,1302.362347
3210.817366,-10658.965565,0.000000,0.000000
3210.817703,-11177.109724,0.000000,-612.876398
3210.818041,-10807.006753,-444.123565,-612.876398
3210.818378,-9326.594869,-1406.391290,-612.876398
3210.818716,-7698.141797,-370.102971,76.609550
3210.819053,-8882.471304,370.102971,995.924147
3210.819391,-10881.027347,444.123565,612.876398
3210.819728,-11325.150913,518.144159,-689.485948
3210.820066,-10362.883188,888.247130,-766.095498
3210.820403,-9918.759623,740.205942,919.314598
3210.820741,-9696.697840,740.205942,1378.971896
3210.821078,-10584.944971,-1332.370696,1378.971896
3210.821416,-9474.636058,74.020594,-76.609550
3210.821753,-9252.574275,0.000000,-766.095498
3210.822091,-10510.924376,740.205942,0.000000
3210.822428,-10584.944971,444.123565,-1072.533697
3210.822766,-9474.636058,-74.020594,-919.314598
3210.823103,-8586.388927,0.000000,229.828649
3210.823441,-8734.430116,962.267725,1455.581446
3210.823778,-10658.965565,1258.350101,2221.676944
3210.824116,-11325.150913,592.164754,1149.143247
3210.824453,-10362.883188,1480.411884,689.485948
3210.824791,-9844.739029,1110.308913,1991.848295
3210.825128,-10214.842000,592.164754,2987.772442
3210.825466,-10436.903782,-740.205942,2757.943793
3210.825803,-10584.944971,-518.144159,536.266849
3210.826141,-9992.780217,740.205942,-459.657299
3210.826478,-10214.842000,74.020594,-1991.848295
3210.826816,-10436.903782,-666.185348,-1685.410096
3210.827153,-9474.636058,-2146.597232,-2834.553343
3210.827491,-8512.368333,-1258.350101,-1762.019645
3210.827828,-8956.491898,-814.226536,-919.314598
3210.828166,-10066.800811,-1924.535449,-1455.581446
3210.828503,-11103.089130,-2072.576638,-1685.410096
3210.828841,-10584.944971,-1924.535449,-1302.362347
3210.829178,-9992.780217,-1480.411884,0.000000
3210.829516,-9992.780217,-2072.576638,1532.190996
3210.829853,-11029.068536,-2442.679609,2298.286494
3210.830191,-10584.944971,-2442.679609,1532.190996
3210.830528,-10807.006753,-1406.391290,306.438199
3210.830866,-11103.089130,370.102971,306.438199
3210.831203,-11473.192101,-444.123565,-459.657299
3210.831540,-9696.697840,-444.123565,0.000000
3210.831878,-8586.388927,74.020594,612.876398
3210.832215,-9326.594869,370.102971,2987.772442
3210.832553,-10140.821405,814.226536,1685.410096
3210.832890,-11547.212695,1036.288319,766.095498
3210.833228,-10807.006753,1776.494261,229.828649
3210.833565,-9030.512492,1554.432478,842.705048
3210.833903,-9030.512492,888.247130,2604.724693
3210.834240,-9178.553681,0.000000,1915.238745
3210.834578,-9252.574275,0.000000,1149.143247
3210.834915,-9844.739029,518.144159,-689.485948
3210.835253,-9548.656652,444.123565,-1532.190996
3210.835590,-9548.656652,0.000000,-1378.971896
3210.835928,-9622.677246,-1184.329507,-1838.629195
3210.836265,-8068.244768,-296.082377,-995.924147
3210.836603,-8364.327145,-962.267725,-229.828649
3210.836940,-9770.718434,-370.102971,612.876398
3210.837278,-10732.986159,-592.164754,0.000000
3210.837615,-11325.150913,-592.164754,-306.438199
3210.837953,-10214.842000,-518.144159,842.705048
3210.838290,-9992.780217,-888.247130,2528.115143
3210.838628,-10732.986159,-888.247130,4443.353888
3210.838965,-11103.089130,-1332.370696,1991.848295
3210.839303,-10658.965565,0.000000,0.000000
3210.839640,-11251.130318,518.144159,0.000000
3210.839978,-11769.274478,0.000000,-919.314598
3210.840315,-10066.800811,-1036.288319,-2145.067394
3210.840653,-8734.430116,-1332.370696,-1838.629195
3210.840990,-7846.182985,-1110.308913,-459.657299
3210.841328,-9844.739029,-888.247130,76.609550
3210.841665,-11399.171507,-1110.308913,-306.438199
3210.842003,-11103.089130,0.000000,-1685.410096
3210.842340,-10362.883188,-1036.288319,-76.609550
3210.842678,-10066.800811,-1184.329507,2145.067394
3210.843015,-9622.677246,-2146.597232,2604.724693
3210.843353,-10362.883188,-1406.391290,2298.286494
3210.843690,-9992.780217,-444.123565,383.047749
3210.844028,-10436.903782,370.102971,-306.438199
3210.844365,-10732.986159,0.000000,-536.266849
3210.844703,-10436.903782,-444.123565,-459.657299
3210.845040,-8734.430116,296.082377,0.000000
3210.845378,-7920.203579,444.123565,383.047749
3210.845715,-9400.615463,1924.535449,1838.629195
3210.846053,-10732.986159,1998.556043,689.485948
3210.846390,-10955.047942,2368.659014,153.219100
3210.846728,-9770.718434,2886.803174,536.266849
3210.847065,-9326.594869,1480.411884,2068.457845
3210.847403,-9696.697840,1554.432478,2604.724693
3210.847740,-10214.842000,296.082377,1378.971896
3210.848078,-9770.718434,1110.308913,0.000000
3210.848415,-10658.965565,1332.370696,-1072.533697
3210.848753,-11029.068536,888.247130,-2528.115143
3210.849090,-9992.780217,0.000000,-3753.867940
3210.849428,-8364.327145,-1406.391290,-3830.477490
3210.849765,-7402.059420,-2220.617826,-1149.143247
3210.850103,-8586.388927,-2368.659014,383.047749
3210.850440,-10955.047942,-1406.391290,612.876398
3210.850778,-11695.253884,-1776.494261,229.828649
3210.851115,-10955.047942,-1036.288319,0.000000
3210.851453,-10732.986159,-2220.617826,2298.286494
3210.851790,-11029.068536,-2664.741391,3753.867940
3210.852128,-10658.965565,-2442.679609,3140.991542
3210.852465,-10436.903782,-1850.514855,2068.457845
3210.852803,-10658.965565,-666.185348,76.609550
3210.853140,-10955.047942,-148.041188,-1302.362347
3210.853478,-11029.068536,-1332.370696,-995.924147
3210.853815,-9326.594869,-1184.329507,-919.314598
3210.854153,-7920.203579,-814.226536,306.438199
3210.854490,-9178.553681,0.000000,842.705048
3210.854828,-10807.006753,74.020594,0.000000
3210.855165,-11251.130318,222.061783,-842.705048
3210.855503,-10140.821405,148.041188,-306.438199
3210.855840,-9622.677246,148.041188,1072.533697
3210.856178,-10066.800811,0.000000,2068.457845
3210.856515,-10140.821405,-1110.308913,766.095498
3210.856853,-9474.636058,-370.102971,-459.657299
3210.857190,-9548.656652,-222.061783,-689.485948
3210.857528,-10214.842000,1480.411884,-536.266849
3210.857865,-10510.924376,-370.102971,-1838.629195
3210.858203,-9104.533087,0.000000,-1302.362347
3210.858540,-8068.244768,0.000000,306.438199
3210.858878,-9104.533087,444.123565,2451.505594
3210.859215,-10436.903782,1332.370696,2145.067394
3210.859553,-11325.150913,814.226536,1685.410096
3210.859890,-10584.944971,1258.350101,1302.362347
3210.860228,-9622.677246,1036.288319,2298.286494
3210.860565,-10510.924376,148.041188,4136.915689
3210.860903,-10140.821405,0.000000,2757.943793
3210.861240,-10436.903782,-814.226536,689.485948
3210.861578,-9918.759623,666.185348,-229.828649
3210.861915,-10066.800811,518.144159,-2221.676944
3210.862253,-9844.739029,-1184.329507,-1991.848295
3210.862590,-9548.656652,-1924.535449,-2757.943793
3210.862928,-7179.997637,-1628.453072,-1915.238745
3210.863265,-8586.388927,-1406.391290,0.000000
3210.863603,-10436.903782,-1702.473667,-536.266849
3210.863940,-11103.089130,-2072.576638,-1532.190996
3210.864278,-10881.027347,-1924.535449,-689.485948
3210.864615,-9844.739029,-1332.370696,1455.581446
3210.864953,-10436.903782,-2294.638420,2604.724693
3210.865290,-11029.068536,-2368.659014,1915.238745
3210.865628,-10658.965565,-1776.494261,1072.533697
3210.865965,-11029.068536,-592.164754,306.438199
3210.866303,-11325.150913,666.185348,76.609550
3210.866640,-11251.130318,0.000000,-766.095498
3210.866978,-9696.697840,0.000000,0.000000
3210.867315,-8438.347739,592.164754,995.924147
3210.867653,-9104.533087,1258.350101,2451.505594
3210.867990,-10955.047942,1554.432478,1455.581446
3210.868328,-11621.233289,2146.597232,766.095498
3210.868665,-11029.068536,2368.659014,536.266849
3210.869003,-9252.574275,2072.576638,1149.143247
3210.869340,-8882.471304,888.247130,2451.505594
3210.869678,-9474.636058,0.000000,2221.676944
3210.870015,-8956.491898,222.061783,0.000000
3210.870353,-8882.471304,1036.288319,-1608.800546
3210.870690,-10362.883188,1184.329507,-1915.238745
3210.871028,-10214.842000,222.061783,-2298.286494
3210.871365,-9622.677246,-814.226536,-1455.581446
3210.871703,-7772.162391,-222.061783,-1532.190996
3210.872040,-8290.306550,-296.082377,76.609550
3210.872378,-10584.944971,-444.123565,1225.752797
3210.872715,-11103.089130,-592.164754,-383.047749
3210.873053,-10510.924376,-1036.288319,306.438199
3210.873390,-10436.903782,0.000000,2068.457845
3210.873727,-10436.903782,-1184.329507,3064.381992
3210.874065,-11177.109724,-814.226536,2987.772442
3210.874402,-10658.965565,-1554.432478,1378.971896
3210.874740,-10436.903782,-74.020594,459.657299
3210.875077,-11769.274478,370.102971,0.000000
3210.875415,-11843.295072,-666.185348,-1378.971896
3210.875752,-10140.821405,-1110.308913,-1838.629195
3210.876089,-8512.368333,-1776.494261,-1455.581446
3210.876427,-8364.327145,-1332.370696,229.828649
3210.876764,-10288.862594,-1628.453072,919.314598
3210.877102,-11473.192101,-1702.473667,0.000000
3210.877439,-10732.986159,-1406.391290,-1302.362347
3210.877776,-10140.821405,-1332.370696,612.876398
3210.878114,-9918.759623,-2220.617826,2298.286494
3210.878451,-10140.821405,-2812.782580,2987.772442
3210.878789,-9992.780217,-2072.576638,1455.581446
3210.879126,-10140.821405,-740.205942,459.657299
3210.879464,-10658.965565,0.000000,-153.219100
3210.879801,-10362.883188,-444.123565,-689.485948
3210.880138,-9918.759623,-74.020594,153.219100
3210.880476,-8438.347739,0.000000,766.095498
3210.880813,-8438.347739,1480.411884,1455.581446
3210.881151,-10288.862594,1702.473667,1991.848295
3210.881488,-10732.986159,1924.535449,766.095498
3210.881825,-10214.842000,2294.638420,-383.047749
3210.882163,-9548.656652,2886.803174,766.095498
3210.882500,-9918.759623,2146.597232,1991.848295
3210.882838,-9548.656652,1258.350101,1455.581446
3210.883175,-10066.800811,370.102971,842.705048
3210.883513,-9844.739029,1776.494261,-536.266849
3210.883850,-10658.965565,1110.308913,-1225.752797
3210.884187,-10807.006753,518.144159,-2987.772442
3210.884525,-9474.636058,-222.061783,-4290.134789
3210.884862,-8142.265362,-1332.370696,-3064.381992
3210.885200,-7772.162391,-1258.350101,-766.095498
3210.885537,-9030.512492,-1628.453072,689.485948
3210.885874,-11177.109724,-1406.391290,536.266849
3210.886212,-11769.274478,-1406.391290,459.657299
3210.886549,-10584.944971,-1332.370696,383.047749
3210.886887,-10584.944971,-1850.514855,2834.553343
3210.887224,-11029.068536,-2590.720797,3830.477490
3210.887562,-10732.986159,-1554.432478,2911.162892
3210.887899,-10807.006753,-1480.411884,1532.190996
3210.888236,-10140.821405,-370.102971,-383.047749
3210.888574,-11103.089130,-962.267725,-1072.533697
3210.888911,-10584.944971,-1110.308913,-919.314598
3210.889249,-8660.409521,-1258.350101,-689.485948
3210.889586,-8290.306550,-296.082377,995.924147
3210.889923,-9474.636058,0.000000,995.924147
3210.890261,-11251.130318,222.061783,383.047749
3210.890598,-11325.150913,148.041188,-766.095498
3210.890936,-9770.718434,1332.370696,229.828649
3210.891273,-9918.759623,-148.041188,1838.629195
3210.891611,-10066.800811,-148.041188,1532.190996
3210.891948,-9992.780217,-592.164754,383.047749
3210.892285,-10140.821405,0.000000,-536.266849
3210.892623,-9474.636058,444.123565,-1072.533697
3210.892960,-10140.821405,592.164754,-995.924147
3210.893298,-10288.862594,222.061783,-1608.800546
3210.893635,-8734.430116,-370.102971,-919.314598
3210.893972,-8586.388927,740.205942,612.876398
3210.894310,-9474.636058,666.185348,1991.848295
3210.894647,-10732.986159,1554.432478,1455.581446
3210.894985,-11621.233289,1110.308913,1762.019645
3210.895322,-9992.780217,1776.494261,995.924147
3210.895660,-9326.594869,962.267725,2451.505594
3210.895997,-10584.944971,814.226536,3524.039291
3210.896334,-10288.862594,0.000000,1838.629195
3210.896672,-10140.821405,148.041188,76.609550
3210.897009,-10140.821405,592.164754,-1838.629195
3210.897347,-10066.800811,518.144159,-2451.505594
3210.897684,-9474.636058,-1332.370696,-3140.991542
3210.898021,-8438.347739,-1850.514855,-2757.943793
3210.898359,-7772.162391,-1406.391290,-1455.581446
3210.898696,-8956.491898,-1258.350101,-459.657299
3210.899034,-10955.047942,-1406.391290,-995.924147
3210.899371,-11843.295072,-1702.473667,-1378.971896
3210.899709,-10658.965565,-1998.556043,-383.047749
3210.900046,-10066.800811,-2072.576638,1149.143247
3210.900383,-10214.842000,-2886.803174,2681.334243
3210.900721,-10732.986159,-1998.556043,1532.190996
3210.901058,-11325.150913,-2664.741391,1072.533697
3210.901396,-11029.068536,-666.185348,306.438199
3210.901733,-11177.109724,-518.144159,0.000000
3210.902071,-10881.027347,-666.185348,0.000000
3210.902408,-9326.594869,-518.144159,0.000000
3210.902745,-8660.409521,148.041188,1991.848295
3210.903083,-9548.656652,518.144159,2528.115143
3210.903420,-10881.027347,1332.370696,2145.067394
3210.903758,-12065.356855,1406.391290,1072.533697
3210.904095,-10955.047942,1702.473667,306.438199
3210.904432,-8734.430116,666.185348,1225.752797
3210.904770,-8882.471304,0.000000,2451.505594
3210.905107,-9474.636058,0.000000,1762.019645
3210.905445,-9474.636058,-148.041188,383.047749
3210.905782,-9474.636058,740.205942,-1915.238745
3210.906120,-9622.677246,666.185348,-2068.457845
3210.906457,-9918.759623,-296.082377,-2374.896044
3210.906794,-9030.512492,-1036.288319,-1149.143247
3210.907132,-7772.162391,-888.247130,-612.876398
3210.907469,-8734.430116,-148.041188,1072.533697
3210.907807,-11029.068536,0.000000,1302.362347
3210.908144,-11251.130318,-296.082377,-383.047749
3210.908481,-10658.965565,-296.082377,306.438199
3210.908819,-9770.718434,0.000000,1991.848295
3210.909156,-10288.862594,-814.226536,2834.553343
3210.909494,-10955.047942,-1036.288319,2145.067394
3210.909831,-10732.986159,-518.144159,995.924147
3210.910169,-10807.006753,518.144159,-766.095498
3210.910506,-11177.109724,370.102971,-1149.143247
3210.910843,-11473.192101,296.082377,-1838.629195
3210.911181,-9992.780217,-1110.308913,-2528.115143
3210.911518,-8068.244768,-1480.411884,-1532.190996
3210.911856,-8734.430116,-1110.308913,-459.657299
3210.912193,-10732.986159,-1184.329507,612.876398
3210.912530,-10881.027347,-1406.391290,-1225.752797
3210.912868,-10732.986159,-1332.370696,-1072.533697
3210.913205,-9770.718434,-1110.308913,306.438199
3210.913543,-9992.780217,-1850.514855,1991.848295
3210.913880,-10510.924376,-2146.597232,2374.896044
3210.914218,-9548.656652,-1480.411884,306.438199
3210.914555,-9770.718434,-370.102971,383.047749
3210.914892,-10732.986159,-148.041188,-153.219100
3210.915230,-10436.903782,0.000000,-689.485948
3210.915567,-9474.636058,-518.144159,76.609550
3210.915905,-8438.347739,0.000000,689.485948
3210.916242,-8586.388927,1406.391290,2528.115143
3210.916579,-10436.903782,1480.411884,2221.676944
3210.916917,-11251.130318,2294.638420,1149.143247
3210.917254,-10510.924376,2220.617826,459.657299
3210.917592,-9474.636058,3108.864956,1608.800546
3210.917929,-9844.739029,1554.432478,2911.162892
3210.918267,-9622.677246,592.164754,1762.019645
3210.918604,-9622.677246,592.164754,995.924147
3210.918941,-9918.759623,962.267725,76.609550
3210.919279,-10510.924376,1702.473667,-2068.457845
3210.919616,-10732.986159,592.164754,-2911.162892
3210.919954,-9474.636058,-962.267725,-3600.648841
3210.920291,-7550.100608,-1850.514855,-2145.067394
3210.920628,-8142.265362,-1776.494261,0.000000
3210.920966,-9696.697840,-1110.308913,612.876398
3210.921303,-11325.150913,-2072.576638,-306.438199
3210.921641,-11621.233289,-1924.535449,153.219100
3210.921978,-10288.862594,-962.267725,1149.143247
3210.922316,-10362.883188,-2220.617826,3217.601092
3210.922653,-11103.089130,-2146.597232,3140.991542
3210.922990,-10066.800811,-2072.576638,1838.629195
3210.923328,-11029.068536,-666.185348,1378.971896
3210.923665,-11029.068536,-74.020594,-536.266849
3210.924003,-11621.233289,-148.041188,-1149.143247
3210.924340,-10066.800811,-1184.329507,-1225.752797
3210.924678,-8290.306550,-740.205942,0.000000
3210.925015,-8364.327145,0.000000,1455.581446
3210.925352,-10362.883188,-222.061783,229.828649
3210.925690,-11251.130318,296.082377,0.000000
3210.926027,-11103.089130,296.082377,-1072.533697
3210.926365,-9844.739029,962.267725,229.828649
3210.926702,-9770.718434,0.000000,1225.752797
3210.927039,-9770.718434,-666.185348,1302.362347
3210.927377,-9696.697840,-888.247130,0.000000
3210.927714,-10066.800811,-518.144159,-766.095498
3210.928052,-9844.739029,666.185348,-842.705048
3210.928389,-10362.883188,74.020594,-1378.971896
3210.928727,-9548.656652,-222.061783,-1149.143247
3210.929064,-8142.265362,-74.020594,-689.485948
3210.929401,-8438.347739,444.123565,842.705048
3210.929739,-9622.677246,740.205942,2528.115143
3210.930076,-10658.965565,666.185348,1225.752797
3210.930414,-10881.027347,1628.453072,1225.752797
3210.930751,-10288.862594,1258.350101,1685.410096
3210.931088,-9844.739029,666.185348,2911.162892
3210.931426,-10214.842000,-74.020594,3600.648841
3210.931763,-10214.842000,-666.185348,1838.629195
3210.932101,-9992.780217,222.061783,-536.266849
3210.932438,-10510.924376,518.144159,-1685.410096
3210.932776,-10140.821405,-518.144159,-2374.896044
3210.933113,-9474.636058,-1480.411884,-3370.820191
3210.933450,-8512.368333,-1850.514855,-1915.238745
3210.933788,-8290.306550,-1406.391290,-1302.362347
3210.934125,-9548.656652,-1554.432478,0.000000
3210.934463,-11177.109724,-2146.597232,-229.828649
3210.934800,-11547.212695,-1850.514855,-842.705048
3210.935137,-10658.965565,-1554.432478,689.485948
3210.935475,-10288.862594,-2220.617826,1532.190996
3210.935812,-10584.944971,-2960.823768,2681.334243
3210.936150,-10807.006753,-2516.700203,1302.362347
3210.936487,-10881.027347,-1628.453072,766.095498
3210.936825,-10362.883188,-592.164754,0.000000
3210.937162,-10658.965565,-592.164754,-919.314598
3210.937499,-10881.027347,444.123565,-229.828649
3210.937837,-9178.553681,0.000000,76.609550
3210.938174,-8882.471304,1110.308913,1608.800546
3210.938512,-9992.780217,962.267725,2451.505594
3210.938849,-10732.986159,1406.391290,1915.238745
3210.939186,-11621.233289,1998.556043,229.828649
3210.939524,-10658.965565,1776.494261,766.095498
3210.939861,-9252.574275,1258.350101,1455.581446
3210.940199,-8660.409521,0.000000,1838.629195
3210.940536,-9252.574275,74.020594,1378.971896
3210.940874,-8956.491898,1110.308913,-919.314598
3210.941211,-9548.656652,1110.308913,-1838.629195
3210.941548,-9770.718434,814.226536,-2374.896044
3210.941886,-9178.553681,0.000000,-2451.505594
3210.942223,-8808.450710,0.000000,-459.657299
3210.942561,-8438.347739,-74.020594,306.438199
3210.942898,-8882.471304,0.000000,1302.362347
3210.943235,-11251.130318,-296.082377,1225.752797
3210.943573,-11251.130318,-370.102971,306.438199
3210.943910,-10584.944971,-74.020594,383.047749
3210.944248,-10214.842000,-518.144159,2298.286494
3210.944585,-10362.883188,-740.205942,3370.820191
3210.944923,-10214.842000,-1036.288319,1838.629195
3210.945260,-10510.924376,-666.185348,306.438199
3210.945597,-11029.068536,296.082377,-919.314598
3210.945935,-11325.150913,-296.082377,-1455.581446
3210.946272,-10807.006753,-222.061783,-1608.800546
3210.946610,-9252.574275,-1554.432478,-2374.896044
3210.946947,-8290.306550,-1554.432478,-383.047749
3210.947285,-9104.533087,-1480.411884,842.705048
3210.947622,-10510.924376,-1258.350101,0.000000
3210.947959,-11473.192101,-1776.494261,-1608.800546
3210.948297,-10658.965565,-1110.308913,-1378.971896
3210.948634,-10066.800811,-2220.617826,76.609550
3210.948972,-9918.759623,-2368.659014,1685.410096
3210.949309,-9474.636058,-1850.514855,1225.752797
3210.949646,-9548.656652,-1554.432478,689.485948
3210.949984,-10362.883188,-296.082377,153.219100
3210.950321,-10140.821405,-296.082377,-306.438199
3210.950659,-10066.800811,-296.082377,-536.266849
3210.950996,-9252.574275,74.020594,383.047749
3210.951334,-9474.636058,0.000000,2145.067394
3210.951671,-9326.594869,1702.473667,2374.896044
3210.952008,-10288.862594,1924.535449,1455.581446
3210.952346,-11547.212695,1998.556043,995.924147
3210.952683,-9992.780217,1702.473667,0.000000
3210.953021,-9252.574275,2294.638420,1991.848295
3210.953358,-10140.821405,1924.535449,2451.505594
3210.953695,-9770.718434,1184.329507,1302.362347
3210.954033,-10214.842000,1628.453072,76.609550
3210.954370,-9844.739029,666.185348,-536.266849
3210.954708,-10140.821405,1554.432478,-2298.286494
3210.955045,-10140.821405,666.185348,-3064.381992
3210.955383,-9252.574275,-888.247130,-3370.820191
3210.955720,-7698.141797,-1110.308913,-919.314598
3210.956057,-8142.265362,-1776.494261,383.047749
3210.956395,-9770.718434,-1406.391290,1072.533697
3210.956732,-11251.130318,-1776.494261,0.000000
3210.957070,-11325.150913,-1480.411884,459.657299
3210.957407,-10362.883188,-1332.370696,1455.581446
3210.957744,-10214.842000,-2072.576638,3447.429741
3210.958082,-10807.006753,-2072.576638,3907.087040
3210.958419,-10510.924376,-2220.617826,1608.800546
3210.958757,-10436.903782,-518.144159,842.705048
3210.959094,-10807.006753,-296.082377,-1072.533697
3210.959432,-11177.109724,-888.247130,-766.095498
3210.959769,-9622.677246,-1850.514855,-1072.533697
3210.960106,-8364.327145,-814.226536,0.000000
3210.960444,-8808.450710,-666.185348,536.266849
3210.960781,-10955.047942,148.041188,0.000000
3210.961119,-11325.150913,-148.041188,-689.485948
3210.961456,-10436.903782,-222.061783,-1225.752797
3210.961793,-9400.615463,0.000000,76.609550
3210.962131,-10066.800811,-370.102971,1608.800546
3210.962468,-10362.883188,-1036.288319,995.924147
3210.962806,-9622.677246,-1036.288319,-306.438199
3210.963143,-9918.759623,-518.144159,0.000000
3210.963481,-9844.739029,1110.308913,-229.828649
3210.963818,-10362.883188,0.000000,-1149.143247
3210.964155,-9992.780217,74.020594,-689.485948
3210.964493,-8068.244768,0.000000,153.219100
3210.964830,-9104.533087,740.205942,2221.676944
3210.965168,-10658.965565,1702.473667,2681.334243
3210.965505,-10881.027347,740.205942,1225.752797
3210.965842,-10732.986159,1850.514855,1608.800546
3210.966180,-9548.656652,1332.370696,2145.067394
3210.966517,-9474.636058,888.247130,3294.210641
3210.966855,-10510.924376,0.000000,3217.601092
3210.967192,-10362.883188,0.000000,1149.143247
3210.967530,-10288.862594,1332.370696,-612.876398
3210.967867,-10807.006753,592.164754,-1762.019645
3210.968204,-9400.615463,74.020594,-2834.553343
3210.968542,-9104.533087,-1776.494261,-2987.772442
3210.968879,-8068.244768,-1406.391290,-1225.752797
