#time,accel_x,accel_y,accel_z
2851.306289,-8660.409521,-2368.659014,-1378.971896
2851.306627,-8438.347739,-2368.659014,-919.314598
2851.306965,-9400.615463,-888.247130,-229.828649
2851.307303,-9474.636058,-370.102971,-766.095498
2851.307641,-9770.718434,814.226536,-1378.971896
2851.307979,-10436.903782,222.061783,-1838.629195
2851.308316,-9178.553681,444.123565,-1915.238745
2851.308654,-10362.883188,592.164754,-1455.581446
2851.308992,-9622.677246,0.000000,-1991.848295
2851.309330,-8068.244768,-296.082377,-2068.457845
2851.309668,-9178.553681,-1850.514855,-1685.410096
2851.310005,-9992.780217,-1850.514855,-689.485948
2851.310343,-10140.821405,-1332.370696,-1608.800546
2851.310681,-11103.089130,-888.247130,-1685.410096
2851.311019,-11103.089130,-962.267725,-1991.848295
2851.311357,-11325.150913,-666.185348,-2145.067394
2851.311695,-12287.418637,-518.144159,-2068.457845
2851.312032,-11843.295072,-1406.391290,-2528.115143
2851.312370,-10658.965565,-1924.535449,-2681.334243
2851.312708,-10807.006753,-2368.659014,-1608.800546
2851.313046,-10214.842000,-3330.926739,-1608.800546
2851.313384,-10140.821405,-3182.885551,-1532.190996
2851.313721,-9622.677246,-2516.700203,-995.924147
2851.314059,-9474.636058,-2146.597232,-689.485948
2851.314397,-10140.821405,-1332.370696,-459.657299
2851.314735,-10807.006753,-370.102971,-612.876398
2851.315073,-10214.842000,-370.102971,-1762.019645
2851.315411,-9252.574275,-740.205942,-2374.896044
2851.315748,-9474.636058,-1702.473667,-1915.238745
2851.316086,-9104.533087,-2442.679609,-2987.772442
2851.316424,-8438.347739,-3182.885551,-3907.087040
2851.316762,-8216.285956,-4441.235652,-3830.477490
2851.317100,-7920.203579,-4737.318029,-3140.991542
2851.317438,-7920.203579,-5255.462188,-2681.334243
2851.317775,-8216.285956,-3997.112087,-1685.410096
2851.318113,-8364.327145,-2738.761985,-1378.971896
2851.318451,-10066.800811,-1924.535449,-689.485948
2851.318789,-12139.377449,-1998.556043,-689.485948
2851.319127,-12583.501014,-3108.864956,-1685.410096
2851.319464,-11843.295072,-3404.947333,-2221.676944
2851.319802,-10658.965565,-4515.256246,-1608.800546
2851.320140,-9548.656652,-5329.482782,-689.485948
2851.320478,-9696.697840,-5699.585753,0.000000
2851.320816,-9696.697840,-5329.482782,612.876398
2851.321154,-9548.656652,-2368.659014,0.000000
2851.321491,-11325.150913,-1480.411884,-995.924147
2851.321829,-12731.542202,-1332.370696,-1991.848295
2851.322167,-10955.047942,-3108.864956,-1838.629195
2851.322505,-10214.842000,-2368.659014,536.266849
2851.322843,-9844.739029,-2368.659014,2298.286494
2851.323181,-9400.615463,-2368.659014,842.705048
2851.323518,-10140.821405,-4367.215058,-536.266849
2851.323856,-9918.759623,-5181.441594,-2221.676944
2851.324194,-7920.203579,-5995.668130,-1608.800546
2851.324532,-7920.203579,-5033.400406,-919.314598
2851.324870,-8364.327145,-3256.906145,-1225.752797
2851.325207,-8438.347739,-2516.700203,-2911.162892
2851.325545,-8660.409521,-1998.556043,-2221.676944
2851.325883,-9178.553681,-962.267725,0.000000
2851.326221,-11103.089130,0.000000,3600.648841
2851.326559,-11399.171507,370.102971,2145.067394
2851.326897,-11399.171507,370.102971,1378.971896
2851.327234,-11177.109724,-296.082377,2145.067394
2851.327572,-10732.986159,-592.164754,2757.943793
2851.327910,-10510.924376,-1332.370696,1762.019645
2851.328248,-9400.615463,888.247130,1378.971896
2851.328586,-9474.636058,2812.782580,1149.143247
2851.328923,-9696.697840,4589.276840,-842.705048
2851.329261,-10288.862594,4071.132681,-919.314598
2851.329599,-11621.233289,4367.215058,-536.266849
2851.329937,-11399.171507,4737.318029,459.657299
2851.330275,-11103.089130,5551.544565,1302.362347
2851.330613,-9992.780217,4367.215058,1072.533697
2851.330950,-9474.636058,1628.453072,-689.485948
2851.331288,-10140.821405,222.061783,-1302.362347
2851.331626,-9548.656652,-888.247130,-306.438199
2851.331963,-7624.121203,-666.185348,-306.438199
2851.332300,-6809.894666,74.020594,-1532.190996
2851.332638,-8438.347739,1036.288319,-2221.676944
2851.332975,-9622.677246,1332.370696,-2757.943793
2851.333313,-10510.924376,1776.494261,-2145.067394
2851.333650,-9992.780217,2886.803174,0.000000
2851.333987,-9992.780217,2294.638420,1149.143247
2851.334325,-11177.109724,592.164754,1915.238745
2851.334662,-11769.274478,-1924.535449,1532.190996
2851.335000,-10732.986159,-2294.638420,2681.334243
2851.335337,-10140.821405,-2368.659014,3447.429741
2851.335674,-9696.697840,-666.185348,2068.457845
2851.336012,-9326.594869,0.000000,536.266849
2851.336349,-10658.965565,592.164754,-459.657299
2851.336687,-10584.944971,1924.535449,-1225.752797
2851.337024,-11029.068536,4293.194464,-1685.410096
2851.337361,-12287.418637,3552.988522,-919.314598
2851.337699,-11991.336260,888.247130,-1149.143247
2851.338036,-11991.336260,-1554.432478,459.657299
2851.338374,-10214.842000,-3108.864956,1608.800546
2851.338711,-8734.430116,-3034.844362,2145.067394
2851.339048,-9178.553681,-3330.926739,995.924147
2851.339386,-8956.491898,-3182.885551,-612.876398
2851.339723,-8808.450710,-2886.803174,-1225.752797
2851.340061,-8586.388927,-888.247130,0.000000
2851.340398,-8956.491898,962.267725,842.705048
2851.340735,-10066.800811,1702.473667,-459.657299
2851.341073,-11621.233289,-296.082377,-689.485948
2851.341410,-11621.233289,-1480.411884,1072.533697
2851.341748,-9400.615463,-2886.803174,2834.553343
2851.342085,-8586.388927,-3034.844362,4673.182538
2851.342422,-8512.368333,-2368.659014,3524.039291
2851.342760,-8364.327145,-2590.720797,2068.457845
2851.343097,-9030.512492,-2368.659014,153.219100
2851.343435,-9474.636058,-1184.329507,1072.533697
2851.343772,-9918.759623,1406.391290,536.266849
2851.344109,-10807.006753,3182.885551,-1532.190996
2851.344447,-11695.253884,2812.782580,-3830.477490
2851.344784,-12361.439231,-148.041188,-4826.401637
2851.345122,-10732.986159,-3256.906145,-2068.457845
2851.345459,-8438.347739,-3923.091493,1378.971896
2851.345796,-8142.265362,-4071.132681,766.095498
2851.346134,-9252.574275,-4293.194464,-1991.848295
2851.346471,-10436.903782,-5033.400406,-2298.286494
2851.346809,-10214.842000,-3923.091493,-842.705048
2851.347146,-9992.780217,-1480.411884,842.705048
2851.347483,-10362.883188,666.185348,-842.705048
2851.347821,-11621.233289,148.041188,-2374.896044
2851.348158,-12287.418637,-1110.308913,-1455.581446
2851.348496,-10658.965565,-2442.679609,-612.876398
2851.348833,-8512.368333,-2294.638420,2221.676944
2851.349170,-9474.636058,-2960.823768,3753.867940
2851.349508,-9622.677246,-2960.823768,2374.896044
2851.349845,-9400.615463,-2886.803174,1072.533697
2851.350183,-9252.574275,-1776.494261,1455.581446
2851.350520,-9104.533087,1406.391290,2221.676944
2851.350857,-10658.965565,3775.050304,1302.362347
2851.351195,-11177.109724,4737.318029,-1915.238745
2851.351532,-11399.171507,2738.761985,-2757.943793
2851.351870,-10140.821405,1628.453072,-1225.752797
2851.352207,-8956.491898,1258.350101,1685.410096
2851.352544,-9770.718434,1036.288319,1838.629195
2851.352882,-10362.883188,0.000000,689.485948
2851.353219,-10066.800811,-888.247130,229.828649
2851.353557,-9104.533087,-666.185348,1455.581446
2851.353894,-8438.347739,1554.432478,2604.724693
2851.354231,-9844.739029,2812.782580,1685.410096
2851.354569,-11621.233289,3701.029710,-842.705048
2851.354906,-11917.315666,3478.967927,-2068.457845
2851.355244,-11103.089130,1702.473667,229.828649
2851.355581,-8956.491898,2368.659014,1378.971896
2851.355918,-9400.615463,1332.370696,1762.019645
2851.356256,-10732.986159,-518.144159,1608.800546
2851.356593,-9770.718434,-2368.659014,1608.800546
2851.356931,-9178.553681,-1554.432478,3907.087040
2851.357268,-9326.594869,592.164754,4213.525239
2851.357605,-9844.739029,2368.659014,1149.143247
2851.357943,-11695.253884,2442.679609,-1838.629195
2851.358280,-12065.356855,1110.308913,-2757.943793
2851.358618,-10288.862594,888.247130,-2068.457845
2851.358955,-8956.491898,296.082377,-229.828649
2851.359292,-8956.491898,-74.020594,-536.266849
2851.359630,-9844.739029,-1924.535449,-1378.971896
2851.359967,-10807.006753,-3182.885551,-995.924147
2851.360305,-10140.821405,-3182.885551,229.828649
2851.360642,-9326.594869,-3034.844362,1378.971896
2851.360979,-10436.903782,-1702.473667,229.828649
2851.361317,-11103.089130,-1110.308913,-919.314598
2851.361654,-11695.253884,-962.267725,-612.876398
2851.361992,-10584.944971,-1110.308913,-383.047749
2851.362329,-9252.574275,-666.185348,612.876398
2851.362666,-9474.636058,-444.123565,766.095498
2851.363004,-10436.903782,-1258.350101,306.438199
2851.363341,-10881.027347,-2738.761985,1072.533697
2851.363679,-9770.718434,-2294.638420,2221.676944
2851.364016,-8956.491898,-1184.329507,4443.353888
2851.364353,-10066.800811,1258.350101,2681.334243
2851.364691,-10584.944971,1258.350101,0.000000
2851.365028,-11547.212695,296.082377,-1685.410096
2851.365366,-10066.800811,222.061783,-1608.800546
2851.365703,-8586.388927,740.205942,-919.314598
2851.366040,-8438.347739,740.205942,-536.266849
2851.366378,-9178.553681,-666.185348,-2221.676944
2851.366715,-9178.553681,-2368.659014,-1762.019645
2851.367053,-9252.574275,-2072.576638,995.924147
2851.367390,-8586.388927,-1850.514855,1608.800546
2851.367727,-9992.780217,-1554.432478,1072.533697
2851.368065,-11177.109724,-888.247130,76.609550
2851.368402,-11621.233289,-2294.638420,-1532.190996
2851.368740,-10362.883188,-2146.597232,0.000000
2851.369077,-8956.491898,-2072.576638,306.438199
2851.369414,-9104.533087,-1702.473667,229.828649
2851.369752,-10140.821405,-2146.597232,-153.219100
2851.370089,-10955.047942,-2960.823768,842.705048
2851.370427,-10362.883188,-1850.514855,2145.067394
2851.370764,-10362.883188,-1258.350101,3600.648841
2851.371101,-11177.109724,592.164754,2221.676944
2851.371439,-11843.295072,148.041188,536.266849
2851.371776,-12583.501014,-740.205942,-459.657299
2851.372114,-10881.027347,-1850.514855,-383.047749
2851.372451,-8808.450710,-1406.391290,766.095498
2851.372789,-8512.368333,74.020594,0.000000
2851.373126,-9622.677246,-370.102971,-1378.971896
2851.373463,-9622.677246,-1850.514855,-1838.629195
2851.373801,-9178.553681,-1036.288319,-536.266849
2851.374138,-8882.471304,0.000000,1455.581446
2851.374476,-9696.697840,888.247130,0.000000
2851.374813,-10658.965565,222.061783,-842.705048
2851.375150,-11547.212695,-1036.288319,-536.266849
2851.375488,-9696.697840,-740.205942,536.266849
2851.375825,-7920.203579,296.082377,1225.752797
2851.376163,-8956.491898,666.185348,766.095498
2851.376500,-9178.553681,222.061783,-383.047749
2851.376837,-10362.883188,-444.123565,766.095498
2851.377175,-9918.759623,1702.473667,2451.505594
2851.377512,-9770.718434,3404.947333,3294.210641
2851.377850,-11695.253884,4589.276840,2451.505594
2851.378187,-12213.398043,3997.112087,0.000000
2851.378524,-11917.315666,2368.659014,-536.266849
2851.378862,-10510.924376,1480.411884,1608.800546
2851.379199,-9104.533087,1480.411884,1762.019645
2851.379537,-8438.347739,1406.391290,306.438199
2851.379874,-9622.677246,1480.411884,-1838.629195
2851.380211,-9918.759623,74.020594,-2528.115143
2851.380549,-9400.615463,814.226536,-153.219100
2851.380886,-9252.574275,444.123565,-153.219100
2851.381224,-9918.759623,1850.514855,-536.266849
2851.381561,-11103.089130,0.000000,-2068.457845
2851.381898,-11769.274478,-2072.576638,-1225.752797
2851.382236,-9474.636058,-3034.844362,0.000000
2851.382573,-8364.327145,-2664.741391,1991.848295
2851.382911,-8956.491898,-2072.576638,1378.971896
2851.383248,-9622.677246,-3256.906145,-536.266849
2851.383585,-10214.842000,-3775.050304,-229.828649
2851.383923,-9770.718434,-1924.535449,1685.410096
2851.384260,-9992.780217,0.000000,3064.381992
2851.384598,-11177.109724,1776.494261,2068.457845
2851.384935,-13027.624579,888.247130,536.266849
2851.385272,-12435.459826,-370.102971,0.000000
2851.385610,-10584.944971,-1480.411884,229.828649
2851.385947,-9030.512492,-740.205942,2451.505594
2851.386285,-9400.615463,-592.164754,766.095498
2851.386622,-10214.842000,148.041188,-766.095498
2851.386959,-10807.006753,0.000000,-1915.238745
2851.387297,-9474.636058,518.144159,-689.485948
2851.387634,-9474.636058,1776.494261,689.485948
2851.387972,-10732.986159,1554.432478,-612.876398
2851.388309,-10732.986159,1480.411884,-1762.019645
2851.388646,-10362.883188,-1480.411884,-1378.971896
2851.388984,-9252.574275,-2590.720797,306.438199
2851.389321,-7550.100608,-2368.659014,2145.067394
2851.389659,-7772.162391,-1924.535449,1991.848295
2851.389996,-8734.430116,-1998.556043,536.266849
2851.390333,-9252.574275,-2368.659014,383.047749
2851.390671,-9326.594869,-740.205942,2221.676944
2851.391008,-9178.553681,1110.308913,2298.286494
2851.391346,-10436.903782,2442.679609,842.705048
2851.391683,-12213.398043,1776.494261,-1532.190996
2851.392020,-11991.336260,-888.247130,-1455.581446
2851.392358,-9844.739029,-1998.556043,0.000000
2851.392695,-8142.265362,-1332.370696,1455.581446
2851.393033,-8734.430116,-1258.350101,1225.752797
2851.393370,-10066.800811,-1554.432478,-306.438199
2851.393707,-11029.068536,-1850.514855,-536.266849
2851.394045,-10584.944971,222.061783,-306.438199
2851.394382,-10214.842000,1332.370696,0.000000
2851.394720,-11251.130318,1850.514855,-612.876398
2851.395057,-11769.274478,148.041188,-2987.772442
2851.395394,-11177.109724,-1628.453072,-2451.505594
2851.395732,-9844.739029,-2220.617826,-1302.362347
2851.396069,-8734.430116,-2664.741391,766.095498
2851.396407,-8956.491898,-2516.700203,76.609550
2851.396744,-9844.739029,-3330.926739,0.000000
2851.397081,-10066.800811,-2738.761985,76.609550
2851.397419,-9252.574275,-1776.494261,2145.067394
2851.397756,-9622.677246,888.247130,3447.429741
2851.398094,-10288.862594,2072.576638,1225.752797
2851.398431,-11991.336260,1924.535449,76.609550
2851.398768,-11843.295072,518.144159,-306.438199
2851.399106,-9844.739029,0.000000,1455.581446
2851.399443,-8808.450710,666.185348,3447.429741
2851.399781,-9104.533087,1184.329507,1838.629195
2851.400118,-9474.636058,1406.391290,0.000000
2851.400455,-10066.800811,1036.288319,-536.266849
2851.400793,-9622.677246,1998.556043,1532.190996
2851.401130,-9178.553681,3775.050304,1685.410096
2851.401468,-10436.903782,4293.194464,76.609550
2851.401805,-11843.295072,3552.988522,-1991.848295
2851.402142,-10807.006753,1036.288319,-2528.115143
2851.402480,-9326.594869,1258.350101,0.000000
2851.402817,-8290.306550,74.020594,2068.457845
2851.403155,-8438.347739,148.041188,459.657299
2851.403492,-9770.718434,-1776.494261,-766.095498
2851.403829,-10362.883188,-1628.453072,536.266849
2851.404167,-9326.594869,-962.267725,2145.067394
2851.404504,-9474.636058,962.267725,2298.286494
2851.404842,-11029.068536,2072.576638,842.705048
2851.405179,-11843.295072,444.123565,-1532.190996
2851.405516,-11325.150913,-962.267725,-995.924147
2851.405854,-9770.718434,-1110.308913,919.314598
2851.406191,-9104.533087,-1258.350101,2298.286494
2851.406529,-9548.656652,-814.226536,1838.629195
2851.406866,-9844.739029,-1554.432478,0.000000
2851.407203,-10732.986159,-1702.473667,229.828649
2851.407541,-9844.739029,-888.247130,919.314598
2851.407878,-9622.677246,148.041188,1072.533697
2851.408216,-11029.068536,1480.411884,-919.314598
2851.408553,-11621.233289,74.020594,-2681.334243
2851.408890,-11029.068536,-1184.329507,-2757.943793
2851.409228,-9252.574275,-2368.659014,-459.657299
2851.409565,-8364.327145,-1554.432478,1072.533697
2851.409903,-8882.471304,-1850.514855,-229.828649
2851.410240,-10066.800811,-2294.638420,-1378.971896
2851.410577,-10658.965565,-2960.823768,229.828649
2851.410915,-9770.718434,-2220.617826,2451.505594
2851.411252,-9770.718434,1036.288319,2374.896044
2851.411590,-11103.089130,1110.308913,459.657299
2851.411927,-12139.377449,740.205942,-842.705048
2851.412264,-11177.109724,-1332.370696,-1608.800546
2851.412602,-9992.780217,-666.185348,1225.752797
2851.412939,-8882.471304,-370.102971,1532.190996
2851.413277,-8660.409521,370.102971,1302.362347
2851.413614,-9622.677246,0.000000,995.924147
2851.413951,-9474.636058,0.000000,689.485948
2851.414289,-9474.636058,888.247130,2298.286494
2851.414626,-10140.821405,1850.514855,2374.896044
2851.414964,-10807.006753,2812.782580,-306.438199
2851.415301,-11991.336260,1332.370696,-1838.629195
2851.415638,-10807.006753,-592.164754,-2451.505594
2851.415976,-8142.265362,-2072.576638,153.219100
2851.416313,-7698.141797,-2146.597232,995.924147
2851.416651,-7994.224174,-1776.494261,0.000000
2851.416988,-9326.594869,-2664.741391,-1225.752797
2851.417325,-10881.027347,-2664.741391,76.609550
2851.417663,-10140.821405,-1702.473667,1455.581446
2851.418000,-10658.965565,444.123565,2068.457845
2851.418338,-11103.089130,1332.370696,76.609550
2851.418675,-12139.377449,-370.102971,-995.924147
2851.419012,-12213.398043,-2072.576638,-995.924147
2851.419350,-9770.718434,-2590.720797,689.485948
2851.419687,-8808.450710,-1850.514855,2451.505594
2851.420025,-9548.656652,-592.164754,1455.581446
2851.420362,-10807.006753,-518.144159,919.314598
2851.420699,-10584.944971,-296.082377,76.609550
2851.421037,-10288.862594,740.205942,1532.190996
2851.421374,-10140.821405,2664.741391,2451.505594
2851.421712,-11029.068536,2812.782580,76.609550
2851.422049,-11473.192101,1554.432478,-1149.143247
2851.422386,-10732.986159,-370.102971,-1302.362347
2851.422724,-8586.388927,-666.185348,612.876398
2851.423061,-7994.224174,74.020594,1225.752797
2851.423399,-8438.347739,0.000000,153.219100
2851.423736,-9474.636058,-370.102971,-1762.019645
2851.424073,-9252.574275,-1110.308913,-689.485948
2851.424411,-9326.594869,592.164754,1915.238745
2851.424748,-9696.697840,1702.473667,2068.457845
2851.425086,-10732.986159,2812.782580,0.000000
2851.425423,-11917.315666,1554.432478,-1455.581446
2851.425760,-11399.171507,-222.061783,-995.924147
2851.426098,-9030.512492,-518.144159,995.924147
2851.426435,-8586.388927,-814.226536,2681.334243
2851.426773,-9178.553681,296.082377,1455.581446
2851.427110,-11029.068536,666.185348,0.000000
2851.427447,-11325.150913,222.061783,0.000000
2851.427785,-10066.800811,1406.391290,1455.581446
2851.428122,-10436.903782,2590.720797,2145.067394
2851.428460,-11399.171507,2812.782580,0.000000
2851.428797,-11547.212695,1036.288319,-2145.067394
2851.429134,-11103.089130,-740.205942,-1225.752797
2851.429472,-9104.533087,-1628.453072,0.000000
2851.429809,-7920.203579,-1258.350101,1149.143247
2851.430146,-9252.574275,-1702.473667,612.876398
2851.430483,-10066.800811,-2220.617826,-1532.190996
2851.430821,-10436.903782,-2664.741391,-612.876398
2851.431158,-9400.615463,-1332.370696,153.219100
2851.431495,-9548.656652,-592.164754,919.314598
2851.431832,-10436.903782,-222.061783,-153.219100
2851.432170,-11621.233289,-1184.329507,-1915.238745
2851.432507,-11251.130318,-2516.700203,-1532.190996
2851.432844,-8734.430116,-3256.906145,229.828649
2851.433181,-8364.327145,-2368.659014,2068.457845
2851.433519,-9474.636058,-2368.659014,2374.896044
2851.433856,-9844.739029,-1110.308913,383.047749
2851.434193,-11399.171507,-444.123565,1302.362347
2851.434530,-10732.986159,1258.350101,2374.896044
2851.434868,-10807.006753,3256.906145,1608.800546
2851.435205,-11917.315666,2960.823768,306.438199
2851.435542,-11695.253884,2294.638420,-1225.752797
2851.435880,-10658.965565,0.000000,-842.705048
2851.436217,-9178.553681,-592.164754,1225.752797
2851.436554,-7550.100608,0.000000,1072.533697
2851.436891,-8586.388927,0.000000,766.095498
2851.437229,-9770.718434,-1036.288319,-153.219100
2851.437566,-9548.656652,-666.185348,689.485948
2851.437903,-9252.574275,444.123565,1225.752797
2851.438240,-9178.553681,1258.350101,842.705048
2851.438578,-10288.862594,1776.494261,-689.485948
2851.438915,-11769.274478,-296.082377,-2145.067394
2851.439252,-10510.924376,-2146.597232,-1991.848295
2851.439589,-7624.121203,-2960.823768,-306.438199
2851.439927,-7846.182985,-2960.823768,1991.848295
2851.440264,-8956.491898,-2294.638420,1762.019645
2851.440601,-9844.739029,-2442.679609,306.438199
2851.440938,-10362.883188,-1554.432478,995.924147
2851.441276,-10881.027347,888.247130,2068.457845
2851.441613,-11547.212695,2368.659014,1378.971896
2851.441950,-11843.295072,2220.617826,-306.438199
2851.442287,-11917.315666,962.267725,-1838.629195
2851.442625,-11399.171507,-740.205942,-689.485948
2851.442962,-9622.677246,-740.205942,229.828649
2851.443299,-8734.430116,-1110.308913,612.876398
2851.443636,-9696.697840,-296.082377,-383.047749
2851.443974,-10584.944971,-1110.308913,-1149.143247
2851.444311,-11029.068536,-962.267725,-306.438199
2851.444648,-9770.718434,0.000000,842.705048
2851.444985,-10140.821405,1702.473667,689.485948
2851.445323,-10658.965565,1554.432478,-1225.752797
2851.445660,-11177.109724,0.000000,-2604.724693
2851.445997,-10362.883188,-2220.617826,-229.828649
2851.446334,-8882.471304,-2072.576638,1608.800546
2851.446672,-7550.100608,-1480.411884,2145.067394
2851.447009,-9104.533087,-962.267725,1685.410096
2851.447346,-9548.656652,-1110.308913,612.876398
2851.447683,-9622.677246,-592.164754,2221.676944
2851.448021,-9400.615463,1184.329507,3140.991542
2851.448358,-10066.800811,2886.803174,2451.505594
2851.448695,-11769.274478,3775.050304,1149.143247
2851.449033,-11843.295072,2664.741391,-689.485948
2851.449370,-10881.027347,592.164754,-306.438199
2851.449707,-9178.553681,814.226536,1378.971896
2851.450044,-8660.409521,444.123565,2145.067394
2851.450382,-8808.450710,1036.288319,459.657299
2851.450719,-10288.862594,-1184.329507,0.000000
2851.451056,-10881.027347,-444.123565,0.000000
2851.451393,-9252.574275,518.144159,919.314598
2851.451731,-10140.821405,1702.473667,612.876398
2851.452068,-11029.068536,1184.329507,-1838.629195
2851.452405,-10955.047942,-814.226536,-3983.696590
2851.452742,-10140.821405,-2368.659014,-2374.896044
2851.453080,-9400.615463,-2738.761985,153.219100
2851.453417,-8438.347739,-2960.823768,1072.533697
2851.453754,-9400.615463,-2294.638420,-383.047749
2851.454091,-10436.903782,-2960.823768,-612.876398
2851.454429,-10510.924376,-2738.761985,0.000000
2851.454766,-9548.656652,-1776.494261,1225.752797
2851.455103,-10140.821405,-296.082377,1991.848295
2851.455440,-11325.150913,1258.350101,0.000000
2851.455778,-11991.336260,-148.041188,-1838.629195
2851.456115,-11547.212695,-1184.329507,-689.485948
2851.456452,-9252.574275,-1628.453072,1378.971896
2851.456789,-8512.368333,-888.247130,2145.067394
2851.457127,-9622.677246,-148.041188,1072.533697
2851.457464,-10214.842000,-888.247130,-383.047749
2851.457801,-10436.903782,-1480.411884,459.657299
2851.458138,-9548.656652,592.164754,1608.800546
2851.458476,-9770.718434,2220.617826,1302.362347
2851.458813,-11251.130318,1924.535449,-689.485948
2851.459150,-11029.068536,148.041188,-2681.334243
2851.459487,-10214.842000,-1480.411884,-1378.971896
2851.459825,-8956.491898,-1702.473667,1838.629195
2851.460162,-8216.285956,-1998.556043,2374.896044
2851.460499,-9252.574275,-1554.432478,766.095498
2851.460836,-9918.759623,-1258.350101,459.657299
2851.461174,-9696.697840,-1184.329507,1149.143247
2851.461511,-9548.656652,148.041188,2911.162892
2851.461848,-10140.821405,2146.597232,2451.505594
2851.462185,-11399.171507,2146.597232,-76.609550
2851.462523,-11843.295072,888.247130,-1072.533697
2851.462860,-11103.089130,-148.041188,-306.438199
2851.463197,-9178.553681,-518.144159,919.314598
2851.463535,-8438.347739,-740.205942,1608.800546
2851.463872,-8956.491898,74.020594,306.438199
2851.464209,-9918.759623,-1628.453072,-842.705048
2851.464546,-10140.821405,-740.205942,0.000000
2851.464884,-9548.656652,0.000000,1608.800546
2851.465221,-10362.883188,1776.494261,919.314598
2851.465558,-11399.171507,1776.494261,-2221.676944
2851.465895,-11843.295072,148.041188,-3830.477490
2851.466233,-10955.047942,-1850.514855,-3294.210641
2851.466570,-8956.491898,-2738.761985,-919.314598
2851.466907,-8586.388927,-2442.679609,229.828649
2851.467244,-8956.491898,-2368.659014,-1225.752797
2851.467582,-10288.862594,-2368.659014,-2221.676944
2851.467919,-10362.883188,-2886.803174,-1072.533697
2851.468256,-9030.512492,-592.164754,1072.533697
2851.468593,-10288.862594,592.164754,2145.067394
2851.468931,-11547.212695,814.226536,995.924147
2851.469268,-11547.212695,0.000000,0.000000
2851.469605,-11029.068536,-666.185348,1302.362347
2851.469942,-9696.697840,-370.102971,3140.991542
2851.470280,-9178.553681,518.144159,2911.162892
2851.470617,-9548.656652,0.000000,1302.362347
2851.470954,-9548.656652,-888.247130,-536.266849
2851.471291,-9770.718434,0.000000,766.095498
2851.471629,-8734.430116,1110.308913,2145.067394
2851.471966,-9400.615463,2590.720797,1915.238745
2851.472303,-10288.862594,2960.823768,-1149.143247
2851.472640,-11843.295072,1702.473667,-2604.724693
2851.472978,-11325.150913,0.000000,-1762.019645
2851.473315,-8586.388927,-814.226536,0.000000
2851.473652,-8068.244768,-1258.350101,1455.581446
2851.473989,-9474.636058,-666.185348,76.609550
2851.474327,-10066.800811,-1850.514855,-459.657299
2851.474664,-10510.924376,-1554.432478,612.876398
2851.475001,-9696.697840,-592.164754,1302.362347
2851.475338,-10362.883188,592.164754,995.924147
2851.475676,-11103.089130,1110.308913,-306.438199
2851.476013,-11695.253884,-666.185348,-1302.362347
2851.476350,-10955.047942,-1110.308913,0.000000
2851.476688,-9474.636058,-1258.350101,1915.238745
2851.477025,-9326.594869,222.061783,1762.019645
2851.477362,-10066.800811,-1036.288319,689.485948
2851.477699,-10732.986159,-2146.597232,153.219100
2851.478037,-9844.739029,-1850.514855,536.266849
2851.478374,-9474.636058,0.000000,1915.238745
2851.478711,-10066.800811,888.247130,919.314598
2851.479048,-10510.924376,1110.308913,-1991.848295
2851.479386,-11547.212695,0.000000,-3064.381992
2851.479723,-10436.903782,-2072.576638,-2145.067394
2851.480060,-8882.471304,-1998.556043,-383.047749
2851.480397,-8660.409521,-2072.576638,76.609550
2851.480735,-9252.574275,-2368.659014,-536.266849
2851.481072,-9696.697840,-2664.741391,-1532.190996
2851.481409,-10066.800811,-2072.576638,689.485948
2851.481746,-9548.656652,-1258.350101,1991.848295
2851.482084,-9548.656652,0.000000,1532.190996
2851.482421,-11325.150913,1258.350101,0.000000
2851.482758,-11843.295072,-222.061783,-689.485948
2851.483095,-11251.130318,0.000000,229.828649
2851.483433,-9326.594869,-296.082377,2374.896044
2851.483770,-9326.594869,1332.370696,2757.943793
2851.484107,-9474.636058,518.144159,995.924147
2851.484444,-9918.759623,-370.102971,383.047749
2851.484782,-9622.677246,-444.123565,2145.067394
2851.485119,-8882.471304,1480.411884,2834.553343
2851.485456,-10066.800811,2960.823768,2528.115143
2851.485793,-11473.192101,3552.988522,-1532.190996
2851.486131,-11473.192101,962.267725,-2298.286494
2851.486468,-11103.089130,-148.041188,-1455.581446
2851.486805,-8142.265362,-1332.370696,-76.609550
2851.487142,-8438.347739,-1258.350101,153.219100
2851.487480,-8660.409521,-1850.514855,-1225.752797
2851.487817,-9696.697840,-2960.823768,-1915.238745
2851.488154,-9474.636058,-2368.659014,-383.047749
2851.488491,-9548.656652,-1480.411884,1225.752797
2851.488829,-10066.800811,296.082377,383.047749
2851.489166,-11029.068536,0.000000,-1685.410096
2851.489503,-11621.233289,-888.247130,-2221.676944
2851.489841,-10807.006753,-1702.473667,-766.095498
2851.490178,-9696.697840,-1554.432478,1455.581446
2851.490515,-9252.574275,-962.267725,2068.457845
2851.490852,-10436.903782,-1406.391290,1302.362347
2851.491190,-10436.903782,-1480.411884,383.047749
2851.491527,-10732.986159,-1702.473667,1685.410096
2851.491864,-9844.739029,222.061783,2911.162892
2851.492201,-9400.615463,1998.556043,1762.019645
2851.492539,-11843.295072,3108.864956,306.438199
2851.492876,-11991.336260,740.205942,-1915.238745
2851.493213,-10436.903782,-444.123565,-1225.752797
2851.493550,-9030.512492,-1258.350101,842.705048
2851.493888,-7994.224174,296.082377,766.095498
2851.494225,-9400.615463,-740.205942,-766.095498
2851.494562,-9770.718434,-1998.556043,-1915.238745
2851.494899,-9252.574275,-1184.329507,-536.266849
2851.495237,-8808.450710,-666.185348,1991.848295
2851.495574,-9474.636058,1110.308913,1225.752797
2851.495911,-10510.924376,1702.473667,-766.095498
2851.496248,-11547.212695,592.164754,-1608.800546
2851.496586,-10066.800811,-296.082377,0.000000
2851.496923,-8290.306550,0.000000,2298.286494
2851.497260,-9104.533087,0.000000,2757.943793
2851.497597,-9992.780217,74.020594,842.705048
2851.497935,-10510.924376,-1110.308913,229.828649
2851.498272,-9770.718434,-370.102971,3064.381992
2851.498609,-9400.615463,518.144159,3524.039291
2851.498946,-10214.842000,1924.535449,2145.067394
2851.499284,-11177.109724,2294.638420,-766.095498
2851.499621,-11843.295072,1036.288319,-2298.286494
2851.499958,-10584.944971,-296.082377,-1302.362347
2851.500295,-8956.491898,-1332.370696,153.219100
2851.500633,-8734.430116,-592.164754,76.609550
2851.500970,-9918.759623,-1406.391290,-1532.190996
2851.501307,-10658.965565,-1554.432478,-2757.943793
2851.501644,-9844.739029,-2590.720797,-2298.286494
2851.501982,-9030.512492,-2146.597232,153.219100
2851.502319,-9474.636058,-1184.329507,306.438199
2851.502656,-10362.883188,-370.102971,-1378.971896
2851.502993,-11399.171507,-1184.329507,-1991.848295
2851.503331,-11103.089130,-2368.659014,-306.438199
2851.503668,-9622.677246,-2072.576638,1532.190996
2851.504005,-9252.574275,-1184.329507,2528.115143
2851.504343,-10881.027347,-1036.288319,2374.896044
2851.504680,-10658.965565,-2368.659014,1685.410096
2851.505017,-10066.800811,-962.267725,2451.505594
2851.505354,-9548.656652,740.205942,3983.696590
2851.505692,-10362.883188,2368.659014,3064.381992
2851.506029,-10955.047942,2442.679609,919.314598
2851.506366,-11917.315666,1258.350101,-306.438199
2851.506703,-10584.944971,740.205942,229.828649
2851.507041,-9252.574275,666.185348,995.924147
2851.507378,-8660.409521,222.061783,995.924147
2851.507715,-9178.553681,0.000000,-995.924147
2851.508052,-9992.780217,-444.123565,-612.876398
2851.508390,-9178.553681,-666.185348,-689.485948
2851.508727,-8364.327145,518.144159,459.657299
2851.509064,-9548.656652,1110.308913,0.000000
2851.509401,-10584.944971,1036.288319,-1915.238745
2851.509739,-11621.233289,0.000000,-2374.896044
2851.510076,-10955.047942,-1036.288319,-1149.143247
2851.510413,-9326.594869,-1332.370696,536.266849
2851.510750,-8956.491898,-1332.370696,1455.581446
2851.511088,-8956.491898,-1776.494261,-153.219100
2851.511425,-9992.780217,-2590.720797,229.828649
2851.511762,-9918.759623,-2368.659014,1838.629195
2851.512099,-9252.574275,-370.102971,2834.553343
2851.512437,-10510.924376,1850.514855,2145.067394
2851.512774,-11843.295072,2072.576638,-536.266849
2851.513111,-12657.521608,888.247130,-1838.629195
2851.513448,-11103.089130,-1184.329507,-689.485948
2851.513786,-9252.574275,0.000000,383.047749
2851.514123,-9030.512492,-962.267725,995.924147
2851.514460,-10436.903782,-962.267725,-842.705048
2851.514797,-10658.965565,-1998.556043,-2145.067394
2851.515135,-10066.800811,-2220.617826,-612.876398
2851.515472,-8882.471304,-74.020594,229.828649
2851.515809,-9696.697840,222.061783,-612.876398
2851.516146,-10881.027347,0.000000,-1149.143247
2851.516484,-11029.068536,-814.226536,-1915.238745
2851.516821,-10881.027347,-1406.391290,76.609550
2851.517158,-9622.677246,-888.247130,1455.581446
2851.517496,-9178.553681,-296.082377,1915.238745
2851.517833,-9770.718434,-1036.288319,919.314598
2851.518170,-9770.718434,-1924.535449,919.314598
2851.518507,-9252.574275,-814.226536,2911.162892
2851.518845,-8660.409521,148.041188,4366.744339
2851.519182,-9770.718434,2516.700203,3600.648841
2851.519519,-10955.047942,3478.967927,689.485948
2851.519856,-12139.377449,2368.659014,76.609550
2851.520194,-11177.109724,814.226536,-229.828649
2851.520531,-8882.471304,1110.308913,1302.362347
2851.520868,-8956.491898,1554.432478,1915.238745
2851.521205,-9178.553681,370.102971,0.000000
2851.521543,-9844.739029,-666.185348,-1149.143247
2851.521880,-9918.759623,-814.226536,-383.047749
2851.522217,-9400.615463,296.082377,689.485948
2851.522554,-10288.862594,1850.514855,-306.438199
2851.522892,-10955.047942,592.164754,-2757.943793
2851.523229,-11029.068536,-1480.411884,-3064.381992
2851.523566,-9992.780217,-1776.494261,-1149.143247
2851.523903,-9252.574275,-1406.391290,536.266849
2851.524241,-9696.697840,-296.082377,0.000000
2851.524578,-9696.697840,-2516.700203,-919.314598
2851.524915,-10881.027347,-3034.844362,76.609550
2851.525252,-10140.821405,-2812.782580,1838.629195
2851.525590,-9474.636058,-592.164754,2911.162892
2851.525927,-10066.800811,444.123565,2374.896044
2851.526264,-11399.171507,666.185348,0.000000
2851.526601,-11843.295072,-222.061783,-689.485948
2851.526939,-10955.047942,-740.205942,0.000000
2851.527276,-8438.347739,-592.164754,612.876398
2851.527613,-8808.450710,-296.082377,766.095498
2851.527950,-9622.677246,0.000000,-306.438199
2851.528288,-9178.553681,-1406.391290,-1762.019645
2851.528625,-9992.780217,-370.102971,536.266849
2851.528962,-9474.636058,296.082377,842.705048
2851.529299,-10066.800811,1776.494261,0.000000
2851.529637,-11843.295072,2368.659014,-1608.800546
2851.529974,-11473.192101,-888.247130,-2145.067394
2851.530311,-10214.842000,-740.205942,-612.876398
2851.530649,-8808.450710,-814.226536,766.095498
2851.530986,-8882.471304,-370.102971,919.314598
2851.531323,-9474.636058,-888.247130,153.219100
2851.531661,-10066.800811,-2072.576638,689.485948
2851.531998,-9474.636058,-1554.432478,2451.505594
2851.532335,-8956.491898,518.144159,3524.039291
2851.532673,-10288.862594,2960.823768,3064.381992
2851.533010,-11843.295072,2516.700203,153.219100
2851.533347,-11843.295072,888.247130,-766.095498
2851.533685,-10807.006753,74.020594,383.047749
2851.534022,-8808.450710,0.000000,2145.067394
2851.534359,-8734.430116,-148.041188,1532.190996
2851.534696,-8956.491898,-962.267725,-76.609550
2851.535034,-9770.718434,-1184.329507,-459.657299
2851.535371,-9918.759623,-814.226536,0.000000
2851.535708,-9474.636058,74.020594,995.924147
2851.536046,-10807.006753,1480.411884,76.609550
2851.536383,-11547.212695,592.164754,-1532.190996
2851.536720,-11177.109724,-888.247130,-2528.115143
2851.537058,-10436.903782,-1850.514855,-1838.629195
2851.537395,-8660.409521,-2442.679609,153.219100
2851.537732,-8734.430116,-2442.679609,0.000000
2851.538070,-9770.718434,-2294.638420,-1072.533697
2851.538407,-10362.883188,-3034.844362,-459.657299
2851.538744,-10436.903782,-3034.844362,1455.581446
2851.539082,-9474.636058,-740.205942,2451.505594
2851.539419,-10362.883188,666.185348,2298.286494
2851.539756,-11843.295072,1702.473667,842.705048
2851.540094,-12139.377449,-592.164754,-612.876398
2851.540431,-10732.986159,-518.144159,612.876398
2851.540768,-8586.388927,-444.123565,2145.067394
2851.541106,-9030.512492,666.185348,1532.190996
2851.541443,-10066.800811,592.164754,229.828649
2851.541780,-10214.842000,0.000000,-766.095498
2851.542118,-9326.594869,592.164754,-459.657299
2851.542455,-9030.512492,1998.556043,766.095498
2851.542792,-9992.780217,2738.761985,766.095498
2851.543130,-10584.944971,2442.679609,-1838.629195
2851.543467,-10732.986159,370.102971,-2604.724693
2851.543804,-10140.821405,814.226536,-1378.971896
2851.544142,-8142.265362,-222.061783,0.000000
2851.544479,-8068.244768,0.000000,306.438199
2851.544816,-9326.594869,-1184.329507,-689.485948
2851.545154,-10066.800811,-1628.453072,0.000000
2851.545491,-9992.780217,-592.164754,1762.019645
2851.545828,-9474.636058,370.102971,1915.238745
2851.546166,-10362.883188,1406.391290,1762.019645
2851.546503,-11325.150913,666.185348,0.000000
2851.546840,-11547.212695,-592.164754,-459.657299
2851.547178,-10510.924376,-962.267725,1072.533697
2851.547515,-9104.533087,-592.164754,2374.896044
2851.547852,-8956.491898,-518.144159,1608.800546
2851.548190,-10288.862594,-296.082377,383.047749
2851.548527,-10807.006753,-1184.329507,612.876398
2851.548864,-10066.800811,-1184.329507,919.314598
2851.549202,-9770.718434,962.267725,1378.971896
2851.549539,-10214.842000,1406.391290,306.438199
2851.549876,-11769.274478,666.185348,-1762.019645
2851.550214,-11547.212695,-1184.329507,-2451.505594
2851.550551,-10436.903782,-2146.597232,-995.924147
2851.550888,-8512.368333,-1258.350101,383.047749
2851.551226,-8808.450710,-1924.535449,-229.828649
2851.551563,-9548.656652,-2072.576638,-536.266849
2851.551900,-9844.739029,-3182.885551,0.000000
2851.552238,-9992.780217,-1332.370696,1685.410096
2851.552575,-9474.636058,74.020594,2528.115143
2851.552912,-10288.862594,1184.329507,1225.752797
2851.553250,-11325.150913,592.164754,-229.828649
2851.553587,-11695.253884,-1036.288319,0.000000
2851.553924,-9770.718434,-666.185348,1072.533697
2851.554262,-8142.265362,-1110.308913,2145.067394
2851.554599,-8956.491898,0.000000,2604.724693
2851.554936,-9474.636058,74.020594,689.485948
2851.555274,-10436.903782,148.041188,229.828649
2851.555611,-10066.800811,888.247130,1149.143247
2851.555948,-9178.553681,2146.597232,1149.143247
2851.556285,-10288.862594,3478.967927,383.047749
2851.556623,-11843.295072,2664.741391,-1762.019645
2851.556960,-11029.068536,888.247130,-2374.896044
2851.557297,-10436.903782,-888.247130,-1302.362347
2851.557635,-8586.388927,-1332.370696,-306.438199
2851.557972,-8438.347739,-592.164754,-689.485948
2851.558309,-9326.594869,-1924.535449,-1608.800546
2851.558647,-9844.739029,-3330.926739,-1072.533697
2851.558984,-9474.636058,-2368.659014,612.876398
2851.559321,-9622.677246,-74.020594,2068.457845
2851.559659,-10436.903782,1110.308913,229.828649
2851.559996,-11769.274478,0.000000,-1532.190996
2851.560333,-12287.418637,-1850.514855,-842.705048
2851.560671,-10288.862594,-3108.864956,919.314598
2851.561008,-7846.182985,-2146.597232,2528.115143
2851.561345,-9104.533087,-1332.370696,2451.505594
2851.561683,-10436.903782,-1554.432478,1225.752797
2851.562020,-10955.047942,-1554.432478,842.705048
2851.562357,-10807.006753,74.020594,1915.238745
2851.562695,-10436.903782,1258.350101,2145.067394
2851.563032,-10955.047942,2516.700203,536.266849
2851.563369,-11177.109724,1776.494261,-1378.971896
2851.563707,-11399.171507,518.144159,-1762.019645
2851.564044,-9474.636058,-740.205942,0.000000
2851.564381,-8734.430116,-592.164754,1225.752797
2851.564719,-9400.615463,-222.061783,459.657299
2851.565056,-9474.636058,0.000000,-689.485948
2851.565393,-10510.924376,-1628.453072,-536.266849
2851.565731,-9178.553681,-370.102971,919.314598
2851.566068,-8808.450710,814.226536,1991.848295
2851.566405,-10362.883188,2294.638420,1225.752797
2851.566743,-11029.068536,1480.411884,-1302.362347
2851.567080,-11621.233289,222.061783,-995.924147
2851.567417,-9548.656652,-1110.308913,153.219100
2851.567755,-7476.080014,-1184.329507,2298.286494
2851.568092,-8216.285956,518.144159,2681.334243
2851.568429,-9474.636058,-592.164754,1072.533697
2851.568767,-10362.883188,0.000000,1072.533697
2851.569104,-10214.842000,888.247130,1378.971896
2851.569441,-10362.883188,2368.659014,1838.629195
2851.569779,-11547.212695,3330.926739,0.000000
2851.570116,-11843.295072,1406.391290,-2451.505594
2851.570453,-11103.089130,296.082377,-2298.286494
2851.570791,-8734.430116,-1554.432478,-995.924147
2851.571128,-7994.224174,-518.144159,153.219100
2851.571465,-9030.512492,-1258.350101,0.000000
2851.571803,-10658.965565,-1406.391290,-1302.362347
2851.572140,-10658.965565,-1850.514855,-1838.629195
2851.572477,-10658.965565,-1258.350101,229.828649
2851.572815,-9474.636058,-518.144159,1225.752797
2851.573152,-10288.862594,148.041188,-153.219100
2851.573489,-11251.130318,-1110.308913,-919.314598
2851.573827,-11325.150913,-1924.535449,-1915.238745
2851.574164,-10362.883188,-3404.947333,612.876398
2851.574501,-8142.265362,-2368.659014,1455.581446
2851.574839,-8586.388927,-2220.617826,1838.629195
2851.575176,-9992.780217,-1406.391290,2068.457845
2851.575513,-10510.924376,-1332.370696,919.314598
2851.575851,-10288.862594,148.041188,1915.238745
2851.576188,-9992.780217,1850.514855,2681.334243
2851.576525,-10807.006753,2738.761985,1072.533697
2851.576863,-11843.295072,2294.638420,-383.047749
2851.577200,-11769.274478,148.041188,-459.657299
2851.577537,-9622.677246,740.205942,0.000000
2851.577874,-8216.285956,-370.102971,689.485948
2851.578212,-8660.409521,296.082377,919.314598
2851.578549,-9252.574275,-962.267725,-919.314598
2851.578886,-10140.821405,-888.247130,0.000000
2851.579224,-9178.553681,370.102971,383.047749
2851.579561,-9474.636058,1480.411884,766.095498
2851.579898,-10658.965565,2886.803174,0.000000
2851.580236,-11621.233289,592.164754,-1455.581446
2851.580573,-11473.192101,-222.061783,-1455.581446
2851.580910,-9474.636058,-1850.514855,0.000000
2851.581248,-8290.306550,-1702.473667,842.705048
2851.581585,-8660.409521,-1998.556043,995.924147
2851.581922,-10066.800811,-2368.659014,1072.533697
2851.582260,-10288.862594,-1702.473667,919.314598
2851.582597,-10362.883188,0.000000,1838.629195
2851.582934,-10732.986159,1850.514855,1838.629195
2851.583272,-11769.274478,1702.473667,306.438199
2851.583609,-11917.315666,592.164754,-1225.752797
2851.583946,-11029.068536,-370.102971,-1225.752797
2851.584284,-10066.800811,-1628.453072,76.609550
2851.584621,-8216.285956,-1554.432478,689.485948
2851.584958,-8290.306550,-1110.308913,-76.609550
2851.585296,-10214.842000,-1924.535449,-306.438199
2851.585633,-10436.903782,-2146.597232,-995.924147
2851.585970,-10066.800811,-1184.329507,306.438199
2851.586308,-9918.759623,888.247130,153.219100
2851.586645,-10510.924376,1036.288319,-766.095498
2851.586982,-11399.171507,0.000000,-1378.971896
2851.587320,-11029.068536,-1924.535449,-1072.533697
2851.587657,-9474.636058,-2072.576638,612.876398
2851.587994,-8882.471304,-1480.411884,2145.067394
2851.588332,-8956.491898,-888.247130,1302.362347
2851.588669,-9548.656652,-1702.473667,995.924147
2851.589006,-10510.924376,-2146.597232,2068.457845
2851.589344,-9548.656652,814.226536,2451.505594
2851.589681,-9622.677246,2294.638420,2451.505594
2851.590018,-11399.171507,3404.947333,1072.533697
2851.590356,-11621.233289,2590.720797,-1302.362347
2851.590693,-11843.295072,592.164754,-383.047749
2851.591030,-9400.615463,592.164754,612.876398
2851.591368,-7920.203579,0.000000,1455.581446
2851.591705,-8438.347739,814.226536,536.266849
2851.592042,-9326.594869,-518.144159,-536.266849
2851.592380,-10732.986159,-222.061783,-229.828649
2851.592717,-10140.821405,444.123565,612.876398
2851.593054,-10066.800811,2072.576638,0.000000
2851.593392,-10288.862594,1776.494261,-1455.581446
2851.593729,-11325.150913,444.123565,-3064.381992
2851.594066,-10214.842000,-2664.741391,-1915.238745
2851.594404,-9030.512492,-2664.741391,-459.657299
2851.594741,-7846.182985,-2442.679609,842.705048
2851.595078,-9474.636058,-1702.473667,1072.533697
2851.595416,-10436.903782,-2146.597232,-306.438199
2851.595753,-11029.068536,-2368.659014,76.609550
2851.596090,-10288.862594,-1184.329507,2374.896044
2851.596428,-9918.759623,518.144159,2221.676944
2851.596765,-11103.089130,1258.350101,612.876398
2851.597102,-12139.377449,370.102971,-1225.752797
2851.597440,-11473.192101,-1036.288319,-919.314598
2851.597777,-9844.739029,-1924.535449,612.876398
2851.598114,-8586.388927,-666.185348,1685.410096
2851.598452,-9252.574275,-370.102971,229.828649
2851.598789,-9696.697840,-962.267725,-383.047749
2851.599126,-9918.759623,-1110.308913,-383.047749
2851.599463,-9918.759623,666.185348,1072.533697
2851.599801,-9918.759623,1850.514855,1378.971896
2851.600138,-10732.986159,1924.535449,-766.095498
2851.600475,-11029.068536,888.247130,-2528.115143
2851.600813,-10955.047942,-1258.350101,-1838.629195
2851.601150,-8808.450710,-2072.576638,229.828649
2851.601487,-7698.141797,-2220.617826,1455.581446
2851.601825,-8512.368333,-1480.411884,1072.533697
2851.602162,-9178.553681,-1628.453072,306.438199
2851.602499,-10066.800811,-1628.453072,1072.533697
2851.602837,-9770.718434,148.041188,2911.162892
2851.603174,-9696.697840,1110.308913,2298.286494
2851.603511,-11325.150913,2664.741391,919.314598
2851.603849,-11843.295072,1480.411884,-306.438199
2851.604186,-11547.212695,148.041188,-229.828649
2851.604523,-9104.533087,-814.226536,689.485948
2851.604861,-9178.553681,-222.061783,2145.067394
2851.605198,-8882.471304,-444.123565,995.924147
2851.605535,-10214.842000,-1184.329507,0.000000
2851.605873,-10584.944971,-1332.370696,306.438199
2851.606210,-9844.739029,-148.041188,842.705048
2851.606547,-9548.656652,1406.391290,766.095498
2851.606885,-11177.109724,1406.391290,-1302.362347
2851.607222,-11769.274478,296.082377,-2834.553343
2851.607559,-11251.130318,-1924.535449,-2834.553343
2851.607897,-9474.636058,-2812.782580,-1225.752797
2851.608234,-7994.224174,-2738.761985,383.047749
2851.608571,-9030.512492,-2516.700203,459.657299
2851.608909,-10288.862594,-2886.803174,-842.705048
2851.609246,-10584.944971,-2590.720797,-689.485948
2851.609583,-10066.800811,-1406.391290,1149.143247
2851.609921,-10066.800811,-444.123565,1915.238745
2851.610258,-10881.027347,1110.308913,612.876398
2851.610595,-11029.068536,518.144159,-306.438199
2851.610933,-11325.150913,-1110.308913,0.000000
2851.611270,-9252.574275,-592.164754,995.924147
2851.611607,-8882.471304,222.061783,2604.724693
2851.611945,-9326.594869,666.185348,1225.752797
2851.612282,-9844.739029,74.020594,-229.828649
2851.612619,-11103.089130,518.144159,383.047749
2851.612957,-9474.636058,1332.370696,612.876398
2851.613294,-8882.471304,2368.659014,383.047749
2851.613631,-10584.944971,3256.906145,-612.876398
2851.613969,-11251.130318,1924.535449,-2145.067394
2851.614306,-11251.130318,-222.061783,-2374.896044
2851.614643,-9178.553681,-814.226536,-536.266849
2851.614981,-7772.162391,-814.226536,766.095498
2851.615318,-8882.471304,-666.185348,766.095498
2851.615655,-10140.821405,-1628.453072,0.000000
2851.615993,-9844.739029,-1110.308913,383.047749
2851.616330,-9770.718434,-74.020594,1762.019645
2851.616667,-9992.780217,888.247130,2145.067394
2851.617005,-11251.130318,1554.432478,0.000000
2851.617342,-11769.274478,-74.020594,-919.314598
2851.617679,-10807.006753,-1406.391290,0.000000
2851.618017,-9474.636058,-1258.350101,1225.752797
2851.618354,-8512.368333,-666.185348,2374.896044
2851.618691,-9474.636058,-1036.288319,1762.019645
2851.619029,-10510.924376,-1110.308913,306.438199
2851.619366,-10658.965565,-962.267725,766.095498
2851.619703,-10658.965565,444.123565,1302.362347
2851.620041,-9918.759623,1184.329507,919.314598
2851.620378,-10807.006753,1924.535449,-766.095498
2851.620715,-11473.192101,0.000000,-1608.800546
2851.621052,-11251.130318,-1628.453072,-2068.457845
2851.621390,-9622.677246,-2072.576638,-459.657299
2851.621727,-8438.347739,-1850.514855,459.657299
2851.622064,-8808.450710,-1850.514855,-459.657299
2851.622402,-9770.718434,-2442.679609,-459.657299
2851.622739,-10436.903782,-2442.679609,919.314598
2851.623076,-9474.636058,-1036.288319,1915.238745
2851.623414,-9622.677246,666.185348,1838.629195
2851.623751,-11177.109724,1332.370696,536.266849
2851.624088,-11399.171507,0.000000,-536.266849
2851.624426,-11177.109724,-1036.288319,842.705048
2851.624763,-9400.615463,0.000000,1762.019645
2851.625100,-8808.450710,74.020594,2987.772442
2851.625438,-9548.656652,518.144159,2374.896044
2851.625775,-9844.739029,-592.164754,383.047749
2851.626112,-9844.739029,0.000000,1685.410096
2851.626450,-9548.656652,1702.473667,1991.848295
2851.626787,-9178.553681,2886.803174,1302.362347
2851.627124,-10807.006753,3552.988522,-1072.533697
2851.627462,-11621.233289,1628.453072,-2068.457845
2851.627799,-11177.109724,296.082377,-2604.724693
2851.628136,-9548.656652,-666.185348,-689.485948
2851.628474,-7920.203579,-1036.288319,76.609550
2851.628811,-8734.430116,-1406.391290,-612.876398
2851.629148,-9696.697840,-2516.700203,-1302.362347
2851.629486,-10066.800811,-2886.803174,0.000000
2851.629823,-9622.677246,-1480.411884,1378.971896
2851.630160,-10140.821405,-148.041188,1149.143247
2851.630498,-11621.233289,592.164754,-383.047749
2851.630835,-11843.295072,-74.020594,-1915.238745
2851.631172,-11769.274478,-2146.597232,-995.924147
2851.631510,-9622.677246,-2294.638420,612.876398
2851.631847,-8512.368333,-1554.432478,2068.457845
2851.632184,-9548.656652,-1036.288319,919.314598
2851.632522,-10584.944971,-1924.535449,0.000000
2851.632859,-10214.842000,-2368.659014,689.485948
2851.633196,-9918.759623,-222.061783,2298.286494
2851.633533,-9992.780217,1036.288319,2374.896044
2851.633871,-10807.006753,2072.576638,-306.438199
2851.634208,-11473.192101,296.082377,-1838.629195
2851.634545,-11103.089130,-296.082377,-766.095498
2851.634883,-8808.450710,-740.205942,-153.219100
2851.635220,-8586.388927,-592.164754,1149.143247
2851.635557,-9104.533087,-962.267725,-383.047749
2851.635894,-9474.636058,-1110.308913,-1378.971896
2851.636232,-9844.739029,-1924.535449,0.000000
2851.636569,-9030.512492,-148.041188,1302.362347
2851.636906,-9400.615463,740.205942,1608.800546
2851.637244,-11029.068536,1628.453072,612.876398
2851.637581,-11843.295072,1258.350101,-689.485948
2851.637918,-11251.130318,-74.020594,-153.219100
2851.638255,-9696.697840,-74.020594,1838.629195
2851.638593,-8364.327145,0.000000,2528.115143
2851.638930,-9326.594869,370.102971,2374.896044
2851.639267,-10140.821405,-148.041188,1302.362347
2851.639605,-10214.842000,-370.102971,1149.143247
2851.639942,-9918.759623,592.164754,2604.724693
2851.640279,-10066.800811,2590.720797,2451.505594
2851.640616,-10881.027347,2960.823768,-306.438199
2851.640954,-11843.295072,1184.329507,-1838.629195
2851.641291,-10658.965565,-296.082377,-1225.752797
2851.641628,-8808.450710,-1184.329507,0.000000
2851.641966,-7698.141797,-666.185348,842.705048
2851.642303,-9030.512492,-1110.308913,0.000000
2851.642640,-10658.965565,-1850.514855,-1149.143247
2851.642977,-10732.986159,-1998.556043,-766.095498
2851.643315,-9548.656652,-1406.391290,229.828649
2851.643652,-9992.780217,-518.144159,612.876398
2851.643989,-10510.924376,0.000000,-919.314598
2851.644327,-11843.295072,-1702.473667,-1838.629195
2851.644664,-10881.027347,-2368.659014,-1302.362347
2851.645001,-8882.471304,-1850.514855,0.000000
2851.645338,-9252.574275,-1776.494261,1532.190996
2851.645676,-9548.656652,-1406.391290,612.876398
2851.646013,-10658.965565,-1850.514855,612.876398
2851.646350,-11029.068536,-1184.329507,1762.019645
2851.646688,-9326.594869,74.020594,2374.896044
2851.647025,-10214.842000,2146.597232,2604.724693
2851.647362,-11399.171507,2442.679609,459.657299
2851.647699,-11621.233289,1776.494261,-1225.752797
2851.648037,-11843.295072,1184.329507,-919.314598
2851.648374,-9548.656652,740.205942,0.000000
2851.648711,-8068.244768,888.247130,0.000000
2851.649049,-8660.409521,0.000000,-536.266849
2851.649386,-9548.656652,-740.205942,-1302.362347
2851.649723,-9770.718434,-962.267725,306.438199
2851.650060,-8660.409521,0.000000,1532.190996
2851.650398,-9104.533087,1036.288319,1455.581446
2851.650735,-10658.965565,814.226536,76.609550
2851.651072,-11325.150913,666.185348,-229.828649
2851.651410,-10881.027347,-1776.494261,76.609550
2851.651747,-9326.594869,-666.185348,1532.190996
2851.652084,-8364.327145,-666.185348,1915.238745
2851.652421,-9770.718434,-1406.391290,1072.533697
2851.652759,-10140.821405,-2516.700203,689.485948
2851.653096,-9918.759623,-2220.617826,1532.190996
2851.653433,-9400.615463,-222.061783,2834.553343
2851.653771,-10140.821405,1924.535449,2145.067394
2851.654108,-11621.233289,962.267725,689.485948
2851.654445,-12213.398043,962.267725,-919.314598
2851.654782,-11547.212695,-518.144159,-689.485948
2851.655120,-10436.903782,-592.164754,612.876398
2851.655457,-8882.471304,-222.061783,0.000000
2851.655794,-9474.636058,-888.247130,-995.924147
2851.656132,-10066.800811,-2072.576638,-1685.410096
2851.656469,-10214.842000,-2146.597232,-995.924147
2851.656806,-9548.656652,-962.267725,-306.438199
2851.657143,-9696.697840,-222.061783,-153.219100
2851.657481,-10140.821405,370.102971,-2221.676944
2851.657818,-10955.047942,-1258.350101,-2451.505594
2851.658155,-10732.986159,-1480.411884,-612.876398
2851.658493,-8882.471304,-1998.556043,383.047749
2851.658830,-9178.553681,-666.185348,1378.971896
2851.659167,-9548.656652,-814.226536,229.828649
2851.659504,-10658.965565,-1776.494261,153.219100
2851.659842,-10658.965565,-1258.350101,1532.190996
2851.660179,-8956.491898,-518.144159,2528.115143
2851.660516,-9252.574275,2516.700203,2528.115143
2851.660854,-10807.006753,2664.741391,536.266849
2851.661191,-11695.253884,1776.494261,-1225.752797
2851.661528,-11029.068536,1036.288319,-766.095498
2851.661865,-9696.697840,2072.576638,842.705048
2851.662203,-8734.430116,1628.453072,536.266849
2851.662540,-9474.636058,962.267725,-229.828649
2851.662877,-9844.739029,-222.061783,-612.876398
2851.663215,-10140.821405,-962.267725,76.609550
2851.663552,-9474.636058,296.082377,1455.581446
2851.663889,-9326.594869,1702.473667,459.657299
2851.664226,-10955.047942,666.185348,-1378.971896
2851.664564,-11029.068536,-1110.308913,-2145.067394
2851.664901,-10362.883188,-1332.370696,-842.705048
2851.665238,-9104.533087,-1702.473667,1225.752797
2851.665576,-8956.491898,-1406.391290,1225.752797
2851.665913,-9918.759623,-1406.391290,459.657299
2851.666250,-10732.986159,-1850.514855,-306.438199
2851.666587,-10584.944971,-2960.823768,1608.800546
2851.666925,-9770.718434,-1258.350101,3064.381992
2851.667262,-9696.697840,222.061783,2987.772442
2851.667599,-11103.089130,1036.288319,1225.752797
2851.667937,-12287.418637,0.000000,-153.219100
2851.668274,-11177.109724,-1110.308913,-306.438199
2851.668611,-9770.718434,-296.082377,1378.971896
2851.668948,-9178.553681,0.000000,1608.800546
2851.669286,-9696.697840,222.061783,-383.047749
2851.669623,-10584.944971,-1184.329507,-1072.533697
2851.669960,-9770.718434,-1036.288319,0.000000
2851.670298,-8808.450710,0.000000,1149.143247
2851.670635,-9548.656652,1850.514855,842.705048
2851.670972,-10955.047942,1184.329507,-1302.362347
2851.671309,-11029.068536,74.020594,-2374.896044
2851.671647,-10510.924376,-666.185348,-1915.238745
2851.671984,-9104.533087,-1258.350101,76.609550
2851.672321,-8882.471304,-296.082377,306.438199
2851.672659,-9474.636058,-962.267725,-306.438199
2851.672996,-9918.759623,-1332.370696,-459.657299
2851.673333,-9474.636058,-2072.576638,766.095498
2851.673670,-9474.636058,222.061783,2757.943793
2851.674008,-9474.636058,1406.391290,2757.943793
2851.674345,-10807.006753,2368.659014,0.000000
2851.674682,-11473.192101,1554.432478,0.000000
2851.675020,-11473.192101,1184.329507,153.219100
2851.675357,-9696.697840,296.082377,842.705048
2851.675694,-9474.636058,1036.288319,459.657299
2851.676031,-9474.636058,0.000000,-229.828649
2851.676369,-10436.903782,-814.226536,-842.705048
2851.676706,-9548.656652,-1554.432478,-383.047749
2851.677043,-8586.388927,-148.041188,689.485948
2851.677381,-9326.594869,444.123565,536.266849
2851.677718,-11103.089130,518.144159,-919.314598
2851.678055,-11843.295072,74.020594,-2298.286494
2851.678392,-11177.109724,-1258.350101,-1685.410096
2851.678730,-9548.656652,-1480.411884,76.609550
2851.679067,-9326.594869,-1332.370696,153.219100
2851.679404,-9844.739029,-1702.473667,0.000000
2851.679742,-10140.821405,-3701.029710,-766.095498
2851.680079,-9992.780217,-3330.926739,229.828649
2851.680416,-8956.491898,-1850.514855,1762.019645
2851.680753,-9992.780217,-296.082377,2451.505594
2851.681091,-11103.089130,518.144159,1149.143247
2851.681428,-11843.295072,0.000000,76.609550
2851.681765,-11547.212695,148.041188,1149.143247
2851.682103,-9548.656652,-370.102971,2068.457845
2851.682440,-9474.636058,444.123565,3524.039291
2851.682777,-10140.821405,0.000000,1302.362347
2851.683114,-10066.800811,-296.082377,153.219100
2851.683452,-10140.821405,74.020594,689.485948
2851.683789,-9252.574275,740.205942,1455.581446
2851.684126,-9252.574275,2072.576638,1225.752797
2851.684464,-10066.800811,1850.514855,-689.485948
2851.684801,-11029.068536,1110.308913,-1149.143247
2851.685138,-10510.924376,0.000000,-1072.533697
2851.685475,-9252.574275,0.000000,306.438199
2851.685813,-8586.388927,0.000000,766.095498
2851.686150,-8882.471304,-444.123565,-842.705048
2851.686487,-10066.800811,-1258.350101,0.000000
2851.686825,-9918.759623,-1628.453072,383.047749
2851.687162,-8882.471304,-148.041188,1762.019645
2851.687499,-9474.636058,888.247130,612.876398
2851.687836,-11177.109724,1332.370696,-919.314598
2851.688174,-11769.274478,0.000000,-1378.971896
2851.688511,-10732.986159,-1332.370696,-612.876398
2851.688848,-9030.512492,-962.267725,842.705048
2851.689186,-8660.409521,0.000000,1225.752797
2851.689523,-9992.780217,-740.205942,459.657299
2851.689860,-10732.986159,-1554.432478,-383.047749
2851.690197,-10584.944971,-1332.370696,229.828649
2851.690535,-9548.656652,444.123565,1072.533697
2851.690872,-10066.800811,296.082377,536.266849
2851.691209,-10288.862594,888.247130,-1225.752797
2851.691547,-11325.150913,-592.164754,-1608.800546
2851.691884,-10955.047942,-1406.391290,-1378.971896
2851.692221,-9252.574275,-740.205942,-1149.143247
2851.692558,-9622.677246,-666.185348,-612.876398
2851.692896,-10066.800811,-1924.535449,-1149.143247
2851.693233,-10436.903782,-3182.885551,-842.705048
2851.693570,-10288.862594,-2886.803174,1378.971896
2851.693908,-9030.512492,-888.247130,2451.505594
2851.694245,-9918.759623,370.102971,2145.067394
2851.694582,-11103.089130,740.205942,842.705048
2851.694919,-12065.356855,74.020594,-153.219100
2851.695257,-11473.192101,0.000000,995.924147
2851.695594,-9696.697840,-296.082377,2068.457845
2851.695931,-8512.368333,814.226536,2068.457845
2851.696269,-9474.636058,666.185348,536.266849
2851.696606,-9992.780217,296.082377,842.705048
2851.696943,-9474.636058,296.082377,1762.019645
2851.697280,-9178.553681,2072.576638,2374.896044
2851.697618,-9622.677246,3330.926739,1532.190996
2851.697955,-10732.986159,2368.659014,-919.314598
2851.698292,-11029.068536,740.205942,-919.314598
2851.698630,-10362.883188,-74.020594,0.000000
2851.698967,-8734.430116,222.061783,689.485948
2851.699304,-8660.409521,0.000000,229.828649
2851.699641,-9622.677246,-1110.308913,-1532.190996
2851.699979,-9622.677246,-2516.700203,-1685.410096
2851.700316,-9252.574275,-2146.597232,-383.047749
2851.700653,-8882.471304,-740.205942,1915.238745
2851.700991,-9918.759623,0.000000,995.924147
2851.701328,-11177.109724,592.164754,-766.095498
2851.701665,-11843.295072,-1406.391290,-2068.457845
2851.702002,-11325.150913,-2072.576638,-306.438199
2851.702340,-9696.697840,-1554.432478,383.047749
2851.702677,-9548.656652,-1184.329507,1608.800546
2851.703014,-9474.636058,-1184.329507,-229.828649
2851.703352,-10214.842000,-2220.617826,-612.876398
2851.703689,-10658.965565,-1184.329507,766.095498
2851.704026,-9474.636058,-444.123565,1225.752797
2851.704364,-10732.986159,1924.535449,766.095498
2851.704701,-11251.130318,1776.494261,-1608.800546
2851.705038,-11621.233289,-296.082377,-1991.848295
2851.705375,-10732.986159,-962.267725,-383.047749
2851.705713,-8512.368333,-962.267725,-229.828649
2851.706050,-8586.388927,0.000000,536.266849
2851.706387,-9844.739029,-518.144159,-689.485948
2851.706725,-9992.780217,-2368.659014,-1302.362347
2851.707062,-9252.574275,-1258.350101,842.705048
2851.707399,-8364.327145,-592.164754,2145.067394
2851.707736,-9104.533087,1406.391290,1685.410096
2851.708074,-11399.171507,1184.329507,0.000000
2851.708411,-11843.295072,222.061783,-229.828649
2851.708748,-11029.068536,-148.041188,842.705048
2851.709086,-9326.594869,148.041188,2374.896044
2851.709423,-8808.450710,370.102971,2987.772442
2851.709760,-9474.636058,148.041188,2298.286494
2851.710097,-10214.842000,0.000000,1608.800546
2851.710435,-9770.718434,222.061783,1685.410096
2851.710772,-9474.636058,2220.617826,2451.505594
2851.711109,-10436.903782,2738.761985,919.314598
2851.711447,-11547.212695,2220.617826,-612.876398
2851.711784,-11473.192101,1184.329507,-995.924147
2851.712121,-9622.677246,-444.123565,-919.314598
2851.712458,-8142.265362,-370.102971,919.314598
2851.712796,-8586.388927,-1036.288319,0.000000
2851.713133,-9992.780217,-296.082377,-689.485948
2851.713470,-10510.924376,-2294.638420,-1302.362347
2851.713808,-9622.677246,-1776.494261,-612.876398
2851.714145,-9252.574275,-1332.370696,1149.143247
2851.714482,-10362.883188,0.000000,383.047749
2851.714819,-10658.965565,0.000000,-1915.238745
2851.715157,-11917.315666,-1924.535449,-1915.238745
2851.715494,-10732.986159,-2812.782580,-689.485948
2851.715831,-8808.450710,-2368.659014,0.000000
2851.716169,-9400.615463,-2294.638420,1225.752797
2851.716506,-9918.759623,-1702.473667,0.000000
2851.716843,-9992.780217,-2368.659014,306.438199
2851.717180,-9844.739029,-740.205942,1838.629195
2851.717518,-9474.636058,962.267725,2374.896044
2851.717855,-10881.027347,2146.597232,1455.581446
2851.718192,-11843.295072,2072.576638,-76.609550
2851.718530,-11843.295072,296.082377,-919.314598
2851.718867,-10510.924376,592.164754,383.047749
2851.719204,-9178.553681,222.061783,1225.752797
2851.719541,-7550.100608,148.041188,0.000000
2851.719879,-9252.574275,-444.123565,-383.047749
2851.720216,-9770.718434,-888.247130,76.609550
2851.720553,-9400.615463,-296.082377,229.828649
2851.720891,-9252.574275,0.000000,1378.971896
2851.721228,-9474.636058,1776.494261,459.657299
2851.721565,-10658.965565,1110.308913,-1149.143247
2851.721902,-11621.233289,444.123565,-1072.533697
2851.722240,-10436.903782,-1110.308913,-842.705048
2851.722577,-9030.512492,-1110.308913,1302.362347
2851.722914,-8808.450710,-1258.350101,1149.143247
2851.723252,-9770.718434,-1628.453072,612.876398
2851.723589,-10214.842000,-2146.597232,1149.143247
2851.723926,-9474.636058,-888.247130,1455.581446
2851.724263,-9474.636058,444.123565,2298.286494
2851.724601,-10436.903782,1702.473667,536.266849
2851.724938,-11177.109724,1406.391290,-612.876398
2851.725275,-12435.459826,-592.164754,-383.047749
2851.725613,-10658.965565,-666.185348,229.828649
2851.725950,-9030.512492,0.000000,1225.752797
2851.726287,-9474.636058,0.000000,536.266849
2851.726624,-9252.574275,-1776.494261,-1072.533697
2851.726962,-10658.965565,-2516.700203,-459.657299
2851.727299,-9918.759623,-1924.535449,536.266849
2851.727636,-9030.512492,222.061783,153.219100
2851.727974,-10881.027347,592.164754,-536.266849
2851.728311,-11325.150913,-74.020594,-2528.115143
2851.728648,-11473.192101,-1776.494261,-2145.067394
2851.728985,-10140.821405,-2220.617826,-612.876398
2851.729323,-8660.409521,-2368.659014,919.314598
2851.729660,-8734.430116,-1554.432478,1149.143247
2851.729997,-9474.636058,-2146.597232,76.609550
2851.730335,-10214.842000,-1924.535449,1225.752797
2851.730672,-10066.800811,-814.226536,2374.896044
2851.731009,-9326.594869,1480.411884,2604.724693
2851.731346,-10066.800811,2590.720797,1455.581446
2851.731684,-10881.027347,2738.761985,-153.219100
2851.732021,-11399.171507,1332.370696,-383.047749
2851.732358,-10288.862594,666.185348,766.095498
2851.732696,-8290.306550,1184.329507,1838.629195
2851.733033,-8438.347739,1850.514855,1225.752797
2851.733371,-9400.615463,296.082377,0.000000
2851.733708,-9548.656652,148.041188,0.000000
2851.734045,-9992.780217,-592.164754,1455.581446
2851.734383,-9326.594869,2146.597232,1302.362347
2851.734720,-10510.924376,2294.638420,-689.485948
2851.735057,-12287.418637,1332.370696,-1838.629195
2851.735395,-11177.109724,-1184.329507,-2528.115143
2851.735732,-9326.594869,-2072.576638,-1532.190996
2851.736069,-8364.327145,-2294.638420,229.828649
2851.736406,-8956.491898,-2072.576638,153.219100
2851.736744,-9622.677246,-1998.556043,-612.876398
2851.737081,-10881.027347,-2516.700203,-459.657299
2851.737418,-10436.903782,-1258.350101,919.314598
2851.737756,-10584.944971,148.041188,1838.629195
2851.738093,-11103.089130,962.267725,919.314598
2851.738430,-11251.130318,592.164754,0.000000
2851.738768,-11843.295072,-1036.288319,0.000000
2851.739105,-10362.883188,-1184.329507,1072.533697
2851.739442,-9030.512492,-1184.329507,1378.971896
2851.739780,-9400.615463,-222.061783,1149.143247
2851.740117,-9992.780217,-1332.370696,-766.095498
2851.740454,-10288.862594,-1258.350101,-383.047749
2851.740792,-9548.656652,-740.205942,766.095498
2851.741129,-9104.533087,592.164754,1225.752797
2851.741466,-10362.883188,2072.576638,229.828649
2851.741804,-11917.315666,1184.329507,-1378.971896
2851.742141,-11695.253884,-962.267725,-2757.943793
2851.742478,-9622.677246,-1998.556043,-536.266849
2851.742816,-8512.368333,-1628.453072,1149.143247
2851.743153,-8660.409521,-1406.391290,1149.143247
2851.743490,-9474.636058,-2072.576638,0.000000
2851.743827,-9992.780217,-1258.350101,383.047749
2851.744165,-9844.739029,-962.267725,1991.848295
2851.744502,-9474.636058,814.226536,2451.505594
2851.744839,-10288.862594,3108.864956,1762.019645
2851.745177,-11843.295072,1554.432478,459.657299
2851.745514,-11399.171507,592.164754,0.000000
2851.745851,-9844.739029,-296.082377,1149.143247
2851.746189,-8808.450710,814.226536,2374.896044
2851.746526,-8808.450710,0.000000,1225.752797
2851.746863,-9622.677246,-666.185348,0.000000
2851.747201,-9918.759623,-740.205942,76.609550
2851.747538,-9548.656652,0.000000,919.314598
2851.747875,-9474.636058,814.226536,1225.752797
2851.748213,-10140.821405,1628.453072,-689.485948
2851.748550,-11325.150913,1184.329507,-2528.115143
2851.748887,-12139.377449,-1110.308913,-3677.258390
2851.749225,-10214.842000,-1332.370696,-2681.334243
2851.749562,-8660.409521,-2812.782580,-919.314598
2851.749899,-8882.471304,-2442.679609,-229.828649
2851.750236,-9548.656652,-2442.679609,-1149.143247
2851.750574,-10658.965565,-2590.720797,-536.266849
2851.750911,-10362.883188,-2368.659014,766.095498
2851.751248,-9696.697840,-296.082377,1455.581446
2851.751586,-11325.150913,1184.329507,1149.143247
2851.751923,-12361.439231,0.000000,459.657299
2851.752260,-11769.274478,-1258.350101,76.609550
2851.752598,-10140.821405,-962.267725,1608.800546
2851.752935,-8956.491898,-370.102971,3217.601092
2851.753272,-8808.450710,-444.123565,2681.334243
2851.753610,-9844.739029,-666.185348,1838.629195
2851.753947,-10140.821405,-1184.329507,1455.581446
2851.754284,-9770.718434,888.247130,1608.800546
2851.754622,-9844.739029,2294.638420,1762.019645
2851.754959,-10288.862594,3478.967927,0.000000
2851.755296,-11251.130318,1776.494261,-1532.190996
2851.755634,-11029.068536,370.102971,-2298.286494
2851.755971,-9622.677246,-296.082377,-1608.800546
2851.756308,-8586.388927,-962.267725,0.000000
2851.756646,-8364.327145,-962.267725,842.705048
2851.756983,-9030.512492,-1110.308913,0.000000
2851.757320,-9844.739029,-1036.288319,842.705048
2851.757657,-9918.759623,74.020594,1455.581446
2851.757995,-10140.821405,1998.556043,1072.533697
2851.758332,-11029.068536,1776.494261,-689.485948
2851.758669,-11917.315666,1332.370696,-766.095498
2851.759007,-11177.109724,-888.247130,-612.876398
2851.759344,-9770.718434,-962.267725,229.828649
2851.759681,-8364.327145,-592.164754,1838.629195
2851.760019,-8734.430116,-296.082377,919.314598
2851.760356,-9844.739029,-518.144159,229.828649
2851.760693,-10658.965565,-1702.473667,842.705048
2851.761031,-9992.780217,-296.082377,1302.362347
2851.761368,-9992.780217,1628.453072,1455.581446
2851.761705,-10881.027347,2442.679609,-459.657299
2851.762043,-11251.130318,296.082377,-2528.115143
2851.762380,-11695.253884,-1480.411884,-2757.943793
2851.762717,-9696.697840,-2368.659014,-1685.410096
2851.763055,-7846.182985,-2220.617826,0.000000
2851.763392,-8956.491898,-2146.597232,-689.485948
2851.763729,-9844.739029,-3478.967927,-1225.752797
2851.764066,-10140.821405,-2886.803174,-612.876398
2851.764404,-9918.759623,-1332.370696,1149.143247
2851.764741,-10436.903782,296.082377,1762.019645
2851.765078,-11029.068536,962.267725,153.219100
2851.765416,-11695.253884,0.000000,-306.438199
2851.765753,-11325.150913,-1702.473667,306.438199
2851.766090,-9474.636058,-1184.329507,2145.067394
2851.766428,-8734.430116,-740.205942,3217.601092
2851.766765,-9178.553681,74.020594,2451.505594
2851.767102,-9474.636058,0.000000,1225.752797
2851.767440,-9474.636058,-518.144159,1838.629195
2851.767777,-9400.615463,962.267725,2604.724693
2851.768114,-9548.656652,2442.679609,2451.505594
2851.768452,-10658.965565,4145.153275,459.657299
2851.768789,-11547.212695,2590.720797,-1991.848295
2851.769126,-10955.047942,444.123565,-2451.505594
2851.769464,-9178.553681,-1110.308913,-612.876398
2851.769801,-7772.162391,-1406.391290,459.657299
2851.770138,-8364.327145,-1258.350101,153.219100
2851.770475,-9844.739029,-888.247130,-842.705048
2851.770813,-10066.800811,-2812.782580,0.000000
2851.771150,-9548.656652,-1184.329507,612.876398
2851.771487,-9474.636058,370.102971,689.485948
2851.771825,-11325.150913,962.267725,-76.609550
2851.772162,-11399.171507,-370.102971,-2221.676944
2851.772499,-11547.212695,-1776.494261,-1225.752797
2851.772837,-10140.821405,-1924.535449,919.314598
2851.773174,-8882.471304,-1776.494261,1378.971896
2851.773511,-9474.636058,-1850.514855,2145.067394
2851.773849,-9844.739029,-1702.473667,1149.143247
2851.774186,-10881.027347,-2146.597232,1685.410096
2851.774523,-9992.780217,-1110.308913,3064.381992
2851.774861,-9770.718434,1332.370696,2145.067394
2851.775198,-10732.986159,1924.535449,76.609550
2851.775535,-12065.356855,740.205942,-1608.800546
2851.775873,-11177.109724,-296.082377,-2298.286494
2851.776210,-9474.636058,-1258.350101,-612.876398
2851.776547,-8142.265362,-1184.329507,459.657299
2851.776885,-8438.347739,-962.267725,0.000000
2851.777222,-10214.842000,-814.226536,-689.485948
2851.777559,-10436.903782,-1406.391290,-1225.752797
2851.777896,-9548.656652,-740.205942,229.828649
2851.778234,-9770.718434,1184.329507,842.705048
2851.778571,-10436.903782,1628.453072,-459.657299
2851.778908,-11325.150913,1332.370696,-1149.143247
2851.779246,-11177.109724,0.000000,-612.876398
2851.779583,-9474.636058,-148.041188,1149.143247
2851.779920,-8956.491898,296.082377,2451.505594
2851.780258,-9104.533087,1332.370696,2221.676944
2851.780595,-9770.718434,370.102971,1149.143247
2851.780932,-9992.780217,-592.164754,1685.410096
2851.781270,-9326.594869,2146.597232,2911.162892
2851.781607,-9918.759623,2960.823768,2604.724693
2851.781944,-11547.212695,3923.091493,0.000000
2851.782282,-11917.315666,2368.659014,-2374.896044
2851.782619,-11547.212695,222.061783,-2451.505594
2851.782956,-8956.491898,-666.185348,-1149.143247
2851.783294,-7031.956449,-1480.411884,76.609550
2851.783631,-8734.430116,-1628.453072,306.438199
2851.783968,-9400.615463,-2294.638420,-612.876398
2851.784305,-10807.006753,-2220.617826,0.000000
2851.784643,-9992.780217,-1036.288319,383.047749
2851.784980,-9770.718434,-888.247130,459.657299
2851.785317,-11103.089130,0.000000,0.000000
2851.785655,-11621.233289,-962.267725,-2068.457845
2851.785992,-10955.047942,-2442.679609,-766.095498
2851.786329,-9696.697840,-2590.720797,689.485948
2851.786667,-7920.203579,-2960.823768,1532.190996
2851.787004,-9548.656652,-2072.576638,1532.190996
2851.787341,-10807.006753,-2664.741391,1455.581446
2851.787679,-10881.027347,-2294.638420,1991.848295
2851.788016,-10214.842000,-444.123565,3294.210641
2851.788353,-9622.677246,1850.514855,3447.429741
2851.788691,-11103.089130,2664.741391,1608.800546
2851.789028,-12731.542202,1406.391290,0.000000
2851.789365,-11991.336260,148.041188,-995.924147
2851.789703,-9992.780217,-444.123565,0.000000
2851.790040,-8364.327145,148.041188,536.266849
2851.790377,-8734.430116,-296.082377,-306.438199
2851.790715,-9474.636058,-592.164754,-689.485948
2851.791052,-9770.718434,-592.164754,-1072.533697
2851.791389,-9252.574275,518.144159,0.000000
2851.791726,-9252.574275,1776.494261,-536.266849
2851.792064,-10436.903782,1628.453072,-1608.800546
2851.792401,-11029.068536,740.205942,-2451.505594
2851.792738,-10584.944971,-518.144159,-1072.533697
2851.793076,-9030.512492,518.144159,229.828649
2851.793413,-8364.327145,-1036.288319,1302.362347
2851.793750,-8956.491898,-666.185348,612.876398
2851.794088,-9622.677246,-2220.617826,536.266849
2851.794425,-10362.883188,-1776.494261,1838.629195
2851.794762,-9252.574275,-444.123565,2221.676944
2851.795100,-9548.656652,1924.535449,2145.067394
2851.795437,-10807.006753,2368.659014,306.438199
2851.795774,-11103.089130,1332.370696,-2145.067394
2851.796112,-11843.295072,-444.123565,-919.314598
2851.796449,-10066.800811,-444.123565,-229.828649
2851.796786,-8734.430116,-592.164754,689.485948
2851.797124,-9770.718434,-592.164754,229.828649
2851.797461,-9992.780217,-1702.473667,-1072.533697
2851.797798,-10881.027347,-2368.659014,0.000000
2851.798135,-9918.759623,-1036.288319,459.657299
2851.798473,-9770.718434,0.000000,153.219100
2851.798810,-11251.130318,592.164754,-1149.143247
2851.799147,-12139.377449,-962.267725,-1762.019645
2851.799485,-11103.089130,-1998.556043,-1302.362347
2851.799822,-9474.636058,-2072.576638,842.705048
2851.800159,-8364.327145,-1258.350101,2145.067394
2851.800497,-9030.512492,-1480.411884,1149.143247
2851.800834,-10584.944971,-2516.700203,1838.629195
2851.801171,-9992.780217,-1924.535449,2298.286494
2851.801509,-9548.656652,0.000000,3677.258390
2851.801846,-9992.780217,2220.617826,3677.258390
2851.802183,-10510.924376,2516.700203,1302.362347
2851.802521,-11399.171507,2146.597232,-306.438199
2851.802858,-11029.068536,888.247130,-536.266849
2851.803195,-9622.677246,1184.329507,842.705048
2851.803533,-8660.409521,296.082377,919.314598
2851.803870,-8734.430116,1924.535449,153.219100
2851.804207,-9770.718434,148.041188,-459.657299
2851.804545,-9548.656652,0.000000,0.000000
2851.804882,-8956.491898,1258.350101,459.657299
2851.805219,-10288.862594,1776.494261,383.047749
2851.805556,-10658.965565,2442.679609,-2451.505594
2851.805894,-11769.274478,444.123565,-2681.334243
2851.806231,-11251.130318,-1554.432478,-1991.848295
2851.806568,-8586.388927,-1776.494261,-612.876398
2851.806906,-7994.224174,-1554.432478,76.609550
2851.807243,-9474.636058,-1332.370696,76.609550
2851.807580,-9992.780217,-2368.659014,-919.314598
2851.807918,-11325.150913,-2960.823768,1225.752797
2851.808255,-10066.800811,-1332.370696,2145.067394
2851.808592,-9622.677246,518.144159,2911.162892
2851.808930,-11473.192101,1332.370696,1225.752797
2851.809267,-12139.377449,148.041188,-689.485948
2851.809604,-11621.233289,-1036.288319,-689.485948
2851.809942,-9770.718434,-1258.350101,1072.533697
2851.810279,-9104.533087,-666.185348,1072.533697
2851.810616,-9770.718434,-1258.350101,229.828649
2851.810954,-10066.800811,-1776.494261,-383.047749
2851.811291,-10140.821405,-1406.391290,-306.438199
2851.811628,-9400.615463,-148.041188,689.485948
2851.811965,-9474.636058,814.226536,459.657299
2851.812303,-10140.821405,444.123565,-1225.752797
2851.812640,-11399.171507,222.061783,-1838.629195
2851.812977,-11177.109724,-962.267725,-1149.143247
2851.813315,-9178.553681,-1554.432478,842.705048
2851.813652,-8660.409521,-592.164754,1762.019645
2851.813989,-9400.615463,-1480.411884,1455.581446
2851.814327,-10214.842000,-1036.288319,612.876398
2851.814664,-10066.800811,-2072.576638,1608.800546
2851.815001,-9548.656652,-222.061783,3753.867940
2851.815339,-9104.533087,1406.391290,3140.991542
2851.815676,-10807.006753,2812.782580,1838.629195
2851.816013,-11769.274478,2072.576638,76.609550
2851.816351,-11103.089130,518.144159,-306.438199
2851.816688,-9696.697840,1036.288319,919.314598
2851.817025,-9178.553681,1184.329507,1608.800546
2851.817363,-9474.636058,1258.350101,383.047749
2851.817700,-10214.842000,-370.102971,-1072.533697
2851.818037,-10510.924376,-444.123565,-229.828649
2851.818374,-8882.471304,444.123565,306.438199
2851.818712,-9622.677246,1110.308913,536.266849
2851.819049,-10584.944971,1110.308913,-1378.971896
2851.819386,-11029.068536,-962.267725,-2834.553343
2851.819724,-10510.924376,-1184.329507,-1838.629195
2851.820061,-9252.574275,-2294.638420,-1072.533697
2851.820398,-9400.615463,-1480.411884,229.828649
2851.820736,-9918.759623,-2072.576638,0.000000
2851.821073,-10362.883188,-3108.864956,-1455.581446
2851.821410,-10066.800811,-3330.926739,689.485948
2851.821748,-9252.574275,-1776.494261,1991.848295
2851.822085,-9622.677246,-888.247130,1455.581446
2851.822422,-10732.986159,148.041188,306.438199
2851.822760,-11991.336260,0.000000,-153.219100
2851.823097,-11843.295072,-1258.350101,76.609550
2851.823434,-9770.718434,-1184.329507,1378.971896
2851.823772,-8660.409521,0.000000,1685.410096
2851.824109,-9474.636058,-296.082377,1378.971896
2851.824446,-10362.883188,0.000000,0.000000
2851.824784,-10362.883188,-296.082377,536.266849
2851.825121,-9844.739029,518.144159,1532.190996
2851.825458,-9770.718434,1998.556043,229.828649
2851.825795,-10584.944971,2072.576638,-1455.581446
2851.826133,-11103.089130,888.247130,-1915.238745
2851.826470,-10584.944971,-296.082377,-1149.143247
2851.826807,-9474.636058,74.020594,153.219100
2851.827145,-8512.368333,740.205942,229.828649
2851.827482,-9474.636058,0.000000,0.000000
2851.827819,-9992.780217,-1850.514855,153.219100
2851.828157,-9548.656652,-1184.329507,1685.410096
2851.828494,-8956.491898,296.082377,3064.381992
2851.828831,-9844.739029,1184.329507,2757.943793
2851.829169,-10807.006753,2368.659014,842.705048
2851.829506,-11547.212695,518.144159,-306.438199
2851.829843,-11399.171507,74.020594,459.657299
2851.830181,-9474.636058,-222.061783,1149.143247
2851.830518,-8734.430116,0.000000,1685.410096
2851.830855,-9474.636058,-296.082377,1149.143247
2851.831193,-9474.636058,-1110.308913,689.485948
2851.831530,-10362.883188,-740.205942,689.485948
2851.831867,-9992.780217,-74.020594,1302.362347
2851.832204,-10214.842000,1554.432478,229.828649
2851.832542,-10732.986159,1406.391290,-1302.362347
2851.832879,-11843.295072,222.061783,-2298.286494
2851.833216,-10658.965565,-1554.432478,-1762.019645
2851.833554,-9178.553681,-2220.617826,-919.314598
2851.833891,-8586.388927,-962.267725,-689.485948
2851.834228,-9844.739029,-1998.556043,-1608.800546
2851.834566,-10362.883188,-3552.988522,-1378.971896
2851.834903,-9918.759623,-3182.885551,153.219100
2851.835240,-9030.512492,-2368.659014,2068.457845
2851.835578,-9104.533087,-296.082377,1915.238745
2851.835915,-10288.862594,296.082377,229.828649
2851.836252,-12139.377449,-888.247130,0.000000
2851.836590,-11399.171507,-1628.453072,612.876398
2851.836927,-9474.636058,-740.205942,2221.676944
2851.837264,-9474.636058,0.000000,2604.724693
2851.837602,-10436.903782,74.020594,1991.848295
2851.837939,-10214.842000,-370.102971,229.828649
2851.838276,-10066.800811,-148.041188,689.485948
2851.838614,-9252.574275,1554.432478,2068.457845
2851.838951,-9474.636058,2294.638420,995.924147
2851.839288,-10955.047942,2886.803174,-842.705048
2851.839626,-11103.089130,1184.329507,-1991.848295
2851.839963,-10584.944971,222.061783,-1072.533697
2851.840300,-9400.615463,592.164754,0.000000
2851.840638,-8808.450710,-222.061783,0.000000
2851.840975,-9030.512492,0.000000,-1149.143247
2851.841312,-9844.739029,-1998.556043,-1685.410096
2851.841650,-10214.842000,-2294.638420,76.609550
2851.841987,-8808.450710,-1258.350101,1608.800546
2851.842324,-9104.533087,74.020594,1225.752797
2851.842662,-10436.903782,962.267725,-153.219100
2851.842999,-11547.212695,-1110.308913,-1608.800546
2851.843336,-11399.171507,-1480.411884,-612.876398
2851.843674,-10066.800811,-1628.453072,1302.362347
2851.844011,-9178.553681,-296.082377,2068.457845
2851.844348,-9696.697840,-814.226536,919.314598
2851.844686,-11029.068536,-1702.473667,766.095498
2851.845023,-10732.986159,-1184.329507,1072.533697
2851.845360,-9844.739029,0.000000,1838.629195
2851.845697,-10140.821405,1406.391290,1225.752797
2851.846035,-11029.068536,1184.329507,-995.924147
2851.846372,-11251.130318,74.020594,-1378.971896
2851.846709,-10732.986159,-592.164754,-1532.190996
2851.847047,-8882.471304,0.000000,383.047749
2851.847384,-9326.594869,74.020594,306.438199
2851.847721,-9918.759623,-666.185348,-995.924147
2851.848059,-10140.821405,-1628.453072,-1225.752797
2851.848396,-9918.759623,-1406.391290,383.047749
2851.848733,-9030.512492,-222.061783,1762.019645
2851.849071,-9178.553681,888.247130,1455.581446
2851.849408,-10658.965565,1036.288319,0.000000
2851.849745,-11103.089130,148.041188,-1302.362347
2851.850083,-11029.068536,-962.267725,-383.047749
2851.850420,-9400.615463,-296.082377,1762.019645
2851.850757,-8882.471304,-370.102971,2298.286494
2851.851095,-9474.636058,222.061783,536.266849
2851.851432,-9992.780217,222.061783,1149.143247
2851.851769,-10066.800811,222.061783,1532.190996
2851.852107,-9030.512492,1332.370696,1532.190996
2851.852444,-10066.800811,2886.803174,1378.971896
2851.852781,-11547.212695,2886.803174,-229.828649
2851.853119,-11251.130318,1628.453072,-1991.848295
2851.853456,-11177.109724,74.020594,-995.924147
2851.853793,-8660.409521,370.102971,-306.438199
2851.854131,-8364.327145,-666.185348,0.000000
2851.854468,-8956.491898,-1258.350101,0.000000
2851.854805,-9844.739029,-2590.720797,-1225.752797
2851.855143,-9548.656652,-2294.638420,306.438199
2851.855480,-9696.697840,-1850.514855,1225.752797
2851.855817,-9400.615463,0.000000,612.876398
2851.856155,-11399.171507,-518.144159,-383.047749
2851.856492,-11917.315666,-1554.432478,-1532.190996
2851.856829,-10881.027347,-2738.761985,-1072.533697
2851.857167,-9548.656652,-2294.638420,1302.362347
2851.857504,-9474.636058,-2294.638420,1149.143247
2851.857841,-9696.697840,-2664.741391,229.828649
2851.858179,-10881.027347,-2294.638420,919.314598
2851.858516,-10362.883188,-2220.617826,1149.143247
2851.858853,-9474.636058,-296.082377,2298.286494
2851.859191,-9992.780217,1332.370696,1685.410096
2851.859528,-11029.068536,1258.350101,0.000000
2851.859865,-11769.274478,740.205942,-536.266849
2851.860202,-11325.150913,0.000000,76.609550
2851.860540,-9400.615463,74.020594,536.266849
2851.860877,-9030.512492,0.000000,229.828649
2851.861214,-8956.491898,148.041188,-612.876398
2851.861552,-9992.780217,-1776.494261,-995.924147
2851.861889,-9696.697840,-1258.350101,536.266849
2851.862226,-8290.306550,222.061783,689.485948
2851.862564,-9474.636058,1480.411884,919.314598
2851.862901,-10214.842000,1332.370696,-919.314598
2851.863238,-11547.212695,0.000000,-1838.629195
2851.863576,-11473.192101,-814.226536,-229.828649
2851.863913,-8882.471304,74.020594,306.438199
2851.864250,-9326.594869,-666.185348,1378.971896
2851.864588,-9474.636058,-592.164754,919.314598
2851.864925,-9918.759623,-1702.473667,689.485948
2851.865262,-11029.068536,-666.185348,2145.067394
2851.865600,-9474.636058,740.205942,1838.629195
2851.865937,-10140.821405,1924.535449,995.924147
2851.866274,-11325.150913,1776.494261,-612.876398
2851.866612,-11251.130318,0.000000,-1838.629195
2851.866949,-10732.986159,74.020594,-536.266849
2851.867286,-9696.697840,-518.144159,842.705048
2851.867624,-8956.491898,518.144159,229.828649
2851.867961,-10066.800811,-740.205942,-383.047749
2851.868298,-10288.862594,-1480.411884,-919.314598
2851.868636,-9696.697840,-1924.535449,383.047749
2851.868973,-9474.636058,-814.226536,1302.362347
2851.869310,-9400.615463,814.226536,153.219100
2851.869648,-10732.986159,222.061783,-2068.457845
2851.869985,-11769.274478,-1184.329507,-1991.848295
2851.870322,-11103.089130,-2146.597232,-1455.581446
2851.870660,-9252.574275,-1924.535449,383.047749
2851.870997,-8734.430116,-1332.370696,995.924147
2851.871334,-9474.636058,-1184.329507,766.095498
2851.871672,-9992.780217,-1998.556043,689.485948
2851.872009,-10658.965565,-1036.288319,2298.286494
2851.872346,-9548.656652,888.247130,2987.772442
2851.872684,-10140.821405,1850.514855,2298.286494
2851.873021,-11843.295072,2886.803174,612.876398
2851.873358,-12065.356855,740.205942,-229.828649
2851.873696,-10955.047942,1110.308913,76.609550
2851.874033,-8734.430116,888.247130,1072.533697
2851.874370,-9474.636058,1850.514855,1302.362347
2851.874708,-9474.636058,444.123565,-306.438199
2851.875045,-9252.574275,-740.205942,-1072.533697
2851.875382,-9474.636058,-222.061783,1225.752797
2851.875719,-8734.430116,1184.329507,1608.800546
2851.876057,-9548.656652,1850.514855,459.657299
2851.876394,-10807.006753,1776.494261,-1685.410096
2851.876731,-11399.171507,-370.102971,-2145.067394
2851.877069,-10732.986159,-1332.370696,-766.095498
2851.877406,-8586.388927,-2072.576638,76.609550
2851.877743,-8512.368333,-2072.576638,459.657299
2851.878081,-9030.512492,-2294.638420,306.438199
2851.878418,-9844.739029,-2960.823768,0.000000
2851.878755,-10214.842000,-1924.535449,1225.752797
2851.879093,-9770.718434,-1110.308913,2681.334243
2851.879430,-10214.842000,888.247130,1378.971896
2851.879767,-11843.295072,740.205942,-153.219100
2851.880105,-12509.480420,-222.061783,-306.438199
2851.880442,-11029.068536,-1184.329507,-459.657299
2851.880779,-9178.553681,-1110.308913,919.314598
2851.881117,-9030.512492,-148.041188,536.266849
2851.881454,-9918.759623,-1702.473667,-842.705048
2851.881791,-10584.944971,-2072.576638,-919.314598
2851.882129,-9622.677246,-1924.535449,306.438199
2851.882466,-9252.574275,74.020594,1455.581446
2851.882803,-9992.780217,1628.453072,612.876398
2851.883141,-11325.150913,1702.473667,-1532.190996
2851.883478,-11769.274478,-962.267725,-1838.629195
2851.883815,-10436.903782,-1110.308913,-1302.362347
2851.884153,-8882.471304,-1998.556043,919.314598
2851.884490,-8512.368333,-1406.391290,1455.581446
2851.884827,-9104.533087,-1332.370696,0.000000
2851.885165,-10436.903782,-2072.576638,306.438199
2851.885502,-9770.718434,-1184.329507,1455.581446
2851.885839,-8882.471304,148.041188,2528.115143
2851.886177,-10140.821405,1480.411884,2145.067394
2851.886514,-10955.047942,2072.576638,76.609550
2851.886851,-11843.295072,1036.288319,-306.438199
2851.887189,-10881.027347,740.205942,229.828649
2851.887526,-8734.430116,962.267725,1302.362347
2851.887863,-9178.553681,740.205942,1532.190996
2851.888201,-9326.594869,296.082377,0.000000
2851.888538,-10140.821405,-592.164754,76.609550
2851.888875,-10436.903782,148.041188,1072.533697
2851.889213,-8956.491898,888.247130,1072.533697
2851.889550,-9696.697840,2072.576638,76.609550
2851.889887,-11251.130318,1406.391290,-1302.362347
2851.890225,-11547.212695,-370.102971,-2987.772442
2851.890562,-10214.842000,-1850.514855,-1532.190996
2851.890899,-8882.471304,-1850.514855,0.000000
2851.891236,-8956.491898,-1628.453072,536.266849
2851.891574,-9918.759623,-2146.597232,-459.657299
2851.891911,-10436.903782,-2960.823768,-383.047749
2851.892248,-10288.862594,-2294.638420,612.876398
2851.892586,-9474.636058,-666.185348,1455.581446
2851.892923,-10510.924376,592.164754,1378.971896
2851.893260,-11695.253884,0.000000,-153.219100
2851.893598,-11917.315666,-370.102971,-919.314598
2851.893935,-10955.047942,-1110.308913,689.485948
2851.894272,-9104.533087,-222.061783,1378.971896
2851.894610,-8882.471304,-592.164754,1455.581446
2851.894947,-9622.677246,-148.041188,1225.752797
2851.895284,-10066.800811,-814.226536,459.657299
2851.895622,-10584.944971,444.123565,2298.286494
2851.895959,-9622.677246,1554.432478,2374.896044
2851.896296,-9844.739029,2664.741391,536.266849
2851.896634,-10955.047942,2368.659014,-1225.752797
2851.896971,-11769.274478,518.144159,-2145.067394
2851.897308,-10140.821405,-592.164754,-1455.581446
2851.897646,-8512.368333,-592.164754,153.219100
2851.897983,-8216.285956,-296.082377,842.705048
2851.898320,-8956.491898,-1110.308913,0.000000
2851.898658,-10140.821405,-1480.411884,536.266849
2851.898995,-9770.718434,-518.144159,1608.800546
2851.899332,-9104.533087,1110.308913,2374.896044
2851.899670,-10436.903782,2072.576638,1455.581446
2851.900007,-11769.274478,962.267725,-459.657299
2851.900344,-11769.274478,0.000000,-689.485948
2851.900682,-10732.986159,-518.144159,306.438199
2851.901019,-8808.450710,-592.164754,689.485948
2851.901356,-8290.306550,-222.061783,536.266849
2851.901694,-9252.574275,-962.267725,0.000000
2851.902031,-9696.697840,-2220.617826,153.219100
2851.902368,-9548.656652,-518.144159,689.485948
2851.902706,-9918.759623,1332.370696,1608.800546
2851.903043,-10732.986159,2072.576638,306.438199
2851.903380,-10955.047942,814.226536,-1915.238745
2851.903718,-11843.295072,-370.102971,-2451.505594
2851.904055,-10658.965565,-1628.453072,-995.924147
2851.904392,-9104.533087,-2146.597232,-766.095498
2851.904730,-8882.471304,-2072.576638,-842.705048
2851.905067,-9770.718434,-2516.700203,-1225.752797
2851.905404,-10214.842000,-2886.803174,-1072.533697
2851.905741,-10066.800811,-2516.700203,459.657299
2851.906079,-9474.636058,-592.164754,1225.752797
2851.906416,-10436.903782,296.082377,536.266849
2851.906753,-11695.253884,148.041188,-383.047749
2851.907091,-11843.295072,-1036.288319,76.609550
2851.907428,-10658.965565,-1702.473667,1225.752797
2851.907765,-8882.471304,-1258.350101,1915.238745
2851.908103,-8808.450710,74.020594,2221.676944
2851.908440,-9992.780217,-296.082377,1149.143247
2851.908777,-10288.862594,-1184.329507,1762.019645
2851.909115,-9252.574275,148.041188,1991.848295
2851.909452,-9178.553681,2146.597232,2604.724693
2851.909789,-10807.006753,3923.091493,919.314598
2851.910127,-11177.109724,2812.782580,-1685.410096
2851.910464,-11621.233289,1628.453072,-2145.067394
2851.910801,-10288.862594,0.000000,-995.924147
2851.911139,-7994.224174,0.000000,153.219100
2851.911476,-8364.327145,-148.041188,306.438199
2851.911813,-9548.656652,-1184.329507,-306.438199
2851.912151,-9844.739029,-1480.411884,-383.047749
2851.912488,-10140.821405,-1036.288319,766.095498
2851.912825,-9696.697840,592.164754,1378.971896
2851.913163,-10140.821405,1332.370696,-612.876398
2851.913500,-11251.130318,370.102971,-1838.629195
2851.913837,-11325.150913,-370.102971,-2068.457845
2851.914175,-10066.800811,-2072.576638,-306.438199
2851.914512,-8882.471304,-1406.391290,1532.190996
2851.914849,-9252.574275,-1036.288319,1455.581446
2851.915187,-9770.718434,-962.267725,1378.971896
2851.915524,-10436.903782,-1776.494261,919.314598
2851.915861,-9992.780217,-1258.350101,2451.505594
2851.916199,-9400.615463,740.205942,3064.381992
2851.916536,-10658.965565,2220.617826,1302.362347
2851.916873,-11917.315666,1628.453072,-1225.752797
2851.917211,-11991.336260,-518.144159,-2221.676944
2851.917548,-9992.780217,-1258.350101,-995.924147
2851.917885,-8142.265362,-1702.473667,76.609550
2851.918223,-8438.347739,-1258.350101,612.876398
2851.918560,-9474.636058,-1184.329507,229.828649
2851.918897,-10436.903782,-2146.597232,-842.705048
2851.919235,-9918.759623,-814.226536,229.828649
2851.919572,-9326.594869,222.061783,1378.971896
2851.919909,-10732.986159,1332.370696,1532.190996
2851.920247,-11621.233289,740.205942,-459.657299
2851.920584,-12065.356855,-888.247130,-766.095498
2851.920921,-10214.842000,-814.226536,229.828649
2851.921258,-9030.512492,-962.267725,2068.457845
2851.921596,-9178.553681,-444.123565,2681.334243
2851.921933,-9326.594869,-1184.329507,1378.971896
2851.922270,-10140.821405,148.041188,1915.238745
2851.922608,-9696.697840,814.226536,2604.724693
2851.922945,-9178.553681,1998.556043,2068.457845
2851.923282,-10214.842000,3404.947333,1225.752797
2851.923620,-11843.295072,2516.700203,-766.095498
2851.923957,-11917.315666,1628.453072,-2145.067394
2851.924294,-10510.924376,-888.247130,-1072.533697
2851.924632,-8142.265362,-888.247130,383.047749
2851.924969,-7846.182985,-1554.432478,153.219100
2851.925306,-9104.533087,-1924.535449,-306.438199
2851.925644,-9696.697840,-2294.638420,-459.657299
2851.925981,-9474.636058,-1702.473667,-306.438199
2851.926318,-9326.594869,0.000000,0.000000
2851.926656,-11103.089130,518.144159,-995.924147
2851.926993,-11769.274478,74.020594,-2298.286494
2851.927330,-11695.253884,-1850.514855,-2604.724693
2851.927668,-10658.965565,-2368.659014,-995.924147
2851.928005,-8586.388927,-2442.679609,536.266849
2851.928342,-9400.615463,-2220.617826,1455.581446
2851.928680,-9844.739029,-2516.700203,612.876398
2851.929017,-10955.047942,-2886.803174,1378.971896
2851.929354,-10584.944971,-1184.329507,2757.943793
2851.929692,-9770.718434,666.185348,2451.505594
2851.930029,-10510.924376,2294.638420,1838.629195
2851.930366,-11621.233289,1628.453072,0.000000
2851.930704,-11843.295072,0.000000,-536.266849
2851.931041,-10807.006753,-222.061783,-306.438199
2851.931378,-8660.409521,-592.164754,689.485948
2851.931716,-8586.388927,0.000000,842.705048
2851.932053,-8808.450710,-888.247130,-153.219100
2851.932390,-9696.697840,-666.185348,0.000000
2851.932728,-9400.615463,-296.082377,612.876398
2851.933065,-9104.533087,1332.370696,689.485948
2851.933402,-9844.739029,1702.473667,229.828649
2851.933740,-11473.192101,1184.329507,-1532.190996
2851.934077,-11399.171507,-296.082377,-536.266849
2851.934414,-10288.862594,-518.144159,229.828649
2851.934752,-8068.244768,-370.102971,1455.581446
2851.935089,-8290.306550,-222.061783,1302.362347
2851.935426,-9844.739029,-1480.411884,1608.800546
2851.935764,-9992.780217,-1110.308913,1225.752797
2851.936101,-10140.821405,-296.082377,2451.505594
2851.936438,-10140.821405,2368.659014,2451.505594
2851.936776,-10584.944971,2886.803174,0.000000
2851.937113,-11843.295072,2146.597232,-1455.581446
2851.937450,-11621.233289,-148.041188,-1915.238745
2851.937788,-9474.636058,-1110.308913,-459.657299
2851.938125,-8512.368333,0.000000,766.095498
2851.938462,-9178.553681,-888.247130,229.828649
2851.938800,-9844.739029,-1110.308913,-766.095498
2851.939137,-11103.089130,-1480.411884,-766.095498
2851.939474,-10140.821405,-592.164754,76.609550
2851.939812,-9844.739029,592.164754,0.000000
2851.940149,-11103.089130,666.185348,-1072.533697
2851.940486,-11251.130318,-222.061783,-2757.943793
2851.940824,-11325.150913,-2442.679609,-2451.505594
2851.941161,-9918.759623,-1702.473667,-383.047749
2851.941498,-8882.471304,-2442.679609,995.924147
2851.941836,-9030.512492,-1702.473667,919.314598
2851.942173,-9252.574275,-2738.761985,0.000000
2851.942510,-11029.068536,-1924.535449,1915.238745
2851.942848,-9918.759623,-740.205942,3140.991542
2851.943185,-9548.656652,1036.288319,2834.553343
2851.943522,-11251.130318,2738.761985,2298.286494
2851.943860,-11177.109724,2664.741391,-76.609550
2851.944197,-12139.377449,0.000000,536.266849
2851.944534,-9992.780217,0.000000,1225.752797
2851.944872,-8438.347739,1184.329507,1915.238745
2851.945209,-8882.471304,1110.308913,2221.676944
2851.945546,-9178.553681,444.123565,-459.657299
2851.945884,-9326.594869,-370.102971,0.000000
2851.946221,-9400.615463,518.144159,1072.533697
2851.946558,-9252.574275,2294.638420,1149.143247
2851.946896,-10658.965565,2812.782580,-689.485948
2851.947233,-11547.212695,1110.308913,-1915.238745
2851.947570,-11177.109724,-444.123565,-2681.334243
2851.947908,-9326.594869,-1850.514855,-1302.362347
2851.948245,-8882.471304,-666.185348,306.438199
2851.948582,-9030.512492,-1776.494261,-306.438199
2851.948920,-9474.636058,-2294.638420,0.000000
2851.949257,-10362.883188,-2368.659014,536.266849
2851.949594,-10362.883188,-1554.432478,1762.019645
2851.949932,-10214.842000,444.123565,2451.505594
2851.950269,-10881.027347,740.205942,842.705048
2851.950606,-11547.212695,666.185348,-459.657299
2851.950944,-11695.253884,-1554.432478,-459.657299
2851.951281,-10658.965565,-1036.288319,612.876398
2851.951618,-8660.409521,-1628.453072,995.924147
2851.951956,-9400.615463,-592.164754,612.876398
2851.952293,-10362.883188,-1110.308913,-689.485948
2851.952630,-10807.006753,-1998.556043,-536.266849
2851.952968,-9918.759623,-592.164754,0.000000
2851.953305,-9178.553681,0.000000,536.266849
2851.953642,-10584.944971,1554.432478,-689.485948
2851.953980,-11029.068536,148.041188,-2221.676944
2851.954317,-11917.315666,-1406.391290,-1685.410096
2851.954654,-9548.656652,-1924.535449,-842.705048
2851.954992,-8216.285956,-1332.370696,612.876398
2851.955329,-9252.574275,-592.164754,1302.362347
2851.955666,-10288.862594,-1480.411884,0.000000
2851.956004,-10140.821405,-2220.617826,1378.971896
2851.956341,-9770.718434,-740.205942,2451.505594
2851.956678,-8512.368333,1036.288319,2834.553343
2851.957016,-10140.821405,2590.720797,2145.067394
2851.957353,-11103.089130,1184.329507,153.219100
2851.957690,-11547.212695,1110.308913,153.219100
2851.958028,-10436.903782,1036.288319,1685.410096
2851.958365,-8142.265362,592.164754,2145.067394
2851.958702,-9030.512492,1036.288319,1991.848295
2851.959040,-9770.718434,0.000000,842.705048
2851.959377,-9992.780217,444.123565,306.438199
2851.959714,-9992.780217,666.185348,1072.533697
2851.960052,-9548.656652,1332.370696,919.314598
2851.960389,-10066.800811,1332.370696,-919.314598
2851.960726,-11399.171507,814.226536,-1838.629195
2851.961064,-10881.027347,-1036.288319,-2604.724693
2851.961401,-9326.594869,-2146.597232,-1762.019645
2851.961738,-9030.512492,-1628.453072,0.000000
2851.962076,-9474.636058,-1850.514855,-383.047749
2851.962413,-10214.842000,-2220.617826,-689.485948
2851.962750,-10732.986159,-3404.947333,-153.219100
2851.963088,-10214.842000,-1998.556043,1225.752797
2851.963425,-9548.656652,-962.267725,2221.676944
2851.963762,-10436.903782,814.226536,0.000000
2851.964100,-11843.295072,-592.164754,306.438199
2851.964437,-12213.398043,-1628.453072,0.000000
2851.964774,-10066.800811,-962.267725,995.924147
2851.965112,-9178.553681,-814.226536,2145.067394
2851.965449,-9178.553681,74.020594,689.485948
2851.965786,-10140.821405,-1110.308913,153.219100
2851.966124,-10881.027347,-814.226536,1072.533697
2851.966461,-8956.491898,1036.288319,1225.752797
2851.966798,-9400.615463,1702.473667,1225.752797
2851.967136,-10658.965565,2146.597232,-76.609550
2851.967473,-10658.965565,1036.288319,-1608.800546
2851.967810,-11547.212695,444.123565,-995.924147
2851.968148,-9992.780217,296.082377,-612.876398
2851.968485,-8142.265362,222.061783,0.000000
2851.968822,-8660.409521,-222.061783,76.609550
2851.969160,-9474.636058,-1258.350101,-842.705048
2851.969497,-9918.759623,-1406.391290,536.266849
2851.969834,-9622.677246,-296.082377,2145.067394
2851.970172,-9178.553681,1110.308913,1762.019645
2851.970509,-10288.862594,2146.597232,995.924147
2851.970846,-11473.192101,1332.370696,383.047749
2851.971184,-11843.295072,222.061783,0.000000
2851.971521,-10066.800811,-296.082377,459.657299
2851.971858,-8808.450710,0.000000,1608.800546
2851.972196,-9548.656652,0.000000,1378.971896
2851.972533,-9918.759623,-814.226536,536.266849
2851.972870,-10362.883188,-1554.432478,306.438199
2851.973208,-9104.533087,-666.185348,1455.581446
2851.973545,-9400.615463,1184.329507,766.095498
2851.973882,-10584.944971,1110.308913,153.219100
2851.974220,-11621.233289,148.041188,-1532.190996
2851.974557,-11177.109724,-1110.308913,-1302.362347
2851.974894,-10288.862594,-888.247130,-689.485948
2851.975232,-9178.553681,-1036.288319,-612.876398
2851.975569,-9548.656652,-1998.556043,-1378.971896
2851.975906,-10066.800811,-3330.926739,-1608.800546
2851.976244,-10140.821405,-3849.070898,-383.047749
2851.976581,-9474.636058,-2368.659014,1378.971896
2851.976918,-9770.718434,-888.247130,1762.019645
2851.977256,-10362.883188,740.205942,766.095498
2851.977593,-11473.192101,-296.082377,-689.485948
2851.977930,-11843.295072,-1184.329507,153.219100
2851.978268,-9918.759623,-1110.308913,1532.190996
2851.978605,-9326.594869,-296.082377,2987.772442
2851.978942,-10066.800811,666.185348,1991.848295
2851.979280,-10288.862594,0.000000,919.314598
2851.979617,-10436.903782,0.000000,1685.410096
2851.979954,-9400.615463,518.144159,1685.410096
2851.980292,-8808.450710,2664.741391,1685.410096
2851.980629,-10066.800811,3330.926739,76.609550
2851.980966,-11621.233289,1850.514855,-1302.362347
2851.981304,-10584.944971,1406.391290,-1532.190996
2851.981641,-9104.533087,814.226536,-153.219100
2851.981978,-8142.265362,1036.288319,459.657299
2851.982316,-8660.409521,666.185348,-842.705048
2851.982653,-9696.697840,-666.185348,-1072.533697
2851.982990,-10066.800811,-2368.659014,76.609550
2851.983328,-9104.533087,-1184.329507,1072.533697
2851.983665,-9474.636058,814.226536,1302.362347
2851.984002,-10362.883188,1184.329507,76.609550
2851.984340,-11251.130318,-148.041188,-1532.190996
2851.984677,-10955.047942,-1702.473667,-1302.362347
2851.985014,-10140.821405,-1702.473667,919.314598
2851.985352,-9252.574275,-1332.370696,1378.971896
2851.985689,-10140.821405,-1628.453072,842.705048
2851.986026,-10955.047942,-1406.391290,76.609550
2851.986364,-10807.006753,-2072.576638,842.705048
2851.986701,-9548.656652,-1184.329507,1532.190996
2851.987038,-9474.636058,296.082377,1762.019645
2851.987376,-10584.944971,666.185348,229.828649
2851.987713,-11695.253884,0.000000,-1072.533697
2851.988050,-11621.233289,-1184.329507,-1455.581446
2851.988388,-9548.656652,-1258.350101,-383.047749
2851.988725,-9252.574275,-1332.370696,0.000000
2851.989062,-9178.553681,-592.164754,-995.924147
2851.989400,-10066.800811,-2294.638420,-1685.410096
2851.989737,-10436.903782,-2590.720797,-612.876398
2851.990075,-9030.512492,-2590.720797,842.705048
2851.990412,-9178.553681,74.020594,1915.238745
2851.990749,-10510.924376,1110.308913,383.047749
2851.991087,-11547.212695,296.082377,-919.314598
2851.991424,-11251.130318,-814.226536,0.000000
2851.991761,-10066.800811,-518.144159,1532.190996
2851.992099,-9030.512492,148.041188,2374.896044
2851.992436,-9548.656652,888.247130,1685.410096
2851.992773,-10436.903782,0.000000,1532.190996
2851.993111,-10214.842000,74.020594,1532.190996
2851.993448,-8956.491898,1110.308913,2298.286494
2851.993785,-8808.450710,3108.864956,1915.238745
2851.994123,-10066.800811,3108.864956,229.828649
2851.994460,-11399.171507,2886.803174,-766.095498
2851.994797,-11547.212695,1924.535449,-1225.752797
2851.995135,-9400.615463,1702.473667,0.000000
2851.995472,-8956.491898,888.247130,0.000000
2851.995809,-9030.512492,0.000000,-1149.143247
2851.996147,-9474.636058,-1480.411884,-1302.362347
2851.996484,-9844.739029,-1998.556043,-1072.533697
2851.996821,-9252.574275,-1776.494261,0.000000
2851.997159,-8660.409521,-592.164754,306.438199
2851.997496,-10362.883188,0.000000,-995.924147
2851.997833,-11621.233289,-370.102971,-1991.848295
2851.998171,-11917.315666,-1702.473667,-1455.581446
2851.998508,-9992.780217,-1998.556043,-766.095498
2851.998845,-9326.594869,-2146.597232,612.876398
2851.999183,-9548.656652,-1776.494261,612.876398
2851.999520,-10436.903782,-2812.782580,842.705048
2851.999857,-10510.924376,-3034.844362,1455.581446
2852.000195,-10288.862594,-1628.453072,2221.676944
2852.000532,-9992.780217,370.102971,2451.505594
2852.000869,-10658.965565,1110.308913,536.266849
2852.001207,-11621.233289,0.000000,-383.047749
2852.001544,-11399.171507,-74.020594,229.828649
2852.001881,-9696.697840,74.020594,919.314598
2852.002219,-9400.615463,444.123565,383.047749
2852.002556,-9918.759623,222.061783,-153.219100
2852.002893,-9844.739029,-1702.473667,-1072.533697
2852.003231,-9992.780217,-1776.494261,459.657299
2852.003568,-9030.512492,-444.123565,1378.971896
2852.003905,-9178.553681,888.247130,536.266849
2852.004243,-9770.718434,1110.308913,-766.095498
2852.004580,-10807.006753,74.020594,-383.047749
2852.004917,-10881.027347,-518.144159,-306.438199
2852.005255,-9622.677246,-370.102971,536.266849
2852.005592,-8882.471304,296.082377,1685.410096
2852.005929,-9252.574275,148.041188,1532.190996
2852.006267,-9548.656652,-740.205942,766.095498
2852.006604,-10214.842000,-962.267725,1532.190996
2852.006941,-9030.512492,296.082377,2604.724693
2852.007279,-9178.553681,1406.391290,1991.848295
2852.007616,-10881.027347,2294.638420,689.485948
2852.007953,-11177.109724,1184.329507,-612.876398
2852.008291,-11325.150913,0.000000,229.828649
2852.008628,-9474.636058,222.061783,383.047749
2852.008965,-8734.430116,518.144159,229.828649
2852.009303,-9548.656652,74.020594,-306.438199
2852.009640,-10066.800811,-2072.576638,-1838.629195
2852.009977,-10140.821405,-2442.679609,-536.266849
2852.010315,-9400.615463,-962.267725,766.095498
2852.010652,-9770.718434,-74.020594,383.047749
2852.010989,-10881.027347,74.020594,-1838.629195
2852.011327,-11769.274478,-1628.453072,-2451.505594
2852.011664,-11621.233289,-2664.741391,-1378.971896
2852.012001,-9770.718434,-2516.700203,-76.609550
2852.012339,-9622.677246,-1702.473667,612.876398
2852.012676,-10140.821405,-2072.576638,76.609550
2852.013013,-10436.903782,-2294.638420,-229.828649
2852.013351,-10362.883188,-2516.700203,1455.581446
2852.013688,-9844.739029,-592.164754,2757.943793
2852.014025,-9474.636058,518.144159,2911.162892
2852.014363,-11103.089130,1850.514855,1149.143247
2852.014700,-11547.212695,666.185348,0.000000
2852.015037,-10881.027347,592.164754,766.095498
2852.015375,-9696.697840,370.102971,1455.581446
2852.015712,-8512.368333,1924.535449,459.657299
2852.016049,-9252.574275,888.247130,-229.828649
2852.016387,-10066.800811,-296.082377,-766.095498
2852.016724,-8734.430116,-148.041188,-383.047749
2852.017061,-8660.409521,888.247130,1225.752797
2852.017399,-8808.450710,2368.659014,766.095498
2852.017736,-9918.759623,2442.679609,-919.314598
2852.018073,-11029.068536,1258.350101,-2374.896044
2852.018411,-11029.068536,-962.267725,-995.924147
2852.018748,-9474.636058,-222.061783,153.219100
2852.019085,-9178.553681,-444.123565,536.266849
2852.019423,-10066.800811,-222.061783,0.000000
2852.019760,-9770.718434,-1850.514855,-842.705048
2852.020097,-10140.821405,-2442.679609,306.438199
2852.020435,-9252.574275,-814.226536,1762.019645
2852.020772,-9770.718434,222.061783,2221.676944
2852.021109,-10732.986159,1184.329507,383.047749
2852.021447,-11843.295072,-222.061783,76.609550
2852.021784,-11843.295072,-370.102971,612.876398
2852.022121,-9622.677246,0.000000,1072.533697
2852.022459,-9622.677246,74.020594,1608.800546
2852.022796,-9548.656652,-1258.350101,-306.438199
2852.023133,-10140.821405,-1850.514855,-766.095498
2852.023471,-10066.800811,-2738.761985,383.047749
2852.023808,-8660.409521,-592.164754,842.705048
2852.024145,-9178.553681,-148.041188,612.876398
2852.024483,-10732.986159,888.247130,-995.924147
2852.024820,-11251.130318,148.041188,-2298.286494
2852.025157,-11843.295072,-1702.473667,-1072.533697
2852.025495,-9474.636058,-2220.617826,0.000000
2852.025832,-8142.265362,-1258.350101,459.657299
2852.026169,-9696.697840,-1258.350101,1149.143247
2852.026507,-10140.821405,-1776.494261,0.000000
2852.026844,-10214.842000,-1924.535449,612.876398
2852.027181,-9474.636058,-1110.308913,2604.724693
2852.027519,-9178.553681,1110.308913,2221.676944
2852.027856,-10807.006753,1702.473667,1532.190996
2852.028193,-11473.192101,1184.329507,919.314598
2852.028531,-11103.089130,1036.288319,995.924147
2852.028868,-9548.656652,1406.391290,1685.410096
2852.029205,-9030.512492,1924.535449,1302.362347
2852.029543,-9252.574275,888.247130,536.266849
2852.029880,-9844.739029,0.000000,459.657299
2852.030217,-9992.780217,-148.041188,689.485948
2852.030555,-8364.327145,1258.350101,1072.533697
2852.030892,-9474.636058,1850.514855,689.485948
2852.031229,-11029.068536,2368.659014,-689.485948
2852.031567,-11325.150913,0.000000,-2451.505594
2852.031904,-10955.047942,-444.123565,-1762.019645
2852.032241,-8956.491898,-1406.391290,-1532.190996
2852.032579,-8438.347739,-2146.597232,-536.266849
2852.032916,-9474.636058,-1924.535449,-766.095498
2852.033253,-10362.883188,-2590.720797,-995.924147
2852.033590,-10436.903782,-2812.782580,-383.047749
2852.033928,-8882.471304,-1776.494261,0.000000
2852.034265,-10140.821405,-1036.288319,1302.362347
2852.034602,-10881.027347,-592.164754,76.609550
2852.034939,-11399.171507,-740.205942,-306.438199
2852.035277,-11843.295072,-1924.535449,842.705048
2852.035614,-9918.759623,-1110.308913,459.657299
2852.035951,-9104.533087,-370.102971,1225.752797
2852.036288,-10658.965565,-962.267725,536.266849
2852.036625,-10214.842000,-1406.391290,-383.047749
2852.036963,-10362.883188,-1480.411884,689.485948
2852.037300,-9252.574275,222.061783,1532.190996
2852.037637,-9400.615463,1776.494261,995.924147
2852.037974,-11103.089130,2072.576638,-76.609550
2852.038312,-11547.212695,370.102971,-1762.019645
2852.038649,-11103.089130,0.000000,-1685.410096
2852.038986,-9918.759623,148.041188,-459.657299
2852.039323,-8808.450710,0.000000,-459.657299
2852.039660,-9030.512492,-370.102971,-229.828649
2852.039998,-9622.677246,-1850.514855,306.438199
2852.040335,-9548.656652,-1110.308913,1608.800546
2852.040672,-9030.512492,0.000000,2374.896044
2852.041009,-9474.636058,1628.453072,2068.457845
2852.041347,-10658.965565,1776.494261,919.314598
2852.041684,-11473.192101,592.164754,766.095498
2852.042021,-11029.068536,666.185348,1302.362347
2852.042358,-9770.718434,814.226536,1685.410096
2852.042696,-8882.471304,962.267725,1915.238745
2852.043033,-9178.553681,962.267725,536.266849
2852.043370,-9844.739029,-1110.308913,1072.533697
2852.043707,-9770.718434,-888.247130,1378.971896
2852.044044,-9030.512492,0.000000,2528.115143
2852.044382,-9622.677246,2368.659014,1149.143247
2852.044719,-10732.986159,1924.535449,-1149.143247
2852.045056,-11991.336260,74.020594,-1838.629195
2852.045393,-10881.027347,-888.247130,-2604.724693
2852.045731,-9474.636058,-1332.370696,-1532.190996
2852.046068,-9622.677246,-1184.329507,-459.657299
2852.046405,-9474.636058,-1924.535449,-1532.190996
2852.046742,-10066.800811,-3478.967927,-2145.067394
2852.047079,-11029.068536,-3034.844362,-306.438199
2852.047417,-9622.677246,-1628.453072,536.266849
2852.047754,-10288.862594,-518.144159,459.657299
2852.048091,-11399.171507,-592.164754,0.000000
2852.048428,-11473.192101,-1480.411884,-689.485948
2852.048766,-11177.109724,-1924.535449,689.485948
2852.049103,-10140.821405,-592.164754,1915.238745
2852.049440,-9326.594869,0.000000,1225.752797
2852.049777,-10140.821405,0.000000,995.924147
2852.050114,-10214.842000,-1332.370696,1302.362347
2852.050452,-9844.739029,-370.102971,1991.848295
2852.050789,-9474.636058,1110.308913,2604.724693
2852.051126,-9622.677246,2368.659014,1072.533697
2852.051463,-10658.965565,2812.782580,-459.657299
2852.051801,-11399.171507,1184.329507,-1838.629195
2852.052138,-10436.903782,222.061783,-1455.581446
2852.052475,-8808.450710,-74.020594,-306.438199
2852.052812,-8290.306550,518.144159,0.000000
2852.053149,-8660.409521,0.000000,-995.924147
2852.053487,-9548.656652,-1628.453072,-1225.752797
2852.053824,-9400.615463,-1036.288319,306.438199
2852.054161,-9548.656652,-296.082377,1532.190996
2852.054498,-9696.697840,1406.391290,1225.752797
2852.054836,-11399.171507,1998.556043,0.000000
2852.055173,-12139.377449,-518.144159,-1455.581446
2852.055510,-10807.006753,-1628.453072,-459.657299
2852.055847,-8956.491898,-1480.411884,1072.533697
2852.056184,-8586.388927,-444.123565,1608.800546
2852.056522,-8956.491898,-1036.288319,229.828649
2852.056859,-10955.047942,-2516.700203,842.705048
2852.057196,-10140.821405,-1480.411884,1225.752797
2852.057533,-9548.656652,0.000000,2451.505594
2852.057871,-10288.862594,1406.391290,1915.238745
2852.058208,-11251.130318,1258.350101,-612.876398
2852.058545,-11917.315666,-296.082377,-1072.533697
2852.058882,-11399.171507,-1554.432478,-995.924147
2852.059219,-9030.512492,-2072.576638,229.828649
2852.059557,-9030.512492,-1628.453072,383.047749
2852.059894,-9696.697840,-1924.535449,-689.485948
2852.060231,-9918.759623,-1702.473667,-1762.019645
2852.060568,-10140.821405,-2072.576638,-383.047749
2852.060906,-9252.574275,-962.267725,995.924147
2852.061243,-9104.533087,370.102971,76.609550
2852.061580,-11251.130318,962.267725,-306.438199
2852.061917,-11917.315666,-518.144159,-306.438199
2852.062255,-10807.006753,-1110.308913,383.047749
2852.062592,-9474.636058,0.000000,2221.676944
2852.062929,-9252.574275,0.000000,2451.505594
2852.063266,-9622.677246,0.000000,1455.581446
2852.063603,-10214.842000,-888.247130,2068.457845
2852.063941,-9770.718434,74.020594,3447.429741
2852.064278,-8882.471304,1554.432478,2604.724693
2852.064615,-9400.615463,3849.070898,1608.800546
2852.064952,-11695.253884,4145.153275,-459.657299
2852.065290,-12213.398043,2072.576638,-1762.019645
2852.065627,-10732.986159,1332.370696,-1762.019645
2852.065964,-8660.409521,296.082377,-383.047749
2852.066301,-8290.306550,222.061783,0.000000
2852.066638,-9178.553681,-666.185348,-995.924147
2852.066976,-9622.677246,-1554.432478,-1149.143247
2852.067313,-9474.636058,-1110.308913,-153.219100
2852.067650,-9400.615463,-74.020594,-76.609550
2852.067987,-10214.842000,592.164754,-612.876398
2852.068325,-10584.944971,-296.082377,-1915.238745
2852.068662,-11769.274478,-1110.308913,-995.924147
2852.068999,-10881.027347,-1702.473667,-689.485948
2852.069336,-9474.636058,-1850.514855,0.000000
2852.069673,-9474.636058,-1702.473667,1455.581446
2852.070011,-9844.739029,-2664.741391,536.266849
2852.070348,-10436.903782,-2368.659014,1532.190996
2852.070685,-10510.924376,-2516.700203,2374.896044
2852.071022,-10140.821405,-444.123565,2681.334243
2852.071360,-10214.842000,1184.329507,1762.019645
2852.071697,-11695.253884,1924.535449,383.047749
2852.072034,-11917.315666,0.000000,-919.314598
2852.072371,-10732.986159,-888.247130,-995.924147
2852.072708,-9030.512492,-444.123565,383.047749
2852.073046,-8808.450710,-296.082377,-306.438199
2852.073383,-9178.553681,-666.185348,-229.828649
2852.073720,-10140.821405,-1184.329507,-766.095498
2852.074057,-9918.759623,-740.205942,306.438199
2852.074395,-8956.491898,1258.350101,153.219100
2852.074732,-10066.800811,1110.308913,-153.219100
2852.075069,-10658.965565,962.267725,-689.485948
2852.075406,-11325.150913,-666.185348,-919.314598
2852.075743,-10658.965565,-592.164754,612.876398
2852.076081,-8882.471304,0.000000,1149.143247
2852.076418,-8734.430116,0.000000,1608.800546
2852.076755,-9030.512492,-1480.411884,1455.581446
2852.077092,-9770.718434,-1480.411884,1915.238745
2852.077430,-9474.636058,222.061783,3370.820191
2852.077767,-9474.636058,1406.391290,3140.991542
2852.078104,-10436.903782,3478.967927,1915.238745
2852.078441,-11769.274478,2664.741391,-229.828649
2852.078778,-12139.377449,592.164754,-919.314598
2852.079116,-10510.924376,-148.041188,-919.314598
2852.079453,-8438.347739,-1036.288319,76.609550
2852.079790,-8438.347739,-370.102971,76.609550
2852.080127,-9030.512492,-1258.350101,-919.314598
2852.080465,-10066.800811,-1702.473667,-229.828649
2852.080802,-10436.903782,-1184.329507,-306.438199
2852.081139,-9770.718434,-222.061783,153.219100
2852.081476,-10214.842000,1110.308913,-1072.533697
2852.081814,-11177.109724,0.000000,-2451.505594
2852.082151,-11325.150913,-1850.514855,-2298.286494
2852.082488,-10658.965565,-2960.823768,-1072.533697
2852.082825,-9178.553681,-2368.659014,153.219100
2852.083162,-9030.512492,-1850.514855,76.609550
2852.083500,-9474.636058,-2664.741391,459.657299
2852.083837,-10881.027347,-3256.906145,919.314598
2852.084174,-10288.862594,-1998.556043,2451.505594
2852.084511,-9844.739029,740.205942,3524.039291
2852.084849,-10881.027347,2442.679609,2068.457845
2852.085186,-11991.336260,1998.556043,766.095498
2852.085523,-12139.377449,518.144159,-536.266849
2852.085860,-10732.986159,0.000000,76.609550
2852.086197,-8586.388927,222.061783,766.095498
2852.086535,-8882.471304,370.102971,1455.581446
2852.086872,-9104.533087,296.082377,-229.828649
2852.087209,-9474.636058,-444.123565,-153.219100
2852.087546,-9252.574275,592.164754,842.705048
2852.087884,-8660.409521,1628.453072,689.485948
2852.088221,-9918.759623,2516.700203,-306.438199
2852.088558,-10881.027347,1998.556043,-1762.019645
2852.088895,-11177.109724,0.000000,-1608.800546
2852.089232,-10214.842000,-370.102971,383.047749
2852.089570,-8586.388927,-1554.432478,689.485948
2852.089907,-8068.244768,-592.164754,1225.752797
2852.090244,-9030.512492,-1406.391290,919.314598
2852.090581,-10066.800811,-2368.659014,842.705048
2852.090919,-9918.759623,-1998.556043,2374.896044
2852.091256,-9104.533087,222.061783,2757.943793
2852.091593,-10436.903782,1924.535449,1838.629195
2852.091930,-11547.212695,1110.308913,-536.266849
2852.092267,-11991.336260,0.000000,-766.095498
2852.092605,-10881.027347,-1406.391290,0.000000
2852.092942,-9030.512492,-1110.308913,1378.971896
2852.093279,-8882.471304,-1258.350101,383.047749
2852.093616,-10140.821405,-1776.494261,-153.219100
2852.093954,-10510.924376,-1776.494261,-919.314598
2852.094291,-10510.924376,-1110.308913,0.000000
2852.094628,-9918.759623,0.000000,229.828649
2852.094965,-10436.903782,1258.350101,-842.705048
2852.095302,-11843.295072,444.123565,-2221.676944
2852.095640,-11695.253884,-1628.453072,-2911.162892
2852.095977,-10140.821405,-2368.659014,-1149.143247
2852.096314,-9104.533087,-1776.494261,536.266849
2852.096651,-8142.265362,-2072.576638,229.828649
2852.096989,-9474.636058,-1776.494261,0.000000
2852.097326,-10732.986159,-1998.556043,689.485948
2852.097663,-10436.903782,-1184.329507,1302.362347
2852.098000,-9622.677246,962.267725,2528.115143
2852.098337,-10214.842000,1628.453072,1762.019645
2852.098675,-10955.047942,2072.576638,0.000000
2852.099012,-11917.315666,222.061783,-766.095498
2852.099349,-10140.821405,0.000000,306.438199
2852.099686,-8216.285956,0.000000,1225.752797
2852.100024,-8438.347739,740.205942,1608.800546
2852.100361,-9326.594869,740.205942,536.266849
2852.100698,-9770.718434,-148.041188,306.438199
2852.101035,-9474.636058,1110.308913,612.876398
2852.101372,-9400.615463,1998.556043,1378.971896
2852.101710,-10955.047942,2960.823768,-153.219100
2852.102047,-11251.130318,1628.453072,-1991.848295
2852.102384,-11621.233289,-518.144159,-2068.457845
2852.102721,-9844.739029,-1480.411884,-995.924147
2852.103059,-8142.265362,-1924.535449,-689.485948
2852.103396,-7920.203579,-2368.659014,842.705048
2852.103733,-8956.491898,-2812.782580,0.000000
2852.104070,-10362.883188,-3034.844362,1302.362347
2852.104408,-10955.047942,-1702.473667,2451.505594
2852.104745,-9844.739029,370.102971,2374.896044
2852.105082,-11103.089130,222.061783,1302.362347
2852.105419,-12139.377449,0.000000,0.000000
2852.105756,-11991.336260,-1258.350101,-842.705048
2852.106094,-10732.986159,-2294.638420,1225.752797
2852.106431,-8882.471304,-2294.638420,1302.362347
2852.106768,-8290.306550,-1554.432478,689.485948
2852.107105,-10066.800811,-1184.329507,383.047749
2852.107443,-10658.965565,-1480.411884,0.000000
2852.107780,-9844.739029,-518.144159,612.876398
2852.108117,-9770.718434,1702.473667,1072.533697
2852.108454,-9992.780217,2072.576638,-153.219100
2852.108791,-11251.130318,1258.350101,-1302.362347
2852.109129,-11251.130318,-222.061783,-1838.629195
2852.109466,-9992.780217,-592.164754,-689.485948
2852.109803,-8882.471304,0.000000,0.000000
2852.110140,-8882.471304,-444.123565,0.000000
2852.110478,-9326.594869,-740.205942,-689.485948
2852.110815,-9770.718434,-2072.576638,1225.752797
2852.111152,-9400.615463,0.000000,1915.238745
2852.111489,-9104.533087,1776.494261,2145.067394
2852.111826,-10955.047942,3034.844362,919.314598
2852.112164,-11843.295072,1924.535449,-919.314598
2852.112501,-11843.295072,370.102971,-1149.143247
2852.112838,-9770.718434,0.000000,459.657299
2852.113175,-8512.368333,296.082377,1762.019645
2852.113513,-8956.491898,0.000000,1455.581446
2852.113850,-9030.512492,222.061783,0.000000
2852.114187,-10436.903782,-370.102971,689.485948
2852.114524,-10436.903782,518.144159,1302.362347
2852.114861,-9696.697840,1776.494261,229.828649
2852.115199,-10510.924376,2368.659014,-229.828649
2852.115536,-10510.924376,888.247130,-1991.848295
2852.115873,-10732.986159,-962.267725,-2298.286494
2852.116210,-10584.944971,-1554.432478,-919.314598
2852.116548,-8808.450710,-592.164754,-1149.143247
2852.116885,-9252.574275,-1554.432478,-689.485948
2852.117222,-9696.697840,-2812.782580,-1072.533697
2852.117559,-9992.780217,-3330.926739,383.047749
2852.117896,-10362.883188,-2368.659014,2068.457845
2852.118234,-9918.759623,-740.205942,2221.676944
2852.118571,-10584.944971,518.144159,459.657299
2852.118908,-12509.480420,222.061783,-536.266849
2852.119245,-12657.521608,-1480.411884,-229.828649
2852.119583,-10066.800811,-2220.617826,842.705048
2852.119920,-8882.471304,-1406.391290,2374.896044
2852.120257,-9252.574275,-296.082377,2528.115143
2852.120594,-9252.574275,-814.226536,1455.581446
2852.120931,-10732.986159,-1036.288319,1455.581446
2852.121269,-9844.739029,740.205942,2451.505594
2852.121606,-9844.739029,2220.617826,1838.629195
2852.121943,-10436.903782,2886.803174,612.876398
2852.122280,-10807.006753,1406.391290,-1455.581446
2852.122618,-10732.986159,592.164754,-1072.533697
2852.122955,-9992.780217,74.020594,-229.828649
2852.123292,-8438.347739,-148.041188,766.095498
2852.123629,-8734.430116,-444.123565,0.000000
2852.123967,-8142.265362,-1258.350101,-689.485948
2852.124304,-9696.697840,-1702.473667,153.219100
2852.124641,-9178.553681,-888.247130,1225.752797
2852.124978,-9030.512492,592.164754,2145.067394
2852.125315,-10732.986159,2368.659014,0.000000
2852.125653,-11547.212695,1184.329507,-1838.629195
2852.125990,-11843.295072,-740.205942,-1838.629195
2852.126327,-10140.821405,-2072.576638,-612.876398
2852.126664,-7994.224174,-2146.597232,766.095498
2852.127002,-8734.430116,-740.205942,1225.752797
2852.127339,-9770.718434,-1480.411884,229.828649
2852.127676,-10807.006753,-1406.391290,536.266849
2852.128013,-10436.903782,-592.164754,1685.410096
2852.128350,-9770.718434,1480.411884,459.657299
2852.128688,-11325.150913,1924.535449,76.609550
2852.129025,-12287.418637,1406.391290,-1225.752797
