#time,accel_x,accel_y,accel_z
3300.153355,-10584.944971,-740.205942,2757.943793
3300.153693,-10214.842000,-222.061783,1915.238745
3300.154031,-10436.903782,-666.185348,2221.676944
3300.154369,-9844.739029,-740.205942,1762.019645
3300.154707,-9474.636058,-740.205942,2374.896044
3300.155044,-10732.986159,-740.205942,2757.943793
3300.155382,-9622.677246,-296.082377,1838.629195
3300.155720,-8956.491898,0.000000,1072.533697
3300.156058,-9252.574275,148.041188,1225.752797
3300.156395,-9400.615463,740.205942,842.705048
3300.156733,-9326.594869,222.061783,0.000000
3300.157071,-9104.533087,148.041188,-76.609550
3300.157409,-9622.677246,0.000000,0.000000
3300.157747,-9548.656652,-740.205942,766.095498
3300.158084,-9622.677246,-814.226536,1762.019645
3300.158422,-9474.636058,-1554.432478,1608.800546
3300.158760,-9474.636058,-1332.370696,3217.601092
3300.159098,-10436.903782,-518.144159,3064.381992
3300.159436,-10510.924376,-296.082377,3447.429741
3300.159773,-10362.883188,-666.185348,2987.772442
3300.160111,-11029.068536,0.000000,3983.696590
3300.160449,-11547.212695,-666.185348,4519.963438
3300.160787,-10807.006753,-1406.391290,4213.525239
3300.161124,-10362.883188,-2146.597232,4903.011187
3300.161462,-10066.800811,-3330.926739,5209.449386
3300.161800,-10140.821405,-2738.761985,5132.839837
3300.162138,-10288.862594,-3478.967927,3983.696590
3300.162476,-10436.903782,-2738.761985,2221.676944
3300.162813,-9400.615463,-3552.988522,1072.533697
3300.163151,-10140.821405,-3627.009116,766.095498
3300.163489,-9326.594869,-3775.050304,153.219100
3300.163827,-9400.615463,-4071.132681,689.485948
3300.164164,-9844.739029,-5033.400406,1532.190996
3300.164502,-8882.471304,-5477.523971,1608.800546
3300.164840,-10140.821405,-5995.668130,2834.553343
3300.165178,-10510.924376,-5921.647536,2987.772442
3300.165516,-9400.615463,-5995.668130,2528.115143
3300.165853,-9770.718434,-4441.235652,3524.039291
3300.166191,-9696.697840,-5033.400406,3524.039291
3300.166529,-10510.924376,-4663.297435,4290.134789
3300.166867,-10955.047942,-5033.400406,4596.572988
3300.167204,-10807.006753,-3997.112087,4136.915689
3300.167542,-10807.006753,-1776.494261,3294.210641
3300.167880,-11103.089130,-1850.514855,2374.896044
3300.168218,-9844.739029,-2960.823768,1685.410096
3300.168556,-9030.512492,-3775.050304,2298.286494
3300.168893,-8364.327145,-3108.864956,4596.572988
3300.169231,-9474.636058,-2442.679609,3447.429741
3300.169569,-10288.862594,-1998.556043,1608.800546
3300.169907,-10066.800811,-2442.679609,995.924147
3300.170244,-10510.924376,-3552.988522,2834.553343
3300.170582,-10436.903782,-2738.761985,3753.867940
3300.170920,-9548.656652,-1924.535449,1532.190996
3300.171258,-9104.533087,-1776.494261,-306.438199
3300.171596,-9474.636058,-3034.844362,-612.876398
3300.171933,-10732.986159,-4367.215058,612.876398
3300.172271,-9400.615463,-4737.318029,995.924147
3300.172609,-7179.997637,-3256.906145,1225.752797
3300.172947,-8586.388927,-3478.967927,2451.505594
3300.173284,-11621.233289,-3701.029710,2834.553343
3300.173622,-11473.192101,-3478.967927,2451.505594
3300.173960,-9992.780217,-1184.329507,2451.505594
3300.174298,-10214.842000,0.000000,2987.772442
3300.174635,-12509.480420,-148.041188,2068.457845
3300.174973,-11695.253884,-1850.514855,1762.019645
3300.175311,-8586.388927,-2146.597232,2987.772442
3300.175648,-8586.388927,-2590.720797,6588.421283
3300.175986,-11991.336260,-1258.350101,6205.373534
3300.176323,-12657.521608,-296.082377,2068.457845
3300.176661,-11325.150913,148.041188,306.438199
3300.176999,-9622.677246,370.102971,1225.752797
3300.177336,-9400.615463,0.000000,536.266849
3300.177674,-9992.780217,148.041188,1532.190996
3300.178011,-10140.821405,-740.205942,919.314598
3300.178349,-10510.924376,-370.102971,-306.438199
3300.178687,-10140.821405,-666.185348,-306.438199
3300.179024,-9474.636058,-370.102971,2145.067394
3300.179362,-8586.388927,-1628.453072,2528.115143
3300.179699,-9696.697840,-2516.700203,3524.039291
3300.180037,-9474.636058,-370.102971,4673.182538
3300.180375,-9474.636058,518.144159,3830.477490
3300.180712,-11103.089130,1554.432478,3524.039291
3300.181050,-11177.109724,1332.370696,1685.410096
3300.181387,-11473.192101,1702.473667,2451.505594
3300.181725,-9622.677246,1110.308913,3447.429741
3300.182063,-8364.327145,1702.473667,2987.772442
3300.182400,-8586.388927,962.267725,2374.896044
3300.182738,-9474.636058,518.144159,995.924147
3300.183075,-10881.027347,-296.082377,1685.410096
3300.183413,-9326.594869,-296.082377,2528.115143
3300.183751,-8956.491898,222.061783,3370.820191
3300.184088,-10436.903782,296.082377,2911.162892
3300.184426,-11473.192101,888.247130,229.828649
3300.184763,-11917.315666,592.164754,-2528.115143
3300.185101,-10881.027347,-1332.370696,-2374.896044
3300.185439,-9474.636058,-3775.050304,229.828649
3300.185776,-9178.553681,-4515.256246,383.047749
3300.186114,-8734.430116,-4071.132681,-229.828649
3300.186451,-9178.553681,-3330.926739,-1225.752797
3300.186789,-9622.677246,-5033.400406,0.000000
3300.187127,-10436.903782,-5107.421000,1072.533697
3300.187464,-11177.109724,-3701.029710,2374.896044
3300.187802,-10584.944971,-1332.370696,383.047749
3300.188139,-12287.418637,-666.185348,-766.095498
3300.188477,-10584.944971,-1406.391290,-1455.581446
3300.188815,-10214.842000,-3701.029710,919.314598
3300.189152,-11177.109724,-3330.926739,1991.848295
3300.189490,-9252.574275,-2368.659014,0.000000
3300.189827,-10362.883188,-1702.473667,-536.266849
3300.190165,-9548.656652,-3182.885551,-919.314598
3300.190503,-7179.997637,-3997.112087,306.438199
3300.190840,-9474.636058,-2294.638420,2451.505594
3300.191178,-9474.636058,370.102971,919.314598
3300.191515,-11251.130318,1332.370696,-1685.410096
3300.191853,-11843.295072,1924.535449,-3370.820191
3300.192191,-10066.800811,-1924.535449,-2374.896044
3300.192528,-10436.903782,-1850.514855,995.924147
3300.192866,-8586.388927,-962.267725,2374.896044
3300.193203,-8068.244768,-740.205942,1455.581446
3300.193541,-10140.821405,-2960.823768,383.047749
3300.193879,-9474.636058,-5107.421000,2451.505594
3300.194216,-9252.574275,-3034.844362,4749.792088
3300.194554,-9770.718434,666.185348,4519.963438
3300.194891,-11769.274478,2886.803174,995.924147
3300.195229,-12287.418637,3256.906145,-2528.115143
3300.195567,-9770.718434,1406.391290,-2145.067394
3300.195904,-8882.471304,1036.288319,689.485948
3300.196242,-8290.306550,1480.411884,1915.238745
3300.196579,-10140.821405,518.144159,2681.334243
3300.196917,-11473.192101,-1628.453072,2068.457845
3300.197255,-9400.615463,-3330.926739,1608.800546
3300.197592,-9252.574275,-1554.432478,3524.039291
3300.197930,-9474.636058,1332.370696,2528.115143
3300.198267,-10955.047942,2294.638420,-766.095498
3300.198605,-11621.233289,2442.679609,-3677.258390
3300.198943,-10288.862594,0.000000,-3294.210641
3300.199280,-9474.636058,740.205942,-1762.019645
3300.199618,-9548.656652,592.164754,-306.438199
3300.199955,-10140.821405,-1110.308913,-1302.362347
3300.200293,-10881.027347,-3330.926739,-1225.752797
3300.200631,-9844.739029,-4737.318029,536.266849
3300.200968,-7846.182985,-2590.720797,2145.067394
3300.201306,-7772.162391,-222.061783,1378.971896
3300.201643,-12509.480420,1628.453072,306.438199
3300.201981,-14063.912898,2072.576638,-1762.019645
3300.202319,-11325.150913,518.144159,-1072.533697
3300.202656,-9474.636058,2442.679609,1149.143247
3300.202994,-9030.512492,2368.659014,1991.848295
3300.203331,-10955.047942,1776.494261,995.924147
3300.203669,-11769.274478,-370.102971,536.266849
3300.204007,-9844.739029,-2294.638420,2681.334243
3300.204344,-8068.244768,962.267725,2604.724693
3300.204682,-8438.347739,2368.659014,2145.067394
3300.205019,-11029.068536,3256.906145,-919.314598
3300.205357,-10881.027347,1850.514855,-2451.505594
3300.205695,-10658.965565,2368.659014,-2451.505594
3300.206032,-7254.018232,3775.050304,-2528.115143
3300.206370,-9030.512492,2812.782580,-1762.019645
3300.206707,-11769.274478,0.000000,-1532.190996
3300.207045,-10140.821405,-3330.926739,-1762.019645
3300.207383,-7846.182985,-2812.782580,1455.581446
3300.207720,-7254.018232,-1184.329507,3753.867940
3300.208058,-8882.471304,-296.082377,2145.067394
3300.208395,-12065.356855,0.000000,-766.095498
3300.208733,-11769.274478,-740.205942,-1532.190996
3300.209071,-10510.924376,-592.164754,-919.314598
3300.209408,-10140.821405,592.164754,1072.533697
3300.209746,-10362.883188,-592.164754,612.876398
3300.210083,-10362.883188,-1850.514855,0.000000
3300.210421,-10362.883188,-3923.091493,995.924147
3300.210759,-10066.800811,-3701.029710,3140.991542
3300.211096,-8956.491898,-962.267725,2681.334243
3300.211434,-10732.986159,-222.061783,153.219100
3300.211771,-11843.295072,222.061783,-2221.676944
3300.212109,-10584.944971,-2368.659014,-2987.772442
3300.212447,-9400.615463,-1628.453072,-842.705048
3300.212784,-7698.141797,-740.205942,612.876398
3300.213122,-10658.965565,-1258.350101,76.609550
3300.213459,-12361.439231,-3849.070898,-842.705048
3300.213797,-11399.171507,-5107.421000,-612.876398
3300.214135,-8216.285956,-3627.009116,2298.286494
3300.214472,-7254.018232,-2294.638420,2221.676944
3300.214810,-9844.739029,-1406.391290,306.438199
3300.215147,-10436.903782,-2146.597232,-2145.067394
3300.215485,-9326.594869,-2664.741391,-1378.971896
3300.215823,-8438.347739,-370.102971,612.876398
3300.216160,-8882.471304,222.061783,1685.410096
3300.216498,-12435.459826,222.061783,1378.971896
3300.216835,-12213.398043,-1628.453072,919.314598
3300.217173,-9770.718434,-1702.473667,3217.601092
3300.217511,-8734.430116,814.226536,5362.668486
3300.217848,-8956.491898,1258.350101,3753.867940
3300.218186,-11177.109724,1850.514855,766.095498
3300.218523,-10658.965565,1036.288319,-1455.581446
3300.218861,-9918.759623,740.205942,-153.219100
3300.219199,-7994.224174,2294.638420,153.219100
3300.219536,-9030.512492,1258.350101,229.828649
3300.219874,-11325.150913,592.164754,-2374.896044
3300.220211,-10881.027347,-1332.370696,-2987.772442
3300.220549,-10362.883188,-740.205942,76.609550
3300.220887,-8586.388927,0.000000,1532.190996
3300.221224,-9252.574275,-370.102971,995.924147
3300.221562,-11177.109724,-888.247130,-1225.752797
3300.221899,-10140.821405,-2294.638420,-2298.286494
3300.222237,-8808.450710,-1776.494261,0.000000
3300.222575,-8438.347739,-148.041188,1532.190996
3300.222912,-10214.842000,-592.164754,459.657299
3300.223250,-12287.418637,-1480.411884,-1149.143247
3300.223588,-11695.253884,-2516.700203,459.657299
3300.223925,-10362.883188,-740.205942,2987.772442
3300.224263,-9400.615463,962.267725,3217.601092
3300.224600,-10732.986159,1554.432478,536.266849
3300.224938,-11473.192101,962.267725,-2221.676944
3300.225276,-10436.903782,0.000000,-1608.800546
3300.225613,-8882.471304,1332.370696,229.828649
3300.225951,-7846.182985,2146.597232,842.705048
3300.226288,-11251.130318,962.267725,229.828649
3300.226626,-11769.274478,-962.267725,-995.924147
3300.226964,-10066.800811,-1184.329507,306.438199
3300.227301,-9104.533087,1036.288319,3294.210641
3300.227639,-9474.636058,1998.556043,1762.019645
3300.227976,-11547.212695,2146.597232,-1378.971896
3300.228314,-11843.295072,1036.288319,-2451.505594
3300.228652,-9400.615463,-740.205942,-1685.410096
3300.228989,-7254.018232,1406.391290,0.000000
3300.229327,-8068.244768,740.205942,536.266849
3300.229664,-10732.986159,-444.123565,0.000000
3300.230002,-10066.800811,-2072.576638,0.000000
3300.230340,-9770.718434,-1924.535449,2604.724693
3300.230677,-9474.636058,1406.391290,4979.620737
3300.231015,-9918.759623,2072.576638,2528.115143
3300.231352,-12879.583391,3404.947333,612.876398
3300.231690,-11325.150913,740.205942,-1302.362347
3300.232028,-9622.677246,592.164754,0.000000
3300.232365,-8660.409521,592.164754,1149.143247
3300.232703,-9030.512492,592.164754,612.876398
3300.233040,-11251.130318,-888.247130,-383.047749
3300.233378,-10066.800811,-2812.782580,-536.266849
3300.233716,-8882.471304,-2442.679609,1149.143247
3300.234053,-8660.409521,-1406.391290,1685.410096
3300.234391,-10288.862594,-592.164754,229.828649
3300.234728,-11991.336260,-444.123565,-3064.381992
3300.235066,-10732.986159,-2590.720797,-3370.820191
3300.235404,-9252.574275,-2516.700203,-1225.752797
3300.235741,-8216.285956,-1998.556043,0.000000
3300.236079,-10732.986159,-2516.700203,229.828649
3300.236416,-11843.295072,-3923.091493,-612.876398
3300.236754,-10436.903782,-6439.791695,536.266849
3300.237092,-9548.656652,-4145.153275,3370.820191
3300.237429,-8956.491898,-2516.700203,4290.134789
3300.237767,-10955.047942,-666.185348,2451.505594
3300.238104,-12287.418637,-444.123565,229.828649
3300.238442,-10955.047942,-814.226536,0.000000
3300.238780,-9548.656652,740.205942,1762.019645
3300.239117,-8660.409521,1480.411884,1991.848295
3300.239455,-10214.842000,740.205942,229.828649
3300.239792,-11399.171507,-1480.411884,0.000000
3300.240130,-9696.697840,-1184.329507,1532.190996
3300.240468,-8512.368333,-370.102971,2834.553343
3300.240805,-8438.347739,1110.308913,2068.457845
3300.241143,-10658.965565,1628.453072,-1225.752797
3300.241480,-11251.130318,1332.370696,-2911.162892
3300.241818,-9474.636058,592.164754,-2834.553343
3300.242156,-8216.285956,1554.432478,-1225.752797
3300.242493,-8142.265362,1110.308913,-1072.533697
3300.242831,-10066.800811,518.144159,-1685.410096
3300.243168,-11103.089130,-1480.411884,-459.657299
3300.243506,-9622.677246,-2738.761985,1532.190996
3300.243844,-8512.368333,0.000000,2757.943793
3300.244181,-9992.780217,592.164754,2681.334243
3300.244519,-11843.295072,1036.288319,-459.657299
3300.244856,-11843.295072,518.144159,-1455.581446
3300.245194,-10807.006753,222.061783,-383.047749
3300.245532,-8660.409521,1554.432478,766.095498
3300.245869,-9548.656652,1776.494261,459.657299
3300.246207,-12065.356855,74.020594,0.000000
3300.246544,-11103.089130,-1184.329507,-842.705048
3300.246882,-9844.739029,-1332.370696,1455.581446
3300.247220,-8882.471304,962.267725,2451.505594
3300.247557,-9844.739029,740.205942,383.047749
3300.247895,-11695.253884,74.020594,-995.924147
3300.248232,-10066.800811,-888.247130,-2068.457845
3300.248570,-9178.553681,222.061783,-612.876398
3300.248908,-8660.409521,1184.329507,-383.047749
3300.249245,-9770.718434,0.000000,-842.705048
3300.249583,-11177.109724,-1332.370696,-1991.848295
3300.249920,-10584.944971,-3182.885551,-612.876398
3300.250258,-9326.594869,-962.267725,3370.820191
3300.250596,-8364.327145,222.061783,3140.991542
3300.250933,-10510.924376,962.267725,1455.581446
3300.251271,-11695.253884,814.226536,-1072.533697
3300.251608,-10584.944971,0.000000,-459.657299
3300.251946,-9474.636058,2220.617826,1915.238745
3300.252284,-8734.430116,2516.700203,2528.115143
3300.252621,-10510.924376,2812.782580,1762.019645
3300.252959,-11843.295072,1110.308913,459.657299
3300.253296,-10881.027347,74.020594,2374.896044
3300.253634,-8956.491898,1332.370696,3370.820191
3300.253972,-8438.347739,2738.761985,2681.334243
3300.254309,-10955.047942,3330.926739,459.657299
3300.254647,-11029.068536,1998.556043,-2068.457845
3300.254984,-9696.697840,740.205942,-1378.971896
3300.255322,-8734.430116,1628.453072,-306.438199
3300.255660,-7846.182985,1332.370696,-1149.143247
3300.255997,-10955.047942,0.000000,-1915.238745
3300.256335,-10807.006753,-3478.967927,-2145.067394
3300.256672,-8660.409521,-3923.091493,0.000000
3300.257010,-8216.285956,-2072.576638,2068.457845
3300.257348,-9474.636058,-1258.350101,1149.143247
3300.257685,-11843.295072,-1258.350101,-1455.581446
3300.258023,-11029.068536,-3034.844362,-1608.800546
3300.258360,-9178.553681,-2738.761985,-842.705048
3300.258698,-8512.368333,-1258.350101,995.924147
3300.259036,-10510.924376,-962.267725,1455.581446
3300.259373,-11843.295072,-2368.659014,-919.314598
3300.259711,-11473.192101,-4145.153275,842.705048
3300.260048,-10362.883188,-3182.885551,3064.381992
3300.260386,-9178.553681,-1480.411884,4366.744339
3300.260724,-10510.924376,0.000000,2451.505594
3300.261061,-11843.295072,0.000000,-1378.971896
3300.261399,-11325.150913,-1406.391290,-2068.457845
3300.261736,-9474.636058,-518.144159,-229.828649
3300.262074,-7476.080014,444.123565,153.219100
3300.262412,-9474.636058,-888.247130,0.000000
3300.262749,-10881.027347,-592.164754,-1455.581446
3300.263087,-10436.903782,-2886.803174,-229.828649
3300.263424,-9104.533087,-1628.453072,2145.067394
3300.263762,-8364.327145,444.123565,2374.896044
3300.264100,-11621.233289,592.164754,1302.362347
3300.264437,-11325.150913,740.205942,-1455.581446
3300.264775,-9548.656652,-1480.411884,-612.876398
3300.265112,-8956.491898,518.144159,2068.457845
3300.265450,-6883.915261,1184.329507,1532.190996
3300.265788,-9992.780217,1184.329507,919.314598
3300.266125,-11695.253884,148.041188,459.657299
3300.266463,-10066.800811,-1110.308913,1302.362347
3300.266800,-8734.430116,1406.391290,4290.134789
3300.267138,-8364.327145,2516.700203,2987.772442
3300.267476,-11251.130318,3404.947333,842.705048
3300.267813,-11991.336260,1628.453072,-1225.752797
3300.268151,-9918.759623,74.020594,-1072.533697
3300.268488,-8364.327145,2368.659014,766.095498
3300.268826,-8808.450710,1554.432478,383.047749
3300.269164,-11473.192101,444.123565,-842.705048
3300.269501,-10807.006753,-2664.741391,-1991.848295
3300.269839,-9326.594869,-2220.617826,459.657299
3300.270176,-8734.430116,74.020594,1455.581446
3300.270514,-10140.821405,740.205942,842.705048
3300.270852,-12213.398043,296.082377,-2221.676944
3300.271189,-11473.192101,-1184.329507,-3064.381992
3300.271527,-9696.697840,-1184.329507,-1225.752797
3300.271864,-8068.244768,222.061783,0.000000
3300.272202,-9622.677246,-888.247130,0.000000
3300.272540,-11695.253884,-1184.329507,-2068.457845
3300.272877,-11029.068536,-3923.091493,76.609550
3300.273215,-9844.739029,-2072.576638,2451.505594
3300.273552,-8290.306550,-518.144159,3677.258390
3300.273890,-10214.842000,2072.576638,2528.115143
3300.274228,-12435.459826,1776.494261,-1072.533697
3300.274565,-10732.986159,74.020594,-1302.362347
3300.274903,-9474.636058,1110.308913,919.314598
3300.275241,-8216.285956,2664.741391,1455.581446
3300.275578,-10066.800811,2664.741391,0.000000
3300.275916,-12583.501014,1554.432478,-1991.848295
3300.276253,-9918.759623,-1036.288319,-1378.971896
3300.276591,-8512.368333,0.000000,1915.238745
3300.276929,-8364.327145,2812.782580,2451.505594
3300.277266,-11177.109724,2960.823768,-919.314598
3300.277604,-12435.459826,1628.453072,-2834.553343
3300.277941,-10436.903782,-296.082377,-2528.115143
3300.278279,-7846.182985,518.144159,0.000000
3300.278617,-8142.265362,2146.597232,919.314598
3300.278954,-10955.047942,296.082377,-459.657299
3300.279292,-11103.089130,-1184.329507,-1608.800546
3300.279629,-9844.739029,-3256.906145,1225.752797
3300.279967,-8586.388927,-444.123565,3447.429741
3300.280305,-8512.368333,592.164754,3140.991542
3300.280642,-12139.377449,740.205942,76.609550
3300.280980,-10955.047942,-518.144159,-2145.067394
3300.281317,-8882.471304,-2146.597232,-995.924147
3300.281655,-8364.327145,444.123565,1915.238745
3300.281993,-9030.512492,0.000000,1302.362347
3300.282330,-11547.212695,-592.164754,-459.657299
3300.282668,-10955.047942,-2220.617826,-1072.533697
3300.283005,-10214.842000,-3478.967927,1378.971896
3300.283343,-8290.306550,-962.267725,1838.629195
3300.283681,-9030.512492,-814.226536,76.609550
3300.284018,-11695.253884,-1036.288319,-766.095498
3300.284356,-10584.944971,-2812.782580,-3140.991542
3300.284693,-9844.739029,-3256.906145,-766.095498
3300.285031,-8586.388927,-1480.411884,1225.752797
3300.285369,-9400.615463,-1924.535449,689.485948
3300.285706,-12139.377449,-2072.576638,-459.657299
3300.286044,-11473.192101,-3849.070898,0.000000
3300.286381,-9474.636058,-3034.844362,3753.867940
3300.286719,-9178.553681,-888.247130,4749.792088
3300.287057,-10362.883188,0.000000,2681.334243
3300.287394,-12509.480420,518.144159,-459.657299
3300.287732,-10955.047942,-1850.514855,0.000000
3300.288069,-8734.430116,296.082377,1762.019645
3300.288407,-7105.977043,1702.473667,2145.067394
3300.288745,-10214.842000,2294.638420,1915.238745
3300.289082,-12065.356855,148.041188,0.000000
3300.289420,-10362.883188,-1184.329507,1378.971896
3300.289757,-8586.388927,518.144159,3677.258390
3300.290095,-7772.162391,2590.720797,2604.724693
3300.290433,-10214.842000,2886.803174,-612.876398
3300.290770,-11843.295072,1628.453072,-3524.039291
3300.291108,-9918.759623,-148.041188,-3524.039291
3300.291446,-7550.100608,1184.329507,-2221.676944
3300.291783,-7624.121203,814.226536,-689.485948
3300.292121,-9844.739029,-518.144159,-1838.629195
3300.292458,-10881.027347,-2886.803174,-2757.943793
3300.292796,-9474.636058,-2146.597232,0.000000
3300.293134,-9252.574275,-1036.288319,1838.629195
3300.293471,-9770.718434,148.041188,1608.800546
3300.293809,-12213.398043,1332.370696,-612.876398
3300.294146,-12213.398043,-370.102971,-1608.800546
3300.294484,-10584.944971,-962.267725,76.609550
3300.294822,-9696.697840,814.226536,1685.410096
3300.295159,-9844.739029,1554.432478,1302.362347
3300.295497,-12065.356855,0.000000,0.000000
3300.295834,-11843.295072,-1776.494261,-1072.533697
3300.296172,-9918.759623,-814.226536,0.000000
3300.296510,-8956.491898,1258.350101,1838.629195
3300.296847,-9548.656652,1406.391290,229.828649
3300.297185,-11251.130318,1850.514855,-2834.553343
3300.297522,-10955.047942,148.041188,-2604.724693
3300.297860,-9622.677246,-222.061783,0.000000
3300.298198,-8216.285956,1036.288319,1915.238745
3300.298535,-9844.739029,814.226536,766.095498
3300.298873,-11769.274478,-592.164754,-459.657299
3300.299210,-10288.862594,-2220.617826,76.609550
3300.299548,-8956.491898,-1480.411884,2681.334243
3300.299886,-7476.080014,740.205942,2757.943793
3300.300223,-9696.697840,1110.308913,689.485948
3300.300561,-11325.150913,1184.329507,-1915.238745
3300.300898,-9696.697840,-814.226536,-1762.019645
3300.301236,-8956.491898,592.164754,1455.581446
3300.301574,-8142.265362,1702.473667,3370.820191
3300.301911,-10436.903782,888.247130,2298.286494
3300.302249,-11029.068536,296.082377,1072.533697
3300.302586,-10362.883188,-962.267725,2451.505594
3300.302924,-9844.739029,1036.288319,4060.306139
3300.303262,-9326.594869,1924.535449,2528.115143
3300.303599,-11769.274478,2294.638420,383.047749
3300.303937,-11473.192101,518.144159,-2451.505594
3300.304274,-9622.677246,-1406.391290,-2451.505594
3300.304612,-8068.244768,-814.226536,-383.047749
3300.304950,-7698.141797,-1184.329507,-76.609550
3300.305287,-10658.965565,-1258.350101,-1072.533697
3300.305625,-11621.233289,-3256.906145,-1991.848295
3300.305963,-9548.656652,-4145.153275,-612.876398
3300.306300,-9252.574275,-2590.720797,1225.752797
3300.306638,-9326.594869,-2072.576638,383.047749
3300.306975,-11399.171507,-1258.350101,-1532.190996
3300.307313,-11547.212695,-2960.823768,-2757.943793
3300.307651,-9844.739029,-4293.194464,-1149.143247
3300.307988,-8512.368333,-2516.700203,383.047749
3300.308326,-9178.553681,-1702.473667,919.314598
3300.308663,-11473.192101,-2442.679609,153.219100
3300.309001,-11399.171507,-3330.926739,-153.219100
3300.309339,-9992.780217,-2738.761985,2374.896044
3300.309676,-9178.553681,148.041188,3140.991542
3300.310014,-9474.636058,1776.494261,1225.752797
3300.310351,-12065.356855,1184.329507,-919.314598
3300.310689,-11621.233289,296.082377,-1302.362347
3300.311027,-9622.677246,148.041188,0.000000
3300.311364,-8882.471304,2146.597232,2145.067394
3300.311702,-10066.800811,1184.329507,995.924147
3300.312039,-11547.212695,222.061783,-1762.019645
3300.312377,-10140.821405,-1776.494261,-766.095498
3300.312715,-8882.471304,0.000000,2145.067394
3300.313052,-8068.244768,1258.350101,1455.581446
3300.313390,-9770.718434,1628.453072,-612.876398
3300.313727,-10732.986159,1554.432478,-2987.772442
3300.314065,-10140.821405,0.000000,-1991.848295
3300.314403,-8882.471304,74.020594,689.485948
3300.314740,-7994.224174,1184.329507,1149.143247
3300.315078,-10140.821405,-444.123565,2068.457845
3300.315415,-11769.274478,-1036.288319,1532.190996
3300.315753,-9770.718434,-2072.576638,1455.581446
3300.316091,-9622.677246,-592.164754,4290.134789
3300.316428,-9030.512492,1036.288319,3600.648841
3300.316766,-10807.006753,1702.473667,536.266849
3300.317103,-11399.171507,1850.514855,-1685.410096
3300.317441,-11029.068536,-296.082377,-1532.190996
3300.317779,-8882.471304,1776.494261,-76.609550
3300.318116,-8512.368333,1184.329507,-229.828649
3300.318454,-11029.068536,74.020594,-229.828649
3300.318791,-10955.047942,-1554.432478,-1455.581446
3300.319129,-10362.883188,-2738.761985,383.047749
3300.319467,-9474.636058,-296.082377,1378.971896
3300.319804,-9474.636058,0.000000,536.266849
3300.320142,-11769.274478,740.205942,-1838.629195
3300.320479,-11991.336260,-1554.432478,-2757.943793
3300.320817,-10214.842000,-2220.617826,-612.876398
3300.321155,-8364.327145,-518.144159,612.876398
3300.321492,-9770.718434,-518.144159,1838.629195
3300.321830,-11325.150913,-1110.308913,0.000000
3300.322168,-10288.862594,-3108.864956,-459.657299
3300.322505,-9770.718434,-2442.679609,3447.429741
3300.322843,-8734.430116,814.226536,3907.087040
3300.323180,-10658.965565,814.226536,2068.457845
3300.323518,-11917.315666,1924.535449,-919.314598
3300.323856,-9844.739029,444.123565,-1838.629195
3300.324193,-9548.656652,592.164754,1608.800546
3300.324531,-8142.265362,1480.411884,1915.238745
3300.324868,-8364.327145,888.247130,1608.800546
3300.325206,-11399.171507,592.164754,383.047749
3300.325544,-9992.780217,-1702.473667,0.000000
3300.325881,-9696.697840,0.000000,2145.067394
3300.326219,-8734.430116,592.164754,1378.971896
3300.326556,-10214.842000,2220.617826,-1225.752797
3300.326894,-11547.212695,1184.329507,-3447.429741
3300.327232,-10658.965565,-888.247130,-3677.258390
3300.327569,-8586.388927,-1776.494261,-1762.019645
3300.327907,-7772.162391,-1554.432478,-766.095498
3300.328244,-9918.759623,-1998.556043,76.609550
3300.328582,-11695.253884,-3701.029710,-766.095498
3300.328920,-9918.759623,-4367.215058,766.095498
3300.329257,-9918.759623,-2590.720797,2834.553343
3300.329595,-9844.739029,-666.185348,2298.286494
3300.329932,-11917.315666,-370.102971,459.657299
3300.330270,-12509.480420,-148.041188,-1225.752797
3300.330608,-10362.883188,-1702.473667,-1225.752797
3300.330945,-8734.430116,-888.247130,689.485948
3300.331283,-7994.224174,-222.061783,1685.410096
3300.331620,-10288.862594,-1406.391290,229.828649
3300.331958,-11029.068536,-2812.782580,-689.485948
3300.332296,-10140.821405,-3701.029710,919.314598
3300.332633,-9030.512492,-814.226536,2221.676944
3300.332971,-9030.512492,74.020594,919.314598
3300.333308,-11251.130318,1184.329507,-1608.800546
3300.333646,-10732.986159,-814.226536,-3677.258390
3300.333984,-9474.636058,-1258.350101,-1838.629195
3300.334321,-8216.285956,-74.020594,689.485948
3300.334659,-8438.347739,-444.123565,1149.143247
3300.334996,-11325.150913,-1480.411884,1302.362347
3300.335334,-11399.171507,-2368.659014,536.266849
3300.335672,-9326.594869,-2220.617826,2145.067394
3300.336009,-8808.450710,74.020594,4213.525239
3300.336347,-9326.594869,1036.288319,1915.238745
3300.336685,-11399.171507,2368.659014,-995.924147
3300.337022,-11177.109724,1406.391290,-1302.362347
3300.337360,-10066.800811,1332.370696,306.438199
3300.337697,-8882.471304,2442.679609,2221.676944
3300.338035,-9770.718434,1628.453072,2145.067394
3300.338373,-10955.047942,740.205942,0.000000
3300.338710,-10807.006753,-888.247130,995.924147
3300.339048,-9992.780217,-370.102971,2911.162892
3300.339385,-8734.430116,1776.494261,1685.410096
3300.339723,-10732.986159,2146.597232,229.828649
3300.340061,-11325.150913,1628.453072,-4290.134789
3300.340398,-10140.821405,-962.267725,-3677.258390
3300.340736,-8808.450710,-370.102971,-1608.800546
3300.341073,-7328.038826,0.000000,-1072.533697
3300.341411,-9992.780217,-1036.288319,-1838.629195
3300.341749,-11325.150913,-3256.906145,-1532.190996
3300.342086,-10214.842000,-3997.112087,0.000000
3300.342424,-10066.800811,-2368.659014,2528.115143
3300.342761,-9252.574275,0.000000,1149.143247
3300.343099,-11843.295072,0.000000,-842.705048
3300.343437,-11991.336260,-666.185348,-2528.115143
3300.343774,-9992.780217,-1332.370696,-1838.629195
3300.344112,-9400.615463,-666.185348,612.876398
3300.344449,-8512.368333,148.041188,1685.410096
3300.344787,-11769.274478,-222.061783,1532.190996
3300.345125,-11547.212695,-2294.638420,995.924147
3300.345462,-10510.924376,-1776.494261,2374.896044
3300.345800,-10214.842000,666.185348,4443.353888
3300.346137,-9992.780217,1998.556043,2145.067394
3300.346475,-11621.233289,3256.906145,-1532.190996
3300.346813,-11547.212695,1850.514855,-2911.162892
3300.347150,-9474.636058,370.102971,-2145.067394
3300.347488,-7402.059420,888.247130,0.000000
3300.347825,-8142.265362,444.123565,-76.609550
3300.348163,-9844.739029,-444.123565,-1072.533697
3300.348501,-10140.821405,-2516.700203,0.000000
3300.348838,-9252.574275,-2294.638420,2681.334243
3300.349176,-8142.265362,518.144159,4060.306139
3300.349513,-10214.842000,1406.391290,1455.581446
3300.349851,-12361.439231,1702.473667,-995.924147
3300.350189,-10732.986159,-592.164754,-2451.505594
3300.350526,-9030.512492,-1036.288319,0.000000
3300.350864,-7254.018232,-518.144159,842.705048
3300.351202,-9030.512492,-296.082377,1378.971896
3300.351539,-11325.150913,-1924.535449,689.485948
3300.351877,-10214.842000,-3775.050304,1532.190996
3300.352214,-9770.718434,-2590.720797,3830.477490
3300.352552,-9178.553681,444.123565,3294.210641
3300.352890,-12139.377449,1184.329507,689.485948
3300.353227,-13323.706956,1406.391290,-2911.162892
3300.353565,-10436.903782,-888.247130,-2911.162892
3300.353902,-9178.553681,0.000000,-612.876398
3300.354240,-8216.285956,-222.061783,-229.828649
3300.354578,-10436.903782,-1184.329507,-995.924147
3300.354915,-11251.130318,-3627.009116,-1378.971896
3300.355253,-10362.883188,-5181.441594,76.609550
3300.355590,-9178.553681,-3256.906145,2221.676944
3300.355928,-9474.636058,-1924.535449,1608.800546
3300.356266,-10955.047942,-814.226536,-1532.190996
3300.356603,-11769.274478,-1110.308913,-2451.505594
3300.356941,-10362.883188,-1776.494261,-612.876398
3300.357278,-8142.265362,-1184.329507,306.438199
3300.357616,-7994.224174,-370.102971,1608.800546
3300.357954,-11251.130318,-888.247130,1455.581446
3300.358291,-10807.006753,-2590.720797,842.705048
3300.358629,-10214.842000,-2220.617826,3677.258390
3300.358966,-9474.636058,-296.082377,5286.058936
3300.359304,-9400.615463,2442.679609,3140.991542
3300.359642,-12361.439231,3256.906145,-306.438199
3300.359979,-11843.295072,2442.679609,-2911.162892
3300.360317,-9252.574275,1406.391290,-1685.410096
3300.360654,-7476.080014,3330.926739,766.095498
3300.360992,-8216.285956,2664.741391,459.657299
3300.361330,-10584.944971,1036.288319,-1302.362347
3300.361667,-11695.253884,-1036.288319,-995.924147
3300.362005,-10066.800811,-1258.350101,1608.800546
3300.362342,-8290.306550,1480.411884,2834.553343
3300.362680,-10955.047942,2146.597232,76.609550
3300.363018,-12805.562797,1332.370696,-2604.724693
3300.363355,-10658.965565,-370.102971,-4213.525239
3300.363693,-8290.306550,-444.123565,-1685.410096
3300.364030,-6883.915261,740.205942,1225.752797
3300.364368,-9622.677246,-592.164754,-689.485948
3300.364706,-11621.233289,-2960.823768,-1072.533697
3300.365043,-9696.697840,-3997.112087,536.266849
3300.365381,-9252.574275,-1998.556043,4903.011187
3300.365718,-9326.594869,592.164754,4903.011187
3300.366056,-11325.150913,1110.308913,153.219100
3300.366394,-12805.562797,888.247130,-1532.190996
3300.366731,-11103.089130,-518.144159,-1838.629195
3300.367069,-8216.285956,148.041188,-612.876398
3300.367407,-7476.080014,148.041188,229.828649
3300.367744,-10881.027347,-592.164754,0.000000
3300.368082,-10807.006753,-1776.494261,-1685.410096
3300.368419,-9844.739029,-3478.967927,383.047749
3300.368757,-9918.759623,-740.205942,3677.258390
3300.369095,-10288.862594,296.082377,2221.676944
3300.369432,-13027.624579,2072.576638,-1225.752797
3300.369770,-12953.603985,444.123565,-2834.553343
3300.370107,-9104.533087,-962.267725,-1225.752797
3300.370445,-7772.162391,370.102971,995.924147
3300.370783,-8586.388927,370.102971,1762.019645
3300.371120,-11251.130318,-592.164754,459.657299
3300.371458,-11399.171507,-2590.720797,1149.143247
3300.371795,-9770.718434,-2886.803174,3983.696590
3300.372133,-8586.388927,-518.144159,5362.668486
3300.372471,-8586.388927,740.205942,2451.505594
3300.372808,-11029.068536,2812.782580,-306.438199
3300.373146,-10732.986159,1184.329507,-1608.800546
3300.373483,-8586.388927,814.226536,-536.266849
3300.373821,-7105.977043,1850.514855,-229.828649
3300.374158,-9252.574275,1332.370696,306.438199
3300.374496,-11399.171507,-222.061783,-766.095498
3300.374833,-10066.800811,-2960.823768,-229.828649
3300.375171,-8956.491898,-2664.741391,2757.943793
3300.375508,-8216.285956,-296.082377,3064.381992
3300.375846,-9622.677246,0.000000,536.266849
3300.376183,-12583.501014,296.082377,-3370.820191
3300.376521,-11547.212695,-444.123565,-4060.306139
3300.376859,-10510.924376,-1332.370696,-2987.772442
3300.377196,-8068.244768,-1110.308913,-1225.752797
3300.377534,-10066.800811,-1406.391290,-995.924147
3300.377871,-11917.315666,-3627.009116,-1455.581446
3300.378209,-10955.047942,-5033.400406,612.876398
3300.378546,-10140.821405,-4071.132681,3447.429741
3300.378884,-10362.883188,-1776.494261,3907.087040
3300.379221,-11251.130318,-740.205942,612.876398
3300.379559,-12879.583391,0.000000,-459.657299
3300.379896,-11103.089130,-222.061783,-995.924147
3300.380234,-8586.388927,222.061783,229.828649
3300.380571,-7920.203579,888.247130,1455.581446
3300.380909,-9844.739029,444.123565,842.705048
3300.381246,-10955.047942,-666.185348,153.219100
3300.381584,-10140.821405,-1554.432478,1915.238745
3300.381921,-9252.574275,222.061783,3447.429741
3300.382259,-8808.450710,2220.617826,2451.505594
3300.382596,-11251.130318,2368.659014,-229.828649
3300.382934,-11251.130318,2664.741391,-2451.505594
3300.383271,-9252.574275,888.247130,-2221.676944
3300.383609,-7698.141797,2664.741391,-612.876398
3300.383946,-7179.997637,1776.494261,0.000000
3300.384284,-11103.089130,666.185348,-459.657299
3300.384621,-10066.800811,-1184.329507,76.609550
3300.384959,-8734.430116,-1480.411884,1991.848295
3300.385296,-9178.553681,1480.411884,4366.744339
3300.385634,-10362.883188,1998.556043,2374.896044
3300.385971,-12139.377449,2442.679609,-536.266849
3300.386309,-12139.377449,1776.494261,-1838.629195
3300.386646,-10288.862594,1480.411884,76.609550
3300.386984,-8142.265362,2220.617826,995.924147
3300.387321,-9400.615463,666.185348,459.657299
3300.387659,-11473.192101,-666.185348,-153.219100
3300.387996,-9844.739029,-2960.823768,459.657299
3300.388334,-9548.656652,-2146.597232,3677.258390
3300.388671,-9844.739029,-518.144159,3907.087040
3300.389009,-10807.006753,444.123565,229.828649
3300.389347,-11991.336260,888.247130,-2604.724693
3300.389684,-11029.068536,-814.226536,-2911.162892
3300.390022,-9622.677246,-666.185348,-1149.143247
3300.390359,-6809.894666,-962.267725,-1532.190996
3300.390697,-9252.574275,-1702.473667,-1915.238745
3300.391034,-10510.924376,-3997.112087,-2374.896044
3300.391372,-9548.656652,-5329.482782,229.828649
3300.391709,-9770.718434,-4293.194464,3370.820191
3300.392047,-9326.594869,-1702.473667,2604.724693
3300.392384,-11621.233289,-666.185348,842.705048
3300.392722,-12583.501014,0.000000,-1762.019645
3300.393059,-9992.780217,-1776.494261,-919.314598
3300.393397,-8882.471304,0.000000,1455.581446
3300.393734,-8438.347739,296.082377,1991.848295
3300.394072,-11103.089130,592.164754,1608.800546
3300.394409,-11843.295072,-1110.308913,842.705048
3300.394747,-10362.883188,-1036.288319,2374.896044
3300.395084,-9918.759623,296.082377,4443.353888
3300.395422,-10140.821405,2442.679609,3524.039291
3300.395759,-10955.047942,2516.700203,0.000000
3300.396097,-11325.150913,2590.720797,-2068.457845
3300.396434,-9992.780217,1776.494261,-1838.629195
3300.396772,-8068.244768,1776.494261,-995.924147
3300.397109,-8216.285956,1850.514855,-689.485948
3300.397447,-10362.883188,0.000000,-1302.362347
3300.397784,-9548.656652,-1480.411884,-536.266849
3300.398122,-8660.409521,-3108.864956,1225.752797
3300.398459,-8734.430116,-1258.350101,3294.210641
3300.398797,-9992.780217,0.000000,1455.581446
3300.399134,-11547.212695,-296.082377,-1072.533697
3300.399472,-9844.739029,-296.082377,-1915.238745
3300.399809,-9252.574275,-1924.535449,-229.828649
3300.400147,-7994.224174,148.041188,842.705048
3300.400484,-9622.677246,-1628.453072,0.000000
3300.400822,-11917.315666,-1628.453072,0.000000
3300.401159,-10436.903782,-3256.906145,689.485948
3300.401497,-10807.006753,-3256.906145,4290.134789
3300.401834,-9696.697840,-1036.288319,4290.134789
3300.402172,-10362.883188,-74.020594,1455.581446
3300.402510,-12435.459826,740.205942,-76.609550
3300.402847,-11325.150913,444.123565,-1991.848295
3300.403185,-10510.924376,-296.082377,-459.657299
3300.403522,-8364.327145,1036.288319,-766.095498
3300.403860,-9548.656652,0.000000,-689.485948
3300.404197,-11399.171507,-1480.411884,-1225.752797
3300.404535,-9326.594869,-3478.967927,-383.047749
3300.404872,-8882.471304,-2072.576638,2374.896044
3300.405210,-9548.656652,-222.061783,2374.896044
3300.405547,-11103.089130,0.000000,-306.438199
3300.405885,-11917.315666,296.082377,-1685.410096
3300.406222,-10584.944971,-444.123565,-919.314598
3300.406560,-8586.388927,1998.556043,-229.828649
3300.406897,-8216.285956,1554.432478,-383.047749
3300.407235,-10214.842000,962.267725,-306.438199
3300.407572,-10066.800811,0.000000,0.000000
3300.407910,-9326.594869,-962.267725,3140.991542
3300.408247,-8956.491898,814.226536,4903.011187
3300.408585,-9622.677246,2516.700203,3907.087040
3300.408922,-11843.295072,4367.215058,1149.143247
3300.409260,-12139.377449,3478.967927,-1455.581446
3300.409597,-9992.780217,2960.823768,-536.266849
3300.409935,-9252.574275,3256.906145,-229.828649
3300.410272,-8142.265362,2886.803174,-1455.581446
3300.410610,-9992.780217,1184.329507,-2528.115143
3300.410947,-10288.862594,-1110.308913,-1532.190996
3300.411285,-9474.636058,-1332.370696,1149.143247
3300.411622,-8734.430116,-592.164754,1455.581446
3300.411960,-9844.739029,1110.308913,229.828649
3300.412297,-11843.295072,444.123565,-2681.334243
3300.412635,-11103.089130,-962.267725,-3294.210641
3300.412972,-9918.759623,-1924.535449,0.000000
3300.413310,-9326.594869,-962.267725,766.095498
3300.413647,-8660.409521,-1258.350101,153.219100
3300.413985,-11473.192101,-2368.659014,-1378.971896
3300.414322,-10658.965565,-3849.070898,1072.533697
3300.414660,-9622.677246,-4145.153275,2451.505594
3300.414997,-9474.636058,-2220.617826,5132.839837
3300.415335,-11251.130318,-222.061783,2068.457845
3300.415673,-11991.336260,0.000000,-612.876398
3300.416010,-10955.047942,-962.267725,-383.047749
3300.416348,-9474.636058,-740.205942,766.095498
3300.416685,-8142.265362,1406.391290,1762.019645
3300.417023,-10140.821405,814.226536,459.657299
3300.417360,-11769.274478,-592.164754,-995.924147
3300.417698,-10584.944971,-1776.494261,153.219100
3300.418035,-9770.718434,-2072.576638,2145.067394
3300.418373,-8438.347739,0.000000,2451.505594
3300.418710,-10510.924376,296.082377,689.485948
3300.419048,-11547.212695,962.267725,-1608.800546
3300.419385,-9992.780217,-444.123565,-3217.601092
3300.419723,-8956.491898,592.164754,-383.047749
3300.420060,-8068.244768,1036.288319,-1149.143247
3300.420398,-10066.800811,-148.041188,-1532.190996
3300.420735,-10881.027347,-1036.288319,-919.314598
3300.421073,-8438.347739,-3478.967927,1608.800546
3300.421410,-8364.327145,-2072.576638,5209.449386
3300.421748,-9326.594869,-592.164754,4136.915689
3300.422085,-11695.253884,1850.514855,1378.971896
3300.422423,-12287.418637,518.144159,-995.924147
3300.422760,-11029.068536,0.000000,-536.266849
3300.423098,-8142.265362,370.102971,1072.533697
3300.423435,-7624.121203,962.267725,76.609550
3300.423773,-10288.862594,148.041188,-919.314598
3300.424110,-10955.047942,-1702.473667,-1608.800546
3300.424448,-9400.615463,-2294.638420,459.657299
3300.424785,-9400.615463,-592.164754,1762.019645
3300.425123,-10288.862594,296.082377,612.876398
3300.425460,-12583.501014,666.185348,-2604.724693
3300.425798,-11177.109724,-1184.329507,-3983.696590
3300.426135,-9474.636058,-2368.659014,-1302.362347
3300.426473,-7550.100608,-518.144159,0.000000
3300.426810,-9326.594869,-1036.288319,76.609550
3300.427148,-12065.356855,-1702.473667,-2374.896044
3300.427485,-10732.986159,-4071.132681,-1072.533697
3300.427823,-10288.862594,-3478.967927,2681.334243
3300.428161,-8956.491898,-1406.391290,3370.820191
3300.428498,-10436.903782,222.061783,2451.505594
3300.428836,-11917.315666,518.144159,76.609550
3300.429173,-10881.027347,-74.020594,-76.609550
3300.429511,-9474.636058,592.164754,2374.896044
3300.429848,-9400.615463,1998.556043,2987.772442
3300.430186,-10288.862594,1776.494261,2221.676944
3300.430523,-10807.006753,1110.308913,-459.657299
3300.430861,-9844.739029,-296.082377,536.266849
3300.431198,-8956.491898,370.102971,2911.162892
3300.431536,-8586.388927,2590.720797,3830.477490
3300.431873,-11029.068536,3330.926739,689.485948
3300.432211,-12583.501014,2368.659014,-1991.848295
3300.432548,-10214.842000,1406.391290,-2604.724693
3300.432886,-8808.450710,1628.453072,842.705048
3300.433223,-7254.018232,1998.556043,0.000000
3300.433561,-9178.553681,666.185348,-2145.067394
3300.433898,-10584.944971,-666.185348,-2374.896044
3300.434236,-8956.491898,-2886.803174,0.000000
3300.434573,-8512.368333,-1998.556043,2451.505594
3300.434911,-9030.512492,74.020594,2221.676944
3300.435248,-11399.171507,740.205942,-1072.533697
3300.435586,-11399.171507,0.000000,-2451.505594
3300.435923,-10288.862594,-1702.473667,0.000000
3300.436261,-8660.409521,666.185348,2221.676944
3300.436598,-9474.636058,1184.329507,919.314598
3300.436936,-12805.562797,666.185348,-612.876398
3300.437273,-11843.295072,-1850.514855,-1455.581446
3300.437611,-10658.965565,-2664.741391,1685.410096
3300.437948,-9178.553681,-592.164754,3600.648841
3300.438286,-9548.656652,444.123565,1302.362347
3300.438623,-12361.439231,370.102971,-1532.190996
3300.438961,-11547.212695,-1554.432478,-4213.525239
3300.439298,-9178.553681,-1406.391290,-1608.800546
3300.439636,-7994.224174,74.020594,0.000000
3300.439973,-9326.594869,-814.226536,-1302.362347
3300.440311,-11399.171507,-1110.308913,-2298.286494
3300.440648,-10510.924376,-4145.153275,-1302.362347
3300.440986,-9030.512492,-3552.988522,1991.848295
3300.441324,-7698.141797,-1258.350101,2681.334243
3300.441661,-9770.718434,-444.123565,1838.629195
3300.441999,-11991.336260,-370.102971,-1225.752797
3300.442336,-10066.800811,-1924.535449,-1838.629195
3300.442674,-9474.636058,-888.247130,1455.581446
3300.443011,-8364.327145,-370.102971,3217.601092
3300.443349,-10214.842000,74.020594,2374.896044
3300.443686,-11325.150913,592.164754,229.828649
3300.444024,-9918.759623,-1554.432478,689.485948
3300.444361,-9326.594869,-444.123565,3830.477490
3300.444699,-9326.594869,888.247130,3677.258390
3300.445036,-11843.295072,2886.803174,1455.581446
3300.445374,-12879.583391,1776.494261,-2221.676944
3300.445711,-9696.697840,0.000000,-1762.019645
3300.446049,-8290.306550,1184.329507,306.438199
3300.446386,-7920.203579,1184.329507,76.609550
3300.446724,-9992.780217,296.082377,-2145.067394
3300.447061,-10955.047942,-1702.473667,-3524.039291
3300.447399,-9474.636058,-3108.864956,-1072.533697
3300.447736,-8734.430116,-2368.659014,2145.067394
3300.448074,-9252.574275,-148.041188,1762.019645
3300.448411,-11843.295072,0.000000,-995.924147
3300.448749,-11991.336260,-1258.350101,-2987.772442
3300.449086,-9770.718434,-3182.885551,-919.314598
3300.449424,-7994.224174,-888.247130,1532.190996
3300.449761,-8956.491898,-1480.411884,1762.019645
3300.450099,-11547.212695,-2072.576638,0.000000
3300.450436,-11251.130318,-2664.741391,383.047749
3300.450774,-10362.883188,-2442.679609,3217.601092
3300.451111,-8660.409521,0.000000,3370.820191
3300.451449,-9770.718434,1480.411884,1838.629195
3300.451786,-12805.562797,1850.514855,-919.314598
3300.452124,-11843.295072,370.102971,-2298.286494
3300.452461,-9844.739029,-74.020594,0.000000
3300.452799,-7920.203579,2368.659014,995.924147
3300.453136,-9178.553681,1406.391290,306.438199
3300.453474,-11695.253884,888.247130,-1532.190996
3300.453811,-10732.986159,-666.185348,-1685.410096
3300.454149,-9104.533087,-1480.411884,2451.505594
3300.454487,-8734.430116,1480.411884,2911.162892
3300.454824,-10510.924376,1924.535449,0.000000
3300.455162,-12213.398043,2220.617826,-2528.115143
3300.455499,-10881.027347,-296.082377,-1762.019645
3300.455837,-8586.388927,-148.041188,842.705048
3300.456174,-6883.915261,1776.494261,1685.410096
3300.456512,-9622.677246,1110.308913,383.047749
3300.456849,-11769.274478,444.123565,-1685.410096
3300.457187,-9918.759623,-2072.576638,0.000000
3300.457524,-8956.491898,-296.082377,3983.696590
3300.457862,-8882.471304,1110.308913,3064.381992
3300.458199,-10658.965565,1998.556043,766.095498
3300.458537,-11621.233289,1332.370696,-1838.629195
3300.458874,-9622.677246,-1036.288319,-612.876398
3300.459212,-8660.409521,1110.308913,1455.581446
3300.459549,-8808.450710,740.205942,1378.971896
3300.459887,-11473.192101,222.061783,-919.314598
3300.460224,-11621.233289,-1998.556043,-2298.286494
3300.460562,-9918.759623,-3108.864956,0.000000
3300.460899,-8882.471304,-1184.329507,2374.896044
3300.461237,-9474.636058,-148.041188,306.438199
3300.461574,-12287.418637,518.144159,-2528.115143
3300.461912,-12065.356855,-1702.473667,-4826.401637
3300.462249,-10140.821405,-2590.720797,-1838.629195
3300.462587,-8808.450710,-1998.556043,1378.971896
3300.462924,-8808.450710,-1850.514855,1455.581446
3300.463262,-11325.150913,-2294.638420,229.828649
3300.463599,-11399.171507,-3627.009116,536.266849
3300.463937,-9844.739029,-3256.906145,3064.381992
3300.464274,-9474.636058,-1702.473667,4596.572988
3300.464612,-10362.883188,0.000000,2834.553343
3300.464949,-11843.295072,888.247130,0.000000
3300.465287,-10881.027347,-370.102971,-995.924147
3300.465624,-9030.512492,-296.082377,612.876398
3300.465962,-7476.080014,444.123565,2068.457845
3300.466299,-9400.615463,814.226536,1455.581446
3300.466637,-11177.109724,518.144159,-383.047749
3300.466974,-10288.862594,-1702.473667,0.000000
3300.467312,-9030.512492,-888.247130,2681.334243
3300.467650,-8068.244768,592.164754,2451.505594
3300.467987,-10362.883188,1480.411884,536.266849
3300.468325,-11695.253884,1036.288319,-2451.505594
3300.468662,-9548.656652,-962.267725,-3140.991542
3300.469000,-9178.553681,-962.267725,-306.438199
3300.469337,-8882.471304,0.000000,459.657299
3300.469675,-9696.697840,-962.267725,-459.657299
3300.470012,-11103.089130,-1924.535449,-1685.410096
3300.470350,-9326.594869,-3552.988522,0.000000
3300.470687,-9474.636058,-1776.494261,2834.553343
3300.471025,-9474.636058,-296.082377,2298.286494
3300.471362,-11843.295072,518.144159,229.828649
3300.471700,-12361.439231,0.000000,-1302.362347
3300.472037,-10140.821405,-1332.370696,-689.485948
3300.472375,-9474.636058,0.000000,1378.971896
3300.472712,-8882.471304,666.185348,995.924147
3300.473050,-10362.883188,-296.082377,-612.876398
3300.473387,-11473.192101,-1036.288319,-1685.410096
3300.473725,-10140.821405,-2294.638420,-536.266849
3300.474062,-9474.636058,-148.041188,1455.581446
3300.474400,-9844.739029,74.020594,229.828649
3300.474737,-11103.089130,1184.329507,-2834.553343
3300.475075,-10362.883188,148.041188,-3753.867940
3300.475412,-9252.574275,-592.164754,-1608.800546
3300.475750,-7846.182985,-148.041188,0.000000
3300.476087,-9400.615463,0.000000,153.219100
3300.476425,-11695.253884,-592.164754,-383.047749
3300.476762,-11177.109724,-2220.617826,76.609550
3300.477100,-10066.800811,-1702.473667,2911.162892
3300.477437,-8586.388927,222.061783,2681.334243
3300.477775,-9696.697840,1850.514855,1915.238745
3300.478112,-12361.439231,1850.514855,0.000000
3300.478450,-10658.965565,666.185348,-1072.533697
3300.478787,-9548.656652,814.226536,612.876398
3300.479125,-8512.368333,2516.700203,2451.505594
3300.479462,-9474.636058,2590.720797,1762.019645
3300.479800,-10584.944971,1554.432478,0.000000
3300.480137,-10214.842000,444.123565,1072.533697
3300.480475,-9696.697840,296.082377,4060.306139
3300.480812,-9770.718434,3108.864956,3217.601092
3300.481150,-11325.150913,2590.720797,76.609550
3300.481487,-11843.295072,2368.659014,-2757.943793
3300.481825,-9474.636058,370.102971,-3064.381992
3300.482162,-8142.265362,74.020594,-1225.752797
3300.482500,-7254.018232,-296.082377,-383.047749
3300.482837,-8734.430116,-518.144159,-1608.800546
3300.483175,-11029.068536,-2590.720797,-1608.800546
3300.483512,-10214.842000,-3034.844362,0.000000
3300.483850,-10066.800811,-2146.597232,2374.896044
3300.484187,-10140.821405,-1036.288319,2528.115143
3300.484525,-11029.068536,-740.205942,-383.047749
3300.484862,-11843.295072,-962.267725,-1149.143247
3300.485200,-10288.862594,-2738.761985,0.000000
3300.485537,-8956.491898,-2368.659014,995.924147
3300.485875,-9622.677246,-1332.370696,1685.410096
3300.486212,-11991.336260,-962.267725,995.924147
3300.486550,-11029.068536,-1924.535449,-76.609550
3300.486887,-10732.986159,-3701.029710,1455.581446
3300.487225,-9770.718434,-962.267725,3524.039291
3300.487562,-9474.636058,592.164754,1762.019645
3300.487900,-11917.315666,1480.411884,-689.485948
3300.488237,-10955.047942,148.041188,-3064.381992
3300.488575,-9252.574275,-1184.329507,-1532.190996
3300.488912,-8290.306550,0.000000,842.705048
3300.489250,-8586.388927,-814.226536,153.219100
3300.489587,-10066.800811,-814.226536,-919.314598
3300.489925,-10436.903782,-3182.885551,-459.657299
3300.490262,-9326.594869,-2516.700203,1991.848295
3300.490600,-8364.327145,-666.185348,2451.505594
3300.490937,-10066.800811,0.000000,1072.533697
3300.491275,-11325.150913,1258.350101,-2221.676944
3300.491612,-9696.697840,-592.164754,-2604.724693
3300.491950,-9030.512492,-518.144159,536.266849
3300.492287,-7994.224174,-74.020594,1608.800546
3300.492625,-9548.656652,148.041188,1762.019645
3300.492962,-11769.274478,0.000000,306.438199
3300.493300,-11399.171507,-2072.576638,1378.971896
3300.493637,-9844.739029,-1628.453072,3600.648841
3300.493975,-9326.594869,962.267725,2834.553343
3300.494312,-10584.944971,1480.411884,766.095498
3300.494650,-11769.274478,1924.535449,-2757.943793
3300.494987,-10066.800811,-296.082377,-2604.724693
3300.495325,-9252.574275,518.144159,-766.095498
3300.495662,-8216.285956,222.061783,76.609550
3300.496000,-10140.821405,0.000000,0.000000
3300.496337,-11695.253884,-1258.350101,-2451.505594
3300.496675,-10658.965565,-2294.638420,-995.924147
3300.497012,-9696.697840,-1776.494261,1532.190996
3300.497350,-9030.512492,-666.185348,919.314598
3300.497687,-10955.047942,296.082377,-459.657299
3300.498025,-11621.233289,-518.144159,-1915.238745
3300.498362,-9918.759623,-2368.659014,-1225.752797
3300.498700,-8438.347739,-1702.473667,612.876398
3300.499037,-7994.224174,-370.102971,1455.581446
3300.499375,-10658.965565,-1184.329507,1608.800546
3300.499712,-11177.109724,-1924.535449,1608.800546
3300.500050,-9548.656652,-1924.535449,3370.820191
3300.500387,-9474.636058,0.000000,4749.792088
3300.500725,-10140.821405,2590.720797,2757.943793
3300.501062,-11695.253884,2960.823768,76.609550
3300.501400,-11399.171507,2442.679609,-995.924147
3300.501737,-9474.636058,1406.391290,306.438199
3300.502075,-8216.285956,2960.823768,1991.848295
3300.502412,-8882.471304,1776.494261,1378.971896
3300.502750,-11029.068536,1776.494261,-306.438199
3300.503087,-11547.212695,-222.061783,0.000000
3300.503425,-10362.883188,296.082377,2451.505594
3300.503762,-9252.574275,2072.576638,2451.505594
3300.504100,-10955.047942,2590.720797,-229.828649
3300.504437,-11621.233289,2664.741391,-4366.744339
3300.504775,-10436.903782,888.247130,-4519.963438
3300.505112,-9474.636058,-444.123565,-842.705048
3300.505450,-7105.977043,0.000000,0.000000
3300.505787,-8660.409521,-518.144159,-689.485948
3300.506125,-11325.150913,-1332.370696,-2221.676944
3300.506462,-9992.780217,-3256.906145,-766.095498
3300.506800,-9548.656652,-3256.906145,2451.505594
3300.507137,-8882.471304,-444.123565,2987.772442
3300.507475,-10436.903782,1036.288319,0.000000
3300.507812,-12213.398043,1480.411884,-2604.724693
3300.508150,-10140.821405,-1036.288319,-3447.429741
3300.508487,-8660.409521,-1406.391290,-689.485948
3300.508825,-7994.224174,-666.185348,766.095498
3300.509162,-10362.883188,-814.226536,536.266849
3300.509500,-11843.295072,-2220.617826,-1455.581446
3300.509837,-10362.883188,-4145.153275,-689.485948
3300.510175,-9252.574275,-3478.967927,1455.581446
3300.510512,-9178.553681,-666.185348,1302.362347
3300.510850,-11695.253884,296.082377,-919.314598
3300.511187,-11991.336260,-592.164754,-3907.087040
3300.511525,-10436.903782,-2664.741391,-2298.286494
3300.511862,-8956.491898,-1850.514855,689.485948
3300.512200,-7698.141797,-1036.288319,1685.410096
3300.512537,-11103.089130,-1332.370696,1838.629195
3300.512875,-11843.295072,-3330.926739,1302.362347
3300.513212,-9918.759623,-3552.988522,3907.087040
3300.513550,-9474.636058,-1480.411884,6281.983084
3300.513887,-10288.862594,814.226536,5209.449386
3300.514225,-11695.253884,2220.617826,842.705048
3300.514562,-11103.089130,1998.556043,-1608.800546
3300.514900,-8956.491898,222.061783,-76.609550
3300.515237,-7254.018232,1110.308913,2221.676944
3300.515575,-7550.100608,1184.329507,2145.067394
3300.515912,-10881.027347,666.185348,153.219100
3300.516250,-10881.027347,-666.185348,-306.438199
3300.516587,-9770.718434,-2146.597232,2911.162892
3300.516925,-8290.306550,-74.020594,4136.915689
3300.517262,-9252.574275,1702.473667,2374.896044
3300.517600,-12139.377449,2664.741391,-2757.943793
3300.517937,-10955.047942,592.164754,-5515.887586
3300.518275,-9030.512492,-1184.329507,-2451.505594
3300.518612,-7772.162391,-74.020594,536.266849
3300.518950,-8660.409521,-592.164754,-1455.581446
3300.519287,-11029.068536,-1184.329507,-1762.019645
3300.519625,-11399.171507,-4071.132681,-383.047749
3300.519962,-10881.027347,-4145.153275,2757.943793
3300.520300,-9474.636058,-888.247130,3294.210641
3300.520637,-11621.233289,296.082377,1072.533697
3300.520975,-12879.583391,592.164754,-1991.848295
3300.521312,-11103.089130,-1332.370696,-2757.943793
3300.521650,-9474.636058,0.000000,-306.438199
3300.521987,-8216.285956,518.144159,919.314598
3300.522325,-10658.965565,518.144159,766.095498
3300.522662,-11843.295072,-666.185348,-842.705048
3300.523000,-10214.842000,-2146.597232,459.657299
3300.523337,-9326.594869,-814.226536,3294.210641
3300.523675,-9622.677246,1332.370696,2757.943793
3300.524012,-11547.212695,2516.700203,-766.095498
3300.524350,-11029.068536,2146.597232,-4903.011187
3300.524687,-9104.533087,592.164754,-3600.648841
3300.525025,-7179.997637,1998.556043,-1608.800546
3300.525362,-8068.244768,1628.453072,-229.828649
3300.525700,-10362.883188,814.226536,-1532.190996
3300.526037,-11029.068536,-962.267725,-1608.800546
3300.526375,-9918.759623,-1702.473667,2757.943793
3300.526712,-8142.265362,148.041188,5362.668486
3300.527050,-9030.512492,1998.556043,4290.134789
3300.527387,-12287.418637,2886.803174,689.485948
3300.527725,-12731.542202,2220.617826,-2374.896044
3300.528062,-10288.862594,1628.453072,-1302.362347
3300.528400,-7846.182985,2146.597232,1072.533697
3300.528737,-8438.347739,2220.617826,1455.581446
3300.529075,-10436.903782,814.226536,-306.438199
3300.529412,-10584.944971,-1628.453072,0.000000
3300.529750,-9400.615463,-2072.576638,4596.572988
3300.530087,-9474.636058,222.061783,4826.401637
3300.530425,-10658.965565,2294.638420,1991.848295
3300.530762,-12879.583391,2072.576638,-2834.553343
3300.531100,-11177.109724,148.041188,-3830.477490
3300.531437,-9400.615463,-1036.288319,0.000000
3300.531775,-7772.162391,0.000000,1072.533697
3300.532112,-8512.368333,-518.144159,-153.219100
3300.532450,-11843.295072,-3182.885551,-2451.505594
3300.532787,-10658.965565,-5625.565159,-1455.581446
3300.533125,-9252.574275,-5329.482782,2757.943793
3300.533462,-8660.409521,-2146.597232,4596.572988
3300.533800,-10288.862594,-1184.329507,536.266849
3300.534137,-12361.439231,-1480.411884,-1685.410096
3300.534475,-10732.986159,-2072.576638,-1608.800546
3300.534812,-8734.430116,-1776.494261,76.609550
3300.535150,-8290.306550,-814.226536,2757.943793
3300.535487,-11399.171507,-1702.473667,2298.286494
3300.535825,-10881.027347,-1998.556043,612.876398
3300.536162,-9918.759623,-2368.659014,1072.533697
3300.536500,-9918.759623,-1480.411884,4596.572988
3300.536837,-9918.759623,444.123565,3370.820191
3300.537175,-12213.398043,1776.494261,459.657299
3300.537512,-11769.274478,1628.453072,-2987.772442
3300.537850,-9548.656652,0.000000,-3294.210641
3300.538187,-7920.203579,1406.391290,-459.657299
3300.538525,-8068.244768,1258.350101,-1149.143247
3300.538862,-9918.759623,592.164754,-2528.115143
3300.539200,-10584.944971,-1554.432478,-2834.553343
3300.539537,-10288.862594,-2738.761985,842.705048
3300.539875,-8586.388927,-1258.350101,3294.210641
3300.540212,-9030.512492,0.000000,1991.848295
3300.540550,-12361.439231,1184.329507,-1378.971896
3300.540887,-11769.274478,222.061783,-3830.477490
3300.541225,-9326.594869,-1702.473667,-1225.752797
3300.541562,-7105.977043,74.020594,1302.362347
3300.541900,-8438.347739,-148.041188,689.485948
3300.542237,-11769.274478,-296.082377,-689.485948
3300.542575,-11251.130318,-3330.926739,-995.924147
3300.542912,-9548.656652,-1628.453072,3064.381992
3300.543250,-9252.574275,0.000000,4903.011187
3300.543587,-10955.047942,1924.535449,3447.429741
3300.543925,-12657.521608,1998.556043,-1378.971896
3300.544262,-11547.212695,0.000000,-2604.724693
3300.544600,-9400.615463,222.061783,153.219100
3300.544937,-7476.080014,1036.288319,842.705048
3300.545275,-9622.677246,666.185348,-229.828649
3300.545612,-11251.130318,-814.226536,-3140.991542
3300.545950,-10362.883188,-2368.659014,-1532.190996
3300.546287,-8660.409521,-1702.473667,2528.115143
3300.546625,-8660.409521,-74.020594,3447.429741
3300.546962,-11251.130318,592.164754,919.314598
3300.547300,-12361.439231,518.144159,-2298.286494
3300.547637,-9918.759623,-444.123565,-1225.752797
3300.547975,-8882.471304,0.000000,2145.067394
3300.548312,-8660.409521,592.164754,3294.210641
3300.548650,-10510.924376,814.226536,459.657299
3300.548987,-11029.068536,-740.205942,229.828649
3300.549325,-10140.821405,-962.267725,2987.772442
3300.549662,-8808.450710,74.020594,4903.011187
3300.550000,-9548.656652,1924.535449,4136.915689
3300.550337,-11547.212695,3256.906145,306.438199
3300.550675,-11621.233289,3034.844362,-1838.629195
3300.551012,-9474.636058,1702.473667,-842.705048
3300.551350,-8068.244768,2516.700203,536.266849
3300.551687,-8438.347739,2368.659014,0.000000
3300.552025,-10658.965565,1480.411884,-1915.238745
3300.552362,-10436.903782,-1110.308913,-1915.238745
3300.552700,-9696.697840,-2368.659014,1149.143247
3300.553037,-7994.224174,-592.164754,3217.601092
3300.553375,-9992.780217,1480.411884,919.314598
3300.553712,-11917.315666,518.144159,-3524.039291
3300.554050,-10732.986159,-370.102971,-5362.668486
3300.554387,-9696.697840,-2072.576638,-2451.505594
3300.554725,-8216.285956,0.000000,-229.828649
3300.555062,-9474.636058,-1258.350101,0.000000
3300.555400,-11251.130318,-2220.617826,-1991.848295
3300.555737,-10362.883188,-4145.153275,-919.314598
3300.556075,-10214.842000,-3923.091493,3447.429741
3300.556412,-9622.677246,-2146.597232,4673.182538
3300.556750,-11325.150913,-888.247130,2451.505594
3300.557087,-13693.809927,74.020594,-306.438199
3300.557425,-10732.986159,-1332.370696,-1915.238745
3300.557762,-8290.306550,-888.247130,383.047749
3300.558100,-7550.100608,-74.020594,995.924147
3300.558437,-9252.574275,-148.041188,459.657299
3300.558775,-11769.274478,-740.205942,-689.485948
3300.559112,-10955.047942,-2812.782580,-306.438199
3300.559450,-9770.718434,-1998.556043,2451.505594
3300.559787,-9104.533087,-1258.350101,3370.820191
3300.560125,-10881.027347,888.247130,919.314598
3300.560462,-11547.212695,0.000000,-2528.115143
3300.560800,-9474.636058,-888.247130,-2604.724693
3300.561137,-7994.224174,-962.267725,0.000000
3300.561475,-8290.306550,0.000000,1685.410096
3300.561812,-10288.862594,74.020594,-306.438199
3300.562150,-10881.027347,-1110.308913,-1378.971896
3300.562487,-9844.739029,-3034.844362,1455.581446
3300.562825,-8068.244768,-814.226536,4596.572988
3300.563162,-9474.636058,0.000000,5209.449386
3300.563500,-12287.418637,2664.741391,2221.676944
3300.563837,-12287.418637,1480.411884,-1302.362347
3300.564175,-11251.130318,518.144159,306.438199
3300.564512,-8364.327145,1628.453072,1455.581446
3300.564850,-8660.409521,1776.494261,1455.581446
3300.565187,-10288.862594,666.185348,-536.266849
3300.565525,-9696.697840,-1702.473667,-2451.505594
3300.565862,-8956.491898,-1998.556043,766.095498
3300.566200,-9178.553681,-592.164754,3064.381992
3300.566537,-9844.739029,1258.350101,2145.067394
3300.566875,-12879.583391,888.247130,-1915.238745
3300.567212,-11251.130318,1184.329507,-4213.525239
3300.567550,-8956.491898,0.000000,-3064.381992
3300.567887,-8068.244768,-222.061783,-689.485948
3300.568225,-8882.471304,-444.123565,-536.266849
3300.568562,-11103.089130,-1628.453072,-2374.896044
3300.568900,-10881.027347,-2516.700203,-1532.190996
3300.569237,-10807.006753,-3256.906145,1685.410096
3300.569575,-9400.615463,-1258.350101,3294.210641
3300.569912,-10436.903782,-666.185348,1838.629195
3300.570250,-11991.336260,666.185348,-612.876398
3300.570587,-10955.047942,0.000000,-1455.581446
3300.570925,-9548.656652,-518.144159,1302.362347
3300.571262,-8364.327145,1776.494261,1762.019645
3300.571600,-10288.862594,1776.494261,1378.971896
3300.571937,-11843.295072,1850.514855,-612.876398
3300.572275,-10510.924376,-740.205942,0.000000
3300.572612,-9474.636058,-74.020594,2987.772442
3300.572950,-8660.409521,1776.494261,3600.648841
3300.573287,-11325.150913,2368.659014,1608.800546
3300.573625,-11251.130318,2368.659014,-1838.629195
3300.573962,-9474.636058,888.247130,-2987.772442
3300.574300,-9178.553681,1924.535449,76.609550
3300.574637,-8142.265362,2590.720797,-919.314598
3300.574975,-9548.656652,1184.329507,-1455.581446
3300.575312,-10881.027347,-370.102971,-2528.115143
3300.575650,-9030.512492,-2960.823768,459.657299
3300.575987,-9326.594869,-1110.308913,4136.915689
3300.576325,-9474.636058,-444.123565,2987.772442
3300.576662,-11843.295072,296.082377,229.828649
3300.576999,-11547.212695,-148.041188,-2145.067394
3300.577337,-9326.594869,-1850.514855,-766.095498
3300.577674,-8290.306550,444.123565,1991.848295
3300.578012,-9030.512492,296.082377,919.314598
3300.578349,-10807.006753,370.102971,-2145.067394
3300.578686,-11029.068536,-2146.597232,-2221.676944
3300.579024,-10214.842000,-2442.679609,1991.848295
3300.579361,-9178.553681,-962.267725,3600.648841
3300.579699,-9992.780217,-592.164754,2911.162892
3300.580036,-12139.377449,148.041188,-995.924147
3300.580373,-11473.192101,-1406.391290,-2451.505594
3300.580711,-10140.821405,-1702.473667,-766.095498
3300.581048,-8660.409521,-1110.308913,995.924147
3300.581385,-9548.656652,-592.164754,-229.828649
3300.581723,-11029.068536,-1554.432478,-2987.772442
3300.582060,-10288.862594,-3627.009116,-2221.676944
3300.582398,-9104.533087,-4589.276840,2298.286494
3300.582735,-8956.491898,-2516.700203,3140.991542
3300.583072,-10436.903782,-1406.391290,2451.505594
3300.583410,-12213.398043,-370.102971,-1225.752797
3300.583747,-10732.986159,-2368.659014,-1608.800546
3300.584085,-9252.574275,-2146.597232,1532.190996
3300.584422,-7846.182985,-148.041188,3217.601092
3300.584759,-10288.862594,444.123565,2604.724693
3300.585097,-12139.377449,-148.041188,459.657299
3300.585434,-10584.944971,-2146.597232,0.000000
3300.585771,-8734.430116,-1258.350101,3983.696590
3300.586109,-8586.388927,1480.411884,4749.792088
3300.586446,-10288.862594,2442.679609,2145.067394
3300.586784,-12139.377449,1776.494261,-2068.457845
3300.587121,-10436.903782,444.123565,-2374.896044
3300.587458,-9030.512492,444.123565,-383.047749
3300.587796,-8586.388927,1924.535449,1149.143247
3300.588133,-9548.656652,518.144159,-2068.457845
3300.588471,-10362.883188,-148.041188,-3294.210641
3300.588808,-9474.636058,-2368.659014,-1302.362347
3300.589145,-8364.327145,-2072.576638,1762.019645
3300.589483,-9178.553681,-222.061783,1838.629195
3300.589820,-12065.356855,370.102971,-689.485948
3300.590158,-12287.418637,222.061783,-3370.820191
3300.590495,-10436.903782,-1406.391290,-1915.238745
3300.590832,-8142.265362,-666.185348,1149.143247
3300.591170,-7772.162391,-592.164754,1532.190996
3300.591507,-11251.130318,-666.185348,-612.876398
3300.591844,-11843.295072,-1924.535449,-1225.752797
3300.592182,-10436.903782,-2664.741391,842.705048
3300.592519,-9104.533087,-222.061783,3907.087040
3300.592857,-10140.821405,1184.329507,2911.162892
3300.593194,-12065.356855,2368.659014,-459.657299
3300.593531,-11769.274478,740.205942,-2374.896044
3300.593869,-9622.677246,222.061783,153.219100
3300.594206,-7550.100608,1998.556043,1608.800546
3300.594544,-9474.636058,1702.473667,1072.533697
3300.594881,-12065.356855,1628.453072,-1685.410096
3300.595218,-10658.965565,-814.226536,-2374.896044
3300.595556,-8586.388927,-1258.350101,1455.581446
3300.595893,-7920.203579,222.061783,3294.210641
3300.596230,-10066.800811,1702.473667,612.876398
3300.596568,-11991.336260,1110.308913,-2451.505594
3300.596905,-10288.862594,-666.185348,-2068.457845
3300.597243,-8586.388927,-148.041188,1378.971896
3300.597580,-7994.224174,1110.308913,2451.505594
3300.597917,-9400.615463,1702.473667,766.095498
3300.598255,-10881.027347,74.020594,-995.924147
3300.598592,-10362.883188,-2072.576638,1225.752797
3300.598930,-8882.471304,-1332.370696,4903.011187
3300.599267,-9252.574275,1628.453072,4903.011187
3300.599604,-11843.295072,2590.720797,1532.190996
3300.599942,-13101.645173,1110.308913,-3294.210641
3300.600279,-9696.697840,444.123565,-2298.286494
3300.600616,-7920.203579,0.000000,689.485948
3300.600954,-8142.265362,592.164754,1532.190996
3300.601291,-10362.883188,666.185348,-689.485948
3300.601629,-11843.295072,-1036.288319,-2528.115143
3300.601966,-10214.842000,-3256.906145,-842.705048
3300.602303,-9104.533087,-2368.659014,2374.896044
3300.602641,-9992.780217,-518.144159,2681.334243
3300.602978,-11917.315666,0.000000,-1225.752797
3300.603316,-11621.233289,-2072.576638,-4903.011187
3300.603653,-9474.636058,-3849.070898,-2451.505594
3300.603990,-8512.368333,-3256.906145,995.924147
3300.604328,-9104.533087,-1776.494261,1225.752797
3300.604665,-12139.377449,-2368.659014,-1685.410096
3300.605002,-10881.027347,-3701.029710,-3677.258390
3300.605340,-9548.656652,-5255.462188,1072.533697
3300.605677,-8586.388927,-2812.782580,4596.572988
3300.606015,-9844.739029,74.020594,3600.648841
3300.606352,-13027.624579,518.144159,229.828649
3300.606689,-12509.480420,-222.061783,-1991.848295
3300.607027,-9548.656652,-1110.308913,689.485948
3300.607364,-8364.327145,888.247130,3524.039291
3300.607702,-9548.656652,1184.329507,3140.991542
3300.608039,-11473.192101,962.267725,-1225.752797
3300.608376,-10436.903782,-814.226536,-2068.457845
3300.608714,-9622.677246,-888.247130,1455.581446
3300.609051,-8142.265362,1184.329507,3294.210641
3300.609389,-9992.780217,2294.638420,229.828649
3300.609726,-11843.295072,1924.535449,-2911.162892
3300.610063,-9696.697840,-296.082377,-4060.306139
3300.610401,-7846.182985,-148.041188,153.219100
3300.610738,-7179.997637,370.102971,2068.457845
3300.611075,-9474.636058,518.144159,306.438199
3300.611413,-11769.274478,-444.123565,-1302.362347
3300.611750,-10881.027347,-2368.659014,306.438199
3300.612088,-8586.388927,-1850.514855,2757.943793
3300.612425,-8512.368333,-148.041188,3830.477490
3300.612762,-11029.068536,814.226536,1072.533697
3300.613100,-11843.295072,444.123565,-1991.848295
3300.613437,-10807.006753,-296.082377,-1532.190996
3300.613775,-9252.574275,148.041188,1455.581446
3300.614112,-8734.430116,1776.494261,2451.505594
3300.614449,-11769.274478,1554.432478,766.095498
3300.614787,-12287.418637,-444.123565,-2451.505594
3300.615124,-10288.862594,-2220.617826,1378.971896
3300.615461,-8882.471304,-370.102971,3524.039291
3300.615799,-9178.553681,814.226536,2604.724693
3300.616136,-12287.418637,1776.494261,-1608.800546
3300.616474,-12509.480420,0.000000,-4290.134789
3300.616811,-9474.636058,-1628.453072,-3370.820191
3300.617148,-7550.100608,0.000000,306.438199
3300.617486,-7624.121203,74.020594,153.219100
3300.617823,-10658.965565,-518.144159,-2145.067394
3300.618161,-11029.068536,-2368.659014,-2068.457845
3300.618498,-9622.677246,-2516.700203,2221.676944
3300.618835,-9030.512492,-370.102971,4826.401637
3300.619173,-10436.903782,1110.308913,2681.334243
3300.619510,-12879.583391,1110.308913,-766.095498
3300.619847,-11029.068536,148.041188,-1838.629195
3300.620185,-8734.430116,0.000000,1149.143247
3300.620522,-7846.182985,1924.535449,3447.429741
3300.620860,-9622.677246,2294.638420,1685.410096
3300.621197,-11621.233289,1776.494261,-1302.362347
3300.621534,-10436.903782,-370.102971,-1225.752797
3300.621872,-8734.430116,222.061783,2451.505594
3300.622209,-8734.430116,2516.700203,3830.477490
3300.622547,-10955.047942,2442.679609,1302.362347
3300.622884,-12509.480420,2664.741391,-3830.477490
3300.623221,-10584.944971,0.000000,-3983.696590
3300.623559,-8956.491898,-148.041188,0.000000
3300.623896,-7031.956449,0.000000,689.485948
3300.624234,-9400.615463,-1036.288319,-919.314598
3300.624571,-11177.109724,-2664.741391,-2681.334243
3300.624908,-9400.615463,-4293.194464,-1378.971896
3300.625246,-8364.327145,-3552.988522,3064.381992
3300.625583,-9548.656652,-1406.391290,3370.820191
3300.625920,-12139.377449,-148.041188,229.828649
3300.626258,-12805.562797,-1110.308913,-3217.601092
3300.626595,-10436.903782,-3330.926739,-1685.410096
3300.626933,-8438.347739,-2886.803174,2068.457845
3300.627270,-8290.306550,-1554.432478,2987.772442
3300.627607,-11029.068536,-1702.473667,689.485948
3300.627945,-11843.295072,-2886.803174,-1149.143247
3300.628282,-10658.965565,-3849.070898,2604.724693
3300.628620,-9104.533087,-1554.432478,3753.867940
3300.628957,-9918.759623,444.123565,3064.381992
3300.629294,-12583.501014,1258.350101,-459.657299
3300.629632,-11917.315666,222.061783,-3217.601092
3300.629969,-9474.636058,-1480.411884,-383.047749
3300.630306,-7624.121203,444.123565,995.924147
3300.630644,-8734.430116,518.144159,689.485948
3300.630981,-11177.109724,0.000000,-2221.676944
3300.631319,-10140.821405,-1628.453072,-2451.505594
3300.631656,-9178.553681,-3034.844362,1455.581446
3300.631993,-8364.327145,-888.247130,3907.087040
3300.632331,-9548.656652,370.102971,2374.896044
3300.632668,-12361.439231,1110.308913,-995.924147
3300.633006,-10288.862594,222.061783,-2374.896044
3300.633343,-8882.471304,-666.185348,459.657299
3300.633680,-7920.203579,518.144159,2987.772442
3300.634018,-9178.553681,814.226536,1915.238745
3300.634355,-11843.295072,518.144159,229.828649
3300.634692,-10436.903782,-370.102971,-383.047749
3300.635030,-8956.491898,-370.102971,2834.553343
3300.635367,-9252.574275,1184.329507,4136.915689
3300.635705,-10584.944971,2590.720797,919.314598
3300.636042,-12509.480420,3182.885551,-2911.162892
3300.636379,-10584.944971,1258.350101,-3677.258390
3300.636717,-8290.306550,222.061783,-1149.143247
3300.637054,-8364.327145,888.247130,153.219100
3300.637392,-10214.842000,592.164754,-1302.362347
3300.637729,-11177.109724,0.000000,-2298.286494
3300.638066,-10436.903782,-2294.638420,-1532.190996
3300.638404,-9030.512492,-962.267725,1149.143247
3300.638741,-9548.656652,296.082377,919.314598
3300.639079,-12065.356855,0.000000,-1532.190996
3300.639416,-12287.418637,-222.061783,-3140.991542
3300.639753,-9770.718434,-2442.679609,-1838.629195
3300.640091,-7994.224174,-296.082377,766.095498
3300.640428,-7994.224174,-814.226536,1378.971896
3300.640765,-10732.986159,-296.082377,536.266849
3300.641103,-11547.212695,-1702.473667,-612.876398
3300.641440,-10214.842000,-2146.597232,2298.286494
3300.641778,-9548.656652,148.041188,4596.572988
3300.642115,-10214.842000,2220.617826,2757.943793
3300.642452,-11843.295072,1998.556043,0.000000
3300.642790,-10732.986159,2072.576638,-2451.505594
3300.643127,-8438.347739,0.000000,689.485948
3300.643465,-7920.203579,1998.556043,2451.505594
3300.643802,-8882.471304,1628.453072,1685.410096
3300.644139,-11473.192101,1406.391290,153.219100
3300.644477,-11103.089130,-444.123565,-1149.143247
3300.644814,-9474.636058,-740.205942,2374.896044
3300.645151,-9030.512492,888.247130,3983.696590
3300.645489,-10066.800811,1702.473667,1149.143247
3300.645826,-11695.253884,2146.597232,-2681.334243
3300.646164,-10436.903782,222.061783,-3217.601092
3300.646501,-9104.533087,-444.123565,0.000000
3300.646838,-8512.368333,-666.185348,842.705048
3300.647176,-9622.677246,0.000000,919.314598
3300.647513,-10732.986159,-1998.556043,-1225.752797
3300.647851,-10658.965565,-3330.926739,536.266849
3300.648188,-9622.677246,-2886.803174,3753.867940
3300.648525,-9178.553681,-962.267725,4213.525239
3300.648863,-11769.274478,592.164754,2221.676944
3300.649200,-12509.480420,0.000000,-1991.848295
3300.649537,-9548.656652,-962.267725,-2145.067394
3300.649875,-8660.409521,-2072.576638,306.438199
3300.650212,-7624.121203,-592.164754,229.828649
3300.650550,-9696.697840,-1110.308913,-842.705048
3300.650887,-11547.212695,-2146.597232,-2451.505594
3300.651224,-9474.636058,-3923.091493,-1378.971896
3300.651562,-9326.594869,-2664.741391,1838.629195
3300.651899,-10140.821405,-666.185348,2221.676944
3300.652237,-11917.315666,-1258.350101,-1608.800546
3300.652574,-11399.171507,-1258.350101,-4060.306139
3300.652911,-8734.430116,-2368.659014,-2911.162892
3300.653249,-8808.450710,-2886.803174,919.314598
3300.653586,-8438.347739,-2146.597232,766.095498
3300.653924,-10436.903782,-1702.473667,0.000000
3300.654261,-11991.336260,-2294.638420,229.828649
3300.654598,-10288.862594,-2590.720797,842.705048
3300.654936,-9474.636058,-1258.350101,3600.648841
3300.655273,-10510.924376,740.205942,3294.210641
3300.655610,-11991.336260,2368.659014,919.314598
3300.655948,-11325.150913,2294.638420,-1455.581446
3300.656285,-9326.594869,666.185348,-153.219100
3300.656623,-8734.430116,1702.473667,2298.286494
3300.656960,-9326.594869,2220.617826,2451.505594
3300.657297,-10955.047942,2146.597232,689.485948
3300.657635,-10288.862594,592.164754,-459.657299
3300.657972,-9918.759623,-518.144159,2298.286494
3300.658310,-8438.347739,2146.597232,3753.867940
3300.658647,-10288.862594,2442.679609,1149.143247
3300.658984,-11547.212695,3404.947333,-2834.553343
3300.659322,-9622.677246,1036.288319,-5209.449386
3300.659659,-8290.306550,-592.164754,-1762.019645
3300.659996,-6735.874072,-370.102971,229.828649
3300.660334,-7550.100608,-444.123565,153.219100
3300.660671,-10732.986159,-518.144159,-1149.143247
3300.661009,-11029.068536,-3034.844362,-612.876398
3300.661346,-9918.759623,-1850.514855,2145.067394
3300.661683,-9622.677246,-148.041188,3294.210641
3300.662021,-11325.150913,592.164754,2451.505594
3300.662358,-12065.356855,518.144159,-689.485948
3300.662696,-10658.965565,-296.082377,-1378.971896
3300.663033,-9474.636058,0.000000,1225.752797
3300.663370,-9178.553681,666.185348,1838.629195
3300.663708,-10807.006753,1184.329507,842.705048
3300.664045,-12657.521608,-370.102971,-919.314598
3300.664382,-10510.924376,-1332.370696,689.485948
3300.664720,-9622.677246,-962.267725,2604.724693
3300.665057,-9474.636058,1628.453072,3294.210641
3300.665395,-11769.274478,2294.638420,-536.266849
3300.665732,-11547.212695,1554.432478,-3677.258390
3300.666069,-9844.739029,0.000000,-2834.553343
3300.666407,-7920.203579,-592.164754,-919.314598
3300.666744,-7772.162391,370.102971,153.219100
3300.667082,-9622.677246,-296.082377,-1302.362347
3300.667419,-10584.944971,-2072.576638,-2451.505594
3300.667756,-9326.594869,-2590.720797,1149.143247
3300.668094,-8512.368333,-1628.453072,3524.039291
3300.668431,-9178.553681,1258.350101,2528.115143
3300.668769,-11547.212695,1998.556043,-612.876398
3300.669106,-11547.212695,740.205942,-2374.896044
3300.669443,-9622.677246,-592.164754,-459.657299
3300.669781,-8364.327145,592.164754,1838.629195
3300.670118,-8734.430116,1406.391290,1072.533697
3300.670455,-11843.295072,814.226536,76.609550
3300.670793,-11769.274478,-1184.329507,-1302.362347
3300.671130,-9252.574275,-2146.597232,1149.143247
3300.671468,-8956.491898,0.000000,3447.429741
3300.671805,-10955.047942,1258.350101,1915.238745
3300.672142,-12139.377449,1110.308913,-2451.505594
3300.672480,-10214.842000,74.020594,-4673.182538
3300.672817,-9030.512492,-1554.432478,-1608.800546
3300.673155,-8586.388927,-370.102971,689.485948
3300.673492,-9326.594869,-1184.329507,459.657299
3300.673829,-11769.274478,-2368.659014,-1532.190996
3300.674167,-10807.006753,-4737.318029,-2298.286494
3300.674504,-8734.430116,-4737.318029,2068.457845
3300.674841,-9474.636058,-2220.617826,3753.867940
3300.675179,-10807.006753,-1480.411884,1302.362347
3300.675516,-11991.336260,-518.144159,-2528.115143
3300.675854,-11251.130318,-2516.700203,-2374.896044
3300.676191,-9178.553681,-2738.761985,612.876398
3300.676528,-7772.162391,-1776.494261,2451.505594
3300.676866,-10510.924376,-962.267725,3217.601092
3300.677203,-11325.150913,-814.226536,919.314598
3300.677541,-10214.842000,-2442.679609,1608.800546
3300.677878,-9696.697840,-1332.370696,4749.792088
3300.678215,-9474.636058,888.247130,4673.182538
3300.678553,-12213.398043,2738.761985,1762.019645
3300.678890,-12213.398043,2368.659014,-2604.724693
3300.679228,-9474.636058,1110.308913,-2451.505594
3300.679565,-7772.162391,1776.494261,536.266849
3300.679903,-8290.306550,1702.473667,995.924147
3300.680240,-9918.759623,2220.617826,-1838.629195
3300.680578,-11251.130318,-518.144159,-3294.210641
3300.680915,-9474.636058,-2294.638420,612.876398
3300.681252,-7254.018232,-666.185348,4060.306139
3300.681590,-9104.533087,2220.617826,3600.648841
3300.681927,-13027.624579,2812.782580,-995.924147
3300.682265,-12509.480420,1702.473667,-4979.620737
3300.682602,-10140.821405,-296.082377,-2145.067394
3300.682940,-6883.915261,370.102971,612.876398
3300.683277,-7254.018232,-296.082377,2298.286494
3300.683615,-10288.862594,-962.267725,-536.266849
3300.683952,-10732.986159,-2220.617826,-1072.533697
3300.684289,-9400.615463,-1998.556043,1991.848295
3300.684627,-8438.347739,-666.185348,4136.915689
3300.684964,-10658.965565,2516.700203,2681.334243
3300.685302,-13101.645173,2368.659014,-1149.143247
3300.685639,-12435.459826,1406.391290,-2911.162892
3300.685977,-9770.718434,0.000000,-2221.676944
3300.686314,-7476.080014,444.123565,0.000000
3300.686651,-8956.491898,370.102971,306.438199
3300.686989,-10955.047942,-1332.370696,-2451.505594
3300.687326,-10732.986159,-2442.679609,-2068.457845
3300.687664,-9696.697840,-2146.597232,1225.752797
3300.688001,-8882.471304,0.000000,1991.848295
3300.688339,-11473.192101,814.226536,-229.828649
3300.688676,-12657.521608,962.267725,-3907.087040
3300.689014,-10362.883188,-518.144159,-3217.601092
3300.689351,-8660.409521,-1184.329507,1149.143247
3300.689688,-7105.977043,-370.102971,2451.505594
3300.690026,-9696.697840,-592.164754,1302.362347
3300.690363,-12213.398043,-1036.288319,-229.828649
3300.690701,-10510.924376,-3330.926739,2298.286494
3300.691038,-8290.306550,-1332.370696,4596.572988
3300.691376,-8882.471304,1258.350101,4903.011187
3300.691713,-11917.315666,2664.741391,1685.410096
3300.692051,-11991.336260,2886.803174,-2987.772442
3300.692388,-9400.615463,0.000000,-1991.848295
3300.692725,-7698.141797,2072.576638,689.485948
3300.693063,-7402.059420,2368.659014,1685.410096
3300.693400,-10732.986159,1258.350101,-306.438199
3300.693738,-10955.047942,-1332.370696,-2604.724693
3300.694075,-8956.491898,-3108.864956,1149.143247
3300.694413,-9400.615463,-1036.288319,5822.325785
3300.694750,-10214.842000,0.000000,2757.943793
3300.695088,-11843.295072,1332.370696,-1991.848295
3300.695425,-11843.295072,0.000000,-5362.668486
3300.695762,-9252.574275,-2664.741391,-2451.505594
3300.696100,-8068.244768,-814.226536,229.828649
3300.696437,-7994.224174,-1480.411884,1225.752797
3300.696775,-10881.027347,-2368.659014,-995.924147
3300.697112,-12213.398043,-4071.132681,-536.266849
3300.697450,-11103.089130,-4293.194464,3217.601092
3300.697787,-8882.471304,-2812.782580,4673.182538
3300.698124,-10214.842000,-1110.308913,3677.258390
3300.698462,-12583.501014,0.000000,0.000000
3300.698799,-11473.192101,-666.185348,-2221.676944
3300.699137,-8882.471304,-1406.391290,-1072.533697
3300.699474,-8364.327145,-888.247130,1302.362347
3300.699812,-9770.718434,0.000000,842.705048
3300.700149,-11843.295072,-814.226536,-1072.533697
3300.700487,-10584.944971,-2812.782580,-766.095498
3300.700824,-8956.491898,-2072.576638,1762.019645
3300.701161,-9030.512492,444.123565,2911.162892
3300.701499,-11695.253884,1998.556043,612.876398
3300.701836,-12509.480420,1998.556043,-3907.087040
3300.702174,-10362.883188,1406.391290,-4673.182538
3300.702511,-8660.409521,0.000000,-1685.410096
3300.702849,-7476.080014,1332.370696,536.266849
3300.703186,-9030.512492,222.061783,0.000000
3300.703524,-10881.027347,-1110.308913,-612.876398
3300.703861,-9696.697840,-2294.638420,1302.362347
3300.704198,-8364.327145,-444.123565,4366.744339
3300.704536,-8882.471304,1850.514855,4673.182538
3300.704873,-12361.439231,3256.906145,1225.752797
3300.705211,-12509.480420,3108.864956,-1762.019645
3300.705548,-10066.800811,1554.432478,-2221.676944
3300.705886,-7624.121203,2072.576638,306.438199
3300.706223,-8216.285956,2368.659014,1225.752797
3300.706560,-9992.780217,1480.411884,-229.828649
3300.706898,-10140.821405,-518.144159,-2298.286494
3300.707235,-9178.553681,-2368.659014,536.266849
3300.707573,-8734.430116,-962.267725,3600.648841
3300.707910,-10732.986159,888.247130,2834.553343
3300.708248,-12435.459826,1184.329507,-1225.752797
3300.708585,-11177.109724,1184.329507,-4826.401637
3300.708923,-9474.636058,0.000000,-3064.381992
3300.709260,-8660.409521,0.000000,0.000000
3300.709597,-8586.388927,-888.247130,-306.438199
3300.709935,-10584.944971,-2294.638420,-1225.752797
3300.710272,-11103.089130,-3182.885551,-1149.143247
3300.710610,-10510.924376,-3552.988522,2528.115143
3300.710947,-9918.759623,-1628.453072,3524.039291
3300.711285,-10732.986159,-370.102971,1532.190996
3300.711622,-12879.583391,222.061783,-229.828649
3300.711960,-11177.109724,-740.205942,-842.705048
3300.712297,-9400.615463,-1184.329507,1608.800546
3300.712634,-8438.347739,222.061783,2681.334243
3300.712972,-9844.739029,814.226536,2145.067394
3300.713309,-11473.192101,222.061783,536.266849
3300.713647,-10362.883188,-1554.432478,306.438199
3300.713984,-9252.574275,-296.082377,2834.553343
3300.714322,-9844.739029,666.185348,3830.477490
3300.714659,-11473.192101,2220.617826,1225.752797
3300.714997,-11843.295072,1924.535449,-2145.067394
3300.715334,-9770.718434,592.164754,-2604.724693
3300.715671,-7254.018232,888.247130,-689.485948
3300.716009,-8142.265362,1702.473667,0.000000
3300.716346,-9622.677246,296.082377,-1608.800546
3300.716684,-9844.739029,-1184.329507,-2374.896044
3300.717021,-9474.636058,-3108.864956,306.438199
3300.717359,-8956.491898,-2516.700203,3753.867940
3300.717696,-9770.718434,-222.061783,3524.039291
3300.718033,-12287.418637,518.144159,919.314598
3300.718371,-11621.233289,370.102971,-2681.334243
3300.718708,-9696.697840,-814.226536,-1149.143247
3300.719046,-8660.409521,-962.267725,612.876398
3300.719383,-8882.471304,-370.102971,842.705048
3300.719721,-10658.965565,-1036.288319,-689.485948
3300.720058,-11029.068536,-1628.453072,-1915.238745
3300.720396,-9844.739029,-3701.029710,1302.362347
3300.720733,-9474.636058,-1406.391290,3294.210641
3300.721070,-10436.903782,148.041188,1991.848295
3300.721408,-12731.542202,592.164754,-995.924147
3300.721745,-11917.315666,-296.082377,-3140.991542
3300.722083,-9474.636058,-1554.432478,-2298.286494
3300.722420,-7550.100608,-1554.432478,0.000000
3300.722758,-7846.182985,-962.267725,-1302.362347
3300.723095,-10807.006753,-2516.700203,-1838.629195
3300.723433,-10214.842000,-3034.844362,-2681.334243
3300.723770,-8364.327145,-4441.235652,1378.971896
3300.724107,-9622.677246,-2146.597232,3907.087040
3300.724445,-11251.130318,-222.061783,2298.286494
3300.724782,-12953.603985,592.164754,-1302.362347
3300.725120,-10955.047942,-370.102971,-1838.629195
3300.725457,-8512.368333,-1110.308913,0.000000
3300.725795,-7994.224174,814.226536,2374.896044
3300.726132,-10140.821405,888.247130,2757.943793
3300.726469,-10807.006753,444.123565,306.438199
3300.726807,-9918.759623,-962.267725,229.828649
3300.727144,-9844.739029,444.123565,3830.477490
3300.727482,-9770.718434,2072.576638,4596.572988
3300.727819,-11325.150913,3404.947333,3140.991542
3300.728157,-11991.336260,3404.947333,-459.657299
3300.728494,-9992.780217,2368.659014,-1072.533697
3300.728832,-9030.512492,2590.720797,153.219100
3300.729169,-8068.244768,1702.473667,229.828649
3300.729506,-9030.512492,1628.453072,-1302.362347
3300.729844,-10140.821405,-370.102971,-2068.457845
3300.730181,-8808.450710,-1850.514855,-689.485948
3300.730519,-8438.347739,-1184.329507,1762.019645
3300.730856,-9474.636058,0.000000,1608.800546
3300.731194,-11399.171507,296.082377,-842.705048
3300.731531,-11843.295072,518.144159,-2987.772442
3300.731869,-10288.862594,-518.144159,-1608.800546
3300.732206,-8586.388927,-888.247130,766.095498
3300.732543,-8364.327145,-1036.288319,995.924147
3300.732881,-10510.924376,-1110.308913,0.000000
3300.733218,-11103.089130,-2738.761985,-612.876398
3300.733556,-9918.759623,-3923.091493,1685.410096
3300.733893,-9622.677246,-1628.453072,3370.820191
3300.734231,-11103.089130,0.000000,3217.601092
3300.734568,-12879.583391,1184.329507,-459.657299
3300.734906,-11769.274478,0.000000,-1991.848295
3300.735243,-10510.924376,-296.082377,-766.095498
3300.735580,-8364.327145,592.164754,0.000000
3300.735918,-8956.491898,444.123565,-995.924147
3300.736255,-10584.944971,-370.102971,-2451.505594
3300.736593,-9992.780217,-2220.617826,-2221.676944
3300.736930,-9918.759623,-2590.720797,1225.752797
3300.737268,-8956.491898,-962.267725,2068.457845
3300.737605,-10288.862594,0.000000,919.314598
3300.737942,-12213.398043,0.000000,-1225.752797
3300.738280,-9918.759623,-814.226536,-2911.162892
3300.738617,-8586.388927,-1184.329507,229.828649
3300.738955,-7846.182985,814.226536,1225.752797
3300.739292,-9252.574275,888.247130,153.219100
3300.739630,-11029.068536,0.000000,-1225.752797
3300.739967,-9696.697840,-2368.659014,0.000000
3300.740305,-8290.306550,-1332.370696,4290.134789
3300.740642,-9030.512492,444.123565,5515.887586
3300.740979,-11695.253884,1554.432478,3677.258390
3300.741317,-12361.439231,2590.720797,-612.876398
3300.741654,-10955.047942,1406.391290,-1225.752797
3300.741992,-9844.739029,1258.350101,842.705048
3300.742329,-8142.265362,1184.329507,306.438199
3300.742667,-9474.636058,1332.370696,-1225.752797
3300.743004,-9696.697840,-1110.308913,-2757.943793
3300.743342,-8882.471304,-2886.803174,-459.657299
3300.743679,-8512.368333,-2516.700203,2374.896044
3300.744016,-9992.780217,-666.185348,2757.943793
3300.744354,-12509.480420,740.205942,0.000000
3300.744691,-12361.439231,-296.082377,-4290.134789
3300.745029,-9918.759623,-2664.741391,-2451.505594
3300.745366,-9252.574275,-1850.514855,306.438199
3300.745704,-7772.162391,-1332.370696,1149.143247
3300.746041,-10436.903782,-1554.432478,-689.485948
3300.746378,-10288.862594,-3849.070898,-2068.457845
3300.746716,-9992.780217,-4811.338623,1072.533697
3300.747053,-9474.636058,-2960.823768,4596.572988
3300.747391,-10436.903782,-1036.288319,4060.306139
3300.747728,-13027.624579,444.123565,1378.971896
3300.748066,-12065.356855,0.000000,-1378.971896
3300.748403,-9844.739029,148.041188,919.314598
3300.748741,-8364.327145,888.247130,2145.067394
3300.749078,-9178.553681,1702.473667,2298.286494
3300.749415,-11177.109724,1258.350101,-842.705048
3300.749753,-10732.986159,0.000000,-1532.190996
3300.750090,-9622.677246,-1184.329507,1149.143247
3300.750428,-8956.491898,888.247130,3064.381992
3300.750765,-9770.718434,2368.659014,1455.581446
3300.751103,-11843.295072,2886.803174,-1762.019645
3300.751440,-11177.109724,1628.453072,-3140.991542
3300.751778,-9178.553681,814.226536,-2298.286494
3300.752115,-7772.162391,1702.473667,-76.609550
3300.752452,-8660.409521,1332.370696,-306.438199
3300.752790,-10584.944971,444.123565,-1762.019645
3300.753127,-10214.842000,-1480.411884,-536.266849
3300.753465,-8956.491898,-1850.514855,2604.724693
3300.753802,-8882.471304,0.000000,4596.572988
3300.754140,-11103.089130,1258.350101,1838.629195
3300.754477,-12435.459826,1406.391290,-1378.971896
3300.754815,-10584.944971,-370.102971,-1532.190996
3300.755152,-8660.409521,0.000000,1455.581446
3300.755489,-7402.059420,1480.411884,1685.410096
3300.755827,-10066.800811,1110.308913,0.000000
3300.756164,-11399.171507,0.000000,-2298.286494
3300.756502,-10214.842000,-2442.679609,0.000000
3300.756839,-9918.759623,-1332.370696,3217.601092
3300.757177,-9770.718434,370.102971,3140.991542
3300.757514,-12213.398043,888.247130,229.828649
3300.757851,-12435.459826,-740.205942,-3217.601092
3300.758189,-9770.718434,-2146.597232,-2068.457845
3300.758526,-8660.409521,-962.267725,842.705048
3300.758864,-8882.471304,-1184.329507,229.828649
3300.759201,-10955.047942,-814.226536,-2298.286494
3300.759539,-10881.027347,-2738.761985,-3677.258390
3300.759876,-9770.718434,-4515.256246,229.828649
3300.760214,-8290.306550,-2516.700203,3677.258390
3300.760551,-10066.800811,-1036.288319,3447.429741
3300.760888,-12805.562797,296.082377,1072.533697
3300.761226,-11621.233289,-1110.308913,-2145.067394
3300.761563,-9844.739029,-1110.308913,1072.533697
3300.761901,-8808.450710,0.000000,3983.696590
3300.762238,-9252.574275,1036.288319,2451.505594
3300.762576,-11177.109724,962.267725,-383.047749
3300.762913,-9622.677246,74.020594,-1378.971896
3300.763251,-8956.491898,-1702.473667,1838.629195
3300.763588,-7772.162391,518.144159,3677.258390
3300.763925,-9844.739029,2664.741391,2374.896044
3300.764263,-12953.603985,3034.844362,-1302.362347
3300.764600,-11325.150913,518.144159,-3217.601092
3300.764938,-8512.368333,0.000000,-612.876398
3300.765275,-7920.203579,814.226536,1302.362347
3300.765613,-9474.636058,1184.329507,0.000000
3300.765950,-11177.109724,-296.082377,-3524.039291
3300.766287,-9844.739029,-3256.906145,-1762.019645
3300.766625,-8660.409521,-2664.741391,2068.457845
3300.766962,-8290.306550,-814.226536,2451.505594
3300.767300,-11769.274478,888.247130,1302.362347
3300.767637,-13545.768739,0.000000,-2068.457845
3300.767975,-10732.986159,-1628.453072,-1762.019645
3300.768312,-8734.430116,-1110.308913,1838.629195
3300.768650,-8364.327145,518.144159,2757.943793
3300.768987,-10881.027347,222.061783,-229.828649
3300.769324,-11547.212695,-740.205942,-2451.505594
3300.769662,-9770.718434,-2590.720797,0.000000
3300.769999,-8512.368333,-2368.659014,3370.820191
3300.770337,-9400.615463,592.164754,3677.258390
3300.770674,-12213.398043,888.247130,306.438199
3300.771012,-12213.398043,666.185348,-3140.991542
3300.771349,-9548.656652,-1332.370696,-1915.238745
3300.771687,-8216.285956,74.020594,1762.019645
3300.772024,-8216.285956,74.020594,919.314598
3300.772361,-10362.883188,74.020594,-1915.238745
3300.772699,-11473.192101,-518.144159,-3140.991542
3300.773036,-9474.636058,-2220.617826,-459.657299
3300.773374,-8586.388927,-1184.329507,2451.505594
3300.773711,-10140.821405,74.020594,1608.800546
3300.774049,-11843.295072,1332.370696,-689.485948
3300.774386,-11695.253884,0.000000,-1455.581446
3300.774724,-9548.656652,-1332.370696,766.095498
3300.775061,-8068.244768,962.267725,3064.381992
3300.775398,-9770.718434,1554.432478,2298.286494
3300.775736,-11547.212695,1184.329507,-1149.143247
3300.776073,-10510.924376,0.000000,-536.266849
3300.776411,-8882.471304,-888.247130,3217.601092
3300.776748,-8438.347739,1702.473667,4519.963438
3300.777086,-11103.089130,2664.741391,2374.896044
3300.777423,-13323.706956,3256.906145,-1378.971896
3300.777760,-10732.986159,814.226536,-2987.772442
3300.778098,-8734.430116,370.102971,76.609550
3300.778435,-7031.956449,1036.288319,842.705048
3300.778773,-8660.409521,222.061783,-919.314598
3300.779110,-11029.068536,-296.082377,-2834.553343
3300.779448,-9400.615463,-2738.761985,-1455.581446
3300.779785,-9104.533087,-1184.329507,2145.067394
3300.780122,-9770.718434,-444.123565,1302.362347
3300.780460,-11769.274478,370.102971,229.828649
3300.780797,-12139.377449,-444.123565,-3370.820191
3300.781135,-9548.656652,-1702.473667,-2221.676944
3300.781472,-8364.327145,-1776.494261,1302.362347
3300.781809,-8586.388927,-1184.329507,2068.457845
3300.782147,-10807.006753,-518.144159,0.000000
3300.782484,-11769.274478,-1776.494261,-1915.238745
3300.782821,-9696.697840,-3182.885551,306.438199
3300.783159,-9104.533087,-2294.638420,4443.353888
3300.783496,-10066.800811,296.082377,4979.620737
3300.783834,-11917.315666,1258.350101,766.095498
3300.784171,-12287.418637,1110.308913,-1762.019645
3300.784508,-10436.903782,74.020594,229.828649
3300.784846,-8586.388927,370.102971,1685.410096
3300.785183,-9400.615463,814.226536,1378.971896
3300.785521,-11547.212695,0.000000,-995.924147
3300.785858,-9844.739029,-1184.329507,-2221.676944
3300.786195,-8660.409521,-2442.679609,842.705048
3300.786533,-8364.327145,-814.226536,3140.991542
3300.786870,-9474.636058,1110.308913,766.095498
3300.787208,-12361.439231,1702.473667,-2068.457845
3300.787545,-11177.109724,-666.185348,-3370.820191
3300.787882,-8438.347739,-1406.391290,459.657299
3300.788220,-7920.203579,0.000000,2681.334243
3300.788557,-9030.512492,148.041188,1225.752797
3300.788895,-11251.130318,0.000000,-1685.410096
3300.789232,-10658.965565,-1998.556043,-229.828649
3300.789569,-9474.636058,-2664.741391,2987.772442
3300.789907,-8956.491898,-222.061783,4290.134789
3300.790244,-10732.986159,1332.370696,1915.238745
3300.790582,-12583.501014,1406.391290,-1608.800546
3300.790919,-10436.903782,0.000000,-1915.238745
3300.791256,-8734.430116,-518.144159,995.924147
3300.791594,-8882.471304,592.164754,2298.286494
3300.791931,-10510.924376,962.267725,766.095498
3300.792268,-10881.027347,74.020594,-2451.505594
3300.792606,-10140.821405,-2516.700203,-766.095498
3300.792943,-8956.491898,-1036.288319,1378.971896
3300.793281,-9770.718434,0.000000,1455.581446
3300.793618,-11547.212695,296.082377,-1302.362347
3300.793955,-11769.274478,444.123565,-4443.353888
3300.794293,-9844.739029,-2664.741391,-2451.505594
3300.794630,-7920.203579,-1554.432478,306.438199
3300.794968,-7846.182985,-1628.453072,1225.752797
3300.795305,-11177.109724,-1184.329507,153.219100
3300.795642,-11103.089130,-1554.432478,-2145.067394
3300.795980,-9918.759623,-2960.823768,689.485948
3300.796317,-9696.697840,-1554.432478,4060.306139
3300.796655,-9992.780217,296.082377,3907.087040
3300.796992,-12435.459826,1850.514855,919.314598
3300.797329,-11695.253884,1036.288319,-1762.019645
3300.797667,-9030.512492,296.082377,383.047749
3300.798004,-8364.327145,888.247130,2374.896044
3300.798342,-9178.553681,1554.432478,2068.457845
3300.798679,-11399.171507,1332.370696,-383.047749
3300.799016,-10807.006753,370.102971,-1302.362347
3300.799354,-9622.677246,-592.164754,1378.971896
3300.799691,-9030.512492,444.123565,3524.039291
3300.800029,-10066.800811,2664.741391,1838.629195
3300.800366,-11917.315666,2516.700203,-1532.190996
3300.800703,-11251.130318,1036.288319,-3830.477490
3300.801041,-9178.553681,-740.205942,-2221.676944
3300.801378,-7476.080014,-592.164754,-306.438199
3300.801715,-8142.265362,-814.226536,0.000000
3300.802053,-10066.800811,-1184.329507,-995.924147
3300.802390,-9696.697840,-3108.864956,-995.924147
3300.802728,-9252.574275,-1628.453072,1455.581446
3300.803065,-9844.739029,-1110.308913,2681.334243
3300.803402,-12213.398043,1258.350101,1608.800546
3300.803740,-12435.459826,222.061783,-612.876398
3300.804077,-10584.944971,-370.102971,-383.047749
3300.804415,-8808.450710,-1036.288319,1991.848295
3300.804752,-8290.306550,0.000000,2145.067394
3300.805089,-10066.800811,0.000000,1762.019645
3300.805427,-11769.274478,-518.144159,-919.314598
3300.805764,-10362.883188,-1406.391290,76.609550
3300.806102,-10732.986159,-962.267725,2451.505594
3300.806439,-10140.821405,888.247130,1532.190996
3300.806776,-11103.089130,814.226536,-766.095498
3300.807114,-11029.068536,1406.391290,-3140.991542
3300.807451,-8956.491898,-1258.350101,-3294.210641
3300.807789,-8290.306550,-1110.308913,306.438199
3300.808126,-8142.265362,-888.247130,229.828649
3300.808463,-10140.821405,-1258.350101,0.000000
3300.808801,-11177.109724,-1702.473667,-1532.190996
3300.809138,-9622.677246,-4145.153275,612.876398
3300.809476,-8956.491898,-1776.494261,2911.162892
3300.809813,-9474.636058,370.102971,2987.772442
3300.810150,-11399.171507,1110.308913,383.047749
3300.810488,-10955.047942,666.185348,-1149.143247
3300.810825,-10066.800811,-740.205942,76.609550
3300.811163,-9030.512492,1036.288319,1532.190996
3300.811500,-8882.471304,814.226536,1072.533697
3300.811837,-10881.027347,1184.329507,766.095498
3300.812175,-10362.883188,-592.164754,153.219100
3300.812512,-9548.656652,-814.226536,1532.190996
3300.812849,-9622.677246,1628.453072,2757.943793
3300.813187,-11843.295072,2072.576638,1838.629195
3300.813524,-12805.562797,2368.659014,-1915.238745
3300.813862,-9992.780217,740.205942,-4136.915689
3300.814199,-8512.368333,-370.102971,-842.705048
3300.814536,-7772.162391,-222.061783,153.219100
3300.814874,-8808.450710,-740.205942,-459.657299
3300.815211,-10807.006753,-296.082377,-2451.505594
3300.815549,-9992.780217,-2590.720797,-2374.896044
3300.815886,-9844.739029,-3034.844362,1302.362347
3300.816223,-9696.697840,-1776.494261,2604.724693
3300.816561,-10140.821405,-296.082377,1838.629195
3300.816898,-11547.212695,-296.082377,-842.705048
3300.817236,-9696.697840,-2368.659014,-1378.971896
3300.817573,-9178.553681,-2738.761985,842.705048
3300.817910,-8734.430116,-1924.535449,2681.334243
3300.818248,-9918.759623,-518.144159,995.924147
3300.818585,-11325.150913,-888.247130,-383.047749
3300.818923,-10140.821405,-2294.638420,689.485948
3300.819260,-9548.656652,-1258.350101,3447.429741
3300.819597,-10214.842000,1406.391290,3753.867940
3300.819935,-12213.398043,1998.556043,1685.410096
3300.820272,-12435.459826,2590.720797,-1532.190996
3300.820610,-10732.986159,296.082377,-1838.629195
3300.820947,-9104.533087,370.102971,1149.143247
3300.821284,-8068.244768,296.082377,842.705048
3300.821622,-10362.883188,740.205942,-153.219100
3300.821959,-11103.089130,74.020594,-1838.629195
3300.822296,-9400.615463,-1998.556043,-612.876398
3300.822634,-9104.533087,-1184.329507,1685.410096
3300.822971,-9400.615463,1258.350101,1762.019645
3300.823309,-11621.233289,1628.453072,-995.924147
3300.823646,-10584.944971,1184.329507,-2604.724693
3300.823983,-9104.533087,-888.247130,-1225.752797
3300.824321,-7550.100608,0.000000,995.924147
3300.824658,-8364.327145,-370.102971,2068.457845
3300.824996,-10881.027347,-370.102971,1225.752797
3300.825333,-10807.006753,-1184.329507,0.000000
3300.825670,-10140.821405,-1332.370696,2068.457845
3300.826008,-9770.718434,0.000000,3217.601092
3300.826345,-9992.780217,814.226536,1838.629195
3300.826683,-11843.295072,2368.659014,-766.095498
3300.827020,-10732.986159,1110.308913,-2834.553343
3300.827357,-9474.636058,222.061783,-842.705048
3300.827695,-8660.409521,592.164754,536.266849
3300.828032,-9918.759623,74.020594,0.000000
3300.828370,-11547.212695,0.000000,-1378.971896
3300.828707,-11473.192101,-2664.741391,-1302.362347
3300.829044,-9844.739029,-3256.906145,1302.362347
3300.829382,-9326.594869,-1702.473667,2068.457845
3300.829719,-11251.130318,-592.164754,842.705048
3300.830057,-11843.295072,0.000000,-2987.772442
3300.830394,-10140.821405,-1702.473667,-2681.334243
3300.830731,-9400.615463,-2368.659014,0.000000
3300.831069,-8068.244768,-1702.473667,1072.533697
3300.831406,-9474.636058,-1110.308913,995.924147
3300.831743,-11399.171507,-1406.391290,153.219100
3300.832081,-9918.759623,-3330.926739,1225.752797
3300.832418,-9474.636058,-1258.350101,3830.477490
3300.832756,-9992.780217,888.247130,4979.620737
3300.833093,-12065.356855,2590.720797,1915.238745
3300.833430,-11843.295072,2442.679609,-2145.067394
3300.833768,-9918.759623,740.205942,-1685.410096
3300.834105,-8512.368333,962.267725,229.828649
3300.834443,-7476.080014,1776.494261,766.095498
3300.834780,-9918.759623,1480.411884,229.828649
3300.835117,-10140.821405,222.061783,-1378.971896
3300.835455,-9178.553681,-888.247130,-306.438199
3300.835792,-9844.739029,0.000000,2911.162892
3300.836130,-10066.800811,1184.329507,1838.629195
3300.836467,-11621.233289,1850.514855,-1225.752797
3300.836804,-11103.089130,1258.350101,-4136.915689
3300.837142,-9104.533087,-740.205942,-1608.800546
3300.837479,-8216.285956,-1332.370696,459.657299
3300.837817,-8216.285956,-888.247130,536.266849
3300.838154,-9770.718434,-962.267725,-842.705048
3300.838491,-11103.089130,-2220.617826,-1225.752797
3300.838829,-9770.718434,-4145.153275,1455.581446
3300.839166,-8956.491898,-1554.432478,3753.867940
3300.839504,-11103.089130,1036.288319,4136.915689
3300.839841,-13693.809927,1850.514855,153.219100
3300.840178,-11695.253884,814.226536,-3370.820191
3300.840516,-9918.759623,-1554.432478,-1072.533697
3300.840853,-7994.224174,-222.061783,1378.971896
3300.841191,-7920.203579,0.000000,995.924147
3300.841528,-10658.965565,0.000000,-842.705048
3300.841865,-10807.006753,-2960.823768,-1532.190996
3300.842203,-9548.656652,-2516.700203,1302.362347
3300.842540,-9918.759623,-1110.308913,3064.381992
3300.842877,-10955.047942,1110.308913,1225.752797
3300.843215,-12065.356855,1036.288319,-2681.334243
3300.843552,-10066.800811,-296.082377,-3370.820191
3300.843890,-8216.285956,-1480.411884,-842.705048
3300.844227,-8068.244768,-370.102971,919.314598
3300.844564,-9770.718434,-888.247130,1302.362347
3300.844902,-11103.089130,-1110.308913,-1378.971896
3300.845239,-10066.800811,-3256.906145,0.000000
3300.845577,-8586.388927,-2220.617826,3907.087040
3300.845914,-9252.574275,-370.102971,5132.839837
3300.846251,-12213.398043,1406.391290,2911.162892
3300.846589,-12509.480420,3034.844362,-766.095498
3300.846926,-10140.821405,1184.329507,-1378.971896
3300.847264,-8660.409521,1406.391290,1532.190996
3300.847601,-8438.347739,1110.308913,1532.190996
3300.847938,-10140.821405,1776.494261,383.047749
3300.848276,-10510.924376,0.000000,-1532.190996
3300.848613,-9770.718434,-1628.453072,689.485948
3300.848951,-8586.388927,-518.144159,3140.991542
3300.849288,-9548.656652,1184.329507,2604.724693
3300.849625,-12139.377449,2220.617826,-1149.143247
3300.849963,-12065.356855,592.164754,-4290.134789
3300.850300,-8956.491898,-444.123565,-3830.477490
3300.850638,-7476.080014,-370.102971,-306.438199
3300.850975,-8290.306550,-962.267725,153.219100
3300.851312,-10362.883188,-1036.288319,-995.924147
3300.851650,-11547.212695,-2738.761985,-1532.190996
3300.851987,-10140.821405,-4293.194464,536.266849
3300.852324,-8956.491898,-2368.659014,2834.553343
3300.852662,-10955.047942,-666.185348,3370.820191
3300.852999,-12953.603985,444.123565,0.000000
3300.853337,-11843.295072,-814.226536,-1991.848295
3300.853674,-9622.677246,-1628.453072,-306.438199
3300.854011,-7179.997637,0.000000,1532.190996
3300.854349,-9326.594869,148.041188,2298.286494
3300.854686,-11177.109724,-370.102971,229.828649
3300.855024,-10362.883188,-2368.659014,153.219100
3300.855361,-9992.780217,-1850.514855,3524.039291
3300.855698,-9770.718434,814.226536,3600.648841
3300.856036,-11843.295072,1998.556043,1455.581446
3300.856373,-12509.480420,1776.494261,-2145.067394
3300.856711,-10066.800811,592.164754,-3600.648841
3300.857048,-8734.430116,222.061783,-1149.143247
3300.857385,-7920.203579,444.123565,153.219100
3300.857723,-9696.697840,148.041188,-459.657299
3300.858060,-10362.883188,-592.164754,-2757.943793
3300.858398,-9030.512492,-2516.700203,-612.876398
3300.858735,-8660.409521,-2368.659014,3064.381992
3300.859072,-9548.656652,0.000000,4213.525239
3300.859410,-12065.356855,1850.514855,1838.629195
3300.859747,-12361.439231,2294.638420,-2221.676944
3300.860085,-10436.903782,-370.102971,-1685.410096
3300.860422,-8586.388927,518.144159,1378.971896
3300.860759,-7550.100608,888.247130,919.314598
3300.861097,-10140.821405,1036.288319,536.266849
3300.861434,-10955.047942,-296.082377,-1149.143247
3300.861771,-9400.615463,-2368.659014,919.314598
3300.862109,-9178.553681,-444.123565,4060.306139
3300.862446,-10510.924376,1628.453072,4213.525239
3300.862784,-13027.624579,2812.782580,-459.657299
3300.863121,-11695.253884,1258.350101,-3370.820191
3300.863458,-9252.574275,74.020594,-2374.896044
3300.863796,-7254.018232,-518.144159,0.000000
3300.864133,-8438.347739,-296.082377,-689.485948
3300.864471,-10881.027347,-888.247130,-1838.629195
3300.864808,-10436.903782,-3182.885551,-3294.210641
3300.865145,-8512.368333,-4441.235652,306.438199
3300.865483,-9252.574275,-2516.700203,2451.505594
3300.865820,-10732.986159,-444.123565,2374.896044
3300.866158,-12953.603985,74.020594,-1225.752797
3300.866495,-11325.150913,-1036.288319,-1608.800546
3300.866832,-9622.677246,-2072.576638,612.876398
3300.867170,-8512.368333,-962.267725,2451.505594
3300.867507,-9252.574275,-962.267725,1455.581446
3300.867845,-11103.089130,-962.267725,536.266849
3300.868182,-10955.047942,-2220.617826,1455.581446
3300.868519,-9474.636058,-2072.576638,3600.648841
3300.868857,-9770.718434,666.185348,4290.134789
3300.869194,-11547.212695,1998.556043,1838.629195
3300.869532,-12657.521608,3552.988522,-2604.724693
3300.869869,-10436.903782,1406.391290,-2911.162892
3300.870206,-7550.100608,222.061783,-1455.581446
3300.870544,-6587.832884,814.226536,0.000000
3300.870881,-9178.553681,962.267725,-306.438199
3300.871219,-10510.924376,296.082377,-2757.943793
3300.871556,-9992.780217,-2220.617826,-1149.143247
3300.871893,-9474.636058,-1554.432478,1915.238745
3300.872231,-9622.677246,0.000000,2374.896044
3300.872568,-12213.398043,444.123565,1149.143247
3300.872905,-11325.150913,1184.329507,-2221.676944
3300.873243,-9770.718434,-1184.329507,-1072.533697
3300.873580,-8068.244768,-296.082377,995.924147
3300.873918,-7550.100608,962.267725,229.828649
3300.874255,-11177.109724,0.000000,76.609550
3300.874592,-11325.150913,-666.185348,-2298.286494
3300.874930,-9178.553681,-2960.823768,306.438199
3300.875267,-8882.471304,-1332.370696,4519.963438
3300.875605,-10214.842000,666.185348,3830.477490
3300.875942,-13323.706956,1554.432478,1149.143247
3300.876279,-12287.418637,666.185348,-1838.629195
3300.876617,-9400.615463,-296.082377,-536.266849
3300.876954,-7920.203579,0.000000,1685.410096
3300.877291,-8364.327145,0.000000,612.876398
3300.877629,-10066.800811,-518.144159,-1532.190996
3300.877966,-10140.821405,-2516.700203,-2528.115143
3300.878303,-9548.656652,-2738.761985,612.876398
3300.878640,-8882.471304,-1628.453072,1991.848295
3300.878978,-10658.965565,0.000000,842.705048
3300.879315,-12065.356855,0.000000,-2145.067394
3300.879652,-10362.883188,-1480.411884,-3064.381992
3300.879990,-9030.512492,-2072.576638,612.876398
3300.880327,-8068.244768,-1258.350101,2374.896044
3300.880664,-9474.636058,-444.123565,1455.581446
3300.881001,-11103.089130,-1184.329507,-612.876398
3300.881339,-10214.842000,-2516.700203,153.219100
3300.881676,-9548.656652,-2516.700203,4596.572988
3300.882013,-9844.739029,962.267725,4979.620737
3300.882351,-12139.377449,2516.700203,2681.334243
3300.882688,-13101.645173,3256.906145,-1762.019645
3300.883025,-10732.986159,1554.432478,-2068.457845
3300.883362,-9622.677246,1776.494261,76.609550
3300.883700,-8142.265362,1628.453072,306.438199
3300.884037,-9696.697840,2072.576638,0.000000
3300.884374,-10436.903782,-296.082377,-2911.162892
3300.884712,-9104.533087,-1924.535449,-1072.533697
3300.885049,-8586.388927,-1184.329507,3064.381992
3300.885386,-9770.718434,666.185348,2451.505594
3300.885723,-11769.274478,1702.473667,-536.266849
3300.886061,-12805.562797,962.267725,-3140.991542
3300.886398,-9474.636058,-222.061783,-3294.210641
3300.886735,-7402.059420,-1184.329507,-459.657299
3300.887073,-8216.285956,0.000000,766.095498
3300.887410,-9770.718434,-1184.329507,-995.924147
3300.887747,-10955.047942,-1776.494261,-1608.800546
3300.888084,-9474.636058,-3627.009116,-383.047749
3300.888422,-8808.450710,-2442.679609,3294.210641
3300.888759,-11251.130318,-296.082377,3907.087040
3300.889096,-12583.501014,0.000000,1225.752797
3300.889434,-11399.171507,888.247130,-1149.143247
3300.889771,-10140.821405,-814.226536,689.485948
3300.890108,-8882.471304,518.144159,1991.848295
3300.890445,-8956.491898,222.061783,1532.190996
3300.890783,-11325.150913,740.205942,612.876398
3300.891120,-10732.986159,-888.247130,-919.314598
3300.891457,-9548.656652,-2368.659014,995.924147
3300.891795,-9696.697840,-370.102971,3064.381992
3300.892132,-10732.986159,222.061783,1991.848295
3300.892469,-12065.356855,1036.288319,-1225.752797
3300.892806,-10214.842000,74.020594,-3140.991542
3300.893144,-8882.471304,-1036.288319,-306.438199
3300.893481,-8142.265362,-370.102971,459.657299
3300.893818,-8660.409521,-592.164754,-459.657299
3300.894156,-10584.944971,-666.185348,-1072.533697
3300.894493,-9548.656652,-2442.679609,-459.657299
3300.894830,-8956.491898,-2738.761985,2681.334243
3300.895167,-9326.594869,-1036.288319,4213.525239
3300.895505,-11621.233289,740.205942,3294.210641
3300.895842,-13249.686362,1776.494261,76.609550
3300.896179,-11177.109724,444.123565,-995.924147
3300.896517,-9252.574275,148.041188,1072.533697
3300.896854,-8290.306550,444.123565,1225.752797
3300.897191,-9474.636058,1406.391290,229.828649
3300.897528,-10066.800811,148.041188,-2068.457845
3300.897866,-10140.821405,-1998.556043,229.828649
3300.898203,-9474.636058,-592.164754,1608.800546
3300.898540,-9548.656652,592.164754,1762.019645
3300.898878,-12213.398043,1924.535449,459.657299
3300.899215,-12139.377449,740.205942,-3830.477490
3300.899552,-9548.656652,-222.061783,-2604.724693
3300.899889,-8734.430116,-1184.329507,-383.047749
3300.900227,-7846.182985,-740.205942,-383.047749
3300.900564,-10066.800811,-1258.350101,-1378.971896
3300.900901,-10510.924376,-2368.659014,-2451.505594
3300.901239,-9252.574275,-3404.947333,-1915.238745
3300.901576,-8660.409521,-2220.617826,1302.362347
3300.901913,-9918.759623,-666.185348,2451.505594
3300.902250,-12065.356855,222.061783,306.438199
3300.902588,-11621.233289,-222.061783,-1225.752797
3300.902925,-9992.780217,74.020594,536.266849
3300.903262,-9474.636058,-148.041188,3370.820191
3300.903600,-9548.656652,1332.370696,3064.381992
3300.903937,-11917.315666,1850.514855,919.314598
3300.904274,-10807.006753,444.123565,-153.219100
3300.904611,-9548.656652,-1406.391290,1991.848295
3300.904949,-9178.553681,148.041188,4213.525239
3300.905286,-9992.780217,1924.535449,2911.162892
3300.905623,-11917.315666,2738.761985,-612.876398
3300.905961,-11029.068536,1332.370696,-2451.505594
3300.906298,-8734.430116,518.144159,-1608.800546
3300.906635,-7994.224174,2368.659014,-766.095498
3300.906972,-9548.656652,814.226536,-842.705048
3300.907310,-10658.965565,-148.041188,-2451.505594
3300.907647,-8734.430116,-2960.823768,-1608.800546
3300.907984,-8512.368333,-3034.844362,2528.115143
3300.908322,-8364.327145,-1184.329507,3830.477490
3300.908659,-11177.109724,0.000000,1762.019645
3300.908996,-12065.356855,444.123565,-1838.629195
3300.909333,-10510.924376,-1332.370696,-2374.896044
3300.909671,-9178.553681,-1110.308913,1072.533697
3300.910008,-8142.265362,0.000000,1838.629195
3300.910345,-10066.800811,222.061783,842.705048
3300.910683,-11695.253884,-74.020594,-1608.800546
3300.911020,-9844.739029,-1924.535449,-459.657299
3300.911357,-9030.512492,-1628.453072,2987.772442
3300.911694,-9696.697840,-518.144159,3907.087040
3300.912032,-12287.418637,814.226536,1455.581446
3300.912369,-12213.398043,1406.391290,-1915.238745
3300.912706,-10955.047942,0.000000,-1072.533697
3300.913044,-9770.718434,-370.102971,919.314598
3300.913381,-8734.430116,-592.164754,306.438199
3300.913718,-10436.903782,296.082377,-1225.752797
3300.914055,-10807.006753,-1110.308913,-2987.772442
3300.914393,-9326.594869,-3330.926739,-1149.143247
3300.914730,-7846.182985,-2442.679609,1455.581446
3300.915067,-8882.471304,-1110.308913,2068.457845
3300.915405,-11917.315666,592.164754,-153.219100
3300.915742,-11769.274478,-444.123565,-2528.115143
3300.916079,-9474.636058,-1480.411884,-766.095498
3300.916416,-8068.244768,-1184.329507,2451.505594
3300.916754,-9030.512492,148.041188,2987.772442
3300.917091,-10955.047942,1480.411884,0.000000
3300.917428,-10288.862594,-888.247130,-995.924147
3300.917766,-8882.471304,-1628.453072,2604.724693
3300.918103,-8438.347739,0.000000,4826.401637
3300.918440,-10510.924376,2294.638420,3370.820191
3300.918778,-12805.562797,2368.659014,-536.266849
3300.919115,-11769.274478,1850.514855,-2757.943793
3300.919452,-10066.800811,1110.308913,-995.924147
3300.919789,-8660.409521,1184.329507,1072.533697
3300.920127,-9104.533087,1110.308913,-229.828649
3300.920464,-10066.800811,0.000000,-2451.505594
3300.920801,-9474.636058,-1628.453072,-1455.581446
3300.921139,-8142.265362,-2886.803174,383.047749
3300.921476,-8734.430116,-592.164754,1991.848295
3300.921813,-11547.212695,0.000000,536.266849
3300.922150,-12805.562797,814.226536,-2834.553343
3300.922488,-10732.986159,-1406.391290,-2298.286494
3300.922825,-9030.512492,-1332.370696,766.095498
3300.923162,-7846.182985,-1702.473667,1991.848295
3300.923500,-10362.883188,-962.267725,842.705048
3300.923837,-11325.150913,-1480.411884,-1378.971896
3300.924174,-9992.780217,-3034.844362,76.609550
3300.924511,-9030.512492,-2960.823768,3753.867940
3300.924849,-9326.594869,-222.061783,3753.867940
3300.925186,-11029.068536,1184.329507,2298.286494
3300.925523,-11991.336260,1406.391290,-919.314598
3300.925861,-10140.821405,-518.144159,-229.828649
3300.926198,-9178.553681,0.000000,2451.505594
3300.926535,-8882.471304,1036.288319,2145.067394
3300.926872,-10510.924376,1184.329507,-612.876398
3300.927210,-10807.006753,592.164754,-2987.772442
3300.927547,-9548.656652,-1998.556043,-459.657299
3300.927884,-8438.347739,-518.144159,2221.676944
3300.928222,-9622.677246,1184.329507,1685.410096
3300.928559,-12583.501014,2368.659014,-1072.533697
3300.928896,-11843.295072,148.041188,-2987.772442
3300.929233,-9770.718434,-1628.453072,-536.266849
3300.929571,-8068.244768,0.000000,2604.724693
3300.929908,-8808.450710,-296.082377,1838.629195
3300.930245,-10362.883188,740.205942,-536.266849
3300.930583,-9992.780217,-1480.411884,-1915.238745
3300.930920,-9400.615463,-2220.617826,2068.457845
3300.931257,-8808.450710,-1036.288319,3907.087040
3300.931594,-11473.192101,1406.391290,3294.210641
3300.931932,-12657.521608,2294.638420,-1149.143247
3300.932269,-10288.862594,888.247130,-2374.896044
3300.932606,-8882.471304,-518.144159,1072.533697
3300.932944,-7476.080014,666.185348,1762.019645
3300.933281,-9474.636058,444.123565,536.266849
3300.933618,-11325.150913,296.082377,-2757.943793
3300.933955,-9622.677246,-1332.370696,-2604.724693
3300.934293,-8734.430116,-2146.597232,1072.533697
3300.934630,-8512.368333,-1110.308913,1838.629195
3300.934967,-10288.862594,296.082377,0.000000
3300.935305,-13027.624579,814.226536,-3140.991542
3300.935642,-11029.068536,-1332.370696,-3217.601092
3300.935979,-9178.553681,-2368.659014,306.438199
3300.936316,-8364.327145,-1554.432478,1991.848295
3300.936654,-10584.944971,-740.205942,919.314598
3300.936991,-11695.253884,-1332.370696,-1608.800546
3300.937328,-10214.842000,-3330.926739,-383.047749
3300.937666,-9326.594869,-2516.700203,3753.867940
3300.938003,-10140.821405,0.000000,4443.353888
3300.938340,-12509.480420,1628.453072,1608.800546
3300.938677,-13397.727550,962.267725,-1532.190996
3300.939015,-10510.924376,-444.123565,-459.657299
3300.939352,-8438.347739,0.000000,2374.896044
3300.939689,-7624.121203,888.247130,2681.334243
3300.940027,-9844.739029,1258.350101,766.095498
3300.940364,-10362.883188,814.226536,-2145.067394
3300.940701,-8956.491898,0.000000,-612.876398
3300.941038,-8734.430116,814.226536,2068.457845
3300.941376,-9474.636058,1776.494261,1149.143247
3300.941713,-11695.253884,1998.556043,-995.924147
3300.942050,-9918.759623,592.164754,-3294.210641
3300.942388,-7994.224174,-888.247130,-306.438199
3300.942725,-7624.121203,-592.164754,1532.190996
3300.943062,-8216.285956,-962.267725,995.924147
3300.943399,-11473.192101,-592.164754,-1608.800546
3300.943737,-10140.821405,-2368.659014,-2374.896044
3300.944074,-9030.512492,-3034.844362,1532.190996
3300.944411,-8660.409521,-1480.411884,3830.477490
3300.944749,-10288.862594,-296.082377,2221.676944
3300.945086,-12509.480420,888.247130,-689.485948
3300.945423,-12435.459826,0.000000,-1378.971896
3300.945760,-9918.759623,-962.267725,1455.581446
3300.946098,-9252.574275,-518.144159,2145.067394
3300.946435,-10584.944971,0.000000,1915.238745
3300.946772,-12065.356855,0.000000,-766.095498
3300.947110,-10362.883188,-1554.432478,-995.924147
3300.947447,-9252.574275,-1702.473667,1685.410096
3300.947784,-9474.636058,74.020594,2528.115143
3300.948121,-11843.295072,1628.453072,383.047749
3300.948459,-12213.398043,666.185348,-3064.381992
3300.948796,-9770.718434,-888.247130,-2528.115143
3300.949133,-7846.182985,-1924.535449,689.485948
3300.949471,-7920.203579,0.000000,1072.533697
3300.949808,-9696.697840,-666.185348,0.000000
3300.950145,-10955.047942,-1110.308913,-3064.381992
3300.950482,-9178.553681,-2886.803174,-842.705048
3300.950820,-8290.306550,-2146.597232,2757.943793
3300.951157,-9030.512492,444.123565,2987.772442
3300.951494,-11399.171507,888.247130,306.438199
3300.951832,-10955.047942,1110.308913,-2451.505594
3300.952169,-9252.574275,-444.123565,-1225.752797
3300.952506,-8660.409521,0.000000,2911.162892
3300.952843,-8734.430116,1480.411884,2604.724693
3300.953181,-11769.274478,2072.576638,1455.581446
3300.953518,-12065.356855,1480.411884,-689.485948
3300.953855,-10140.821405,296.082377,612.876398
3300.954193,-9252.574275,1036.288319,3524.039291
3300.954530,-10584.944971,2590.720797,2451.505594
3300.954867,-12583.501014,2590.720797,-1378.971896
3300.955204,-11843.295072,1998.556043,-3140.991542
3300.955542,-9104.533087,-74.020594,-2604.724693
3300.955879,-7920.203579,-370.102971,536.266849
3300.956216,-8586.388927,-814.226536,459.657299
3300.956554,-10807.006753,-592.164754,-1378.971896
3300.956891,-10288.862594,-2442.679609,-2681.334243
3300.957228,-9400.615463,-3256.906145,842.705048
3300.957565,-9030.512492,-1628.453072,2528.115143
3300.957903,-11103.089130,-962.267725,1532.190996
3300.958240,-12213.398043,-444.123565,-1225.752797
3300.958577,-10214.842000,-2072.576638,-2374.896044
3300.958915,-8512.368333,-2886.803174,1455.581446
3300.959252,-7846.182985,-1998.556043,2757.943793
3300.959589,-10066.800811,-1258.350101,1455.581446
3300.959926,-12139.377449,-1184.329507,-1225.752797
3300.960264,-10140.821405,-2664.741391,-306.438199
3300.960601,-9770.718434,-1850.514855,3064.381992
3300.960938,-9400.615463,-370.102971,3983.696590
3300.961276,-11769.274478,1554.432478,1685.410096
3300.961613,-12213.398043,1258.350101,-1608.800546
3300.961950,-10807.006753,0.000000,-1072.533697
3300.962287,-9252.574275,-296.082377,1378.971896
3300.962625,-8512.368333,0.000000,1838.629195
3300.962962,-10658.965565,666.185348,459.657299
3300.963299,-11399.171507,-370.102971,-2451.505594
3300.963637,-8586.388927,-1258.350101,-1149.143247
3300.963974,-8734.430116,-666.185348,1762.019645
3300.964311,-9548.656652,0.000000,1915.238745
3300.964648,-11621.233289,888.247130,-383.047749
3300.964986,-11399.171507,1258.350101,-2221.676944
3300.965323,-9104.533087,-296.082377,-919.314598
3300.965660,-7105.977043,-74.020594,919.314598
3300.965998,-8438.347739,-74.020594,2221.676944
3300.966335,-10436.903782,-370.102971,919.314598
3300.966672,-10658.965565,-518.144159,0.000000
3300.967009,-9770.718434,-814.226536,1685.410096
3300.967347,-9474.636058,0.000000,2911.162892
3300.967684,-9622.677246,1480.411884,2451.505594
3300.968021,-12139.377449,2146.597232,-459.657299
3300.968359,-10955.047942,1184.329507,-2911.162892
3300.968696,-9104.533087,-518.144159,-1455.581446
3300.969033,-8512.368333,148.041188,689.485948
3300.969370,-8882.471304,1110.308913,-383.047749
3300.969708,-11251.130318,-444.123565,-1302.362347
3300.970045,-10732.986159,-1776.494261,-2068.457845
3300.970382,-9030.512492,-2516.700203,842.705048
3300.970720,-9770.718434,-592.164754,2604.724693
3300.971057,-11325.150913,-370.102971,536.266849
3300.971394,-12731.542202,-296.082377,-3294.210641
3300.971731,-10881.027347,-1554.432478,-3370.820191
3300.972069,-9474.636058,-2072.576638,229.828649
3300.972406,-7550.100608,-1628.453072,1838.629195
3300.972743,-9178.553681,-1110.308913,612.876398
3300.973081,-11029.068536,-1258.350101,-536.266849
