#time,accel_x,accel_y,accel_z
3096.712344,-9918.759623,-2146.597232,1455.581446
3096.712682,-10584.944971,-1628.453072,1762.019645
3096.713019,-10807.006753,-1332.370696,995.924147
3096.713357,-9992.780217,-1036.288319,1072.533697
3096.713694,-9918.759623,-1554.432478,1532.190996
3096.714032,-10881.027347,-1184.329507,2221.676944
3096.714369,-10066.800811,0.000000,919.314598
3096.714707,-10066.800811,222.061783,919.314598
3096.715045,-10066.800811,740.205942,1149.143247
3096.715382,-10436.903782,0.000000,536.266849
3096.715720,-10510.924376,740.205942,229.828649
3096.716057,-9400.615463,592.164754,-229.828649
3096.716395,-9548.656652,1036.288319,-383.047749
3096.716733,-9918.759623,518.144159,-1302.362347
3096.717070,-9918.759623,-148.041188,-1072.533697
3096.717408,-9474.636058,-814.226536,-1378.971896
3096.717745,-9030.512492,-370.102971,-1838.629195
3096.718083,-9252.574275,-444.123565,-1455.581446
3096.718421,-10066.800811,-888.247130,-2145.067394
3096.718758,-9770.718434,-1924.535449,-1225.752797
3096.719096,-9474.636058,-1702.473667,-766.095498
3096.719433,-9326.594869,-962.267725,-919.314598
3096.719771,-10658.965565,-888.247130,-1072.533697
3096.720109,-10658.965565,-1850.514855,-1532.190996
3096.720446,-9474.636058,-1776.494261,-995.924147
3096.720784,-9770.718434,-2146.597232,919.314598
3096.721121,-10510.924376,-1184.329507,842.705048
3096.721459,-11029.068536,-518.144159,-1838.629195
3096.721796,-11325.150913,-962.267725,-2298.286494
3096.722134,-10066.800811,-2220.617826,-1915.238745
3096.722472,-9474.636058,-2516.700203,-459.657299
3096.722809,-9696.697840,-1184.329507,-536.266849
3096.723147,-10732.986159,-1850.514855,-2374.896044
3096.723484,-9992.780217,-1850.514855,-2834.553343
3096.723822,-9548.656652,-2960.823768,-2068.457845
3096.724160,-10288.862594,-2590.720797,-1532.190996
3096.724497,-11029.068536,-2072.576638,-2528.115143
3096.724835,-10732.986159,-3108.864956,-4903.011187
3096.725172,-10140.821405,-3552.988522,-5362.668486
3096.725510,-9030.512492,-4959.379811,-3983.696590
3096.725848,-8216.285956,-4737.318029,-2374.896044
3096.726185,-8660.409521,-4811.338623,-1608.800546
3096.726523,-9252.574275,-3552.988522,-1455.581446
3096.726860,-10362.883188,-2368.659014,-1838.629195
3096.727198,-11177.109724,-1776.494261,-766.095498
3096.727536,-10732.986159,-1850.514855,-766.095498
3096.727873,-10510.924376,-2738.761985,-1455.581446
3096.728211,-11029.068536,-3182.885551,-459.657299
3096.728548,-9548.656652,-2368.659014,0.000000
3096.728886,-9474.636058,-3404.947333,76.609550
3096.729223,-7920.203579,-1998.556043,153.219100
3096.729561,-8956.491898,-1554.432478,-689.485948
3096.729899,-11325.150913,0.000000,-153.219100
3096.730236,-10807.006753,296.082377,-3447.429741
3096.730574,-10362.883188,-444.123565,-3753.867940
3096.730911,-10436.903782,-2146.597232,-3064.381992
3096.731249,-9770.718434,-2738.761985,-2374.896044
3096.731587,-9844.739029,-2516.700203,-1225.752797
3096.731924,-9400.615463,-3923.091493,-1149.143247
3096.732262,-9252.574275,-3182.885551,-2298.286494
3096.732599,-9770.718434,-5033.400406,-2528.115143
3096.732937,-9474.636058,-4663.297435,-2068.457845
3096.733275,-8586.388927,-4071.132681,-689.485948
3096.733612,-9992.780217,-2368.659014,-153.219100
3096.733950,-10510.924376,-1258.350101,-1915.238745
3096.734287,-11473.192101,-2738.761985,-3524.039291
3096.734625,-11325.150913,-3997.112087,-1991.848295
3096.734962,-10510.924376,-4811.338623,-995.924147
3096.735300,-9252.574275,-3552.988522,459.657299
3096.735638,-9030.512492,-3256.906145,-1149.143247
3096.735975,-10140.821405,-3256.906145,-1915.238745
3096.736313,-10436.903782,-2812.782580,-1762.019645
3096.736650,-10066.800811,-1036.288319,-1915.238745
3096.736988,-9770.718434,814.226536,-2757.943793
3096.737326,-10288.862594,518.144159,-2681.334243
3096.737663,-12583.501014,222.061783,-2221.676944
3096.738001,-11473.192101,-1184.329507,-2834.553343
3096.738338,-8956.491898,-740.205942,-3064.381992
3096.738676,-8068.244768,-2960.823768,0.000000
3096.739014,-10510.924376,-3182.885551,842.705048
3096.739351,-10510.924376,-2294.638420,-1838.629195
3096.739689,-9178.553681,-1480.411884,-3830.477490
3096.740026,-9474.636058,-1850.514855,-2451.505594
3096.740364,-10732.986159,-1702.473667,-2911.162892
3096.740702,-10807.006753,-1332.370696,-3524.039291
3096.741039,-8956.491898,-444.123565,-3294.210641
3096.741377,-7698.141797,-1628.453072,-1225.752797
3096.741714,-9326.594869,-962.267725,0.000000
3096.742052,-10658.965565,-1036.288319,-766.095498
3096.742389,-10584.944971,-1554.432478,76.609550
3096.742727,-8956.491898,-1406.391290,766.095498
3096.743065,-9178.553681,-962.267725,1072.533697
3096.743402,-10807.006753,-74.020594,1838.629195
3096.743740,-11029.068536,-148.041188,229.828649
3096.744077,-11029.068536,0.000000,-2834.553343
3096.744415,-11547.212695,-1258.350101,-4060.306139
3096.744753,-11029.068536,-1924.535449,-3983.696590
3096.745090,-9252.574275,-3034.844362,-3524.039291
3096.745428,-8586.388927,-3552.988522,-3064.381992
3096.745765,-8586.388927,-3701.029710,-3753.867940
3096.746103,-9548.656652,-4737.318029,-2987.772442
3096.746441,-9474.636058,-3330.926739,-2068.457845
3096.746778,-9548.656652,-4219.173869,-383.047749
3096.747116,-11621.233289,-2886.803174,76.609550
3096.747453,-11399.171507,-3108.864956,-1378.971896
3096.747791,-11547.212695,-2886.803174,-1991.848295
3096.748129,-9918.759623,-4959.379811,-3447.429741
3096.748466,-9252.574275,-5107.421000,-3524.039291
3096.748804,-9252.574275,-5699.585753,-2374.896044
3096.749141,-8364.327145,-5033.400406,-3294.210641
3096.749479,-9252.574275,-4959.379811,-2451.505594
3096.749816,-9326.594869,-3775.050304,-2528.115143
3096.750154,-9770.718434,-2294.638420,-229.828649
3096.750492,-11103.089130,0.000000,919.314598
3096.750829,-11177.109724,370.102971,612.876398
3096.751167,-12657.521608,814.226536,306.438199
3096.751504,-12435.459826,-296.082377,-536.266849
3096.751842,-11917.315666,-2146.597232,-1608.800546
3096.752180,-9104.533087,-2738.761985,-2604.724693
3096.752517,-8142.265362,-5033.400406,-2145.067394
3096.752855,-7550.100608,-3849.070898,-2298.286494
3096.753192,-8364.327145,-3923.091493,-2298.286494
3096.753530,-8142.265362,-1850.514855,-2757.943793
3096.753868,-10658.965565,-518.144159,-3600.648841
3096.754205,-11399.171507,148.041188,-3140.991542
3096.754543,-12953.603985,-74.020594,-2757.943793
3096.754880,-10732.986159,-1406.391290,-3370.820191
3096.755218,-7846.182985,-3627.009116,-1838.629195
3096.755555,-7624.121203,-4885.359217,1149.143247
3096.755893,-8290.306550,-5699.585753,2298.286494
3096.756231,-9844.739029,-4959.379811,1608.800546
3096.756568,-9548.656652,-3108.864956,-383.047749
3096.756906,-9770.718434,-1628.453072,-2221.676944
3096.757243,-11473.192101,-814.226536,-3524.039291
3096.757581,-11399.171507,-740.205942,-4749.792088
3096.757919,-10436.903782,-2294.638420,-3370.820191
3096.758256,-9252.574275,-1628.453072,-1762.019645
3096.758594,-10066.800811,-2220.617826,-306.438199
3096.758931,-9770.718434,-1776.494261,-689.485948
3096.759269,-11547.212695,-2738.761985,-612.876398
3096.759607,-11621.233289,-4145.153275,-2987.772442
3096.759944,-10658.965565,-4959.379811,-3600.648841
3096.760282,-9474.636058,-5329.482782,-3983.696590
3096.760619,-8438.347739,-4737.318029,-2834.553343
3096.760957,-8364.327145,-3108.864956,-2757.943793
3096.761295,-9400.615463,-1776.494261,-3294.210641
3096.761632,-12509.480420,-740.205942,-3753.867940
3096.761970,-11843.295072,-1776.494261,-4673.182538
3096.762307,-10732.986159,-2664.741391,-2911.162892
3096.762645,-9474.636058,-3997.112087,-1302.362347
3096.762982,-9326.594869,-4441.235652,766.095498
3096.763320,-8216.285956,-3552.988522,2221.676944
3096.763658,-8956.491898,-2590.720797,1608.800546
3096.763995,-10658.965565,-814.226536,229.828649
3096.764333,-12509.480420,0.000000,-383.047749
3096.764670,-11547.212695,444.123565,-1762.019645
3096.765008,-9992.780217,370.102971,-1378.971896
3096.765346,-10066.800811,1110.308913,-689.485948
3096.765683,-9770.718434,814.226536,-3294.210641
3096.766021,-8956.491898,-296.082377,-3447.429741
3096.766358,-8364.327145,-1850.514855,-2681.334243
3096.766696,-9030.512492,-3478.967927,-1225.752797
3096.767034,-9696.697840,-2294.638420,153.219100
3096.767371,-10807.006753,-1628.453072,-612.876398
3096.767709,-11769.274478,-518.144159,-3064.381992
3096.768046,-9474.636058,-1850.514855,-4826.401637
3096.768384,-9622.677246,-1776.494261,-3524.039291
3096.768722,-8808.450710,-3997.112087,-2374.896044
3096.769059,-9992.780217,-3923.091493,-1302.362347
3096.769397,-9400.615463,-4145.153275,-1608.800546
3096.769734,-9252.574275,-3627.009116,-1302.362347
3096.770072,-10732.986159,-2886.803174,0.000000
3096.770410,-11843.295072,-3775.050304,-1762.019645
3096.770747,-11251.130318,-3478.967927,-1532.190996
3096.771085,-9548.656652,-2886.803174,-2298.286494
3096.771422,-8882.471304,-3478.967927,-1991.848295
3096.771760,-9770.718434,-2294.638420,-1225.752797
3096.772098,-11399.171507,-1850.514855,-1838.629195
3096.772435,-11251.130318,-1850.514855,-3217.601092
3096.772773,-11399.171507,-1850.514855,-1838.629195
3096.773110,-11177.109724,-1776.494261,-1302.362347
3096.773448,-10362.883188,-1850.514855,-1532.190996
3096.773786,-9622.677246,-3034.844362,-2374.896044
3096.774123,-8808.450710,-4145.153275,-2068.457845
3096.774461,-10436.903782,-4515.256246,-1072.533697
3096.774798,-10140.821405,-4293.194464,-1838.629195
3096.775136,-7624.121203,-2516.700203,-3677.258390
3096.775474,-8290.306550,-2368.659014,-3677.258390
3096.775811,-9474.636058,-2738.761985,-4060.306139
3096.776149,-9918.759623,-2590.720797,-3064.381992
3096.776486,-9252.574275,-3182.885551,-76.609550
3096.776824,-8956.491898,-2220.617826,2298.286494
3096.777162,-10288.862594,-1406.391290,2145.067394
3096.777499,-11547.212695,-2072.576638,1608.800546
3096.777837,-10807.006753,-2812.782580,919.314598
3096.778174,-11251.130318,-3034.844362,459.657299
3096.778512,-9992.780217,-518.144159,-995.924147
3096.778850,-8808.450710,148.041188,-2528.115143
3096.779187,-9844.739029,-148.041188,-3140.991542
3096.779525,-9770.718434,-370.102971,-3983.696590
3096.779862,-11621.233289,-1036.288319,-2451.505594
3096.780200,-11695.253884,74.020594,-1149.143247
3096.780538,-10288.862594,-740.205942,-2604.724693
3096.780875,-10881.027347,-2368.659014,-1302.362347
3096.781213,-10658.965565,-3256.906145,-1302.362347
3096.781550,-9104.533087,-4367.215058,-1532.190996
3096.781888,-7624.121203,-4071.132681,-1455.581446
3096.782226,-8586.388927,-4885.359217,-2604.724693
3096.782563,-10658.965565,-4737.318029,-3830.477490
3096.782901,-9622.677246,-4145.153275,-3753.867940
3096.783238,-8660.409521,-3256.906145,-1838.629195
3096.783576,-8808.450710,-1924.535449,-1072.533697
3096.783914,-11029.068536,-888.247130,-1225.752797
3096.784251,-10807.006753,-1332.370696,-2528.115143
3096.784589,-11325.150913,-3182.885551,-689.485948
3096.784926,-10436.903782,-4145.153275,1149.143247
3096.785264,-11399.171507,-3330.926739,2604.724693
3096.785602,-10140.821405,-1998.556043,1838.629195
3096.785939,-9030.512492,-888.247130,-1072.533697
3096.786277,-9474.636058,0.000000,-1762.019645
3096.786614,-9030.512492,296.082377,-1838.629195
3096.786952,-12139.377449,1332.370696,-995.924147
3096.787290,-13027.624579,1406.391290,-2298.286494
3096.787627,-10658.965565,518.144159,-2911.162892
3096.787965,-9992.780217,592.164754,0.000000
3096.788303,-9252.574275,888.247130,1225.752797
3096.788640,-8142.265362,0.000000,0.000000
3096.788978,-10066.800811,-2664.741391,76.609550
3096.789315,-11177.109724,-3404.947333,536.266849
3096.789653,-8586.388927,-2368.659014,-153.219100
3096.789991,-9030.512492,-888.247130,1838.629195
3096.790328,-8956.491898,-370.102971,536.266849
3096.790666,-9474.636058,0.000000,-919.314598
3096.791003,-9400.615463,296.082377,0.000000
3096.791341,-9400.615463,0.000000,2681.334243
3096.791679,-12509.480420,-962.267725,4443.353888
3096.792016,-12879.583391,0.000000,2451.505594
3096.792354,-10881.027347,-666.185348,689.485948
3096.792691,-9030.512492,-1258.350101,2298.286494
3096.793029,-7994.224174,-1554.432478,3294.210641
3096.793367,-8660.409521,-740.205942,1532.190996
3096.793704,-11029.068536,-592.164754,153.219100
3096.794042,-11325.150913,592.164754,-1378.971896
3096.794379,-11695.253884,1702.473667,-2604.724693
3096.794717,-11029.068536,1258.350101,-1762.019645
3096.795055,-10362.883188,666.185348,689.485948
3096.795392,-10436.903782,-814.226536,1072.533697
3096.795730,-9474.636058,-1184.329507,-689.485948
3096.796067,-9474.636058,-3997.112087,383.047749
3096.796405,-9844.739029,-4293.194464,1455.581446
3096.796743,-8364.327145,-3552.988522,0.000000
3096.797080,-8956.491898,-1480.411884,-919.314598
3096.797418,-8808.450710,0.000000,-1302.362347
3096.797755,-10214.842000,222.061783,-2834.553343
3096.798093,-9918.759623,740.205942,-3064.381992
3096.798431,-11473.192101,666.185348,-1072.533697
3096.798768,-12287.418637,-444.123565,2298.286494
3096.799106,-10658.965565,-888.247130,2528.115143
3096.799443,-8882.471304,-814.226536,3294.210641
3096.799781,-9548.656652,148.041188,4826.401637
3096.800119,-9474.636058,296.082377,1378.971896
3096.800456,-10214.842000,444.123565,0.000000
3096.800794,-11547.212695,1110.308913,-76.609550
3096.801131,-9770.718434,1850.514855,-1838.629195
3096.801469,-9400.615463,2072.576638,-2604.724693
3096.801807,-9548.656652,2146.597232,-2221.676944
3096.802144,-9474.636058,888.247130,-1838.629195
3096.802482,-10584.944971,962.267725,-1225.752797
3096.802819,-9992.780217,-296.082377,-919.314598
3096.803157,-8438.347739,-1110.308913,-766.095498
3096.803495,-8438.347739,-2812.782580,842.705048
3096.803832,-9104.533087,-2220.617826,1378.971896
3096.804170,-9918.759623,-962.267725,1302.362347
3096.804507,-10288.862594,-296.082377,689.485948
3096.804845,-10436.903782,-1998.556043,0.000000
3096.805183,-10732.986159,-1184.329507,229.828649
3096.805520,-10214.842000,-740.205942,1302.362347
3096.805858,-9844.739029,-1258.350101,1225.752797
3096.806195,-10140.821405,-2220.617826,1149.143247
3096.806533,-9844.739029,-2368.659014,1072.533697
3096.806871,-9622.677246,-296.082377,1072.533697
3096.807208,-10362.883188,148.041188,1378.971896
3096.807546,-10807.006753,518.144159,689.485948
3096.807883,-11621.233289,-814.226536,0.000000
3096.808221,-11769.274478,-592.164754,153.219100
3096.808559,-10584.944971,-222.061783,0.000000
3096.808896,-10807.006753,-1184.329507,612.876398
3096.809234,-9400.615463,-962.267725,0.000000
3096.809571,-10066.800811,-1258.350101,0.000000
3096.809909,-9696.697840,-1480.411884,-1072.533697
3096.810247,-8142.265362,-1110.308913,-1149.143247
3096.810584,-9474.636058,-962.267725,-383.047749
3096.810922,-11251.130318,-1702.473667,-1455.581446
3096.811259,-10732.986159,-592.164754,-612.876398
3096.811597,-9992.780217,222.061783,919.314598
3096.811935,-8660.409521,-1850.514855,2068.457845
3096.812272,-10214.842000,-1924.535449,3447.429741
3096.812610,-10436.903782,-666.185348,2451.505594
3096.812947,-9400.615463,1036.288319,1915.238745
3096.813285,-10288.862594,1406.391290,1532.190996
3096.813623,-9474.636058,814.226536,0.000000
3096.813960,-9622.677246,1036.288319,153.219100
3096.814298,-9918.759623,2146.597232,1685.410096
3096.814636,-9474.636058,2516.700203,1149.143247
3096.814973,-10436.903782,3849.070898,-153.219100
3096.815311,-11843.295072,2368.659014,-766.095498
3096.815648,-11473.192101,1036.288319,-2451.505594
3096.815986,-9178.553681,814.226536,-2145.067394
3096.816324,-7476.080014,-592.164754,-612.876398
3096.816661,-9400.615463,-1850.514855,459.657299
3096.816999,-9474.636058,-888.247130,-1991.848295
3096.817336,-9178.553681,-370.102971,-2911.162892
3096.817674,-10066.800811,-1184.329507,-919.314598
3096.818012,-10510.924376,-1776.494261,459.657299
3096.818349,-11029.068536,-592.164754,0.000000
3096.818687,-11547.212695,-370.102971,-612.876398
3096.819024,-9696.697840,-2368.659014,-1149.143247
3096.819362,-9474.636058,-3108.864956,229.828649
3096.819700,-10214.842000,-2442.679609,1762.019645
3096.820037,-8956.491898,-740.205942,1455.581446
3096.820375,-10214.842000,-740.205942,2528.115143
3096.820712,-12213.398043,-888.247130,2068.457845
3096.821050,-11991.336260,0.000000,1225.752797
3096.821388,-11843.295072,814.226536,1455.581446
3096.821725,-9992.780217,814.226536,1149.143247
3096.822063,-9770.718434,-814.226536,1149.143247
3096.822400,-11325.150913,518.144159,1225.752797
3096.822738,-9548.656652,888.247130,229.828649
3096.823076,-9474.636058,1110.308913,76.609550
3096.823413,-9548.656652,0.000000,0.000000
3096.823751,-9844.739029,-666.185348,-383.047749
3096.824088,-9622.677246,1184.329507,383.047749
3096.824426,-7772.162391,1036.288319,-766.095498
3096.824764,-8364.327145,0.000000,0.000000
3096.825101,-10288.862594,-296.082377,1072.533697
3096.825439,-12139.377449,148.041188,1149.143247
3096.825776,-11029.068536,1258.350101,0.000000
3096.826114,-7254.018232,-370.102971,0.000000
3096.826452,-6513.812290,-888.247130,2987.772442
3096.826789,-9474.636058,-2072.576638,2911.162892
3096.827127,-10362.883188,0.000000,1455.581446
3096.827464,-10881.027347,1110.308913,0.000000
3096.827802,-10510.924376,592.164754,0.000000
3096.828140,-10658.965565,296.082377,536.266849
3096.828477,-10658.965565,1702.473667,0.000000
3096.828815,-9770.718434,1110.308913,-612.876398
3096.829152,-11251.130318,-370.102971,-612.876398
3096.829490,-11695.253884,-1998.556043,76.609550
3096.829828,-10732.986159,-962.267725,-995.924147
3096.830165,-8068.244768,-1628.453072,229.828649
3096.830503,-7920.203579,-1702.473667,919.314598
3096.830840,-10436.903782,-1628.453072,612.876398
3096.831178,-12583.501014,-814.226536,-995.924147
3096.831516,-12583.501014,-1184.329507,-4213.525239
3096.831853,-9696.697840,-1258.350101,-4060.306139
3096.832191,-8438.347739,-2220.617826,-1838.629195
3096.832528,-9030.512492,-3404.947333,0.000000
3096.832866,-7920.203579,-1924.535449,689.485948
3096.833204,-7920.203579,-2220.617826,689.485948
3096.833541,-10584.944971,-1850.514855,2451.505594
3096.833879,-11769.274478,-1184.329507,2068.457845
3096.834216,-12287.418637,962.267725,1532.190996
3096.834554,-9844.739029,1998.556043,229.828649
3096.834892,-8438.347739,1036.288319,1532.190996
3096.835229,-10214.842000,666.185348,3600.648841
3096.835567,-10732.986159,296.082377,1608.800546
3096.835904,-10584.944971,2146.597232,-536.266849
3096.836242,-9178.553681,2368.659014,-689.485948
3096.836580,-9474.636058,2220.617826,383.047749
3096.836917,-10955.047942,518.144159,1455.581446
3096.837255,-9844.739029,1702.473667,842.705048
3096.837592,-8216.285956,1776.494261,0.000000
3096.837930,-9844.739029,1776.494261,689.485948
3096.838268,-12435.459826,1776.494261,459.657299
3096.838605,-12657.521608,370.102971,-1991.848295
3096.838943,-8290.306550,-666.185348,-1991.848295
3096.839280,-7402.059420,-1998.556043,1072.533697
3096.839618,-8956.491898,-1702.473667,2528.115143
3096.839956,-10140.821405,-1184.329507,76.609550
3096.840293,-9400.615463,-444.123565,-1608.800546
3096.840631,-9548.656652,-1924.535449,-536.266849
3096.840969,-10066.800811,-1480.411884,1838.629195
3096.841306,-10658.965565,0.000000,2145.067394
3096.841644,-9918.759623,1110.308913,1302.362347
3096.841981,-10510.924376,-1332.370696,306.438199
3096.842319,-11547.212695,-1702.473667,919.314598
3096.842657,-10436.903782,-1184.329507,2451.505594
3096.842994,-9992.780217,0.000000,3524.039291
3096.843332,-10658.965565,74.020594,1915.238745
3096.843669,-12509.480420,74.020594,-612.876398
3096.844007,-12213.398043,1110.308913,-1915.238745
3096.844345,-9844.739029,1036.288319,-2757.943793
3096.844682,-7920.203579,-592.164754,-2451.505594
3096.845020,-9400.615463,-888.247130,-1378.971896
3096.845357,-10214.842000,-592.164754,-1991.848295
3096.845695,-10140.821405,-370.102971,-2604.724693
3096.846033,-8364.327145,-296.082377,-1455.581446
3096.846370,-9030.512492,-1110.308913,766.095498
3096.846708,-11177.109724,-1480.411884,2298.286494
3096.847045,-10658.965565,370.102971,2068.457845
3096.847383,-9622.677246,0.000000,1225.752797
3096.847721,-8586.388927,444.123565,1149.143247
3096.848058,-9326.594869,-592.164754,1532.190996
3096.848396,-11029.068536,1184.329507,919.314598
3096.848733,-10214.842000,962.267725,-383.047749
3096.849071,-9252.574275,1036.288319,383.047749
3096.849409,-9992.780217,1628.453072,2068.457845
3096.849746,-9030.512492,2294.638420,1915.238745
3096.850084,-10955.047942,1776.494261,2451.505594
3096.850421,-11473.192101,1628.453072,76.609550
3096.850759,-12435.459826,296.082377,1608.800546
3096.851097,-11547.212695,740.205942,1149.143247
3096.851434,-9252.574275,0.000000,229.828649
3096.851772,-8882.471304,296.082377,76.609550
3096.852109,-8586.388927,-296.082377,-995.924147
3096.852447,-9400.615463,-1036.288319,-1838.629195
3096.852785,-10807.006753,-666.185348,-1455.581446
3096.853122,-11029.068536,-888.247130,-2528.115143
3096.853460,-9474.636058,-1406.391290,-1685.410096
3096.853797,-10140.821405,-2220.617826,459.657299
3096.854135,-9474.636058,-1702.473667,842.705048
3096.854473,-8512.368333,-2516.700203,306.438199
3096.854810,-8364.327145,-2516.700203,1685.410096
3096.855148,-10881.027347,-1406.391290,2298.286494
3096.855485,-13101.645173,-1184.329507,536.266849
3096.855823,-11695.253884,666.185348,-1991.848295
3096.856161,-10140.821405,592.164754,0.000000
3096.856498,-9326.594869,0.000000,459.657299
3096.856836,-9104.533087,-1480.411884,229.828649
3096.857173,-9474.636058,-1332.370696,1685.410096
3096.857511,-8660.409521,-1702.473667,1685.410096
3096.857849,-10584.944971,222.061783,1991.848295
3096.858186,-10584.944971,740.205942,76.609550
3096.858524,-10436.903782,1924.535449,-229.828649
3096.858861,-11769.274478,148.041188,-766.095498
3096.859199,-10362.883188,296.082377,-1532.190996
3096.859537,-8586.388927,1036.288319,0.000000
3096.859874,-10362.883188,-222.061783,842.705048
3096.860212,-10214.842000,148.041188,-306.438199
3096.860549,-9548.656652,-518.144159,-689.485948
3096.860887,-9548.656652,-592.164754,2451.505594
3096.861225,-9252.574275,0.000000,2221.676944
3096.861562,-9844.739029,1110.308913,1225.752797
3096.861900,-10362.883188,666.185348,459.657299
3096.862237,-10510.924376,888.247130,306.438199
3096.862575,-10140.821405,2072.576638,536.266849
3096.862913,-10066.800811,1776.494261,1149.143247
3096.863250,-10362.883188,0.000000,995.924147
3096.863588,-9474.636058,74.020594,1685.410096
3096.863925,-8512.368333,370.102971,1991.848295
3096.864263,-9770.718434,296.082377,2145.067394
3096.864601,-9844.739029,666.185348,919.314598
3096.864938,-11695.253884,370.102971,0.000000
3096.865276,-10881.027347,666.185348,-2374.896044
3096.865613,-8882.471304,-1406.391290,-1915.238745
3096.865951,-7772.162391,-814.226536,-689.485948
3096.866288,-6365.771101,-2072.576638,-766.095498
3096.866625,-9622.677246,-1036.288319,-995.924147
3096.866963,-12583.501014,-1406.391290,-1608.800546
3096.867300,-11325.150913,-2146.597232,-3217.601092
3096.867638,-11325.150913,-888.247130,-919.314598
3096.867975,-10140.821405,-1110.308913,1072.533697
3096.868312,-10732.986159,-1332.370696,1685.410096
3096.868650,-9622.677246,-1258.350101,919.314598
3096.868987,-11917.315666,-814.226536,2145.067394
3096.869325,-13101.645173,-666.185348,2145.067394
3096.869662,-11917.315666,-148.041188,842.705048
3096.869999,-11843.295072,888.247130,0.000000
3096.870337,-8512.368333,2072.576638,-536.266849
3096.870674,-7698.141797,1554.432478,0.000000
3096.871012,-9844.739029,1332.370696,153.219100
3096.871349,-9622.677246,1184.329507,0.000000
3096.871686,-10362.883188,888.247130,0.000000
3096.872024,-11695.253884,666.185348,919.314598
3096.872361,-8586.388927,1258.350101,0.000000
3096.872699,-8068.244768,370.102971,1685.410096
3096.873036,-7105.977043,-74.020594,1302.362347
3096.873373,-7105.977043,0.000000,766.095498
3096.873711,-10807.006753,148.041188,842.705048
3096.874048,-10807.006753,740.205942,-842.705048
3096.874385,-8882.471304,0.000000,-1302.362347
3096.874723,-9622.677246,-888.247130,-536.266849
3096.875060,-8290.306550,-1184.329507,-1455.581446
3096.875398,-7254.018232,0.000000,-1149.143247
3096.875735,-9030.512492,-1850.514855,-306.438199
3096.876072,-9770.718434,-2220.617826,383.047749
3096.876410,-11547.212695,-888.247130,1455.581446
3096.876747,-11991.336260,0.000000,2604.724693
3096.877085,-11621.233289,370.102971,2681.334243
3096.877422,-12509.480420,-296.082377,2987.772442
3096.877759,-13767.830521,-888.247130,3677.258390
3096.878097,-11843.295072,-1628.453072,2528.115143
3096.878434,-10584.944971,0.000000,689.485948
3096.878772,-10066.800811,-962.267725,383.047749
3096.879109,-11991.336260,-740.205942,-766.095498
3096.879446,-9992.780217,148.041188,-3217.601092
3096.879784,-9400.615463,-592.164754,-3447.429741
3096.880121,-9622.677246,-666.185348,-1838.629195
3096.880459,-10732.986159,-1036.288319,-1532.190996
3096.880796,-9844.739029,74.020594,-1149.143247
3096.881133,-9474.636058,-1332.370696,-612.876398
3096.881471,-9400.615463,-2812.782580,1762.019645
3096.881808,-10362.883188,-2294.638420,3294.210641
3096.882145,-9178.553681,-2072.576638,1915.238745
3096.882483,-7476.080014,-740.205942,919.314598
3096.882820,-7476.080014,-814.226536,76.609550
3096.883158,-9030.512492,-296.082377,0.000000
3096.883495,-10066.800811,222.061783,76.609550
3096.883832,-9548.656652,1628.453072,-1225.752797
3096.884170,-8586.388927,2220.617826,0.000000
3096.884507,-10584.944971,2812.782580,1149.143247
3096.884845,-10362.883188,2664.741391,1455.581446
3096.885182,-9178.553681,1554.432478,459.657299
3096.885519,-10362.883188,1924.535449,1378.971896
3096.885857,-11029.068536,1776.494261,1149.143247
3096.886194,-12065.356855,1998.556043,1378.971896
3096.886532,-11917.315666,3182.885551,306.438199
3096.886869,-11251.130318,2664.741391,-1915.238745
3096.887206,-11547.212695,1110.308913,-1991.848295
3096.887544,-10584.944971,-1554.432478,-2221.676944
3096.887881,-7105.977043,-2664.741391,-1455.581446
3096.888219,-7698.141797,-2664.741391,383.047749
3096.888556,-8956.491898,-2886.803174,1685.410096
3096.888893,-11843.295072,-2516.700203,1685.410096
3096.889231,-11547.212695,-2960.823768,842.705048
3096.889568,-10066.800811,-888.247130,536.266849
3096.889905,-9178.553681,-1258.350101,766.095498
3096.890243,-10362.883188,-3182.885551,2681.334243
3096.890580,-11769.274478,-3330.926739,2911.162892
3096.890918,-9326.594869,-1924.535449,-383.047749
3096.891255,-7254.018232,-740.205942,383.047749
3096.891592,-9844.739029,-2516.700203,3983.696590
3096.891930,-11843.295072,-1406.391290,2451.505594
3096.892267,-11325.150913,0.000000,-383.047749
3096.892605,-9178.553681,1554.432478,0.000000
3096.892942,-9474.636058,444.123565,1225.752797
3096.893279,-12139.377449,148.041188,1072.533697
3096.893617,-10584.944971,1332.370696,-919.314598
3096.893954,-9992.780217,1850.514855,-689.485948
3096.894292,-9918.759623,1998.556043,-383.047749
3096.894629,-10955.047942,592.164754,-842.705048
3096.894966,-10214.842000,1184.329507,-1378.971896
3096.895304,-8882.471304,0.000000,-2374.896044
3096.895641,-8586.388927,-1184.329507,-383.047749
3096.895979,-9252.574275,-740.205942,689.485948
3096.896316,-9696.697840,-74.020594,995.924147
3096.896653,-9844.739029,1036.288319,306.438199
3096.896991,-8438.347739,0.000000,-995.924147
3096.897328,-10732.986159,666.185348,2298.286494
3096.897665,-11399.171507,888.247130,1685.410096
3096.898003,-10658.965565,1776.494261,-995.924147
3096.898340,-9252.574275,814.226536,-1532.190996
3096.898678,-9474.636058,-296.082377,0.000000
3096.899015,-11399.171507,-1258.350101,1915.238745
3096.899352,-9622.677246,296.082377,919.314598
3096.899690,-8808.450710,1184.329507,-459.657299
3096.900027,-9770.718434,0.000000,-612.876398
3096.900365,-12287.418637,-1332.370696,306.438199
3096.900702,-11325.150913,-518.144159,-766.095498
3096.901039,-8882.471304,-444.123565,-1532.190996
3096.901377,-8364.327145,-1184.329507,-842.705048
3096.901714,-10510.924376,-296.082377,-536.266849
3096.902052,-11473.192101,-1924.535449,-1838.629195
3096.902389,-9696.697840,-2442.679609,-2681.334243
3096.902726,-9474.636058,-2960.823768,-1455.581446
3096.903064,-9622.677246,-3108.864956,612.876398
3096.903401,-11325.150913,-3330.926739,2145.067394
3096.903739,-8586.388927,-2368.659014,76.609550
3096.904076,-8512.368333,-2516.700203,1378.971896
3096.904413,-10066.800811,-2072.576638,4596.572988
3096.904751,-11843.295072,-1702.473667,4290.134789
3096.905088,-13249.686362,370.102971,2451.505594
3096.905426,-10362.883188,444.123565,153.219100
3096.905763,-9548.656652,-444.123565,995.924147
3096.906100,-10362.883188,-740.205942,2451.505594
3096.906438,-8956.491898,222.061783,1685.410096
3096.906775,-7920.203579,2072.576638,0.000000
3096.907112,-9474.636058,2368.659014,-383.047749
3096.907450,-11917.315666,666.185348,0.000000
3096.907787,-11399.171507,2368.659014,-153.219100
3096.908125,-9178.553681,1480.411884,-612.876398
3096.908462,-9326.594869,1998.556043,1378.971896
3096.908799,-9844.739029,0.000000,612.876398
3096.909137,-10881.027347,-444.123565,459.657299
3096.909474,-10214.842000,-1258.350101,383.047749
3096.909812,-7254.018232,-444.123565,689.485948
3096.910149,-9844.739029,-740.205942,2757.943793
3096.910486,-11843.295072,-1110.308913,1149.143247
3096.910824,-9326.594869,148.041188,-1302.362347
3096.911161,-7920.203579,592.164754,-2374.896044
3096.911499,-9400.615463,-444.123565,-612.876398
3096.911836,-11325.150913,-1258.350101,76.609550
3096.912173,-11399.171507,-1776.494261,0.000000
3096.912511,-8512.368333,0.000000,-842.705048
3096.912848,-7772.162391,0.000000,1149.143247
3096.913186,-10584.944971,-518.144159,3447.429741
3096.913523,-12731.542202,-444.123565,1149.143247
3096.913860,-12435.459826,74.020594,-1915.238745
3096.914198,-10584.944971,-296.082377,-2221.676944
3096.914535,-8882.471304,-962.267725,0.000000
3096.914872,-10510.924376,-518.144159,536.266849
3096.915210,-10436.903782,0.000000,-3064.381992
3096.915547,-9474.636058,0.000000,-4673.182538
3096.915885,-10288.862594,-1702.473667,-2528.115143
3096.916222,-11769.274478,-2072.576638,-229.828649
3096.916559,-9400.615463,-1332.370696,-689.485948
3096.916897,-7772.162391,0.000000,-612.876398
3096.917234,-11399.171507,0.000000,2374.896044
3096.917572,-13249.686362,0.000000,1225.752797
3096.917909,-11325.150913,-222.061783,-1149.143247
3096.918246,-8660.409521,-2960.823768,459.657299
3096.918584,-8512.368333,-2368.659014,2681.334243
3096.918921,-8438.347739,-2072.576638,4290.134789
3096.919259,-9474.636058,-518.144159,3830.477490
3096.919596,-9030.512492,518.144159,1532.190996
3096.919933,-9696.697840,962.267725,229.828649
3096.920271,-11991.336260,2294.638420,766.095498
3096.920608,-10140.821405,1184.329507,536.266849
3096.920946,-8364.327145,1776.494261,1915.238745
3096.921283,-9770.718434,1480.411884,2221.676944
3096.921620,-10807.006753,1110.308913,842.705048
3096.921958,-10584.944971,-296.082377,229.828649
3096.922295,-9178.553681,-1110.308913,612.876398
3096.922632,-9622.677246,-1184.329507,536.266849
3096.922970,-10288.862594,-444.123565,229.828649
3096.923307,-9178.553681,-2072.576638,-766.095498
3096.923645,-9770.718434,-2664.741391,-1149.143247
3096.923982,-8660.409521,-1998.556043,-1455.581446
3096.924319,-8290.306550,296.082377,-1302.362347
3096.924657,-10658.965565,-1184.329507,1072.533697
3096.924994,-12583.501014,-1110.308913,-689.485948
3096.925332,-10732.986159,-1332.370696,-2528.115143
3096.925669,-10436.903782,-2220.617826,229.828649
3096.926006,-9178.553681,-1850.514855,2451.505594
3096.926344,-10881.027347,-1776.494261,1302.362347
3096.926681,-10807.006753,-74.020594,-229.828649
3096.927019,-10510.924376,-740.205942,-383.047749
3096.927356,-11695.253884,-1110.308913,612.876398
3096.927693,-11325.150913,-296.082377,306.438199
3096.928031,-10214.842000,962.267725,-536.266849
3096.928368,-9474.636058,444.123565,-995.924147
3096.928706,-9548.656652,148.041188,-1225.752797
3096.929043,-10066.800811,-74.020594,-1149.143247
3096.929380,-10807.006753,-1258.350101,-1762.019645
3096.929718,-8808.450710,-148.041188,-1685.410096
3096.930055,-9548.656652,-666.185348,-306.438199
3096.930392,-10066.800811,148.041188,-383.047749
3096.930730,-8290.306550,-592.164754,-842.705048
3096.931067,-9326.594869,-740.205942,229.828649
3096.931405,-9326.594869,-1110.308913,-229.828649
3096.931742,-10732.986159,-370.102971,229.828649
3096.932079,-11251.130318,-296.082377,1532.190996
3096.932417,-8956.491898,0.000000,459.657299
3096.932754,-8290.306550,0.000000,1455.581446
3096.933092,-9548.656652,0.000000,1838.629195
3096.933429,-10214.842000,888.247130,1685.410096
3096.933766,-11399.171507,888.247130,1149.143247
3096.934104,-11991.336260,1184.329507,842.705048
3096.934441,-9622.677246,444.123565,1378.971896
3096.934779,-9918.759623,-74.020594,3907.087040
3096.935116,-9918.759623,296.082377,3370.820191
3096.935453,-10955.047942,-518.144159,2374.896044
3096.935791,-11399.171507,1406.391290,76.609550
3096.936128,-11325.150913,74.020594,0.000000
3096.936466,-9770.718434,222.061783,-1072.533697
3096.936803,-9104.533087,-518.144159,-1532.190996
3096.937140,-9844.739029,74.020594,-1532.190996
3096.937478,-9178.553681,0.000000,-1685.410096
3096.937815,-9474.636058,-1258.350101,-1608.800546
3096.938152,-10362.883188,-2516.700203,-306.438199
3096.938490,-10066.800811,148.041188,-1532.190996
3096.938827,-9030.512492,-1036.288319,0.000000
3096.939165,-10066.800811,-888.247130,536.266849
3096.939502,-9770.718434,-2368.659014,383.047749
3096.939839,-10510.924376,-1924.535449,2298.286494
3096.940177,-9770.718434,-2442.679609,3370.820191
3096.940514,-9252.574275,-1628.453072,3677.258390
3096.940852,-10436.903782,370.102971,3830.477490
3096.941189,-11251.130318,666.185348,1225.752797
3096.941526,-9696.697840,1406.391290,-1225.752797
3096.941864,-10510.924376,1036.288319,-2374.896044
3096.942201,-9622.677246,444.123565,-2221.676944
3096.942539,-9622.677246,74.020594,-1225.752797
3096.942876,-9030.512492,1036.288319,0.000000
3096.943213,-8734.430116,518.144159,-1072.533697
3096.943551,-11177.109724,370.102971,0.000000
3096.943888,-11917.315666,74.020594,0.000000
3096.944226,-10955.047942,-888.247130,-383.047749
3096.944563,-10066.800811,222.061783,0.000000
3096.944900,-8734.430116,-1332.370696,229.828649
3096.945238,-9252.574275,-444.123565,842.705048
3096.945575,-10214.842000,-370.102971,0.000000
3096.945912,-10807.006753,-592.164754,-1762.019645
3096.946250,-10510.924376,-962.267725,-1378.971896
3096.946587,-8956.491898,-2368.659014,-689.485948
3096.946925,-8660.409521,-1628.453072,1378.971896
3096.947262,-8808.450710,962.267725,2298.286494
3096.947599,-11029.068536,1480.411884,1991.848295
3096.947937,-12953.603985,0.000000,919.314598
3096.948274,-12361.439231,-1480.411884,1302.362347
3096.948612,-10510.924376,-962.267725,1608.800546
3096.948949,-8808.450710,-1184.329507,1915.238745
3096.949286,-6735.874072,-1850.514855,1915.238745
3096.949624,-8068.244768,-1776.494261,2145.067394
3096.949961,-12139.377449,-1924.535449,459.657299
3096.950299,-10955.047942,-370.102971,-1991.848295
3096.950636,-11103.089130,-222.061783,76.609550
3096.950973,-11843.295072,-592.164754,0.000000
3096.951311,-9770.718434,-148.041188,-1915.238745
3096.951648,-8290.306550,-296.082377,0.000000
3096.951986,-8882.471304,-1924.535449,1838.629195
3096.952323,-9474.636058,-1776.494261,1149.143247
3096.952660,-10807.006753,-1332.370696,612.876398
3096.952998,-11473.192101,-592.164754,919.314598
3096.953335,-10214.842000,-666.185348,153.219100
3096.953672,-9030.512492,74.020594,842.705048
3096.954010,-9548.656652,592.164754,1608.800546
3096.954347,-9400.615463,222.061783,536.266849
3096.954685,-9918.759623,1702.473667,0.000000
3096.955022,-9770.718434,2072.576638,459.657299
3096.955359,-11695.253884,888.247130,2374.896044
3096.955697,-10362.883188,2368.659014,229.828649
3096.956034,-9030.512492,3108.864956,-842.705048
3096.956372,-9178.553681,2072.576638,-689.485948
3096.956709,-9548.656652,74.020594,0.000000
3096.957046,-10140.821405,1036.288319,-459.657299
3096.957384,-9548.656652,1480.411884,-2068.457845
3096.957721,-10214.842000,592.164754,-1532.190996
3096.958059,-10510.924376,-296.082377,-1455.581446
3096.958396,-9326.594869,-370.102971,-2834.553343
3096.958733,-8956.491898,-1406.391290,-2221.676944
3096.959071,-8216.285956,-1776.494261,-995.924147
3096.959408,-9548.656652,-1628.453072,612.876398
3096.959746,-11695.253884,-666.185348,-612.876398
3096.960083,-12509.480420,-1258.350101,-1072.533697
3096.960420,-10214.842000,-1924.535449,-689.485948
3096.960758,-9474.636058,-2442.679609,383.047749
3096.961095,-10732.986159,-1776.494261,2145.067394
3096.961432,-9770.718434,-1258.350101,2068.457845
3096.961770,-10066.800811,-1258.350101,1149.143247
3096.962107,-9992.780217,-1924.535449,689.485948
3096.962445,-12879.583391,-1406.391290,3370.820191
3096.962782,-12139.377449,-518.144159,2451.505594
3096.963119,-9400.615463,-740.205942,1225.752797
3096.963457,-7254.018232,-370.102971,1608.800546
3096.963794,-9104.533087,-444.123565,2451.505594
3096.964132,-11843.295072,814.226536,2068.457845
3096.964469,-10658.965565,1850.514855,-612.876398
3096.964806,-10955.047942,0.000000,-689.485948
3096.965144,-10362.883188,-1036.288319,1378.971896
3096.965481,-9252.574275,444.123565,2068.457845
3096.965819,-8734.430116,1036.288319,383.047749
3096.966156,-9770.718434,74.020594,153.219100
3096.966493,-9104.533087,-888.247130,-306.438199
3096.966831,-10288.862594,0.000000,612.876398
3096.967168,-9844.739029,666.185348,1149.143247
3096.967505,-8290.306550,1036.288319,76.609550
3096.967843,-9548.656652,592.164754,459.657299
3096.968180,-10510.924376,518.144159,1149.143247
3096.968517,-10807.006753,1258.350101,1762.019645
3096.968855,-9548.656652,1850.514855,229.828649
3096.969192,-9400.615463,1332.370696,536.266849
3096.969529,-11029.068536,518.144159,766.095498
3096.969866,-11473.192101,444.123565,229.828649
3096.970204,-9400.615463,1110.308913,-2068.457845
3096.970541,-7920.203579,0.000000,-2451.505594
3096.970878,-9696.697840,-1258.350101,-536.266849
3096.971216,-9844.739029,-1998.556043,-536.266849
3096.971553,-10362.883188,-592.164754,-1532.190996
3096.971890,-9992.780217,-740.205942,-459.657299
3096.972228,-10881.027347,-2146.597232,76.609550
3096.972565,-11991.336260,-2886.803174,-459.657299
3096.972902,-10436.903782,-2072.576638,-1915.238745
3096.973239,-7476.080014,-1924.535449,-2221.676944
3096.973577,-7772.162391,-2812.782580,229.828649
3096.973914,-11399.171507,-3330.926739,459.657299
3096.974251,-11843.295072,-1850.514855,-1302.362347
3096.974589,-9992.780217,-740.205942,-2757.943793
3096.974926,-9400.615463,-1036.288319,-306.438199
3096.975263,-10732.986159,-888.247130,2987.772442
3096.975601,-11177.109724,-592.164754,2681.334243
3096.975938,-9622.677246,740.205942,1378.971896
3096.976275,-10288.862594,222.061783,2374.896044
3096.976613,-12139.377449,444.123565,3907.087040
3096.976950,-12509.480420,148.041188,2681.334243
3096.977287,-10807.006753,1554.432478,1378.971896
3096.977624,-8142.265362,2516.700203,0.000000
3096.977962,-8068.244768,2442.679609,1225.752797
3096.978299,-12139.377449,1406.391290,2298.286494
3096.978636,-12731.542202,2294.638420,-1608.800546
3096.978974,-9326.594869,1702.473667,-4749.792088
3096.979311,-7550.100608,0.000000,-766.095498
3096.979648,-7624.121203,-814.226536,2834.553343
3096.979986,-7920.203579,-444.123565,2221.676944
3096.980323,-8290.306550,-962.267725,995.924147
3096.980660,-9178.553681,-740.205942,1685.410096
3096.980997,-12287.418637,-592.164754,2451.505594
3096.981335,-12361.439231,1406.391290,995.924147
3096.981672,-9770.718434,888.247130,-1378.971896
3096.982009,-7698.141797,0.000000,-842.705048
3096.982347,-8142.265362,-888.247130,1762.019645
3096.982684,-10288.862594,-1258.350101,1991.848295
3096.983021,-10510.924376,0.000000,919.314598
3096.983359,-9178.553681,666.185348,-612.876398
3096.983696,-10658.965565,814.226536,536.266849
3096.984033,-13175.665768,148.041188,995.924147
3096.984371,-11473.192101,0.000000,-842.705048
3096.984708,-8290.306550,148.041188,-995.924147
3096.985045,-9104.533087,0.000000,153.219100
3096.985382,-11843.295072,-814.226536,766.095498
3096.985720,-11621.233289,-592.164754,-919.314598
3096.986057,-9548.656652,-296.082377,-3064.381992
3096.986394,-8808.450710,-1628.453072,-2374.896044
3096.986732,-10658.965565,-962.267725,-689.485948
3096.987069,-9844.739029,-1036.288319,-1915.238745
3096.987406,-9696.697840,-1480.411884,-2221.676944
3096.987744,-8364.327145,-1184.329507,-2451.505594
3096.988081,-9622.677246,-1480.411884,-229.828649
3096.988418,-11843.295072,-814.226536,306.438199
3096.988756,-10955.047942,-1110.308913,-229.828649
3096.989093,-8512.368333,-1036.288319,842.705048
3096.989430,-9030.512492,-962.267725,2757.943793
3096.989767,-11029.068536,-592.164754,4826.401637
3096.990105,-11325.150913,814.226536,2604.724693
3096.990442,-9992.780217,1924.535449,766.095498
3096.990779,-9844.739029,1554.432478,1991.848295
3096.991117,-11325.150913,1480.411884,1762.019645
3096.991454,-9770.718434,2368.659014,76.609550
3096.991791,-9030.512492,3627.009116,-1608.800546
3096.992129,-9474.636058,962.267725,-1378.971896
3096.992466,-10436.903782,518.144159,-766.095498
3096.992803,-10584.944971,814.226536,459.657299
3096.993140,-8364.327145,222.061783,689.485948
3096.993478,-10362.883188,-518.144159,1762.019645
3096.993815,-10881.027347,-370.102971,1225.752797
3096.994152,-10436.903782,-1406.391290,306.438199
3096.994490,-9474.636058,-962.267725,-229.828649
3096.994827,-8808.450710,-888.247130,-919.314598
3096.995164,-10436.903782,-962.267725,-153.219100
3096.995502,-10436.903782,-1184.329507,0.000000
3096.995839,-9474.636058,-1184.329507,-1225.752797
3096.996176,-8586.388927,-1628.453072,0.000000
3096.996514,-9770.718434,-1480.411884,1455.581446
3096.996851,-11029.068536,-1258.350101,1991.848295
3096.997188,-12065.356855,-1110.308913,1762.019645
3096.997525,-9622.677246,-1258.350101,459.657299
3096.997863,-9178.553681,-518.144159,1762.019645
3096.998200,-10140.821405,-1258.350101,3140.991542
3096.998537,-10732.986159,666.185348,536.266849
3096.998875,-10658.965565,666.185348,-1455.581446
3096.999212,-11621.233289,74.020594,-536.266849
3096.999549,-11251.130318,-74.020594,-1378.971896
3096.999887,-10362.883188,74.020594,-383.047749
3097.000224,-8068.244768,888.247130,-612.876398
3097.000561,-7920.203579,222.061783,-2604.724693
3097.000898,-9992.780217,-666.185348,-1225.752797
3097.001236,-11399.171507,-296.082377,-2298.286494
3097.001573,-10807.006753,-2294.638420,-1072.533697
3097.001910,-9474.636058,-1332.370696,919.314598
3097.002248,-8142.265362,0.000000,2604.724693
3097.002585,-10436.903782,-370.102971,3677.258390
3097.002922,-10288.862594,0.000000,2528.115143
3097.003260,-9474.636058,-370.102971,306.438199
3097.003597,-10732.986159,370.102971,1455.581446
3097.003934,-10066.800811,222.061783,1608.800546
3097.004272,-9474.636058,1850.514855,0.000000
3097.004609,-8808.450710,1702.473667,-153.219100
3097.004946,-9400.615463,1628.453072,-383.047749
3097.005283,-10288.862594,1998.556043,-306.438199
3097.005621,-11103.089130,1184.329507,229.828649
3097.005958,-10066.800811,1110.308913,229.828649
3097.006295,-10807.006753,-592.164754,995.924147
3097.006633,-10140.821405,-296.082377,2374.896044
3097.006970,-10807.006753,-814.226536,1991.848295
3097.007307,-9992.780217,-1258.350101,306.438199
3097.007645,-8586.388927,-1998.556043,0.000000
3097.007982,-10140.821405,-1184.329507,0.000000
3097.008319,-10288.862594,-1406.391290,-612.876398
3097.008657,-10658.965565,-592.164754,-2221.676944
3097.008994,-11621.233289,-1258.350101,-2834.553343
3097.009331,-10362.883188,-1924.535449,-3677.258390
3097.009668,-9030.512492,-1776.494261,-383.047749
3097.010006,-9622.677246,-3478.967927,1302.362347
3097.010343,-7994.224174,-3330.926739,1991.848295
3097.010680,-10140.821405,-1258.350101,3907.087040
3097.011018,-12287.418637,0.000000,3447.429741
3097.011355,-11621.233289,0.000000,2528.115143
3097.011692,-11991.336260,666.185348,1455.581446
3097.012030,-11251.130318,888.247130,1225.752797
3097.012367,-8586.388927,1184.329507,-306.438199
3097.012704,-9252.574275,1332.370696,766.095498
3097.013041,-9474.636058,1998.556043,-383.047749
3097.013379,-9548.656652,444.123565,-2451.505594
3097.013716,-9400.615463,444.123565,-1225.752797
3097.014053,-9252.574275,1258.350101,-766.095498
3097.014391,-9696.697840,1924.535449,-919.314598
3097.014728,-8734.430116,1036.288319,-1838.629195
3097.015065,-9030.512492,740.205942,-536.266849
3097.015403,-10140.821405,0.000000,-689.485948
3097.015740,-9030.512492,518.144159,-229.828649
3097.016077,-9770.718434,-370.102971,612.876398
3097.016415,-10510.924376,-1332.370696,612.876398
3097.016752,-9770.718434,-666.185348,0.000000
3097.017089,-9178.553681,0.000000,153.219100
3097.017426,-8808.450710,-518.144159,1302.362347
3097.017764,-10214.842000,-592.164754,1149.143247
3097.018101,-11695.253884,592.164754,995.924147
3097.018438,-10658.965565,1110.308913,-383.047749
3097.018776,-11177.109724,-814.226536,919.314598
3097.019113,-10955.047942,1184.329507,919.314598
3097.019450,-10362.883188,0.000000,995.924147
3097.019788,-10436.903782,-814.226536,1072.533697
3097.020125,-9844.739029,-1258.350101,0.000000
3097.020462,-11325.150913,-1776.494261,383.047749
3097.020799,-10584.944971,-2072.576638,1225.752797
3097.021137,-9992.780217,-1924.535449,229.828649
3097.021474,-9474.636058,-1184.329507,229.828649
3097.021811,-9178.553681,-1702.473667,-995.924147
3097.022149,-9696.697840,-444.123565,-1072.533697
3097.022486,-11843.295072,-1110.308913,-2068.457845
3097.022823,-9400.615463,-1110.308913,-2757.943793
3097.023161,-10140.821405,-2738.761985,-919.314598
3097.023498,-9696.697840,-2812.782580,1072.533697
3097.023835,-8068.244768,-1702.473667,1685.410096
3097.024173,-9400.615463,-1332.370696,2145.067394
3097.024510,-10807.006753,-1258.350101,1915.238745
3097.024847,-11177.109724,-592.164754,1532.190996
3097.025184,-10807.006753,814.226536,1991.848295
3097.025522,-9770.718434,1998.556043,1072.533697
3097.025859,-9844.739029,1998.556043,383.047749
3097.026196,-10214.842000,1554.432478,153.219100
3097.026534,-9252.574275,2516.700203,-766.095498
3097.026871,-8660.409521,3034.844362,-1072.533697
3097.027208,-9104.533087,1628.453072,-383.047749
3097.027546,-10955.047942,444.123565,459.657299
3097.027883,-9696.697840,592.164754,-612.876398
3097.028220,-8808.450710,518.144159,-306.438199
3097.028558,-9252.574275,1406.391290,0.000000
3097.028895,-11029.068536,-222.061783,76.609550
3097.029232,-10362.883188,444.123565,-842.705048
3097.029569,-9844.739029,222.061783,-2221.676944
3097.029907,-9400.615463,-1184.329507,-1149.143247
3097.030244,-10288.862594,-1480.411884,-1072.533697
3097.030581,-10807.006753,-1628.453072,-1455.581446
3097.030919,-7624.121203,-1184.329507,-1532.190996
3097.031256,-7105.977043,-1332.370696,-766.095498
3097.031593,-10066.800811,-1702.473667,995.924147
3097.031931,-11917.315666,-1850.514855,842.705048
3097.032268,-11695.253884,-518.144159,689.485948
3097.032605,-10955.047942,-740.205942,1838.629195
3097.032942,-10658.965565,-1480.411884,2911.162892
3097.033280,-11325.150913,-2146.597232,4290.134789
3097.033617,-10881.027347,-1480.411884,3753.867940
3097.033954,-8734.430116,-296.082377,1302.362347
3097.034292,-9030.512492,-1036.288319,689.485948
3097.034629,-10658.965565,-222.061783,1149.143247
3097.034966,-10807.006753,1480.411884,-689.485948
3097.035304,-11029.068536,1480.411884,-2834.553343
3097.035641,-9770.718434,370.102971,-3294.210641
3097.035978,-9104.533087,0.000000,-1991.848295
3097.036316,-9622.677246,0.000000,-76.609550
3097.036653,-9474.636058,-1480.411884,0.000000
3097.036990,-9548.656652,-1258.350101,459.657299
3097.037327,-11103.089130,-2294.638420,2221.676944
3097.037665,-10732.986159,-1258.350101,3677.258390
3097.038002,-8438.347739,296.082377,3217.601092
3097.038339,-9252.574275,222.061783,3294.210641
3097.038677,-10214.842000,518.144159,1685.410096
3097.039014,-12805.562797,1776.494261,1149.143247
3097.039351,-12509.480420,2886.803174,-1072.533697
3097.039689,-8364.327145,2590.720797,-4213.525239
3097.040026,-7994.224174,0.000000,-1991.848295
3097.040363,-8364.327145,-666.185348,689.485948
3097.040700,-7772.162391,-888.247130,612.876398
3097.041038,-8882.471304,814.226536,1608.800546
3097.041375,-10436.903782,1258.350101,842.705048
3097.041712,-13989.892304,518.144159,229.828649
3097.042050,-12583.501014,444.123565,-1378.971896
3097.042387,-8290.306550,296.082377,-995.924147
3097.042724,-7550.100608,-1036.288319,-459.657299
3097.043062,-10362.883188,-3034.844362,-1378.971896
3097.043399,-9844.739029,-1480.411884,-1685.410096
3097.043736,-9770.718434,-1554.432478,-3064.381992
3097.044074,-7846.182985,-2146.597232,-2911.162892
3097.044411,-9474.636058,-3627.009116,-995.924147
3097.044748,-11177.109724,-3256.906145,919.314598
3097.045085,-10066.800811,-1184.329507,229.828649
3097.045423,-9104.533087,-1480.411884,-536.266849
3097.045760,-10881.027347,-1850.514855,1225.752797
3097.046097,-12805.562797,-3256.906145,2681.334243
3097.046435,-10436.903782,-2294.638420,3294.210641
3097.046772,-8364.327145,0.000000,3064.381992
3097.047109,-10436.903782,0.000000,3140.991542
3097.047447,-12583.501014,-222.061783,2681.334243
3097.047784,-11843.295072,222.061783,612.876398
3097.048121,-9178.553681,2220.617826,0.000000
3097.048459,-9844.739029,1850.514855,0.000000
3097.048796,-11325.150913,1332.370696,76.609550
3097.049133,-10807.006753,1628.453072,-1532.190996
3097.049470,-9548.656652,148.041188,-1685.410096
3097.049808,-7994.224174,0.000000,-536.266849
3097.050145,-8660.409521,-740.205942,1532.190996
3097.050482,-9844.739029,0.000000,1072.533697
3097.050820,-8956.491898,-592.164754,153.219100
3097.051157,-10362.883188,-370.102971,459.657299
3097.051494,-11029.068536,-518.144159,612.876398
3097.051832,-9548.656652,-1554.432478,1302.362347
3097.052169,-9548.656652,444.123565,995.924147
3097.052506,-7772.162391,666.185348,-1302.362347
3097.052843,-8216.285956,148.041188,-1378.971896
3097.053181,-10955.047942,-1184.329507,-919.314598
3097.053518,-10732.986159,-518.144159,-689.485948
3097.053855,-10066.800811,0.000000,-1072.533697
3097.054193,-8660.409521,-296.082377,229.828649
3097.054530,-9326.594869,0.000000,2374.896044
3097.054867,-11473.192101,74.020594,2681.334243
3097.055205,-11843.295072,1776.494261,612.876398
3097.055542,-11103.089130,592.164754,-459.657299
3097.055879,-11843.295072,-888.247130,-536.266849
3097.056217,-11103.089130,-1480.411884,-766.095498
3097.056554,-8734.430116,-1258.350101,-1072.533697
3097.056891,-7772.162391,-1258.350101,-842.705048
3097.057228,-9104.533087,-814.226536,-1149.143247
3097.057566,-10140.821405,296.082377,-1532.190996
3097.057903,-13027.624579,-444.123565,-1685.410096
3097.058240,-12287.418637,-2072.576638,-1915.238745
3097.058578,-9178.553681,-1184.329507,-1302.362347
3097.058915,-9252.574275,-2294.638420,1685.410096
3097.059252,-8512.368333,-2516.700203,2757.943793
3097.059590,-8068.244768,-1406.391290,2221.676944
3097.059927,-10140.821405,-740.205942,2987.772442
3097.060264,-12435.459826,-814.226536,2757.943793
3097.060601,-12583.501014,0.000000,2987.772442
3097.060939,-11103.089130,1110.308913,1838.629195
3097.061276,-9252.574275,1480.411884,536.266849
3097.061613,-8364.327145,1406.391290,995.924147
3097.061951,-8882.471304,1332.370696,689.485948
3097.062288,-7920.203579,1998.556043,-689.485948
3097.062625,-8364.327145,1702.473667,-1302.362347
3097.062963,-11399.171507,1036.288319,229.828649
3097.063300,-13249.686362,740.205942,612.876398
3097.063637,-11177.109724,222.061783,919.314598
3097.063975,-9030.512492,444.123565,2145.067394
3097.064312,-9918.759623,0.000000,2145.067394
3097.064649,-9326.594869,0.000000,1991.848295
3097.064986,-10066.800811,-1110.308913,-383.047749
3097.065324,-9474.636058,-1332.370696,-1838.629195
3097.065661,-8364.327145,-666.185348,-1915.238745
3097.065998,-10362.883188,-592.164754,-1532.190996
3097.066336,-12065.356855,-1110.308913,-2221.676944
3097.066673,-8142.265362,-444.123565,-3447.429741
3097.067010,-7846.182985,0.000000,-1302.362347
3097.067348,-10732.986159,-1776.494261,2374.896044
3097.067685,-11843.295072,-2294.638420,2298.286494
3097.068022,-11029.068536,-1184.329507,1532.190996
3097.068359,-10362.883188,-1406.391290,2681.334243
3097.068697,-10584.944971,-1628.453072,3294.210641
3097.069034,-11547.212695,-1406.391290,2834.553343
3097.069371,-9548.656652,444.123565,1378.971896
3097.069708,-9844.739029,962.267725,-383.047749
3097.070046,-12435.459826,296.082377,-1838.629195
3097.070383,-11399.171507,-888.247130,-3677.258390
3097.070720,-10362.883188,-1998.556043,-2911.162892
3097.071057,-7698.141797,-1480.411884,-2987.772442
3097.071395,-5403.503377,-2072.576638,-1762.019645
3097.071732,-8438.347739,-740.205942,1302.362347
3097.072069,-10955.047942,-1554.432478,0.000000
3097.072407,-11621.233289,-814.226536,0.000000
3097.072744,-11917.315666,-1184.329507,383.047749
3097.073081,-10732.986159,-3034.844362,1225.752797
3097.073418,-10066.800811,-2368.659014,3907.087040
3097.073756,-7846.182985,-1554.432478,2374.896044
3097.074093,-7105.977043,-74.020594,1915.238745
3097.074430,-9252.574275,0.000000,689.485948
3097.074767,-10214.842000,-666.185348,0.000000
3097.075105,-9474.636058,814.226536,0.000000
3097.075442,-9474.636058,814.226536,229.828649
3097.075779,-11251.130318,2146.597232,689.485948
3097.076116,-11251.130318,1332.370696,-536.266849
3097.076454,-9474.636058,444.123565,306.438199
3097.076791,-9474.636058,-296.082377,1608.800546
3097.077128,-8808.450710,74.020594,2451.505594
3097.077465,-9474.636058,370.102971,1838.629195
3097.077803,-12361.439231,0.000000,1225.752797
3097.078140,-11991.336260,666.185348,-1072.533697
3097.078477,-11177.109724,1184.329507,-2298.286494
3097.078814,-10214.842000,592.164754,-995.924147
3097.079152,-8660.409521,-296.082377,-919.314598
3097.079489,-9844.739029,-444.123565,-612.876398
3097.079826,-10881.027347,-814.226536,-2298.286494
3097.080163,-9400.615463,-1554.432478,-1762.019645
3097.080501,-10510.924376,-1036.288319,536.266849
3097.080838,-10584.944971,-1924.535449,1225.752797
3097.081175,-10362.883188,-1332.370696,919.314598
3097.081513,-8660.409521,-962.267725,1915.238745
3097.081850,-8882.471304,-740.205942,3064.381992
3097.082187,-10436.903782,-296.082377,2528.115143
3097.082524,-12139.377449,-518.144159,1225.752797
3097.082862,-10214.842000,444.123565,919.314598
3097.083199,-9696.697840,-222.061783,536.266849
3097.083536,-8438.347739,222.061783,229.828649
3097.083873,-7920.203579,592.164754,-689.485948
3097.084211,-8660.409521,1258.350101,-306.438199
3097.084548,-8882.471304,1110.308913,-1532.190996
3097.084885,-10510.924376,370.102971,-1225.752797
3097.085222,-10214.842000,1998.556043,-612.876398
3097.085560,-10955.047942,1258.350101,0.000000
3097.085897,-10584.944971,1702.473667,-995.924147
3097.086234,-8808.450710,0.000000,-1762.019645
3097.086571,-9844.739029,-74.020594,995.924147
3097.086909,-10732.986159,-370.102971,689.485948
3097.087246,-9474.636058,222.061783,1072.533697
3097.087583,-10436.903782,222.061783,2298.286494
3097.087920,-11547.212695,0.000000,1149.143247
3097.088258,-11917.315666,74.020594,919.314598
3097.088595,-11029.068536,592.164754,536.266849
3097.088932,-9030.512492,-1184.329507,0.000000
3097.089269,-8512.368333,-1776.494261,459.657299
3097.089607,-9252.574275,-296.082377,459.657299
3097.089944,-8438.347739,222.061783,1225.752797
3097.090281,-11177.109724,-1332.370696,1838.629195
3097.090618,-10955.047942,-814.226536,842.705048
3097.090956,-10214.842000,148.041188,842.705048
3097.091293,-10214.842000,-296.082377,1685.410096
3097.091630,-10140.821405,-814.226536,689.485948
3097.091968,-9400.615463,-666.185348,-1991.848295
3097.092305,-9474.636058,-592.164754,-1915.238745
3097.092642,-10140.821405,-2812.782580,-995.924147
3097.092979,-9104.533087,-1406.391290,-2451.505594
3097.093317,-7846.182985,-962.267725,-2298.286494
3097.093654,-9400.615463,-1480.411884,153.219100
3097.093991,-11399.171507,-1924.535449,1302.362347
3097.094328,-11843.295072,-1554.432478,1072.533697
3097.094666,-11399.171507,-814.226536,2528.115143
3097.095003,-10140.821405,-1332.370696,3217.601092
3097.095340,-11473.192101,-962.267725,4060.306139
3097.095677,-10510.924376,-296.082377,1378.971896
3097.096015,-9548.656652,0.000000,459.657299
3097.096352,-9474.636058,0.000000,229.828649
3097.096689,-9844.739029,444.123565,153.219100
3097.097026,-11029.068536,1036.288319,-229.828649
3097.097364,-9844.739029,1924.535449,-1225.752797
3097.097701,-8438.347739,1628.453072,-1532.190996
3097.098038,-8956.491898,592.164754,-842.705048
3097.098375,-11547.212695,888.247130,-229.828649
3097.098713,-10066.800811,0.000000,-383.047749
3097.099050,-7402.059420,-296.082377,-1149.143247
3097.099387,-9474.636058,-222.061783,689.485948
3097.099724,-11843.295072,-814.226536,536.266849
3097.100062,-10510.924376,-740.205942,-1302.362347
3097.100399,-10288.862594,-814.226536,-1302.362347
3097.100736,-8956.491898,-814.226536,-2298.286494
3097.101074,-9770.718434,-1554.432478,-1991.848295
3097.101411,-10732.986159,-1554.432478,0.000000
3097.101748,-8216.285956,-666.185348,-2145.067394
3097.102085,-8290.306550,-1480.411884,-1225.752797
3097.102423,-11251.130318,-1480.411884,2068.457845
3097.102760,-12287.418637,-592.164754,2145.067394
3097.103097,-11991.336260,0.000000,842.705048
3097.103434,-10140.821405,-518.144159,1225.752797
3097.103772,-9030.512492,-1036.288319,2068.457845
3097.104109,-10362.883188,-962.267725,3370.820191
3097.104446,-10881.027347,-1110.308913,2528.115143
3097.104783,-9178.553681,74.020594,229.828649
3097.105121,-9326.594869,-814.226536,842.705048
3097.105458,-10584.944971,148.041188,1685.410096
3097.105795,-8956.491898,666.185348,-459.657299
3097.106132,-9104.533087,296.082377,0.000000
3097.106470,-9770.718434,148.041188,76.609550
3097.106807,-10658.965565,222.061783,-1149.143247
3097.107144,-10140.821405,1184.329507,153.219100
3097.107481,-9548.656652,-222.061783,459.657299
3097.107819,-9474.636058,0.000000,766.095498
3097.108156,-11029.068536,-370.102971,919.314598
3097.108493,-10658.965565,666.185348,1225.752797
3097.108830,-9400.615463,1036.288319,1762.019645
3097.109168,-9992.780217,1332.370696,919.314598
3097.109505,-11769.274478,740.205942,995.924147
3097.109842,-10881.027347,1184.329507,1991.848295
3097.110180,-9474.636058,2294.638420,2451.505594
3097.110517,-9104.533087,1628.453072,1455.581446
3097.110854,-10584.944971,1110.308913,612.876398
3097.111191,-10881.027347,1776.494261,0.000000
3097.111529,-9474.636058,1036.288319,-1149.143247
3097.111866,-8956.491898,666.185348,-689.485948
3097.112203,-8068.244768,740.205942,-383.047749
3097.112540,-10066.800811,-1480.411884,0.000000
3097.112878,-10807.006753,-962.267725,-1149.143247
3097.113215,-8586.388927,-1554.432478,-1608.800546
3097.113552,-8216.285956,-1036.288319,0.000000
3097.113889,-9400.615463,-1924.535449,0.000000
3097.114227,-9844.739029,-962.267725,-1072.533697
3097.114564,-7994.224174,222.061783,-3907.087040
3097.114901,-8734.430116,-1480.411884,-2374.896044
3097.115238,-11991.336260,-1776.494261,-1072.533697
3097.115576,-12509.480420,-2442.679609,-1608.800546
3097.115913,-9844.739029,-1332.370696,-919.314598
3097.116250,-9030.512492,-2294.638420,1455.581446
3097.116587,-11103.089130,-1776.494261,3140.991542
3097.116925,-11547.212695,0.000000,1838.629195
3097.117262,-11103.089130,-666.185348,842.705048
3097.117599,-9844.739029,-444.123565,1838.629195
3097.117936,-10807.006753,592.164754,2451.505594
3097.118274,-12583.501014,1184.329507,3677.258390
3097.118611,-12065.356855,1258.350101,842.705048
3097.118948,-9770.718434,1258.350101,-995.924147
3097.119285,-9178.553681,222.061783,229.828649
3097.119623,-9326.594869,0.000000,612.876398
3097.119960,-9696.697840,0.000000,1072.533697
3097.120297,-9474.636058,-296.082377,-612.876398
3097.120635,-8142.265362,-962.267725,-612.876398
3097.120972,-10066.800811,-222.061783,1455.581446
3097.121309,-9770.718434,888.247130,612.876398
3097.121646,-9326.594869,222.061783,-1455.581446
3097.121984,-9548.656652,-370.102971,-1225.752797
3097.122321,-9548.656652,0.000000,-536.266849
3097.122658,-9326.594869,-444.123565,229.828649
3097.122995,-8364.327145,-1332.370696,536.266849
3097.123333,-8512.368333,-1184.329507,1532.190996
3097.123670,-11251.130318,-1702.473667,2911.162892
3097.124007,-11621.233289,518.144159,2681.334243
3097.124344,-10140.821405,296.082377,919.314598
3097.124682,-9696.697840,-296.082377,766.095498
3097.125019,-10732.986159,0.000000,306.438199
3097.125356,-11769.274478,518.144159,-612.876398
3097.125693,-11547.212695,-888.247130,-995.924147
3097.126031,-8364.327145,-888.247130,-1762.019645
3097.126368,-9252.574275,-1184.329507,0.000000
3097.126705,-10288.862594,-1258.350101,1149.143247
3097.127042,-9400.615463,-518.144159,-766.095498
3097.127380,-10807.006753,0.000000,-1072.533697
3097.127717,-11991.336260,-1036.288319,-1608.800546
3097.128054,-12657.521608,-1776.494261,-1685.410096
3097.128391,-10214.842000,-2072.576638,-2298.286494
3097.128729,-7031.956449,-1850.514855,-2145.067394
3097.129066,-8068.244768,-1554.432478,-383.047749
3097.129403,-11103.089130,-1924.535449,229.828649
3097.129741,-10214.842000,-1480.411884,-536.266849
3097.130078,-11103.089130,-518.144159,1149.143247
3097.130415,-10510.924376,-888.247130,1991.848295
3097.130752,-9992.780217,0.000000,4213.525239
3097.131090,-11769.274478,1184.329507,4366.744339
3097.131427,-10362.883188,2146.597232,766.095498
3097.131764,-9622.677246,740.205942,-612.876398
3097.132101,-9252.574275,296.082377,459.657299
3097.132439,-8438.347739,592.164754,766.095498
3097.132776,-9474.636058,2516.700203,1455.581446
3097.133113,-9326.594869,2516.700203,689.485948
3097.133450,-9178.553681,3108.864956,766.095498
3097.133788,-10807.006753,3256.906145,306.438199
3097.134125,-12583.501014,1258.350101,383.047749
3097.134462,-10807.006753,740.205942,-689.485948
3097.134799,-7476.080014,0.000000,-153.219100
3097.135137,-8512.368333,0.000000,2068.457845
3097.135474,-9474.636058,-1332.370696,2221.676944
3097.135811,-9400.615463,-814.226536,-995.924147
3097.136148,-9474.636058,-814.226536,-689.485948
3097.136486,-10658.965565,148.041188,0.000000
3097.136823,-11177.109724,-592.164754,-383.047749
3097.137160,-10362.883188,-888.247130,-459.657299
3097.137497,-7994.224174,-888.247130,-689.485948
3097.137835,-10214.842000,-444.123565,1149.143247
3097.138172,-11917.315666,-740.205942,2221.676944
3097.138509,-11547.212695,-888.247130,0.000000
3097.138846,-10584.944971,-1998.556043,1149.143247
3097.139184,-9178.553681,-1406.391290,1991.848295
3097.139521,-11177.109724,-592.164754,2528.115143
3097.139858,-13175.665768,-888.247130,2145.067394
3097.140196,-9622.677246,0.000000,-2757.943793
3097.140533,-9252.574275,-444.123565,-2068.457845
3097.140870,-10140.821405,-740.205942,995.924147
3097.141207,-9844.739029,-1406.391290,-612.876398
3097.141545,-9326.594869,-1924.535449,-1378.971896
3097.141882,-9622.677246,-666.185348,-1685.410096
3097.142219,-10066.800811,222.061783,-1378.971896
3097.142556,-11769.274478,-1184.329507,-2298.286494
3097.142894,-9030.512492,-1554.432478,-1915.238745
3097.143231,-7179.997637,-1776.494261,-459.657299
3097.143568,-9474.636058,-1776.494261,2374.896044
3097.143905,-9770.718434,-370.102971,2451.505594
3097.144243,-10362.883188,-74.020594,1149.143247
3097.144580,-10214.842000,-296.082377,612.876398
3097.144917,-10214.842000,148.041188,536.266849
3097.145254,-8660.409521,2146.597232,919.314598
3097.145592,-9400.615463,1406.391290,1378.971896
3097.145929,-9992.780217,962.267725,1532.190996
3097.146266,-11399.171507,1332.370696,459.657299
3097.146603,-11103.089130,2072.576638,1225.752797
3097.146941,-10732.986159,1406.391290,1149.143247
3097.147278,-9844.739029,1184.329507,536.266849
3097.147615,-9622.677246,2072.576638,-1225.752797
3097.147952,-9844.739029,148.041188,-689.485948
3097.148290,-10955.047942,222.061783,-76.609550
3097.148627,-10288.862594,-592.164754,-153.219100
3097.148964,-11177.109724,-740.205942,76.609550
3097.149302,-11325.150913,-148.041188,383.047749
3097.149639,-9992.780217,74.020594,-919.314598
3097.149976,-9178.553681,-1110.308913,-1378.971896
3097.150313,-9770.718434,-2368.659014,-1685.410096
3097.150651,-9252.574275,-2516.700203,-1532.190996
3097.150988,-9178.553681,-2368.659014,-842.705048
3097.151325,-8956.491898,-3478.967927,-306.438199
3097.151662,-10807.006753,-3627.009116,2911.162892
3097.152000,-9844.739029,-2294.638420,2451.505594
3097.152337,-8808.450710,-1554.432478,2068.457845
3097.152674,-10881.027347,-1184.329507,2451.505594
3097.153011,-9474.636058,-592.164754,842.705048
3097.153349,-10510.924376,370.102971,842.705048
3097.153686,-11177.109724,222.061783,153.219100
3097.154023,-9474.636058,-74.020594,0.000000
3097.154360,-9030.512492,74.020594,76.609550
3097.154698,-10140.821405,148.041188,306.438199
3097.155035,-10066.800811,1554.432478,-612.876398
3097.155372,-10881.027347,814.226536,-612.876398
3097.155709,-10140.821405,1702.473667,-1762.019645
3097.156047,-10807.006753,666.185348,-1149.143247
3097.156384,-11103.089130,1998.556043,-536.266849
3097.156721,-10658.965565,814.226536,-1915.238745
3097.157058,-9770.718434,74.020594,-536.266849
3097.157396,-9844.739029,0.000000,1149.143247
3097.157733,-9770.718434,1258.350101,2145.067394
3097.158070,-10510.924376,666.185348,842.705048
3097.158408,-11251.130318,222.061783,-383.047749
3097.158745,-10955.047942,-296.082377,153.219100
3097.159082,-10288.862594,-1110.308913,842.705048
3097.159419,-7920.203579,0.000000,766.095498
3097.159757,-6809.894666,-74.020594,1378.971896
3097.160094,-9474.636058,0.000000,1225.752797
3097.160431,-10066.800811,-592.164754,306.438199
3097.160768,-10881.027347,-592.164754,536.266849
3097.161106,-10362.883188,592.164754,919.314598
3097.161443,-9696.697840,-666.185348,2834.553343
3097.161780,-13989.892304,-666.185348,2374.896044
3097.162117,-8438.347739,-962.267725,306.438199
3097.162455,-7179.997637,-2072.576638,-2221.676944
3097.162792,-9400.615463,-2442.679609,-689.485948
3097.163129,-9326.594869,-1924.535449,-995.924147
3097.163466,-9992.780217,-370.102971,-1991.848295
3097.163804,-10510.924376,-888.247130,-2911.162892
3097.164141,-11695.253884,-1406.391290,-1532.190996
3097.164478,-11769.274478,-1776.494261,612.876398
3097.164815,-10362.883188,-2516.700203,612.876398
3097.165153,-10658.965565,-1184.329507,2145.067394
3097.165490,-11325.150913,-2368.659014,3370.820191
3097.165827,-9992.780217,-2812.782580,3370.820191
3097.166164,-12065.356855,-1924.535449,3830.477490
3097.166502,-10658.965565,1628.453072,2451.505594
3097.166839,-9252.574275,1702.473667,536.266849
3097.167176,-10066.800811,1702.473667,-229.828649
3097.167513,-11547.212695,740.205942,-919.314598
3097.167851,-10140.821405,814.226536,-1072.533697
3097.168188,-7920.203579,1184.329507,-919.314598
3097.168525,-7328.038826,2368.659014,-229.828649
3097.168863,-9918.759623,1184.329507,612.876398
3097.169200,-10140.821405,1998.556043,-536.266849
3097.169537,-9474.636058,1628.453072,-1072.533697
3097.169874,-9326.594869,1332.370696,-612.876398
3097.170212,-10362.883188,-296.082377,0.000000
3097.170549,-10584.944971,0.000000,-76.609550
3097.170886,-8660.409521,-740.205942,-1532.190996
3097.171224,-8586.388927,-296.082377,-1762.019645
3097.171561,-9252.574275,-814.226536,-1149.143247
3097.171898,-10658.965565,-1776.494261,-842.705048
3097.172235,-10955.047942,-962.267725,-1072.533697
3097.172573,-10140.821405,-1776.494261,-1225.752797
3097.172910,-9474.636058,-1554.432478,306.438199
3097.173247,-10362.883188,-1406.391290,2451.505594
3097.173585,-10066.800811,-666.185348,2374.896044
3097.173922,-10140.821405,-814.226536,1302.362347
3097.174259,-11177.109724,-1924.535449,1762.019645
3097.174597,-12731.542202,-2220.617826,2681.334243
3097.174934,-12435.459826,-1110.308913,2451.505594
3097.175271,-10658.965565,-962.267725,919.314598
3097.175608,-7550.100608,-2072.576638,-306.438199
3097.175946,-8808.450710,-1702.473667,1762.019645
3097.176283,-10807.006753,-1036.288319,919.314598
3097.176620,-10362.883188,-814.226536,-76.609550
3097.176958,-10140.821405,-1036.288319,0.000000
3097.177295,-11473.192101,-1036.288319,0.000000
3097.177632,-11251.130318,-740.205942,229.828649
3097.177970,-9770.718434,0.000000,-1455.581446
3097.178307,-8808.450710,-1332.370696,-612.876398
3097.178644,-9252.574275,-2516.700203,-153.219100
3097.178981,-9474.636058,-1258.350101,919.314598
3097.179319,-9622.677246,0.000000,1838.629195
3097.179656,-9844.739029,-740.205942,1149.143247
3097.179993,-10214.842000,370.102971,1072.533697
3097.180331,-11917.315666,1332.370696,2298.286494
3097.180668,-10362.883188,2072.576638,1072.533697
3097.181005,-8586.388927,1850.514855,-459.657299
3097.181342,-9474.636058,888.247130,459.657299
3097.181680,-10436.903782,962.267725,536.266849
3097.182017,-9474.636058,1184.329507,-459.657299
3097.182354,-8882.471304,2590.720797,-383.047749
3097.182692,-9252.574275,1554.432478,-383.047749
3097.183029,-12139.377449,740.205942,-1532.190996
3097.183366,-10140.821405,1110.308913,-1149.143247
3097.183704,-7994.224174,1184.329507,-995.924147
3097.184041,-7994.224174,962.267725,-612.876398
3097.184378,-10214.842000,-444.123565,-1225.752797
3097.184715,-12287.418637,-1110.308913,-1225.752797
3097.185053,-10510.924376,-1332.370696,-2528.115143
3097.185390,-7846.182985,-1406.391290,-1302.362347
3097.185727,-8734.430116,-1406.391290,229.828649
3097.186065,-10732.986159,-2368.659014,306.438199
3097.186402,-10955.047942,-1110.308913,-1302.362347
3097.186739,-9992.780217,-1850.514855,-2298.286494
3097.187077,-9918.759623,-2294.638420,1072.533697
3097.187414,-11991.336260,-1406.391290,3753.867940
3097.187751,-11103.089130,222.061783,1991.848295
3097.188088,-10510.924376,-1184.329507,1302.362347
3097.188426,-9992.780217,-1184.329507,2757.943793
3097.188763,-11177.109724,-2220.617826,4596.572988
3097.189100,-11325.150913,0.000000,4136.915689
3097.189438,-9918.759623,296.082377,1762.019645
3097.189775,-10436.903782,666.185348,612.876398
3097.190112,-11103.089130,0.000000,0.000000
3097.190450,-10066.800811,1258.350101,0.000000
3097.190787,-8660.409521,0.000000,-995.924147
3097.191124,-7105.977043,0.000000,-1149.143247
3097.191461,-9030.512492,-666.185348,-1225.752797
3097.191799,-11473.192101,0.000000,842.705048
3097.192136,-10807.006753,0.000000,306.438199
3097.192473,-7402.059420,-370.102971,-1225.752797
3097.192811,-8216.285956,-962.267725,1991.848295
3097.193148,-10510.924376,-1628.453072,4136.915689
3097.193485,-9696.697840,296.082377,2221.676944
3097.193822,-8956.491898,0.000000,0.000000
3097.194160,-10955.047942,592.164754,-306.438199
3097.194497,-11177.109724,0.000000,-766.095498
3097.194834,-10584.944971,0.000000,-1225.752797
3097.195172,-8438.347739,1258.350101,-766.095498
3097.195509,-7846.182985,0.000000,-612.876398
3097.195846,-9844.739029,666.185348,919.314598
3097.196184,-11621.233289,-370.102971,1149.143247
3097.196521,-11399.171507,518.144159,153.219100
3097.196858,-9844.739029,74.020594,-459.657299
3097.197195,-12065.356855,0.000000,1378.971896
3097.197533,-11325.150913,444.123565,1149.143247
3097.197870,-10362.883188,148.041188,-1225.752797
3097.198207,-10066.800811,-1998.556043,-3140.991542
3097.198545,-9030.512492,-1332.370696,-3370.820191
3097.198882,-10066.800811,-2072.576638,-1378.971896
3097.199219,-9400.615463,-518.144159,-1838.629195
3097.199557,-8734.430116,-1184.329507,-2757.943793
3097.199894,-10510.924376,-2294.638420,-995.924147
3097.200231,-10510.924376,-2812.782580,-383.047749
3097.200568,-9844.739029,-2368.659014,1455.581446
3097.200906,-8734.430116,-1776.494261,2451.505594
3097.201243,-9252.574275,-1924.535449,2374.896044
3097.201580,-10881.027347,-1406.391290,2145.067394
3097.201918,-11547.212695,-1036.288319,2451.505594
3097.202255,-10807.006753,-592.164754,1608.800546
3097.202592,-8512.368333,-592.164754,2298.286494
3097.202929,-8290.306550,1332.370696,2681.334243
3097.203267,-9548.656652,1776.494261,1762.019645
3097.203604,-10807.006753,2294.638420,0.000000
3097.203941,-9178.553681,3182.885551,-2451.505594
3097.204279,-10066.800811,1036.288319,-459.657299
3097.204616,-11325.150913,296.082377,1762.019645
3097.204953,-9918.759623,1332.370696,229.828649
3097.205291,-8660.409521,2072.576638,229.828649
3097.205628,-10510.924376,-444.123565,1072.533697
3097.205965,-11325.150913,0.000000,76.609550
3097.206302,-9474.636058,-592.164754,-306.438199
3097.206640,-10362.883188,-1554.432478,919.314598
3097.206977,-9474.636058,-1332.370696,229.828649
3097.207314,-10510.924376,-1332.370696,689.485948
3097.207652,-9918.759623,-370.102971,0.000000
3097.207989,-8808.450710,-740.205942,0.000000
3097.208326,-10436.903782,-666.185348,919.314598
3097.208664,-11473.192101,-1184.329507,612.876398
3097.209001,-12731.542202,-814.226536,612.876398
3097.209338,-9770.718434,-444.123565,76.609550
3097.209675,-7698.141797,-148.041188,1149.143247
3097.210013,-8660.409521,-74.020594,2604.724693
3097.210350,-10658.965565,-370.102971,1532.190996
3097.210687,-11991.336260,-888.247130,153.219100
3097.211025,-11621.233289,74.020594,-919.314598
3097.211362,-9992.780217,0.000000,-842.705048
3097.211699,-9844.739029,666.185348,153.219100
3097.212036,-9030.512492,222.061783,-383.047749
3097.212374,-8586.388927,1110.308913,-2451.505594
3097.212711,-9844.739029,962.267725,-2451.505594
3097.213048,-10214.842000,962.267725,-1838.629195
3097.213386,-11029.068536,-296.082377,-1762.019645
3097.213723,-11103.089130,-740.205942,-1608.800546
3097.214060,-9770.718434,0.000000,-536.266849
3097.214398,-9252.574275,296.082377,1225.752797
3097.214735,-9474.636058,222.061783,1915.238745
3097.215072,-10066.800811,-592.164754,1608.800546
3097.215409,-10955.047942,-592.164754,2757.943793
3097.215747,-11251.130318,148.041188,2528.115143
3097.216084,-10140.821405,296.082377,2528.115143
3097.216421,-9474.636058,814.226536,2757.943793
3097.216759,-8364.327145,1258.350101,2451.505594
3097.217096,-8216.285956,2516.700203,919.314598
3097.217433,-10214.842000,1406.391290,1762.019645
3097.217771,-10955.047942,2590.720797,766.095498
3097.218108,-10807.006753,1554.432478,536.266849
3097.218445,-11325.150913,888.247130,919.314598
3097.218782,-9770.718434,-518.144159,1838.629195
3097.219120,-9326.594869,74.020594,1991.848295
3097.219457,-8660.409521,444.123565,1378.971896
3097.219794,-8512.368333,222.061783,1149.143247
3097.220132,-10658.965565,888.247130,1762.019645
3097.220469,-12435.459826,148.041188,-383.047749
3097.220806,-12509.480420,-740.205942,-842.705048
3097.221143,-10955.047942,666.185348,919.314598
3097.221481,-6661.853478,0.000000,1225.752797
3097.221818,-8068.244768,-444.123565,2451.505594
3097.222155,-11177.109724,-814.226536,2451.505594
3097.222493,-11103.089130,-1110.308913,2145.067394
3097.222830,-11695.253884,0.000000,2528.115143
3097.223167,-9918.759623,74.020594,4136.915689
3097.223505,-10955.047942,444.123565,5286.058936
3097.223842,-10510.924376,1110.308913,3907.087040
3097.224179,-8734.430116,962.267725,2451.505594
3097.224516,-8882.471304,1998.556043,2757.943793
3097.224854,-8512.368333,2368.659014,3983.696590
3097.225191,-11917.315666,2220.617826,2911.162892
3097.225528,-12583.501014,3775.050304,919.314598
3097.225866,-9548.656652,3478.967927,-76.609550
3097.226203,-8956.491898,3108.864956,1225.752797
3097.226540,-9400.615463,2146.597232,1762.019645
3097.226878,-7772.162391,1406.391290,1532.190996
3097.227215,-7772.162391,2368.659014,2451.505594
3097.227552,-10807.006753,1850.514855,3064.381992
3097.227889,-12509.480420,2960.823768,2068.457845
3097.228227,-11177.109724,3256.906145,229.828649
3097.228564,-8808.450710,888.247130,1302.362347
3097.228901,-8068.244768,1110.308913,2911.162892
3097.229239,-9548.656652,1850.514855,4366.744339
3097.229576,-10510.924376,2590.720797,2451.505594
3097.229913,-8660.409521,1924.535449,536.266849
3097.230251,-10732.986159,1036.288319,1838.629195
3097.230588,-11103.089130,1036.288319,2757.943793
3097.230925,-9474.636058,1628.453072,2911.162892
3097.231262,-8808.450710,2442.679609,4136.915689
3097.231600,-9030.512492,3182.885551,3907.087040
3097.231937,-11177.109724,3330.926739,2681.334243
3097.232274,-12287.418637,2590.720797,2068.457845
3097.232612,-10955.047942,2146.597232,2374.896044
3097.232949,-10140.821405,2220.617826,2298.286494
3097.233286,-10658.965565,1998.556043,1685.410096
3097.233623,-10362.883188,1702.473667,1072.533697
3097.233961,-9770.718434,444.123565,-459.657299
3097.234298,-9474.636058,148.041188,995.924147
3097.234635,-9918.759623,1184.329507,995.924147
3097.234973,-9326.594869,2146.597232,2528.115143
3097.235310,-10807.006753,1258.350101,2681.334243
3097.235647,-11621.233289,0.000000,1378.971896
3097.235985,-10732.986159,814.226536,4136.915689
3097.236322,-10732.986159,1332.370696,5669.106685
3097.236659,-9030.512492,1406.391290,4979.620737
3097.236996,-9770.718434,1332.370696,4290.134789
3097.237334,-11843.295072,1628.453072,3907.087040
3097.237671,-10732.986159,888.247130,3217.601092
3097.238008,-8290.306550,1406.391290,3600.648841
3097.238346,-7846.182985,3775.050304,4519.963438
3097.238683,-9178.553681,3330.926739,2987.772442
3097.239020,-10807.006753,4071.132681,1685.410096
3097.239358,-10584.944971,3701.029710,842.705048
3097.239695,-10140.821405,2220.617826,1302.362347
3097.240032,-8438.347739,1924.535449,3294.210641
3097.240369,-8290.306550,2146.597232,3524.039291
3097.240707,-10510.924376,2960.823768,2987.772442
3097.241044,-11473.192101,1702.473667,153.219100
3097.241381,-10288.862594,1036.288319,-766.095498
3097.241719,-8216.285956,888.247130,229.828649
3097.242056,-9252.574275,222.061783,2528.115143
3097.242393,-10436.903782,1184.329507,2681.334243
3097.242730,-11325.150913,1776.494261,1532.190996
3097.243068,-10658.965565,1776.494261,689.485948
3097.243405,-10955.047942,1036.288319,1225.752797
3097.243742,-10807.006753,1258.350101,2374.896044
3097.244080,-10066.800811,1110.308913,2911.162892
3097.244417,-10362.883188,814.226536,3140.991542
3097.244754,-10881.027347,2072.576638,4136.915689
3097.245092,-10807.006753,2516.700203,1915.238745
3097.245429,-10584.944971,1998.556043,1608.800546
3097.245766,-10510.924376,2146.597232,1225.752797
3097.246103,-10066.800811,1702.473667,1762.019645
3097.246441,-9696.697840,1406.391290,2374.896044
3097.246778,-8586.388927,1480.411884,3370.820191
3097.247115,-9030.512492,2072.576638,3370.820191
3097.247453,-10214.842000,2738.761985,2145.067394
3097.247790,-10214.842000,3108.864956,766.095498
3097.248127,-10955.047942,1924.535449,842.705048
3097.248465,-10140.821405,1258.350101,1149.143247
3097.248802,-9252.574275,148.041188,1455.581446
3097.249139,-9030.512492,444.123565,3140.991542
3097.249476,-8364.327145,1184.329507,3370.820191
3097.249814,-9548.656652,1406.391290,2834.553343
3097.250151,-10214.842000,2516.700203,2834.553343
3097.250488,-10362.883188,1850.514855,3064.381992
3097.250826,-11473.192101,2738.761985,4519.963438
3097.251163,-11103.089130,2590.720797,3447.429741
3097.251500,-10140.821405,2590.720797,4136.915689
3097.251837,-9474.636058,2886.803174,5132.839837
3097.252175,-10362.883188,2590.720797,5286.058936
3097.252512,-10362.883188,3256.906145,3753.867940
3097.252849,-10140.821405,2664.741391,2528.115143
3097.253187,-10955.047942,2442.679609,1608.800546
3097.253524,-10732.986159,2886.803174,1225.752797
3097.253861,-9548.656652,1776.494261,459.657299
3097.254199,-7550.100608,1036.288319,1608.800546
3097.254536,-7402.059420,888.247130,1915.238745
3097.254873,-9400.615463,1628.453072,3140.991542
3097.255210,-10955.047942,1628.453072,1072.533697
3097.255548,-10732.986159,2294.638420,1149.143247
3097.255885,-11843.295072,1776.494261,1532.190996
3097.256222,-11325.150913,518.144159,1378.971896
3097.256560,-11103.089130,370.102971,1762.019645
3097.256897,-9548.656652,-444.123565,919.314598
3097.257234,-8438.347739,-222.061783,1762.019645
3097.257572,-8660.409521,-592.164754,2068.457845
3097.257909,-9992.780217,1184.329507,2681.334243
3097.258246,-10955.047942,1924.535449,3600.648841
3097.258583,-11103.089130,4515.256246,2145.067394
3097.258921,-11843.295072,4663.297435,2681.334243
3097.259258,-12731.542202,3256.906145,2681.334243
3097.259595,-10807.006753,3108.864956,3064.381992
3097.259933,-9844.739029,814.226536,3753.867940
3097.260270,-9252.574275,1924.535449,4290.134789
3097.260607,-8734.430116,2294.638420,3064.381992
3097.260944,-10732.986159,1850.514855,2221.676944
3097.261282,-8956.491898,2960.823768,919.314598
3097.261619,-8290.306550,2442.679609,1302.362347
3097.261956,-9696.697840,4737.318029,2681.334243
3097.262294,-9030.512492,4811.338623,76.609550
3097.262631,-11325.150913,2664.741391,229.828649
3097.262968,-11177.109724,1036.288319,459.657299
3097.263306,-9548.656652,0.000000,1762.019645
3097.263643,-9474.636058,740.205942,3600.648841
3097.263980,-7698.141797,-370.102971,3217.601092
3097.264317,-8512.368333,518.144159,2145.067394
3097.264655,-9622.677246,0.000000,2298.286494
3097.264992,-10066.800811,1110.308913,3600.648841
3097.265329,-10140.821405,2294.638420,3677.258390
3097.265667,-9622.677246,2664.741391,2987.772442
3097.266004,-11769.274478,4367.215058,3294.210641
3097.266341,-12435.459826,4071.132681,3140.991542
3097.266679,-12287.418637,2812.782580,1838.629195
3097.267016,-11029.068536,1480.411884,1762.019645
3097.267353,-9918.759623,-370.102971,2987.772442
3097.267690,-9918.759623,-592.164754,3064.381992
3097.268028,-8882.471304,-592.164754,1608.800546
3097.268365,-7402.059420,222.061783,1685.410096
3097.268702,-8808.450710,1184.329507,1608.800546
3097.269040,-10584.944971,3182.885551,689.485948
3097.269377,-10807.006753,3849.070898,-536.266849
3097.269714,-11325.150913,2516.700203,1225.752797
3097.270051,-12213.398043,1480.411884,2451.505594
3097.270389,-11769.274478,1406.391290,2298.286494
3097.270726,-9992.780217,370.102971,2374.896044
3097.271064,-8586.388927,-1702.473667,2987.772442
3097.271401,-7698.141797,-2294.638420,4903.011187
3097.271738,-8660.409521,0.000000,5822.325785
3097.272076,-8364.327145,1850.514855,4366.744339
3097.272413,-9104.533087,3775.050304,2145.067394
3097.272750,-12213.398043,4145.153275,2681.334243
3097.273088,-11843.295072,4589.276840,1915.238745
3097.273425,-10955.047942,4959.379811,3064.381992
3097.273762,-9844.739029,5625.565159,3677.258390
3097.274100,-10436.903782,3701.029710,2374.896044
3097.274437,-11769.274478,2738.761985,2298.286494
3097.274774,-10436.903782,1406.391290,2528.115143
3097.275112,-7920.203579,1406.391290,3064.381992
3097.275449,-7994.224174,2368.659014,3753.867940
3097.275786,-9474.636058,3552.988522,2221.676944
3097.276124,-11103.089130,3627.009116,-612.876398
3097.276461,-11251.130318,2886.803174,-1608.800546
3097.276799,-10658.965565,2516.700203,-1072.533697
3097.277136,-9918.759623,1998.556043,1455.581446
3097.277473,-9474.636058,1258.350101,1762.019645
3097.277811,-9548.656652,1406.391290,1685.410096
3097.278148,-10584.944971,-592.164754,1378.971896
3097.278485,-10066.800811,-740.205942,2451.505594
3097.278823,-10214.842000,-1332.370696,3140.991542
3097.279160,-8882.471304,-888.247130,3064.381992
3097.279497,-9548.656652,0.000000,2757.943793
3097.279835,-10658.965565,444.123565,3217.601092
3097.280172,-10362.883188,2664.741391,2911.162892
3097.280509,-10214.842000,3627.009116,3217.601092
3097.280847,-11103.089130,4293.194464,3370.820191
3097.281184,-11769.274478,3552.988522,1991.848295
3097.281521,-12583.501014,2590.720797,3064.381992
3097.281859,-10807.006753,1628.453072,2374.896044
3097.282196,-9400.615463,888.247130,2604.724693
3097.282534,-9104.533087,666.185348,2911.162892
3097.282871,-8882.471304,962.267725,2604.724693
3097.283208,-9326.594869,2294.638420,1608.800546
3097.283546,-9918.759623,2664.741391,383.047749
3097.283883,-10214.842000,2812.782580,229.828649
3097.284220,-10658.965565,2738.761985,612.876398
3097.284558,-10658.965565,2886.803174,1455.581446
3097.284895,-9696.697840,3108.864956,1762.019645
3097.285232,-9548.656652,1924.535449,2911.162892
3097.285570,-10362.883188,592.164754,3753.867940
3097.285907,-8956.491898,148.041188,2911.162892
3097.286244,-9252.574275,592.164754,4290.134789
3097.286582,-9474.636058,1628.453072,3294.210641
3097.286919,-9252.574275,1850.514855,1378.971896
3097.287256,-9992.780217,2664.741391,1378.971896
3097.287594,-10362.883188,3182.885551,1072.533697
3097.287931,-10140.821405,3330.926739,536.266849
3097.288269,-9918.759623,2368.659014,612.876398
3097.288606,-10140.821405,2516.700203,1225.752797
3097.288943,-10436.903782,1628.453072,1149.143247
3097.289281,-9844.739029,1110.308913,995.924147
3097.289618,-8882.471304,296.082377,1225.752797
3097.289955,-9696.697840,-592.164754,1915.238745
3097.290293,-10140.821405,-518.144159,1762.019645
3097.290630,-10732.986159,-370.102971,1225.752797
3097.290967,-10140.821405,0.000000,766.095498
3097.291305,-9844.739029,-592.164754,1455.581446
3097.291642,-10955.047942,0.000000,1762.019645
3097.291979,-10214.842000,370.102971,1378.971896
3097.292317,-10732.986159,0.000000,1838.629195
3097.292654,-10140.821405,-888.247130,2145.067394
3097.292991,-9696.697840,-666.185348,3524.039291
3097.293329,-10140.821405,0.000000,5669.106685
3097.293666,-9474.636058,1110.308913,5822.325785
3097.294004,-10510.924376,1924.535449,5362.668486
3097.294341,-11251.130318,3182.885551,5515.887586
3097.294678,-11621.233289,3404.947333,5132.839837
3097.295016,-11843.295072,4293.194464,4979.620737
3097.295353,-11029.068536,3256.906145,4213.525239
3097.295690,-9326.594869,2886.803174,3447.429741
3097.296028,-8364.327145,3256.906145,4366.744339
3097.296365,-8512.368333,4219.173869,4903.011187
3097.296702,-8882.471304,4737.318029,3524.039291
3097.297040,-9548.656652,5773.606348,2374.896044
3097.297377,-10881.027347,5773.606348,1455.581446
3097.297714,-11177.109724,4737.318029,612.876398
3097.298052,-9770.718434,2812.782580,1149.143247
3097.298389,-9104.533087,3182.885551,2681.334243
3097.298726,-8660.409521,2294.638420,3447.429741
3097.299064,-8882.471304,4071.132681,2911.162892
3097.299401,-9696.697840,3034.844362,2068.457845
3097.299739,-9622.677246,3182.885551,2374.896044
3097.300076,-10436.903782,2590.720797,3294.210641
3097.300413,-10807.006753,4071.132681,3447.429741
3097.300751,-10955.047942,4885.359217,1225.752797
3097.301088,-12065.356855,3330.926739,-229.828649
3097.301425,-11103.089130,1554.432478,-766.095498
3097.301763,-9918.759623,444.123565,919.314598
3097.302100,-8364.327145,888.247130,2068.457845
3097.302437,-7994.224174,1554.432478,1072.533697
3097.302775,-9104.533087,1850.514855,383.047749
3097.303112,-11177.109724,1406.391290,153.219100
3097.303449,-11325.150913,1480.411884,1149.143247
3097.303787,-9474.636058,3182.885551,1149.143247
3097.304124,-9622.677246,2516.700203,1532.190996
3097.304461,-11843.295072,1332.370696,1685.410096
3097.304799,-12361.439231,370.102971,383.047749
3097.305136,-11325.150913,-814.226536,0.000000
3097.305474,-8734.430116,-1332.370696,689.485948
3097.305811,-8586.388927,-1702.473667,3217.601092
3097.306148,-10807.006753,0.000000,1455.581446
3097.306486,-9030.512492,0.000000,-153.219100
3097.306823,-8364.327145,-592.164754,1149.143247
3097.307160,-9696.697840,296.082377,3907.087040
3097.307498,-10658.965565,1924.535449,4136.915689
3097.307835,-10066.800811,3478.967927,4443.353888
3097.308172,-11029.068536,3478.967927,6128.763984
3097.308510,-12509.480420,3478.967927,6128.763984
3097.308847,-12361.439231,2960.823768,5592.497135
3097.309184,-10658.965565,2368.659014,6128.763984
3097.309522,-8512.368333,740.205942,5132.839837
3097.309859,-9326.594869,1184.329507,5132.839837
3097.310197,-9770.718434,2072.576638,4213.525239
3097.310534,-8586.388927,1776.494261,1608.800546
3097.310871,-7846.182985,1998.556043,0.000000
3097.311209,-9696.697840,2590.720797,153.219100
3097.311546,-9548.656652,3478.967927,229.828649
3097.311883,-9622.677246,2294.638420,459.657299
3097.312221,-9474.636058,2294.638420,1302.362347
3097.312558,-9400.615463,1406.391290,1915.238745
3097.312895,-10955.047942,0.000000,3907.087040
3097.313233,-9770.718434,-296.082377,4443.353888
3097.313570,-9548.656652,-592.164754,4903.011187
3097.313907,-11547.212695,0.000000,4136.915689
3097.314245,-11177.109724,-592.164754,1455.581446
3097.314582,-10288.862594,-1036.288319,766.095498
3097.314919,-10140.821405,0.000000,612.876398
3097.315257,-9178.553681,0.000000,1149.143247
3097.315594,-9326.594869,1628.453072,1838.629195
3097.315932,-8142.265362,3034.844362,1455.581446
3097.316269,-10658.965565,2294.638420,2068.457845
3097.316606,-12287.418637,2294.638420,1072.533697
3097.316944,-11325.150913,2812.782580,1838.629195
3097.317281,-11843.295072,2220.617826,1838.629195
3097.317618,-10362.883188,2072.576638,1762.019645
3097.317956,-10807.006753,-444.123565,1149.143247
3097.318293,-10362.883188,0.000000,1532.190996
3097.318630,-7920.203579,0.000000,1991.848295
3097.318968,-8660.409521,2294.638420,1455.581446
3097.319305,-8660.409521,2368.659014,1149.143247
3097.319642,-9622.677246,3034.844362,229.828649
3097.319980,-12139.377449,4071.132681,1149.143247
3097.320317,-10362.883188,4071.132681,-383.047749
3097.320654,-10288.862594,3034.844362,689.485948
3097.320992,-9992.780217,1850.514855,3370.820191
3097.321329,-9474.636058,370.102971,4290.134789
3097.321667,-8290.306550,1406.391290,5056.230287
3097.322004,-7698.141797,2072.576638,5975.544884
3097.322341,-9104.533087,3330.926739,6741.640382
3097.322679,-11029.068536,4959.379811,4443.353888
3097.323016,-11769.274478,5329.482782,2681.334243
3097.323353,-11695.253884,6439.791695,1762.019645
3097.323691,-11325.150913,5255.462188,2374.896044
3097.324028,-11251.130318,3849.070898,2451.505594
3097.324365,-9474.636058,2664.741391,2145.067394
3097.324703,-8660.409521,1480.411884,3447.429741
3097.325040,-8956.491898,2072.576638,3907.087040
3097.325377,-9622.677246,1702.473667,2221.676944
3097.325715,-9696.697840,2294.638420,689.485948
3097.326052,-9252.574275,1036.288319,1149.143247
3097.326389,-9918.759623,1258.350101,1608.800546
3097.326727,-10881.027347,666.185348,2757.943793
3097.327064,-10732.986159,592.164754,3140.991542
3097.327402,-9918.759623,1332.370696,3600.648841
3097.327739,-10807.006753,1702.473667,2451.505594
3097.328076,-10362.883188,-592.164754,1762.019645
3097.328414,-9918.759623,-1332.370696,2145.067394
3097.328751,-9474.636058,-2812.782580,4060.306139
3097.329088,-9104.533087,74.020594,4213.525239
3097.329426,-8956.491898,1258.350101,3753.867940
3097.329763,-10510.924376,2590.720797,3753.867940
3097.330100,-10955.047942,3330.926739,1072.533697
3097.330438,-11547.212695,3108.864956,919.314598
3097.330775,-11399.171507,2442.679609,1838.629195
3097.331112,-9622.677246,1702.473667,1915.238745
3097.331450,-9622.677246,2442.679609,2451.505594
3097.331787,-11843.295072,2886.803174,2298.286494
3097.332124,-9918.759623,2516.700203,0.000000
3097.332462,-9548.656652,518.144159,459.657299
3097.332799,-9104.533087,888.247130,1455.581446
3097.333137,-8216.285956,592.164754,1455.581446
3097.333474,-9326.594869,1702.473667,2374.896044
3097.333811,-9548.656652,3182.885551,1532.190996
3097.334149,-10807.006753,2294.638420,-153.219100
3097.334486,-11473.192101,1850.514855,0.000000
3097.334823,-10436.903782,814.226536,1302.362347
3097.335161,-9104.533087,296.082377,2221.676944
3097.335498,-9918.759623,-1036.288319,3753.867940
3097.335835,-9400.615463,814.226536,2987.772442
3097.336173,-9178.553681,740.205942,2604.724693
3097.336510,-10510.924376,222.061783,2298.286494
3097.336847,-9696.697840,962.267725,2451.505594
3097.337185,-9178.553681,1406.391290,2681.334243
3097.337522,-9474.636058,2738.761985,3140.991542
3097.337859,-10807.006753,3034.844362,2451.505594
3097.338197,-12213.398043,2886.803174,1378.971896
3097.338534,-11917.315666,2220.617826,536.266849
3097.338872,-12139.377449,-148.041188,2374.896044
3097.339209,-9030.512492,0.000000,2911.162892
3097.339546,-8142.265362,592.164754,3064.381992
3097.339884,-10066.800811,-296.082377,2757.943793
3097.340221,-10214.842000,518.144159,-76.609550
3097.340558,-9326.594869,370.102971,-229.828649
3097.340896,-10140.821405,1998.556043,2604.724693
3097.341233,-10881.027347,2516.700203,3524.039291
3097.341570,-12361.439231,2368.659014,2145.067394
3097.341908,-11621.233289,1776.494261,0.000000
3097.342245,-8808.450710,740.205942,1991.848295
3097.342582,-9104.533087,518.144159,5439.278036
3097.342920,-7846.182985,814.226536,5515.887586
3097.343257,-9474.636058,2442.679609,4826.401637
3097.343594,-11917.315666,2368.659014,4749.792088
3097.343932,-10436.903782,3552.988522,3140.991542
3097.344269,-10288.862594,3404.947333,3600.648841
3097.344607,-9474.636058,4737.318029,4060.306139
3097.344944,-8216.285956,5477.523971,3140.991542
3097.345281,-10584.944971,4589.276840,2911.162892
3097.345619,-10658.965565,2886.803174,1608.800546
3097.345956,-8660.409521,2738.761985,1685.410096
3097.346293,-9178.553681,3627.009116,2221.676944
3097.346631,-8364.327145,1850.514855,1608.800546
3097.346968,-9548.656652,1036.288319,1532.190996
3097.347305,-9844.739029,1480.411884,2298.286494
3097.347643,-11251.130318,3923.091493,1608.800546
3097.347980,-11547.212695,3627.009116,-76.609550
3097.348317,-11177.109724,1628.453072,-766.095498
3097.348655,-12139.377449,-444.123565,1149.143247
3097.348992,-10436.903782,-1110.308913,2068.457845
3097.349329,-7550.100608,-740.205942,2681.334243
3097.349667,-8290.306550,962.267725,3064.381992
3097.350004,-10362.883188,-592.164754,1455.581446
3097.350342,-12805.562797,222.061783,-383.047749
3097.350679,-10436.903782,740.205942,0.000000
3097.351016,-9548.656652,0.000000,1762.019645
3097.351354,-9030.512492,74.020594,2298.286494
3097.351691,-9400.615463,592.164754,229.828649
3097.352028,-9474.636058,148.041188,612.876398
3097.352366,-9844.739029,74.020594,1455.581446
3097.352703,-10140.821405,666.185348,76.609550
3097.353040,-10955.047942,0.000000,919.314598
3097.353378,-11325.150913,-888.247130,1991.848295
3097.353715,-10066.800811,-1110.308913,306.438199
3097.354052,-9030.512492,518.144159,689.485948
3097.354390,-9400.615463,222.061783,-766.095498
3097.354727,-9622.677246,370.102971,-1915.238745
3097.355064,-11029.068536,0.000000,-1378.971896
3097.355402,-11621.233289,-222.061783,-383.047749
3097.355739,-11251.130318,222.061783,842.705048
3097.356077,-10658.965565,666.185348,919.314598
3097.356414,-10436.903782,962.267725,842.705048
3097.356751,-9252.574275,0.000000,536.266849
3097.357089,-8586.388927,-518.144159,2451.505594
3097.357426,-9548.656652,592.164754,4596.572988
3097.357763,-10955.047942,2590.720797,3370.820191
3097.358101,-11917.315666,3108.864956,1072.533697
3097.358438,-9844.739029,1702.473667,-536.266849
3097.358775,-8512.368333,-740.205942,459.657299
3097.359113,-9400.615463,222.061783,1838.629195
3097.359450,-9400.615463,1036.288319,2068.457845
3097.359787,-8364.327145,1110.308913,-306.438199
3097.360125,-10214.842000,370.102971,-995.924147
3097.360462,-10436.903782,-1036.288319,-1685.410096
3097.360799,-8290.306550,-740.205942,0.000000
3097.361137,-7179.997637,-1480.411884,1378.971896
3097.361474,-9622.677246,-1628.453072,842.705048
3097.361812,-11103.089130,-666.185348,-459.657299
3097.362149,-11917.315666,-1406.391290,-1762.019645
3097.362486,-10807.006753,-2146.597232,-689.485948
3097.362824,-10510.924376,-2516.700203,-306.438199
3097.363161,-9918.759623,-1924.535449,-306.438199
3097.363498,-9548.656652,-1850.514855,229.828649
3097.363836,-10140.821405,-3108.864956,459.657299
3097.364173,-11325.150913,-2960.823768,1532.190996
3097.364510,-11621.233289,-1480.411884,459.657299
3097.364848,-10732.986159,592.164754,459.657299
3097.365185,-10584.944971,518.144159,0.000000
3097.365522,-10881.027347,-444.123565,-306.438199
3097.365860,-10807.006753,0.000000,842.705048
3097.366197,-11621.233289,-518.144159,1072.533697
3097.366534,-9992.780217,666.185348,306.438199
3097.366872,-8734.430116,222.061783,-383.047749
3097.367209,-10584.944971,296.082377,612.876398
3097.367547,-9474.636058,296.082377,-689.485948
3097.367884,-8586.388927,814.226536,-1302.362347
3097.368221,-9770.718434,296.082377,-1608.800546
3097.368559,-9770.718434,-518.144159,-1915.238745
3097.368896,-9918.759623,-814.226536,-1455.581446
3097.369233,-8068.244768,962.267725,0.000000
3097.369571,-8438.347739,-222.061783,612.876398
3097.369908,-9918.759623,518.144159,2374.896044
3097.370245,-10288.862594,592.164754,229.828649
3097.370583,-10288.862594,666.185348,612.876398
3097.370920,-10807.006753,296.082377,1838.629195
3097.371257,-10436.903782,888.247130,2451.505594
3097.371595,-10955.047942,1554.432478,2528.115143
3097.371932,-10362.883188,1850.514855,1149.143247
3097.372269,-9252.574275,1554.432478,0.000000
3097.372607,-8438.347739,296.082377,153.219100
3097.372944,-10807.006753,444.123565,2145.067394
3097.373281,-10807.006753,1258.350101,1225.752797
3097.373619,-10955.047942,1480.411884,-306.438199
3097.373956,-10214.842000,592.164754,153.219100
3097.374293,-9770.718434,-518.144159,612.876398
3097.374631,-9400.615463,-296.082377,2911.162892
3097.374968,-10658.965565,-740.205942,995.924147
3097.375305,-10140.821405,-1110.308913,-1072.533697
3097.375642,-10658.965565,-1776.494261,-689.485948
3097.375980,-12139.377449,-2220.617826,0.000000
3097.376317,-9992.780217,-2294.638420,-842.705048
3097.376654,-7846.182985,-1628.453072,-1532.190996
3097.376992,-8364.327145,-2072.576638,-689.485948
3097.377329,-9474.636058,-2738.761985,0.000000
3097.377666,-9918.759623,-1332.370696,-536.266849
3097.378004,-9030.512492,-888.247130,0.000000
3097.378341,-10066.800811,-666.185348,1838.629195
3097.378678,-12213.398043,-666.185348,2604.724693
3097.379016,-13767.830521,1036.288319,2374.896044
3097.379353,-10732.986159,1406.391290,306.438199
3097.379690,-9104.533087,-740.205942,1149.143247
3097.380028,-9992.780217,-1332.370696,3294.210641
3097.380365,-8808.450710,0.000000,1378.971896
3097.380702,-8068.244768,1628.453072,0.000000
3097.381040,-8734.430116,2220.617826,-2451.505594
3097.381377,-11029.068536,666.185348,-3217.601092
3097.381714,-12287.418637,2146.597232,-3064.381992
3097.382051,-9992.780217,2220.617826,-3064.381992
3097.382389,-7920.203579,1110.308913,-2911.162892
3097.382726,-8956.491898,-962.267725,-1302.362347
3097.383063,-10584.944971,-1850.514855,153.219100
3097.383401,-10214.842000,-1258.350101,306.438199
3097.383738,-9400.615463,-1850.514855,1532.190996
3097.384075,-10436.903782,-1110.308913,1225.752797
3097.384413,-12583.501014,-592.164754,689.485948
3097.384750,-11843.295072,0.000000,0.000000
3097.385087,-9178.553681,-74.020594,-1302.362347
3097.385425,-8512.368333,-1184.329507,-383.047749
3097.385762,-10066.800811,-888.247130,229.828649
3097.386099,-10510.924376,-740.205942,766.095498
3097.386437,-9844.739029,-222.061783,459.657299
3097.386774,-9030.512492,-740.205942,459.657299
3097.387111,-10584.944971,-1258.350101,2451.505594
3097.387449,-11843.295072,-296.082377,3447.429741
3097.387786,-10066.800811,518.144159,1532.190996
3097.388123,-9252.574275,-888.247130,1149.143247
3097.388460,-10807.006753,-1924.535449,2298.286494
3097.388798,-11251.130318,-2368.659014,1838.629195
3097.389135,-9992.780217,-962.267725,0.000000
3097.389472,-7105.977043,-740.205942,-2221.676944
3097.389810,-8660.409521,-1702.473667,459.657299
3097.390147,-10436.903782,-1480.411884,842.705048
3097.390484,-10510.924376,888.247130,-1685.410096
3097.390822,-9918.759623,222.061783,-766.095498
3097.391159,-11399.171507,-740.205942,0.000000
3097.391496,-11399.171507,-888.247130,1302.362347
3097.391834,-10288.862594,0.000000,2374.896044
3097.392171,-7920.203579,0.000000,2987.772442
3097.392508,-9252.574275,-370.102971,3064.381992
3097.392846,-12139.377449,444.123565,2604.724693
3097.393183,-12065.356855,1998.556043,1149.143247
3097.393520,-11103.089130,3182.885551,0.000000
3097.393858,-9474.636058,2072.576638,-689.485948
3097.394195,-9030.512492,2220.617826,-229.828649
3097.394532,-10584.944971,2072.576638,229.828649
3097.394869,-11029.068536,2072.576638,-1302.362347
3097.395207,-7476.080014,1258.350101,-3447.429741
3097.395544,-9252.574275,-74.020594,-1608.800546
3097.395881,-9474.636058,592.164754,-459.657299
3097.396219,-10066.800811,666.185348,-1225.752797
3097.396556,-9992.780217,592.164754,-1225.752797
3097.396893,-10510.924376,-888.247130,-2911.162892
3097.397231,-10362.883188,-1258.350101,0.000000
3097.397568,-10214.842000,-1184.329507,-306.438199
3097.397905,-8956.491898,-814.226536,-766.095498
3097.398243,-9178.553681,-2294.638420,-1225.752797
3097.398580,-10362.883188,-1406.391290,-1149.143247
3097.398917,-11251.130318,-2442.679609,-459.657299
3097.399255,-9030.512492,-2368.659014,-842.705048
3097.399592,-8068.244768,-1776.494261,919.314598
3097.399929,-10807.006753,-1998.556043,2834.553343
3097.400267,-11473.192101,-296.082377,2451.505594
3097.400604,-9844.739029,518.144159,1762.019645
3097.400941,-10140.821405,74.020594,2221.676944
3097.401278,-11843.295072,-370.102971,2298.286494
3097.401616,-11695.253884,-296.082377,2374.896044
3097.401953,-11029.068536,444.123565,1532.190996
3097.402290,-8734.430116,666.185348,842.705048
3097.402628,-9326.594869,-370.102971,2145.067394
3097.402965,-10584.944971,148.041188,1991.848295
3097.403302,-10955.047942,296.082377,306.438199
3097.403640,-10066.800811,2072.576638,-689.485948
3097.403977,-9622.677246,592.164754,-766.095498
3097.404314,-10658.965565,-1036.288319,0.000000
3097.404652,-8734.430116,-370.102971,383.047749
3097.404989,-7772.162391,148.041188,995.924147
3097.405326,-10510.924376,-370.102971,2068.457845
3097.405664,-10807.006753,-814.226536,2145.067394
3097.406001,-11473.192101,-518.144159,2451.505594
3097.406338,-10066.800811,222.061783,2068.457845
3097.406676,-9474.636058,518.144159,1915.238745
3097.407013,-9548.656652,-370.102971,842.705048
3097.407350,-9548.656652,296.082377,-306.438199
3097.407687,-7624.121203,518.144159,-2145.067394
3097.408025,-7772.162391,-370.102971,-1838.629195
3097.408362,-9326.594869,370.102971,-1455.581446
3097.408699,-10807.006753,0.000000,-1455.581446
3097.409037,-10732.986159,1110.308913,-1838.629195
3097.409374,-9104.533087,666.185348,-1378.971896
3097.409711,-10881.027347,-962.267725,76.609550
3097.410049,-11399.171507,-2220.617826,536.266849
3097.410386,-11029.068536,-1850.514855,-459.657299
3097.410723,-9400.615463,-1332.370696,-536.266849
3097.411061,-9326.594869,-2368.659014,-2221.676944
3097.411398,-9992.780217,-3108.864956,-1302.362347
3097.411735,-11325.150913,-1850.514855,-2451.505594
3097.412073,-10436.903782,-814.226536,-2911.162892
3097.412410,-10658.965565,-1850.514855,-2987.772442
3097.412747,-10362.883188,-2072.576638,-1378.971896
3097.413085,-9474.636058,-1702.473667,0.000000
3097.413422,-8438.347739,-1406.391290,842.705048
3097.413759,-8660.409521,-666.185348,1915.238745
3097.414096,-11695.253884,-1628.453072,3447.429741
3097.414434,-14730.098246,-1332.370696,4979.620737
3097.414771,-11843.295072,296.082377,2528.115143
3097.415108,-9844.739029,1702.473667,2987.772442
3097.415446,-9844.739029,740.205942,3370.820191
3097.415783,-9770.718434,444.123565,1378.971896
3097.416120,-9474.636058,1776.494261,-153.219100
3097.416458,-7698.141797,1036.288319,-1455.581446
3097.416795,-7624.121203,666.185348,-1225.752797
3097.417132,-9400.615463,1702.473667,-153.219100
3097.417470,-10436.903782,2368.659014,-1302.362347
3097.417807,-9400.615463,1924.535449,-1608.800546
3097.418144,-9104.533087,-444.123565,0.000000
3097.418482,-10214.842000,-444.123565,1685.410096
3097.418819,-10288.862594,-740.205942,2757.943793
3097.419156,-9548.656652,-222.061783,1838.629195
3097.419494,-10436.903782,-518.144159,1685.410096
3097.419831,-9770.718434,-1554.432478,1225.752797
3097.420168,-9400.615463,-666.185348,2451.505594
3097.420505,-9770.718434,-74.020594,2068.457845
3097.420843,-9548.656652,1258.350101,0.000000
3097.421180,-10362.883188,1628.453072,-1762.019645
3097.421517,-11991.336260,888.247130,-1225.752797
3097.421855,-11399.171507,148.041188,-842.705048
3097.422192,-8734.430116,-296.082377,-1838.629195
3097.422529,-8364.327145,-1628.453072,689.485948
3097.422867,-8956.491898,-1480.411884,2145.067394
3097.423204,-10066.800811,-592.164754,2528.115143
3097.423541,-11029.068536,-74.020594,1302.362347
3097.423879,-11991.336260,-370.102971,-306.438199
3097.424216,-11843.295072,-370.102971,-612.876398
3097.424553,-10658.965565,-666.185348,-1225.752797
3097.424891,-9252.574275,-1406.391290,-1685.410096
3097.425228,-8734.430116,-2220.617826,-2451.505594
3097.425565,-7920.203579,-1702.473667,-2145.067394
3097.425903,-9178.553681,-1702.473667,-2298.286494
3097.426240,-10658.965565,-1628.453072,-1072.533697
3097.426577,-10140.821405,-1184.329507,-1225.752797
3097.426914,-9622.677246,222.061783,-306.438199
3097.427252,-10881.027347,0.000000,612.876398
3097.427589,-9844.739029,-518.144159,229.828649
3097.427926,-10066.800811,-148.041188,1608.800546
3097.428264,-11103.089130,-666.185348,2451.505594
3097.428601,-9622.677246,1184.329507,2834.553343
3097.428938,-10214.842000,1258.350101,1915.238745
3097.429276,-9474.636058,1406.391290,536.266849
3097.429613,-9400.615463,1776.494261,-153.219100
3097.429950,-9918.759623,962.267725,0.000000
3097.430288,-9770.718434,222.061783,0.000000
3097.430625,-9474.636058,0.000000,-536.266849
3097.430962,-10955.047942,518.144159,0.000000
3097.431300,-8956.491898,74.020594,-306.438199
3097.431637,-9252.574275,-370.102971,-383.047749
3097.431974,-9030.512492,-1332.370696,612.876398
3097.432312,-10658.965565,-1702.473667,1378.971896
3097.432649,-10807.006753,-1184.329507,1685.410096
3097.432986,-10955.047942,-1776.494261,0.000000
3097.433323,-10807.006753,-1850.514855,536.266849
3097.433661,-10584.944971,-1998.556043,766.095498
3097.433998,-10066.800811,-1332.370696,1378.971896
3097.434335,-10066.800811,-1258.350101,919.314598
3097.434673,-9548.656652,-1776.494261,229.828649
3097.435010,-11325.150913,-1924.535449,1225.752797
3097.435347,-10436.903782,-2072.576638,766.095498
3097.435685,-8882.471304,-1406.391290,1685.410096
3097.436022,-8660.409521,-444.123565,2528.115143
3097.436359,-10288.862594,-814.226536,2068.457845
3097.436697,-12139.377449,-592.164754,1378.971896
3097.437034,-10584.944971,148.041188,0.000000
3097.437371,-9400.615463,148.041188,-229.828649
3097.437709,-9622.677246,296.082377,-612.876398
3097.438046,-10584.944971,0.000000,-383.047749
3097.438383,-10214.842000,-1480.411884,-2221.676944
3097.438720,-7772.162391,-1036.288319,-1915.238745
3097.439058,-7476.080014,74.020594,-536.266849
3097.439395,-9918.759623,1184.329507,0.000000
3097.439732,-10066.800811,1480.411884,-1991.848295
3097.440070,-11103.089130,962.267725,-2374.896044
3097.440407,-11103.089130,444.123565,-1378.971896
3097.440744,-9548.656652,0.000000,919.314598
3097.441082,-9844.739029,-444.123565,2681.334243
3097.441419,-8660.409521,814.226536,1532.190996
3097.441756,-8956.491898,592.164754,1532.190996
3097.442094,-12213.398043,1184.329507,1762.019645
3097.442431,-12435.459826,1332.370696,306.438199
3097.442768,-11769.274478,1924.535449,-842.705048
3097.443106,-8586.388927,1998.556043,-2145.067394
3097.443443,-6883.915261,1036.288319,-766.095498
3097.443780,-9548.656652,814.226536,1608.800546
3097.444118,-10214.842000,296.082377,229.828649
3097.444455,-9252.574275,444.123565,-842.705048
3097.444792,-11325.150913,-592.164754,153.219100
3097.445129,-11029.068536,-1110.308913,1225.752797
3097.445467,-9548.656652,-1184.329507,1608.800546
3097.445804,-8660.409521,-666.185348,-306.438199
3097.446141,-8068.244768,-2294.638420,-229.828649
3097.446479,-10436.903782,-3627.009116,76.609550
3097.446816,-10510.924376,-2368.659014,76.609550
3097.447153,-9770.718434,-2664.741391,-689.485948
3097.447491,-9474.636058,-1702.473667,0.000000
3097.447828,-9844.739029,-1998.556043,-995.924147
3097.448165,-11325.150913,-1924.535449,0.000000
3097.448503,-8956.491898,-296.082377,0.000000
3097.448840,-9770.718434,-2146.597232,2068.457845
3097.449177,-12361.439231,-1850.514855,4749.792088
3097.449515,-12879.583391,0.000000,4060.306139
3097.449852,-12805.562797,222.061783,3677.258390
3097.450189,-10066.800811,222.061783,1302.362347
3097.450527,-9844.739029,-666.185348,1532.190996
3097.450864,-11843.295072,222.061783,2528.115143
3097.451201,-9918.759623,1702.473667,0.000000
3097.451538,-7550.100608,2294.638420,-3217.601092
3097.451876,-7846.182985,2146.597232,-3907.087040
3097.452213,-10584.944971,1850.514855,-2145.067394
3097.452550,-11399.171507,1480.411884,-2145.067394
3097.452888,-9252.574275,518.144159,-1302.362347
3097.453225,-7772.162391,1332.370696,-536.266849
3097.453562,-9844.739029,-444.123565,612.876398
3097.453900,-11621.233289,-814.226536,919.314598
3097.454237,-9548.656652,-1258.350101,536.266849
3097.454574,-8216.285956,-1184.329507,612.876398
3097.454912,-9474.636058,-1406.391290,919.314598
3097.455249,-10658.965565,-1184.329507,536.266849
3097.455586,-9326.594869,74.020594,-842.705048
3097.455924,-8882.471304,-148.041188,-1532.190996
3097.456261,-9992.780217,370.102971,-383.047749
3097.456598,-9400.615463,222.061783,-1532.190996
3097.456936,-9770.718434,518.144159,-1302.362347
3097.457273,-9548.656652,0.000000,-536.266849
3097.457610,-9918.759623,-296.082377,229.828649
3097.457947,-11399.171507,-1036.288319,1991.848295
3097.458285,-11843.295072,-740.205942,2528.115143
3097.458622,-10658.965565,-222.061783,2145.067394
3097.458959,-11399.171507,-222.061783,1072.533697
3097.459297,-10732.986159,-1258.350101,1455.581446
3097.459634,-10955.047942,-1184.329507,689.485948
3097.459971,-10807.006753,-1036.288319,-229.828649
3097.460309,-7476.080014,-888.247130,-1991.848295
3097.460646,-9474.636058,-2590.720797,-766.095498
3097.460983,-11399.171507,-2664.741391,0.000000
3097.461321,-8808.450710,-2442.679609,-995.924147
3097.461658,-9844.739029,-1850.514855,842.705048
3097.461995,-9992.780217,-888.247130,1915.238745
3097.462333,-10140.821405,-1924.535449,1838.629195
3097.462670,-10362.883188,-148.041188,3140.991542
3097.463007,-9252.574275,-666.185348,2911.162892
3097.463345,-10436.903782,-740.205942,3907.087040
3097.463682,-11843.295072,-444.123565,3140.991542
3097.464019,-10807.006753,814.226536,1685.410096
3097.464356,-9030.512492,2886.803174,459.657299
3097.464694,-8734.430116,1850.514855,-995.924147
3097.465031,-9992.780217,2368.659014,-459.657299
3097.465368,-11843.295072,1554.432478,-536.266849
3097.465706,-10140.821405,2886.803174,-1838.629195
3097.466043,-7920.203579,1850.514855,-2834.553343
3097.466380,-10436.903782,888.247130,306.438199
3097.466718,-11399.171507,592.164754,0.000000
3097.467055,-10362.883188,296.082377,-2528.115143
3097.467392,-6661.853478,1406.391290,-1455.581446
3097.467730,-8882.471304,-1110.308913,153.219100
3097.468067,-11547.212695,-962.267725,0.000000
3097.468404,-11103.089130,0.000000,-1838.629195
3097.468742,-8956.491898,-592.164754,-919.314598
3097.469079,-8438.347739,-1332.370696,-612.876398
3097.469416,-8660.409521,-1702.473667,-1072.533697
3097.469754,-9548.656652,-1332.370696,1455.581446
3097.470091,-9104.533087,-518.144159,766.095498
3097.470428,-9030.512492,148.041188,-612.876398
3097.470765,-11917.315666,740.205942,383.047749
3097.471103,-12287.418637,-740.205942,1149.143247
3097.471440,-10066.800811,-370.102971,0.000000
3097.471777,-7402.059420,0.000000,842.705048
3097.472115,-9178.553681,-370.102971,4519.963438
3097.472452,-14137.933492,-370.102971,3983.696590
3097.472789,-11843.295072,1036.288319,76.609550
3097.473127,-9252.574275,1702.473667,-306.438199
3097.473464,-11991.336260,0.000000,1915.238745
3097.473802,-11917.315666,-740.205942,76.609550
3097.474139,-10881.027347,-222.061783,-1149.143247
3097.474477,-7624.121203,0.000000,-1608.800546
3097.474814,-7179.997637,-2220.617826,0.000000
3097.475152,-10510.924376,-1776.494261,766.095498
3097.475489,-10955.047942,-1554.432478,1149.143247
3097.475826,-9326.594869,-1480.411884,1532.190996
3097.476164,-10066.800811,-962.267725,1991.848295
3097.476501,-10214.842000,-222.061783,2987.772442
3097.476839,-10584.944971,-1480.411884,2987.772442
3097.477176,-9770.718434,-1110.308913,2451.505594
3097.477514,-9178.553681,0.000000,1915.238745
3097.477851,-10955.047942,370.102971,1149.143247
3097.478188,-10584.944971,222.061783,153.219100
3097.478526,-8660.409521,814.226536,-2374.896044
3097.478863,-7772.162391,518.144159,-3753.867940
3097.479201,-7179.997637,814.226536,-2374.896044
3097.479538,-11251.130318,222.061783,-306.438199
3097.479876,-11103.089130,1184.329507,-1685.410096
3097.480213,-8734.430116,1110.308913,-2221.676944
3097.480550,-10732.986159,-148.041188,0.000000
3097.480888,-11769.274478,-962.267725,1532.190996
3097.481225,-11843.295072,-592.164754,229.828649
3097.481563,-10658.965565,-962.267725,-306.438199
3097.481900,-8290.306550,-2220.617826,-306.438199
3097.482238,-9474.636058,-962.267725,153.219100
3097.482575,-11621.233289,-296.082377,-1685.410096
3097.482912,-11029.068536,-370.102971,-3370.820191
3097.483250,-10214.842000,-962.267725,-2681.334243
3097.483587,-9400.615463,-888.247130,-1532.190996
3097.483925,-9474.636058,-296.082377,689.485948
3097.484262,-10066.800811,-1184.329507,1532.190996
3097.484600,-9474.636058,-1258.350101,2374.896044
3097.484937,-9918.759623,-1258.350101,3600.648841
3097.485274,-10658.965565,-518.144159,4596.572988
3097.485612,-9326.594869,74.020594,3600.648841
3097.485949,-9918.759623,-592.164754,2681.334243
3097.486287,-10362.883188,370.102971,1302.362347
3097.486624,-9844.739029,592.164754,153.219100
3097.486962,-9474.636058,444.123565,-76.609550
3097.487299,-7624.121203,1480.411884,-766.095498
3097.487636,-8216.285956,0.000000,-1532.190996
3097.487974,-10807.006753,0.000000,-919.314598
3097.488311,-11029.068536,-962.267725,-153.219100
3097.488649,-9696.697840,444.123565,842.705048
3097.488986,-10658.965565,0.000000,1838.629195
3097.489324,-11843.295072,222.061783,1838.629195
3097.489661,-11621.233289,-592.164754,1302.362347
3097.489999,-10881.027347,-740.205942,1762.019645
3097.490336,-10066.800811,-962.267725,2145.067394
3097.490673,-10288.862594,-1184.329507,919.314598
3097.491011,-9770.718434,-740.205942,-153.219100
3097.491348,-9474.636058,-74.020594,-995.924147
3097.491686,-9474.636058,74.020594,-459.657299
3097.492023,-10955.047942,0.000000,612.876398
3097.492361,-11029.068536,74.020594,0.000000
3097.492698,-8660.409521,222.061783,536.266849
3097.493035,-10288.862594,296.082377,1532.190996
3097.493373,-10066.800811,222.061783,1455.581446
3097.493710,-10881.027347,148.041188,612.876398
3097.494048,-11547.212695,-1258.350101,76.609550
3097.494385,-9474.636058,-1406.391290,-995.924147
3097.494723,-7624.121203,-370.102971,-306.438199
3097.495060,-8956.491898,1184.329507,-536.266849
3097.495397,-10584.944971,666.185348,-2987.772442
3097.495735,-11843.295072,370.102971,-4979.620737
3097.496072,-9844.739029,-222.061783,-3140.991542
3097.496410,-9178.553681,-444.123565,-153.219100
3097.496747,-9474.636058,-222.061783,459.657299
3097.497085,-10955.047942,0.000000,383.047749
3097.497422,-10955.047942,-666.185348,306.438199
3097.497759,-9918.759623,0.000000,306.438199
3097.498097,-9400.615463,-592.164754,1991.848295
3097.498434,-9548.656652,-148.041188,2681.334243
3097.498772,-10807.006753,0.000000,2221.676944
3097.499109,-10066.800811,1184.329507,689.485948
3097.499447,-8956.491898,370.102971,1149.143247
3097.499784,-9474.636058,148.041188,1685.410096
3097.500121,-9622.677246,222.061783,1225.752797
3097.500459,-8586.388927,1036.288319,383.047749
3097.500796,-10658.965565,1776.494261,1455.581446
3097.501134,-11621.233289,1776.494261,153.219100
3097.501471,-9622.677246,0.000000,-1685.410096
3097.501809,-10288.862594,-1480.411884,229.828649
3097.502146,-9326.594869,-740.205942,459.657299
3097.502483,-8216.285956,-1628.453072,-306.438199
3097.502821,-9992.780217,-1924.535449,2068.457845
3097.503158,-10807.006753,-2368.659014,1225.752797
3097.503496,-10140.821405,-962.267725,0.000000
3097.503833,-11769.274478,-592.164754,306.438199
3097.504171,-11843.295072,-1776.494261,0.000000
3097.504508,-11251.130318,-1554.432478,-383.047749
3097.504846,-9252.574275,-1776.494261,-76.609550
3097.505183,-8734.430116,-888.247130,919.314598
3097.505520,-10362.883188,-1702.473667,1532.190996
3097.505858,-11843.295072,-888.247130,76.609550
3097.506195,-11325.150913,-370.102971,0.000000
3097.506533,-10362.883188,0.000000,612.876398
3097.506870,-9474.636058,-296.082377,1762.019645
3097.507208,-10288.862594,-592.164754,2451.505594
3097.507545,-9844.739029,0.000000,2451.505594
3097.507882,-11769.274478,592.164754,2298.286494
3097.508220,-10436.903782,74.020594,383.047749
3097.508557,-9548.656652,962.267725,-1302.362347
3097.508895,-9474.636058,-444.123565,-2145.067394
3097.509232,-7772.162391,518.144159,-3983.696590
3097.509570,-5995.668130,1480.411884,-4979.620737
3097.509907,-8660.409521,-666.185348,-1991.848295
3097.510244,-10955.047942,-1702.473667,-1455.581446
3097.510582,-10436.903782,74.020594,-1838.629195
3097.510919,-9992.780217,-518.144159,1302.362347
3097.511257,-10288.862594,-1480.411884,3064.381992
3097.511594,-10066.800811,-962.267725,2834.553343
3097.511932,-9252.574275,-1258.350101,1608.800546
3097.512269,-9548.656652,-222.061783,1532.190996
3097.512606,-10140.821405,148.041188,1685.410096
3097.512944,-12287.418637,962.267725,459.657299
3097.513281,-11991.336260,962.267725,-1532.190996
3097.513619,-9844.739029,1998.556043,-1838.629195
3097.513956,-7846.182985,592.164754,-919.314598
3097.514294,-9770.718434,-444.123565,842.705048
3097.514631,-10362.883188,-296.082377,612.876398
3097.514968,-9622.677246,814.226536,-306.438199
3097.515306,-10066.800811,-518.144159,76.609550
3097.515643,-10807.006753,-1702.473667,1455.581446
3097.515981,-10436.903782,-814.226536,1532.190996
3097.516318,-10140.821405,-1110.308913,153.219100
3097.516656,-9918.759623,-814.226536,0.000000
3097.516993,-9992.780217,-1776.494261,-689.485948
3097.517330,-10658.965565,-1554.432478,-612.876398
3097.517668,-10066.800811,-1702.473667,-1991.848295
3097.518005,-8438.347739,-1258.350101,-1991.848295
3097.518343,-8364.327145,-1702.473667,-1378.971896
3097.518680,-9326.594869,-2664.741391,76.609550
3097.519018,-10066.800811,-962.267725,1915.238745
3097.519355,-10140.821405,222.061783,2374.896044
3097.519693,-11843.295072,1776.494261,3217.601092
3097.520030,-12879.583391,222.061783,2987.772442
3097.520367,-12287.418637,1184.329507,3064.381992
3097.520705,-9918.759623,222.061783,3064.381992
3097.521042,-8956.491898,1184.329507,1072.533697
3097.521380,-8956.491898,370.102971,842.705048
3097.521717,-11029.068536,1036.288319,1455.581446
3097.522055,-9770.718434,2146.597232,-1608.800546
3097.522392,-8586.388927,1850.514855,-2068.457845
3097.522729,-9548.656652,1480.411884,-153.219100
3097.523067,-10288.862594,74.020594,-1149.143247
3097.523404,-10955.047942,1480.411884,-459.657299
3097.523742,-9326.594869,740.205942,-76.609550
3097.524079,-9030.512492,-296.082377,-306.438199
3097.524417,-10362.883188,-2368.659014,229.828649
3097.524754,-9844.739029,-1850.514855,229.828649
3097.525091,-8734.430116,-1184.329507,76.609550
3097.525429,-8882.471304,-1406.391290,612.876398
3097.525766,-10066.800811,-296.082377,-536.266849
3097.526104,-11769.274478,-740.205942,-2374.896044
3097.526441,-11621.233289,-518.144159,-2298.286494
3097.526779,-9622.677246,-888.247130,0.000000
3097.527116,-10658.965565,-1258.350101,1378.971896
3097.527453,-9252.574275,-1850.514855,1532.190996
3097.527791,-8882.471304,-740.205942,1378.971896
3097.528128,-9400.615463,-1332.370696,1378.971896
3097.528466,-11621.233289,-740.205942,306.438199
3097.528803,-11547.212695,-592.164754,1302.362347
3097.529141,-11399.171507,740.205942,612.876398
3097.529478,-9918.759623,0.000000,-766.095498
3097.529815,-10732.986159,-1332.370696,-995.924147
3097.530153,-9474.636058,-2442.679609,-1072.533697
3097.530490,-7772.162391,-2812.782580,-1149.143247
3097.530828,-7105.977043,-2368.659014,0.000000
3097.531165,-9252.574275,-666.185348,1149.143247
3097.531503,-12139.377449,-888.247130,612.876398
3097.531840,-13027.624579,148.041188,-383.047749
3097.532177,-10955.047942,222.061783,-689.485948
3097.532515,-10140.821405,-1406.391290,1302.362347
3097.532852,-9474.636058,-1702.473667,1762.019645
3097.533190,-8956.491898,-1554.432478,3217.601092
3097.533527,-9696.697840,0.000000,2528.115143
3097.533865,-9326.594869,444.123565,1608.800546
3097.534202,-10881.027347,1628.453072,1685.410096
3097.534540,-11843.295072,1850.514855,1225.752797
