#time,accel_x,accel_y,accel_z
2985.682706,-10436.903782,-666.185348,-536.266849
2985.683044,-10214.842000,-740.205942,0.000000
2985.683382,-9844.739029,-1850.514855,-459.657299
2985.683720,-9844.739029,-1702.473667,536.266849
2985.684058,-9252.574275,-1998.556043,-612.876398
2985.684396,-9548.656652,-1480.411884,-153.219100
2985.684733,-9844.739029,-1628.453072,-459.657299
2985.685071,-11029.068536,-1850.514855,612.876398
2985.685409,-10510.924376,-1776.494261,0.000000
2985.685747,-9030.512492,-1406.391290,76.609550
2985.686085,-9548.656652,-370.102971,842.705048
2985.686423,-10288.862594,-888.247130,995.924147
2985.686760,-10362.883188,-740.205942,919.314598
2985.687098,-9548.656652,-222.061783,1378.971896
2985.687436,-10066.800811,444.123565,1378.971896
2985.687774,-10140.821405,1110.308913,536.266849
2985.688112,-10955.047942,666.185348,-1072.533697
2985.688450,-9622.677246,296.082377,-689.485948
2985.688787,-9548.656652,666.185348,-842.705048
2985.689125,-9474.636058,666.185348,-1302.362347
2985.689463,-9770.718434,148.041188,-2374.896044
2985.689801,-9918.759623,-814.226536,-2374.896044
2985.690139,-9104.533087,-1628.453072,-1838.629195
2985.690477,-8882.471304,-962.267725,-459.657299
2985.690814,-9770.718434,-1036.288319,-995.924147
2985.691152,-10807.006753,-1332.370696,-2987.772442
2985.691490,-10436.903782,-2590.720797,-3600.648841
2985.691828,-9844.739029,-3404.947333,-2068.457845
2985.692166,-9696.697840,-3034.844362,-842.705048
2985.692504,-10066.800811,-2960.823768,-1608.800546
2985.692841,-10140.821405,-3034.844362,-2987.772442
2985.693179,-9622.677246,-3478.967927,-2451.505594
2985.693517,-9696.697840,-3404.947333,-1685.410096
2985.693855,-10362.883188,-3034.844362,0.000000
2985.694193,-11399.171507,-2664.741391,-1762.019645
2985.694531,-12065.356855,-1998.556043,-3217.601092
2985.694869,-10881.027347,-2294.638420,-3524.039291
2985.695206,-9252.574275,-3330.926739,-2298.286494
2985.695544,-9178.553681,-3478.967927,-1378.971896
2985.695882,-8882.471304,-3923.091493,-459.657299
2985.696220,-9474.636058,-2368.659014,-1915.238745
2985.696558,-9844.739029,-1628.453072,-1915.238745
2985.696896,-11029.068536,-1628.453072,-1915.238745
2985.697233,-11029.068536,-1924.535449,-2834.553343
2985.697571,-10584.944971,-2886.803174,-3830.477490
2985.697909,-9474.636058,-4663.297435,-3140.991542
2985.698247,-8882.471304,-4737.318029,-3217.601092
2985.698585,-8364.327145,-4885.359217,-1455.581446
2985.698923,-8068.244768,-3997.112087,-842.705048
2985.699260,-9474.636058,-2812.782580,-306.438199
2985.699598,-11029.068536,-1184.329507,-383.047749
2985.699936,-10584.944971,-1332.370696,-1838.629195
2985.700274,-11103.089130,-1332.370696,-1455.581446
2985.700612,-11325.150913,-2294.638420,-229.828649
2985.700950,-10510.924376,-2886.803174,459.657299
2985.701287,-9918.759623,-2664.741391,842.705048
2985.701625,-9326.594869,-1776.494261,766.095498
2985.701963,-8808.450710,-1554.432478,0.000000
2985.702301,-10140.821405,-2072.576638,-689.485948
2985.702639,-9992.780217,-2294.638420,-1225.752797
2985.702977,-8956.491898,-1110.308913,-689.485948
2985.703314,-9622.677246,444.123565,-153.219100
2985.703652,-10955.047942,1406.391290,-1838.629195
2985.703990,-11991.336260,-1184.329507,-4290.134789
2985.704328,-11251.130318,-3330.926739,-3217.601092
2985.704666,-9400.615463,-4737.318029,-2374.896044
2985.705004,-8438.347739,-4219.173869,-1302.362347
2985.705341,-8586.388927,-4441.235652,-3064.381992
2985.705679,-9400.615463,-5181.441594,-2987.772442
2985.706017,-10066.800811,-5107.421000,-3753.867940
2985.706355,-9400.615463,-2220.617826,-3600.648841
2985.706693,-10288.862594,-1258.350101,-2757.943793
2985.707031,-10881.027347,-2220.617826,-2451.505594
2985.707369,-11843.295072,-2294.638420,-2298.286494
2985.707706,-11547.212695,-1998.556043,-1762.019645
2985.708044,-9474.636058,-2072.576638,-1149.143247
2985.708382,-9104.533087,-2960.823768,919.314598
2985.708720,-10807.006753,-3627.009116,1302.362347
2985.709058,-10288.862594,-1406.391290,-1455.581446
2985.709396,-9918.759623,-444.123565,-2451.505594
2985.709733,-10214.842000,-518.144159,-2221.676944
2985.710071,-11029.068536,0.000000,-3217.601092
2985.710409,-11399.171507,222.061783,-3753.867940
2985.710747,-9400.615463,-148.041188,-2834.553343
2985.711085,-8660.409521,-296.082377,-612.876398
2985.711423,-9918.759623,-666.185348,-1455.581446
2985.711760,-10436.903782,-1850.514855,-2987.772442
2985.712098,-10288.862594,-1998.556043,-2451.505594
2985.712436,-8290.306550,-2960.823768,-1915.238745
2985.712774,-8438.347739,-2664.741391,-612.876398
2985.713112,-9178.553681,-2368.659014,995.924147
2985.713450,-9770.718434,-1480.411884,-995.924147
2985.713787,-10214.842000,-1110.308913,-2757.943793
2985.714125,-10807.006753,-2368.659014,-3370.820191
2985.714463,-10066.800811,-2516.700203,-1915.238745
2985.714801,-9696.697840,-2960.823768,-1149.143247
2985.715139,-8586.388927,-2294.638420,-919.314598
2985.715477,-9326.594869,-2590.720797,-1532.190996
2985.715814,-10510.924376,-3256.906145,-536.266849
2985.716152,-10066.800811,-2368.659014,-612.876398
2985.716490,-10140.821405,-2368.659014,689.485948
2985.716828,-11399.171507,-888.247130,919.314598
2985.717166,-11103.089130,-1110.308913,-1915.238745
2985.717504,-12435.459826,-1850.514855,-1838.629195
2985.717841,-10732.986159,-2812.782580,-3677.258390
2985.718179,-10288.862594,-4663.297435,-4136.915689
2985.718517,-9104.533087,-4811.338623,-3600.648841
2985.718855,-8216.285956,-5551.544565,-4596.572988
2985.719193,-9104.533087,-5995.668130,-3983.696590
2985.719531,-8586.388927,-5477.523971,-4519.963438
2985.719868,-9326.594869,-4737.318029,-2221.676944
2985.720206,-9918.759623,-2738.761985,-1532.190996
2985.720544,-10807.006753,-1850.514855,-1072.533697
2985.720882,-11843.295072,-1554.432478,-1608.800546
2985.721220,-11251.130318,-2960.823768,-1532.190996
2985.721558,-11399.171507,-4071.132681,0.000000
2985.721896,-9400.615463,-4737.318029,-1225.752797
2985.722233,-8660.409521,-4589.276840,0.000000
2985.722571,-8216.285956,-4959.379811,-76.609550
2985.722909,-8734.430116,-3701.029710,-459.657299
2985.723247,-9030.512492,-1184.329507,-842.705048
2985.723585,-10436.903782,1258.350101,-1838.629195
2985.723923,-11325.150913,1850.514855,-3064.381992
2985.724260,-12657.521608,1258.350101,-2834.553343
2985.724598,-12583.501014,888.247130,-3064.381992
2985.724936,-9548.656652,-444.123565,-2145.067394
2985.725274,-8290.306550,-1850.514855,-229.828649
2985.725612,-8068.244768,-3404.947333,1072.533697
2985.725950,-9400.615463,-3923.091493,459.657299
2985.726287,-8882.471304,-2590.720797,-919.314598
2985.726625,-9548.656652,-2072.576638,-2221.676944
2985.726963,-10955.047942,-1110.308913,-3983.696590
2985.727301,-11695.253884,-592.164754,-4826.401637
2985.727639,-10214.842000,-1480.411884,-4673.182538
2985.727977,-8142.265362,-1924.535449,-2757.943793
2985.728314,-8512.368333,-2368.659014,-1225.752797
2985.728652,-9696.697840,-2368.659014,153.219100
2985.728990,-9918.759623,-3108.864956,842.705048
2985.729328,-11621.233289,-4219.173869,2451.505594
2985.729666,-11251.130318,-2960.823768,919.314598
2985.730004,-10436.903782,-2368.659014,0.000000
2985.730341,-9178.553681,-2294.638420,459.657299
2985.730679,-8956.491898,-1480.411884,-1302.362347
2985.731017,-9844.739029,296.082377,-1915.238745
2985.731355,-11029.068536,814.226536,-3064.381992
2985.731693,-11399.171507,518.144159,-3447.429741
2985.732031,-11399.171507,-518.144159,-3140.991542
2985.732368,-10436.903782,-2442.679609,-2374.896044
2985.732706,-8882.471304,-3034.844362,995.924147
2985.733044,-9104.533087,-3478.967927,2681.334243
2985.733382,-9918.759623,-2072.576638,919.314598
2985.733720,-10658.965565,-962.267725,-536.266849
2985.734058,-11621.233289,-666.185348,-995.924147
2985.734396,-11621.233289,-962.267725,-766.095498
2985.734733,-10362.883188,-962.267725,-2451.505594
2985.735071,-9252.574275,-74.020594,-1915.238745
2985.735409,-8068.244768,-1184.329507,-842.705048
2985.735747,-7179.997637,-518.144159,459.657299
2985.736085,-8956.491898,0.000000,1225.752797
2985.736423,-11029.068536,1332.370696,1991.848295
2985.736760,-12361.439231,444.123565,766.095498
2985.737098,-11473.192101,0.000000,612.876398
2985.737436,-9474.636058,0.000000,2451.505594
2985.737774,-7920.203579,518.144159,4443.353888
2985.738111,-9178.553681,1554.432478,3370.820191
2985.738449,-10732.986159,2738.761985,76.609550
2985.738787,-11843.295072,1258.350101,-3370.820191
2985.739124,-10436.903782,370.102971,-2834.553343
2985.739462,-9104.533087,-740.205942,-1532.190996
2985.739800,-9326.594869,-1332.370696,536.266849
2985.740137,-9030.512492,-1332.370696,-383.047749
2985.740475,-9474.636058,-1332.370696,-995.924147
2985.740813,-9918.759623,-1554.432478,-1378.971896
2985.741151,-11029.068536,-1998.556043,-306.438199
2985.741488,-11547.212695,-2442.679609,0.000000
2985.741826,-10955.047942,-2738.761985,383.047749
2985.742164,-9844.739029,-1258.350101,612.876398
2985.742501,-9252.574275,-1702.473667,229.828649
2985.742839,-10140.821405,-1258.350101,229.828649
2985.743177,-10732.986159,-1850.514855,229.828649
2985.743514,-10955.047942,-1850.514855,-612.876398
2985.743852,-10436.903782,-1184.329507,536.266849
2985.744190,-9992.780217,-1110.308913,1838.629195
2985.744527,-9252.574275,-888.247130,1762.019645
2985.744865,-9696.697840,-592.164754,1149.143247
2985.745203,-10140.821405,888.247130,766.095498
2985.745541,-10510.924376,1332.370696,306.438199
2985.745878,-10955.047942,148.041188,306.438199
2985.746216,-10214.842000,444.123565,306.438199
2985.746554,-9474.636058,-296.082377,306.438199
2985.746891,-9548.656652,666.185348,612.876398
2985.747229,-9696.697840,222.061783,-383.047749
2985.747567,-9770.718434,666.185348,-842.705048
2985.747904,-9474.636058,-444.123565,-383.047749
2985.748242,-9474.636058,-1184.329507,153.219100
2985.748580,-9474.636058,-592.164754,2145.067394
2985.748917,-9474.636058,518.144159,1838.629195
2985.749255,-9548.656652,814.226536,919.314598
2985.749593,-10140.821405,592.164754,153.219100
2985.749931,-10362.883188,0.000000,536.266849
2985.750268,-10066.800811,-148.041188,919.314598
2985.750606,-9696.697840,-444.123565,2681.334243
2985.750944,-9770.718434,-370.102971,1991.848295
2985.751281,-10732.986159,0.000000,1072.533697
2985.751619,-10362.883188,296.082377,612.876398
2985.751957,-10288.862594,-222.061783,383.047749
2985.752294,-9844.739029,-74.020594,383.047749
2985.752632,-10436.903782,74.020594,0.000000
2985.752970,-10658.965565,-444.123565,76.609550
2985.753307,-9696.697840,-962.267725,0.000000
2985.753645,-10436.903782,-1184.329507,-1225.752797
2985.753983,-10436.903782,-814.226536,-1685.410096
2985.754321,-9992.780217,-2146.597232,-2451.505594
2985.754658,-9178.553681,-3108.864956,-2145.067394
2985.754996,-8438.347739,-4071.132681,-995.924147
2985.755334,-9400.615463,-3923.091493,383.047749
2985.755671,-10066.800811,-2072.576638,-459.657299
2985.756009,-10807.006753,-2294.638420,-919.314598
2985.756347,-9918.759623,-1258.350101,-1762.019645
2985.756684,-10510.924376,-2146.597232,-1149.143247
2985.757022,-10214.842000,-1184.329507,1149.143247
2985.757360,-9326.594869,-740.205942,2221.676944
2985.757697,-10658.965565,-962.267725,1762.019645
2985.758035,-10732.986159,0.000000,1608.800546
2985.758373,-10955.047942,1850.514855,229.828649
2985.758711,-10955.047942,1036.288319,689.485948
2985.759048,-11177.109724,296.082377,1685.410096
2985.759386,-10066.800811,1258.350101,1302.362347
2985.759724,-9918.759623,2812.782580,995.924147
2985.760061,-10214.842000,2442.679609,1762.019645
2985.760399,-10436.903782,2146.597232,-153.219100
2985.760737,-10807.006753,1924.535449,-995.924147
2985.761074,-10066.800811,1110.308913,-536.266849
2985.761412,-8956.491898,592.164754,919.314598
2985.761750,-8512.368333,0.000000,842.705048
2985.762088,-8438.347739,74.020594,76.609550
2985.762425,-9548.656652,0.000000,1072.533697
2985.762763,-10584.944971,592.164754,842.705048
2985.763101,-9992.780217,-814.226536,-1225.752797
2985.763438,-9252.574275,-1628.453072,-383.047749
2985.763776,-8660.409521,-1702.473667,1072.533697
2985.764114,-8586.388927,-1554.432478,536.266849
2985.764451,-8956.491898,-1480.411884,766.095498
2985.764789,-9770.718434,-1258.350101,1762.019645
2985.765127,-10807.006753,-740.205942,1762.019645
2985.765464,-11621.233289,-888.247130,919.314598
2985.765802,-11325.150913,-296.082377,842.705048
2985.766140,-11325.150913,-1554.432478,919.314598
2985.766478,-9770.718434,-1258.350101,459.657299
2985.766815,-9474.636058,-962.267725,306.438199
2985.767153,-10436.903782,-888.247130,-383.047749
2985.767491,-10584.944971,-740.205942,-1378.971896
2985.767828,-12213.398043,-1332.370696,-766.095498
2985.768166,-11473.192101,-1258.350101,-2068.457845
2985.768504,-10214.842000,-1850.514855,-1378.971896
2985.768841,-9622.677246,-1258.350101,-536.266849
2985.769179,-8660.409521,-2072.576638,76.609550
2985.769517,-9548.656652,-1776.494261,766.095498
2985.769854,-10436.903782,-1258.350101,0.000000
2985.770192,-10066.800811,-592.164754,459.657299
2985.770530,-10658.965565,-814.226536,1302.362347
2985.770868,-9844.739029,-888.247130,229.828649
2985.771205,-9104.533087,518.144159,919.314598
2985.771543,-9474.636058,962.267725,689.485948
2985.771881,-9770.718434,74.020594,1532.190996
2985.772218,-10510.924376,740.205942,1455.581446
2985.772556,-9326.594869,1480.411884,1149.143247
2985.772894,-9548.656652,2146.597232,1072.533697
2985.773231,-10214.842000,1258.350101,919.314598
2985.773569,-9696.697840,1776.494261,229.828649
2985.773907,-9770.718434,1184.329507,459.657299
2985.774244,-10510.924376,1776.494261,229.828649
2985.774582,-9770.718434,1332.370696,-306.438199
2985.774920,-9770.718434,592.164754,-229.828649
2985.775258,-9548.656652,0.000000,0.000000
2985.775595,-10066.800811,222.061783,-612.876398
2985.775933,-9770.718434,-592.164754,-995.924147
2985.776271,-9326.594869,-370.102971,-1685.410096
2985.776608,-10288.862594,-2146.597232,-919.314598
2985.776946,-9992.780217,-148.041188,-1072.533697
2985.777284,-9252.574275,-1628.453072,-536.266849
2985.777621,-10510.924376,-1924.535449,766.095498
2985.777959,-9918.759623,-2146.597232,229.828649
2985.778297,-10510.924376,-2220.617826,995.924147
2985.778634,-10955.047942,-1702.473667,1991.848295
2985.778972,-9622.677246,-2072.576638,1608.800546
2985.779310,-10214.842000,-1924.535449,1915.238745
2985.779648,-10436.903782,-888.247130,1378.971896
2985.779985,-10214.842000,222.061783,536.266849
2985.780323,-10955.047942,-814.226536,842.705048
2985.780661,-10658.965565,296.082377,689.485948
2985.780998,-10066.800811,74.020594,0.000000
2985.781336,-10288.862594,518.144159,612.876398
2985.781674,-9696.697840,444.123565,-306.438199
2985.782011,-10288.862594,-444.123565,-612.876398
2985.782349,-10436.903782,-370.102971,0.000000
2985.782687,-9400.615463,-666.185348,-1455.581446
2985.783024,-9252.574275,0.000000,0.000000
2985.783362,-9474.636058,0.000000,0.000000
2985.783700,-9474.636058,296.082377,-919.314598
2985.784038,-9844.739029,518.144159,-766.095498
2985.784375,-9474.636058,296.082377,0.000000
2985.784713,-9474.636058,0.000000,612.876398
2985.785051,-9696.697840,0.000000,1838.629195
2985.785388,-9992.780217,296.082377,2374.896044
2985.785726,-9992.780217,1406.391290,1302.362347
2985.786064,-9992.780217,148.041188,689.485948
2985.786401,-10214.842000,1258.350101,1378.971896
2985.786739,-10436.903782,370.102971,1455.581446
2985.787077,-10362.883188,962.267725,459.657299
2985.787414,-9992.780217,962.267725,76.609550
2985.787752,-9844.739029,740.205942,-306.438199
2985.788090,-8586.388927,962.267725,-1302.362347
2985.788428,-9844.739029,148.041188,76.609550
2985.788765,-10732.986159,0.000000,-612.876398
2985.789103,-10510.924376,-1036.288319,-1072.533697
2985.789441,-10362.883188,-1110.308913,0.000000
2985.789778,-9770.718434,-592.164754,-383.047749
2985.790116,-10436.903782,-740.205942,-766.095498
2985.790454,-10288.862594,-1776.494261,-2068.457845
2985.790791,-9400.615463,-1702.473667,-1225.752797
2985.791129,-9770.718434,-2294.638420,306.438199
2985.791467,-9178.553681,-2738.761985,689.485948
2985.791805,-9252.574275,-1406.391290,1685.410096
2985.792142,-10658.965565,-1184.329507,1608.800546
2985.792480,-11325.150913,-296.082377,1455.581446
2985.792818,-11547.212695,222.061783,1072.533697
2985.793155,-10362.883188,-370.102971,612.876398
2985.793493,-9696.697840,-592.164754,1378.971896
2985.793831,-8734.430116,148.041188,2068.457845
2985.794168,-9474.636058,1036.288319,2451.505594
2985.794506,-10584.944971,2072.576638,919.314598
2985.794844,-10510.924376,2886.803174,-1532.190996
2985.795181,-11399.171507,1776.494261,-766.095498
2985.795519,-10362.883188,370.102971,0.000000
2985.795857,-8586.388927,0.000000,995.924147
2985.796195,-8956.491898,666.185348,1838.629195
2985.796532,-8586.388927,814.226536,995.924147
2985.796870,-10362.883188,1036.288319,-995.924147
2985.797208,-10658.965565,0.000000,-2298.286494
2985.797545,-9030.512492,0.000000,-1838.629195
2985.797883,-9104.533087,-1480.411884,536.266849
2985.798221,-9326.594869,-1110.308913,1225.752797
2985.798558,-8586.388927,-518.144159,383.047749
2985.798896,-9844.739029,-518.144159,0.000000
2985.799234,-10214.842000,-1702.473667,536.266849
2985.799571,-10807.006753,-962.267725,919.314598
2985.799909,-10140.821405,-592.164754,612.876398
2985.800247,-10214.842000,-1480.411884,1225.752797
2985.800585,-9770.718434,-370.102971,1378.971896
2985.800922,-9252.574275,-370.102971,-306.438199
2985.801260,-10584.944971,740.205942,76.609550
2985.801598,-11547.212695,222.061783,-995.924147
2985.801935,-11843.295072,-296.082377,-1378.971896
2985.802273,-11029.068536,-1702.473667,-1072.533697
2985.802611,-9178.553681,-1776.494261,1302.362347
2985.802948,-9770.718434,-592.164754,2757.943793
2985.803286,-11177.109724,-518.144159,383.047749
2985.803624,-10658.965565,0.000000,-1762.019645
2985.803961,-10732.986159,-740.205942,-1838.629195
2985.804299,-10732.986159,-962.267725,-1608.800546
2985.804637,-9474.636058,-1406.391290,-1378.971896
2985.804975,-9474.636058,-888.247130,0.000000
2985.805312,-9178.553681,0.000000,-306.438199
2985.805650,-9104.533087,592.164754,0.000000
2985.805988,-11103.089130,1554.432478,1378.971896
2985.806325,-11621.233289,148.041188,1455.581446
2985.806663,-10436.903782,74.020594,1225.752797
2985.807001,-9548.656652,888.247130,2528.115143
2985.807338,-9030.512492,1480.411884,3370.820191
2985.807676,-8956.491898,1776.494261,1838.629195
2985.808014,-9252.574275,2368.659014,612.876398
2985.808351,-9770.718434,2072.576638,153.219100
2985.808689,-10288.862594,1998.556043,1225.752797
2985.809027,-10510.924376,1924.535449,1302.362347
2985.809365,-10066.800811,2294.638420,689.485948
2985.809702,-10288.862594,1332.370696,0.000000
2985.810040,-9770.718434,518.144159,0.000000
2985.810378,-9030.512492,370.102971,0.000000
2985.810715,-9400.615463,-222.061783,306.438199
2985.811053,-9178.553681,-1554.432478,-612.876398
2985.811391,-9178.553681,-1406.391290,-766.095498
2985.811728,-10214.842000,-814.226536,-383.047749
2985.812066,-10955.047942,-2146.597232,-1302.362347
2985.812404,-10658.965565,-1924.535449,-1149.143247
2985.812741,-10362.883188,-2368.659014,-612.876398
2985.813079,-10288.862594,-2294.638420,536.266849
2985.813417,-9696.697840,-3256.906145,1225.752797
2985.813755,-9548.656652,-1998.556043,2451.505594
2985.814092,-10510.924376,-1702.473667,2451.505594
2985.814430,-11473.192101,-1184.329507,1149.143247
2985.814768,-11843.295072,-370.102971,0.000000
2985.815105,-11621.233289,-1850.514855,459.657299
2985.815443,-10140.821405,-2220.617826,995.924147
2985.815781,-9252.574275,-444.123565,1532.190996
2985.816118,-10436.903782,814.226536,1685.410096
2985.816456,-10066.800811,1184.329507,-919.314598
2985.816794,-10732.986159,0.000000,-1685.410096
2985.817131,-10807.006753,-148.041188,-1302.362347
2985.817469,-9992.780217,-518.144159,0.000000
2985.817807,-10066.800811,-592.164754,1149.143247
2985.818145,-8660.409521,962.267725,306.438199
2985.818482,-9030.512492,888.247130,0.000000
2985.818820,-11103.089130,1332.370696,0.000000
2985.819158,-9622.677246,740.205942,-1302.362347
2985.819495,-9474.636058,222.061783,-766.095498
2985.819833,-9400.615463,-814.226536,919.314598
2985.820171,-8882.471304,74.020594,1838.629195
2985.820508,-9104.533087,1184.329507,1838.629195
2985.820846,-8882.471304,1406.391290,2528.115143
2985.821184,-10658.965565,2146.597232,1991.848295
2985.821522,-11843.295072,1554.432478,612.876398
2985.821859,-10362.883188,1554.432478,459.657299
2985.822197,-10140.821405,740.205942,1455.581446
2985.822535,-10066.800811,222.061783,1685.410096
2985.822872,-9030.512492,1406.391290,0.000000
2985.823210,-9474.636058,1110.308913,-1072.533697
2985.823548,-9992.780217,1110.308913,-766.095498
2985.823885,-10288.862594,-592.164754,-919.314598
2985.824223,-10807.006753,-740.205942,-536.266849
2985.824561,-10140.821405,-1406.391290,0.000000
2985.824898,-10362.883188,-592.164754,-76.609550
2985.825236,-9474.636058,-1480.411884,-995.924147
2985.825574,-9548.656652,-1702.473667,-1838.629195
2985.825912,-9252.574275,-3627.009116,-842.705048
2985.826249,-9030.512492,-3330.926739,76.609550
2985.826587,-9622.677246,-3182.885551,1225.752797
2985.826925,-11251.130318,-1850.514855,1302.362347
2985.827262,-10288.862594,-962.267725,0.000000
2985.827600,-10510.924376,-370.102971,76.609550
2985.827938,-10732.986159,-962.267725,1149.143247
2985.828275,-10288.862594,-1554.432478,842.705048
2985.828613,-9252.574275,-1110.308913,3370.820191
2985.828951,-10807.006753,148.041188,3294.210641
2985.829288,-10955.047942,1110.308913,1455.581446
2985.829626,-11251.130318,1554.432478,689.485948
2985.829964,-10214.842000,1776.494261,-536.266849
2985.830302,-9622.677246,1628.453072,0.000000
2985.830639,-9844.739029,1184.329507,689.485948
2985.830977,-9252.574275,888.247130,229.828649
2985.831315,-9104.533087,1776.494261,383.047749
2985.831652,-9992.780217,2072.576638,-1302.362347
2985.831990,-10584.944971,1776.494261,-919.314598
2985.832328,-9474.636058,1110.308913,-1302.362347
2985.832665,-9178.553681,-962.267725,0.000000
2985.833003,-8512.368333,-518.144159,536.266849
2985.833341,-8808.450710,-888.247130,1838.629195
2985.833678,-9326.594869,222.061783,612.876398
2985.834016,-9474.636058,-148.041188,-1149.143247
2985.834354,-10510.924376,148.041188,-1225.752797
2985.834692,-10510.924376,-888.247130,-995.924147
2985.835029,-9918.759623,-1850.514855,76.609550
2985.835367,-8882.471304,-1850.514855,1608.800546
2985.835705,-9622.677246,-962.267725,2987.772442
2985.836042,-10362.883188,0.000000,2374.896044
2985.836380,-11029.068536,444.123565,842.705048
2985.836718,-12509.480420,-296.082377,1149.143247
2985.837055,-11621.233289,-1110.308913,-229.828649
2985.837393,-10066.800811,-1332.370696,-536.266849
2985.837731,-10288.862594,-888.247130,689.485948
2985.838068,-9474.636058,-370.102971,-306.438199
2985.838406,-9474.636058,-518.144159,-1991.848295
2985.838742,-10807.006753,-1184.329507,-2451.505594
2985.839080,-10214.842000,-1776.494261,-1838.629195
2985.839417,-10140.821405,-2516.700203,-919.314598
2985.839755,-9474.636058,-2442.679609,919.314598
2985.840092,-9696.697840,-1184.329507,1608.800546
2985.840430,-10288.862594,-814.226536,1685.410096
2985.840767,-10584.944971,-740.205942,459.657299
2985.841105,-9844.739029,-592.164754,-306.438199
2985.841442,-10140.821405,-814.226536,1225.752797
2985.841780,-9474.636058,0.000000,919.314598
2985.842117,-9326.594869,-814.226536,1378.971896
2985.842455,-9252.574275,444.123565,1991.848295
2985.842792,-9252.574275,1480.411884,919.314598
2985.843130,-9992.780217,1850.514855,383.047749
2985.843467,-10362.883188,1332.370696,1149.143247
2985.843805,-10140.821405,740.205942,1762.019645
2985.844142,-10214.842000,666.185348,1225.752797
2985.844480,-9844.739029,2072.576638,766.095498
2985.844817,-9474.636058,1998.556043,-689.485948
2985.845155,-10066.800811,1406.391290,-842.705048
2985.845492,-11029.068536,814.226536,-1608.800546
2985.845830,-10510.924376,-222.061783,-1838.629195
2985.846167,-9548.656652,-740.205942,-1378.971896
2985.846505,-9474.636058,-740.205942,-536.266849
2985.846842,-10140.821405,-814.226536,-766.095498
2985.847180,-9252.574275,-814.226536,-459.657299
2985.847517,-10362.883188,-666.185348,0.000000
2985.847855,-11177.109724,-888.247130,-842.705048
2985.848192,-10807.006753,-1480.411884,-1225.752797
2985.848530,-9844.739029,-2220.617826,306.438199
2985.848867,-9252.574275,-1702.473667,1149.143247
2985.849205,-9696.697840,-1332.370696,1762.019645
2985.849542,-11325.150913,-444.123565,1608.800546
2985.849880,-10436.903782,148.041188,612.876398
2985.850217,-10658.965565,-666.185348,536.266849
2985.850555,-11399.171507,-1036.288319,1685.410096
2985.850892,-10510.924376,444.123565,1455.581446
2985.851230,-9548.656652,444.123565,1225.752797
2985.851567,-9696.697840,1110.308913,-536.266849
2985.851905,-9770.718434,962.267725,-1608.800546
2985.852242,-9918.759623,0.000000,-1838.629195
2985.852580,-9474.636058,-740.205942,0.000000
2985.852917,-9400.615463,-296.082377,1225.752797
2985.853255,-10510.924376,444.123565,1762.019645
2985.853592,-10658.965565,-222.061783,229.828649
2985.853930,-9992.780217,-592.164754,0.000000
2985.854267,-9326.594869,-1258.350101,689.485948
2985.854605,-9326.594869,-1850.514855,1838.629195
2985.854942,-9548.656652,-814.226536,1838.629195
2985.855280,-9696.697840,-444.123565,1302.362347
2985.855617,-9992.780217,222.061783,842.705048
2985.855955,-10807.006753,148.041188,689.485948
2985.856292,-10881.027347,740.205942,689.485948
2985.856630,-10436.903782,740.205942,0.000000
2985.856967,-10140.821405,0.000000,995.924147
2985.857305,-10510.924376,148.041188,1762.019645
2985.857642,-9548.656652,0.000000,1072.533697
2985.857980,-9918.759623,0.000000,1685.410096
2985.858317,-11029.068536,-370.102971,229.828649
2985.858655,-10658.965565,-592.164754,-919.314598
2985.858992,-9844.739029,-962.267725,-1302.362347
2985.859330,-9622.677246,-1110.308913,0.000000
2985.859667,-8808.450710,-518.144159,-612.876398
2985.860005,-9178.553681,-962.267725,-1685.410096
2985.860342,-10362.883188,-962.267725,-1685.410096
2985.860680,-10955.047942,-1924.535449,-2145.067394
2985.861017,-10436.903782,-2516.700203,-1838.629195
2985.861355,-9400.615463,-3182.885551,-612.876398
2985.861692,-9622.677246,-2812.782580,76.609550
2985.862030,-9992.780217,-1776.494261,383.047749
2985.862367,-9918.759623,-1850.514855,-689.485948
2985.862705,-10362.883188,-1554.432478,229.828649
2985.863042,-10288.862594,-1480.411884,383.047749
2985.863380,-10881.027347,-1184.329507,1149.143247
2985.863717,-10732.986159,-592.164754,1302.362347
2985.864055,-10214.842000,-814.226536,1685.410096
2985.864392,-9992.780217,740.205942,2374.896044
2985.864730,-9992.780217,1184.329507,1532.190996
2985.865067,-10881.027347,2294.638420,1149.143247
2985.865405,-11029.068536,1406.391290,-536.266849
2985.865742,-10288.862594,1924.535449,-229.828649
2985.866080,-11029.068536,888.247130,766.095498
2985.866417,-9252.574275,888.247130,229.828649
2985.866755,-8734.430116,592.164754,153.219100
2985.867092,-8660.409521,1110.308913,-153.219100
2985.867430,-9474.636058,1184.329507,-689.485948
2985.867767,-9992.780217,888.247130,-689.485948
2985.868105,-10288.862594,-222.061783,-689.485948
2985.868442,-9696.697840,74.020594,0.000000
2985.868780,-9622.677246,-444.123565,306.438199
2985.869117,-9030.512492,0.000000,995.924147
2985.869455,-8956.491898,-740.205942,459.657299
2985.869792,-10288.862594,-1554.432478,919.314598
2985.870130,-9474.636058,-592.164754,459.657299
2985.870467,-10288.862594,-1184.329507,689.485948
2985.870805,-11177.109724,-222.061783,919.314598
2985.871142,-10658.965565,-148.041188,153.219100
2985.871480,-9474.636058,148.041188,229.828649
2985.871817,-9622.677246,-222.061783,459.657299
2985.872155,-11325.150913,-444.123565,919.314598
2985.872492,-11251.130318,-666.185348,536.266849
2985.872830,-11103.089130,-1110.308913,0.000000
2985.873167,-9918.759623,-962.267725,383.047749
2985.873505,-9770.718434,-1110.308913,0.000000
2985.873842,-10362.883188,74.020594,-1225.752797
2985.874180,-10807.006753,-1702.473667,-2145.067394
2985.874517,-10214.842000,-1258.350101,-1302.362347
2985.874855,-10362.883188,-1480.411884,-995.924147
2985.875192,-10658.965565,-1406.391290,153.219100
2985.875530,-11029.068536,-888.247130,459.657299
2985.875867,-9548.656652,-1776.494261,0.000000
2985.876205,-9992.780217,-1480.411884,459.657299
2985.876542,-9918.759623,-1332.370696,1149.143247
2985.876880,-9992.780217,-1258.350101,1991.848295
2985.877217,-9474.636058,-370.102971,306.438199
2985.877555,-9992.780217,518.144159,536.266849
2985.877892,-10955.047942,1036.288319,1302.362347
2985.878230,-9844.739029,1332.370696,306.438199
2985.878567,-9104.533087,1036.288319,1378.971896
2985.878905,-9696.697840,1036.288319,1302.362347
2985.879242,-9326.594869,1036.288319,1608.800546
2985.879580,-9992.780217,1258.350101,1149.143247
2985.879917,-10436.903782,592.164754,612.876398
2985.880255,-9918.759623,666.185348,-229.828649
2985.880592,-10140.821405,148.041188,-76.609550
2985.880930,-9474.636058,-518.144159,-612.876398
2985.881267,-8660.409521,-814.226536,-1378.971896
2985.881605,-8586.388927,-814.226536,-2068.457845
2985.881942,-8956.491898,-1258.350101,-1991.848295
2985.882280,-9770.718434,-1628.453072,-842.705048
2985.882617,-9770.718434,-2072.576638,306.438199
2985.882955,-10584.944971,-2442.679609,612.876398
2985.883292,-11103.089130,-1924.535449,1685.410096
2985.883630,-10732.986159,-1776.494261,842.705048
2985.883967,-11325.150913,-1480.411884,995.924147
2985.884305,-11843.295072,-1406.391290,1225.752797
2985.884642,-11473.192101,-1332.370696,0.000000
2985.884980,-10362.883188,-1554.432478,0.000000
2985.885317,-9548.656652,-1776.494261,612.876398
2985.885655,-10140.821405,0.000000,1762.019645
2985.885992,-10140.821405,-666.185348,536.266849
2985.886330,-10510.924376,222.061783,689.485948
2985.886667,-11177.109724,-814.226536,1378.971896
2985.887005,-11695.253884,-592.164754,919.314598
2985.887342,-8364.327145,-1036.288319,536.266849
2985.887680,-9474.636058,-518.144159,536.266849
2985.888017,-9622.677246,0.000000,0.000000
2985.888355,-8142.265362,-370.102971,-2911.162892
2985.888692,-10140.821405,0.000000,-2451.505594
2985.889030,-9474.636058,888.247130,-2451.505594
2985.889367,-10362.883188,0.000000,-2374.896044
2985.889705,-9474.636058,444.123565,76.609550
2985.890042,-9622.677246,-148.041188,153.219100
2985.890380,-9474.636058,-888.247130,1608.800546
2985.890717,-9918.759623,370.102971,1762.019645
2985.891055,-11177.109724,222.061783,1915.238745
2985.891392,-11325.150913,1036.288319,1532.190996
2985.891730,-9696.697840,666.185348,306.438199
2985.892067,-9770.718434,1776.494261,995.924147
2985.892405,-10881.027347,1406.391290,919.314598
2985.892742,-10140.821405,1554.432478,383.047749
2985.893080,-9252.574275,592.164754,-459.657299
2985.893417,-9548.656652,148.041188,76.609550
2985.893755,-10140.821405,592.164754,229.828649
2985.894092,-10436.903782,-222.061783,0.000000
2985.894430,-9992.780217,148.041188,459.657299
2985.894767,-9548.656652,-518.144159,-995.924147
2985.895105,-10214.842000,-740.205942,0.000000
2985.895442,-9474.636058,-1332.370696,-383.047749
2985.895780,-9252.574275,-1480.411884,-689.485948
2985.896117,-9770.718434,-2590.720797,-766.095498
2985.896455,-10510.924376,-1554.432478,-459.657299
2985.896792,-10362.883188,-1628.453072,-76.609550
2985.897130,-9696.697840,-2294.638420,0.000000
2985.897467,-9770.718434,-2664.741391,1302.362347
2985.897805,-10510.924376,-1406.391290,1455.581446
2985.898142,-10510.924376,-1628.453072,1532.190996
2985.898480,-10362.883188,-666.185348,1378.971896
2985.898817,-10066.800811,-518.144159,1762.019645
2985.899155,-10436.903782,-74.020594,1455.581446
2985.899492,-10807.006753,518.144159,1608.800546
2985.899830,-10584.944971,444.123565,1762.019645
2985.900167,-10510.924376,740.205942,1915.238745
2985.900505,-11325.150913,296.082377,1532.190996
2985.900842,-9844.739029,2220.617826,612.876398
2985.901180,-9178.553681,1776.494261,76.609550
2985.901517,-10140.821405,592.164754,612.876398
2985.901855,-10066.800811,-148.041188,-153.219100
2985.902192,-9696.697840,-148.041188,-536.266849
2985.902530,-9030.512492,0.000000,0.000000
2985.902867,-9474.636058,-666.185348,0.000000
2985.903205,-9474.636058,0.000000,-612.876398
2985.903542,-9548.656652,-592.164754,-1072.533697
2985.903880,-9918.759623,0.000000,-919.314598
2985.904217,-9992.780217,-1184.329507,-1225.752797
2985.904555,-9474.636058,-1036.288319,-689.485948
2985.904892,-8734.430116,-1406.391290,153.219100
2985.905230,-9474.636058,-1258.350101,1225.752797
2985.905567,-10362.883188,-444.123565,1302.362347
2985.905905,-10732.986159,-1332.370696,766.095498
2985.906242,-10436.903782,-666.185348,995.924147
2985.906580,-11029.068536,-518.144159,459.657299
2985.906917,-10436.903782,-370.102971,383.047749
2985.907255,-10881.027347,148.041188,612.876398
2985.907592,-10362.883188,222.061783,-383.047749
2985.907930,-9844.739029,74.020594,-919.314598
2985.908267,-10066.800811,74.020594,-919.314598
2985.908605,-10140.821405,-814.226536,-612.876398
2985.908942,-10066.800811,-1406.391290,-842.705048
2985.909280,-10436.903782,-1554.432478,76.609550
2985.909617,-9474.636058,0.000000,-459.657299
2985.909955,-9474.636058,-592.164754,-1225.752797
2985.910292,-9696.697840,-1628.453072,-689.485948
2985.910630,-9844.739029,-1924.535449,-306.438199
2985.910967,-9844.739029,-888.247130,153.219100
2985.911305,-9252.574275,-962.267725,1762.019645
2985.911642,-9844.739029,-592.164754,2374.896044
2985.911980,-10288.862594,518.144159,1072.533697
2985.912317,-10807.006753,-74.020594,689.485948
2985.912655,-9918.759623,296.082377,1532.190996
2985.912992,-10214.842000,296.082377,1991.848295
2985.913330,-10066.800811,888.247130,2221.676944
2985.913667,-9548.656652,962.267725,1532.190996
2985.914005,-10288.862594,1554.432478,2145.067394
2985.914342,-10510.924376,1776.494261,1072.533697
2985.914680,-9992.780217,1850.514855,383.047749
2985.915017,-9622.677246,2294.638420,536.266849
2985.915355,-10955.047942,814.226536,383.047749
2985.915692,-9992.780217,296.082377,-306.438199
2985.916030,-10066.800811,0.000000,689.485948
2985.916367,-10584.944971,1036.288319,383.047749
2985.916705,-9474.636058,-370.102971,-919.314598
2985.917042,-9992.780217,-888.247130,-1532.190996
2985.917380,-8808.450710,-1924.535449,-1225.752797
2985.917717,-8808.450710,-2368.659014,-383.047749
2985.918055,-8808.450710,-1850.514855,229.828649
2985.918392,-9918.759623,-1258.350101,-1072.533697
2985.918730,-10140.821405,-1406.391290,-612.876398
2985.919067,-10362.883188,-962.267725,229.828649
2985.919405,-9918.759623,-1776.494261,689.485948
2985.919742,-10732.986159,-1702.473667,1915.238745
2985.920080,-10584.944971,-1406.391290,1915.238745
2985.920417,-9918.759623,-1480.411884,1685.410096
2985.920755,-9844.739029,148.041188,1532.190996
2985.921092,-10510.924376,74.020594,842.705048
2985.921430,-10732.986159,888.247130,-306.438199
2985.921767,-10955.047942,0.000000,-1149.143247
2985.922105,-10066.800811,814.226536,-1225.752797
2985.922442,-9474.636058,518.144159,0.000000
2985.922780,-10362.883188,1110.308913,689.485948
2985.923117,-11103.089130,888.247130,383.047749
2985.923455,-11251.130318,0.000000,-842.705048
2985.923792,-10288.862594,74.020594,-1225.752797
2985.924130,-9622.677246,-1184.329507,-306.438199
2985.924467,-8882.471304,-1924.535449,1532.190996
2985.924805,-8290.306550,-1480.411884,919.314598
2985.925142,-9104.533087,0.000000,536.266849
2985.925480,-9548.656652,296.082377,-306.438199
2985.925817,-9474.636058,0.000000,-766.095498
2985.926155,-9770.718434,-1332.370696,766.095498
2985.926492,-9178.553681,-740.205942,612.876398
2985.926830,-8956.491898,518.144159,2987.772442
2985.927167,-9770.718434,962.267725,2834.553343
2985.927505,-10066.800811,1332.370696,1915.238745
2985.927842,-12213.398043,1184.329507,1149.143247
2985.928180,-11029.068536,592.164754,-229.828649
2985.928517,-10362.883188,296.082377,536.266849
2985.928855,-10288.862594,222.061783,1225.752797
2985.929192,-9622.677246,1332.370696,229.828649
2985.929530,-9474.636058,1110.308913,-1455.581446
2985.929867,-11251.130318,-148.041188,-1149.143247
2985.930205,-10732.986159,-222.061783,-1378.971896
2985.930542,-10732.986159,-1480.411884,-919.314598
2985.930880,-9622.677246,-1628.453072,-229.828649
2985.931217,-9548.656652,-1850.514855,0.000000
2985.931555,-9844.739029,-1776.494261,-383.047749
2985.931892,-9548.656652,-2146.597232,-1608.800546
2985.932230,-9474.636058,-1998.556043,-1608.800546
2985.932567,-9622.677246,-1258.350101,-1762.019645
2985.932905,-10288.862594,-2738.761985,-1302.362347
2985.933242,-9696.697840,-2516.700203,459.657299
2985.933580,-9326.594869,-2220.617826,1532.190996
2985.933917,-9474.636058,-666.185348,2911.162892
2985.934255,-10658.965565,0.000000,2068.457845
2985.934592,-10807.006753,148.041188,1762.019645
2985.934930,-11029.068536,0.000000,1455.581446
2985.935267,-10214.842000,0.000000,1532.190996
2985.935605,-11103.089130,1702.473667,1532.190996
2985.935942,-10214.842000,1776.494261,0.000000
2985.936280,-9992.780217,1924.535449,-1378.971896
2985.936617,-9252.574275,1776.494261,-1378.971896
2985.936954,-9918.759623,2072.576638,-1225.752797
2985.937292,-10066.800811,444.123565,0.000000
2985.937629,-9622.677246,814.226536,-306.438199
2985.937966,-10288.862594,1480.411884,153.219100
2985.938303,-10288.862594,1258.350101,-536.266849
2985.938640,-9252.574275,518.144159,229.828649
2985.938978,-9770.718434,-370.102971,612.876398
2985.939315,-9474.636058,-814.226536,0.000000
2985.939652,-9844.739029,0.000000,919.314598
2985.939989,-9400.615463,-518.144159,1149.143247
2985.940327,-8512.368333,0.000000,1838.629195
2985.940664,-10214.842000,0.000000,2374.896044
2985.941001,-10807.006753,592.164754,1378.971896
2985.941338,-9918.759623,74.020594,306.438199
2985.941676,-9992.780217,-814.226536,229.828649
2985.942013,-9474.636058,0.000000,689.485948
2985.942350,-9474.636058,222.061783,1302.362347
2985.942687,-10066.800811,666.185348,459.657299
2985.943025,-10955.047942,740.205942,-1149.143247
2985.943362,-11325.150913,-74.020594,-995.924147
2985.943699,-9622.677246,-518.144159,-919.314598
2985.944036,-9252.574275,-1110.308913,842.705048
2985.944374,-10955.047942,-444.123565,1915.238745
2985.944711,-10807.006753,0.000000,0.000000
2985.945048,-10658.965565,-296.082377,-1608.800546
2985.945385,-10732.986159,-1258.350101,-1685.410096
2985.945723,-10658.965565,-1258.350101,-1149.143247
2985.946060,-9474.636058,-2812.782580,-383.047749
2985.946397,-8808.450710,-1332.370696,383.047749
2985.946734,-8216.285956,-1480.411884,1149.143247
2985.947071,-9474.636058,-222.061783,766.095498
2985.947409,-10362.883188,-222.061783,995.924147
2985.947746,-11917.315666,-1184.329507,1455.581446
2985.948083,-10066.800811,-518.144159,2068.457845
2985.948420,-9696.697840,-148.041188,2757.943793
2985.948758,-10510.924376,-370.102971,3753.867940
2985.949095,-9030.512492,814.226536,1991.848295
2985.949432,-9030.512492,1184.329507,1378.971896
2985.949769,-10362.883188,1406.391290,229.828649
2985.950107,-10807.006753,1406.391290,-766.095498
2985.950444,-10510.924376,222.061783,-1072.533697
2985.950781,-9400.615463,1184.329507,-766.095498
2985.951118,-8882.471304,1406.391290,-919.314598
2985.951456,-10066.800811,1480.411884,-766.095498
2985.951793,-10362.883188,1110.308913,-2374.896044
2985.952130,-10288.862594,0.000000,-2145.067394
2985.952467,-10510.924376,-814.226536,-1838.629195
2985.952805,-10066.800811,-2220.617826,-612.876398
2985.953142,-9326.594869,-2368.659014,1225.752797
2985.953479,-9104.533087,-1184.329507,1915.238745
2985.953816,-9400.615463,-296.082377,383.047749
2985.954154,-10584.944971,0.000000,-842.705048
2985.954491,-11177.109724,-888.247130,-689.485948
2985.954828,-11177.109724,-2368.659014,-306.438199
2985.955165,-9696.697840,-1480.411884,1225.752797
2985.955503,-8956.491898,-296.082377,2145.067394
2985.955840,-9770.718434,0.000000,1149.143247
2985.956177,-10362.883188,148.041188,0.000000
2985.956514,-10510.924376,0.000000,0.000000
2985.956851,-9548.656652,-296.082377,0.000000
2985.957189,-9844.739029,-1406.391290,1608.800546
2985.957526,-10510.924376,0.000000,1532.190996
2985.957863,-9844.739029,592.164754,383.047749
2985.958200,-10214.842000,814.226536,-153.219100
2985.958538,-10658.965565,962.267725,229.828649
2985.958875,-10807.006753,370.102971,-995.924147
2985.959212,-10362.883188,-518.144159,-1455.581446
2985.959549,-10140.821405,-740.205942,-229.828649
2985.959887,-9548.656652,0.000000,306.438199
2985.960224,-9696.697840,222.061783,76.609550
2985.960561,-10140.821405,0.000000,689.485948
2985.960898,-9622.677246,-296.082377,229.828649
2985.961236,-9770.718434,-592.164754,995.924147
2985.961573,-10214.842000,-296.082377,2987.772442
2985.961910,-10066.800811,0.000000,2681.334243
2985.962247,-9844.739029,444.123565,2298.286494
2985.962585,-10214.842000,592.164754,842.705048
2985.962922,-9918.759623,1480.411884,383.047749
2985.963259,-9696.697840,888.247130,612.876398
2985.963596,-9992.780217,-370.102971,76.609550
2985.963934,-9474.636058,814.226536,612.876398
2985.964271,-9844.739029,444.123565,0.000000
2985.964608,-9918.759623,-222.061783,-1378.971896
2985.964945,-9474.636058,-296.082377,-1762.019645
2985.965282,-9474.636058,-444.123565,-995.924147
2985.965620,-9400.615463,-666.185348,-1072.533697
2985.965957,-10066.800811,-1554.432478,-383.047749
2985.966294,-11473.192101,-1554.432478,-459.657299
2985.966631,-10436.903782,-1628.453072,-229.828649
2985.966969,-10732.986159,-1480.411884,-306.438199
2985.967306,-9548.656652,-2146.597232,0.000000
2985.967643,-10140.821405,-2664.741391,383.047749
2985.967980,-10066.800811,-2516.700203,612.876398
2985.968318,-10214.842000,-2664.741391,1072.533697
2985.968655,-10140.821405,-1110.308913,1302.362347
2985.968992,-11251.130318,-592.164754,995.924147
2985.969329,-10807.006753,-296.082377,919.314598
2985.969667,-9770.718434,592.164754,1302.362347
2985.970004,-9474.636058,-74.020594,1685.410096
2985.970341,-10288.862594,-370.102971,2298.286494
2985.970678,-10732.986159,222.061783,1838.629195
2985.971016,-10436.903782,666.185348,766.095498
2985.971353,-10510.924376,1406.391290,229.828649
2985.971690,-9918.759623,1924.535449,-612.876398
2985.972027,-9696.697840,1258.350101,-995.924147
2985.972365,-9252.574275,740.205942,-919.314598
2985.972702,-9252.574275,888.247130,-612.876398
2985.973039,-9548.656652,1702.473667,-766.095498
2985.973376,-10807.006753,888.247130,0.000000
2985.973713,-10658.965565,518.144159,-919.314598
2985.974051,-9918.759623,0.000000,-383.047749
2985.974388,-9178.553681,-666.185348,0.000000
2985.974725,-8956.491898,-592.164754,842.705048
2985.975062,-9326.594869,-666.185348,1149.143247
2985.975400,-9770.718434,-740.205942,689.485948
2985.975737,-10066.800811,0.000000,0.000000
2985.976074,-10658.965565,0.000000,229.828649
2985.976411,-9770.718434,0.000000,-689.485948
2985.976749,-9400.615463,-1184.329507,153.219100
2985.977086,-9178.553681,-666.185348,1149.143247
2985.977423,-8734.430116,222.061783,995.924147
2985.977760,-10658.965565,-370.102971,1532.190996
2985.978098,-11029.068536,-222.061783,76.609550
2985.978435,-10881.027347,0.000000,-919.314598
2985.978772,-11621.233289,-666.185348,-689.485948
2985.979109,-10510.924376,-1036.288319,-383.047749
2985.979447,-8512.368333,-1258.350101,-842.705048
2985.979784,-9252.574275,-814.226536,-306.438199
2985.980121,-10066.800811,-666.185348,-1225.752797
2985.980458,-10955.047942,-962.267725,-2374.896044
2985.980796,-11177.109724,-2664.741391,-1149.143247
2985.981133,-10955.047942,-2738.761985,306.438199
2985.981470,-9992.780217,-2072.576638,1532.190996
2985.981807,-9918.759623,-1036.288319,1685.410096
2985.982145,-9252.574275,-1110.308913,2221.676944
2985.982482,-10066.800811,-666.185348,2145.067394
2985.982819,-11399.171507,296.082377,1608.800546
2985.983156,-10584.944971,0.000000,459.657299
2985.983493,-10584.944971,0.000000,1378.971896
2985.983831,-9844.739029,740.205942,2068.457845
2985.984168,-8660.409521,962.267725,1532.190996
2985.984505,-8068.244768,2072.576638,1532.190996
2985.984842,-9252.574275,2738.761985,612.876398
2985.985180,-11251.130318,2072.576638,0.000000
2985.985517,-10732.986159,2072.576638,-1149.143247
2985.985854,-9400.615463,1554.432478,-766.095498
2985.986191,-9400.615463,666.185348,0.000000
2985.986529,-9252.574275,1036.288319,-612.876398
2985.986866,-9622.677246,888.247130,-612.876398
2985.987203,-9252.574275,518.144159,-76.609550
2985.987540,-9400.615463,-296.082377,-1302.362347
2985.987878,-10807.006753,-592.164754,153.219100
2985.988215,-10881.027347,-962.267725,-459.657299
2985.988552,-9622.677246,-1406.391290,-306.438199
2985.988889,-10288.862594,-1258.350101,-383.047749
2985.989227,-9696.697840,-592.164754,-689.485948
2985.989564,-9622.677246,-1702.473667,76.609550
2985.989901,-10436.903782,-2146.597232,612.876398
2985.990238,-9622.677246,-1258.350101,919.314598
2985.990576,-10955.047942,-1554.432478,1532.190996
2985.990913,-11103.089130,-1258.350101,1378.971896
2985.991250,-10510.924376,-814.226536,1455.581446
2985.991587,-10881.027347,-444.123565,842.705048
2985.991924,-10436.903782,-444.123565,842.705048
2985.992262,-9844.739029,-888.247130,76.609550
2985.992599,-9918.759623,-1036.288319,76.609550
2985.992936,-10362.883188,-962.267725,-383.047749
2985.993273,-9918.759623,-1036.288319,459.657299
2985.993611,-9474.636058,-1110.308913,-383.047749
2985.993948,-8956.491898,-888.247130,-919.314598
2985.994285,-9548.656652,-370.102971,-842.705048
2985.994622,-10510.924376,-444.123565,-1378.971896
2985.994960,-10510.924376,-1628.453072,-1608.800546
2985.995297,-10066.800811,-1036.288319,383.047749
2985.995634,-9474.636058,-222.061783,1838.629195
2985.995971,-9622.677246,-592.164754,1991.848295
2985.996309,-9474.636058,-296.082377,1455.581446
2985.996646,-9696.697840,-1184.329507,2681.334243
2985.996983,-10807.006753,-518.144159,2374.896044
2985.997320,-9844.739029,592.164754,153.219100
2985.997658,-9918.759623,1184.329507,536.266849
2985.997995,-10658.965565,1776.494261,76.609550
2985.998332,-9474.636058,1036.288319,-919.314598
2985.998669,-9770.718434,1850.514855,383.047749
2985.999007,-10214.842000,1480.411884,76.609550
2985.999344,-9770.718434,518.144159,-612.876398
2985.999681,-10436.903782,814.226536,-459.657299
2986.000018,-9770.718434,0.000000,-383.047749
2986.000356,-9992.780217,-592.164754,536.266849
2986.000693,-10140.821405,0.000000,459.657299
2986.001030,-9474.636058,0.000000,-766.095498
2986.001367,-10214.842000,-296.082377,-919.314598
2986.001704,-10807.006753,-666.185348,-1915.238745
2986.002042,-9770.718434,-1406.391290,-2068.457845
2986.002379,-10362.883188,-1480.411884,-919.314598
2986.002716,-9252.574275,-2368.659014,-153.219100
2986.003053,-9030.512492,-1776.494261,0.000000
2986.003391,-9622.677246,-1850.514855,612.876398
2986.003728,-10066.800811,-2368.659014,842.705048
2986.004065,-11473.192101,-1554.432478,1762.019645
2986.004402,-10658.965565,-962.267725,1685.410096
2986.004740,-10732.986159,0.000000,1915.238745
2986.005077,-10732.986159,0.000000,2298.286494
2986.005414,-9474.636058,666.185348,2298.286494
2986.005751,-9474.636058,1036.288319,1149.143247
2986.006089,-10732.986159,888.247130,536.266849
2986.006426,-10881.027347,1406.391290,0.000000
2986.006763,-11251.130318,814.226536,0.000000
2986.007100,-10214.842000,666.185348,76.609550
2986.007438,-10584.944971,1702.473667,1072.533697
2986.007775,-9548.656652,592.164754,-76.609550
2986.008112,-8808.450710,-518.144159,-612.876398
2986.008449,-9400.615463,-814.226536,766.095498
2986.008787,-9474.636058,-1332.370696,842.705048
2986.009124,-9474.636058,-518.144159,306.438199
2986.009461,-9474.636058,-444.123565,459.657299
2986.009798,-9474.636058,444.123565,76.609550
2986.010135,-10584.944971,-222.061783,-229.828649
2986.010473,-10436.903782,-592.164754,-76.609550
2986.010810,-9622.677246,-1480.411884,0.000000
2986.011147,-10436.903782,-1480.411884,1685.410096
2986.011484,-9992.780217,-592.164754,1072.533697
2986.011822,-9252.574275,-370.102971,842.705048
2986.012159,-9696.697840,-444.123565,1072.533697
2986.012496,-9548.656652,-1110.308913,536.266849
2986.012833,-9918.759623,148.041188,0.000000
2986.013171,-10732.986159,296.082377,306.438199
2986.013508,-11769.274478,-370.102971,229.828649
2986.013845,-11621.233289,-148.041188,-536.266849
2986.014182,-10658.965565,0.000000,-842.705048
2986.014520,-9474.636058,-962.267725,-919.314598
2986.014857,-9326.594869,-1628.453072,-689.485948
2986.015194,-10732.986159,-1480.411884,-919.314598
2986.015531,-10436.903782,-2072.576638,-1302.362347
2986.015869,-9844.739029,-1776.494261,-995.924147
2986.016206,-10066.800811,-1184.329507,-1225.752797
2986.016543,-10140.821405,-592.164754,-842.705048
2986.016880,-10436.903782,-2368.659014,-306.438199
2986.017218,-9474.636058,-1924.535449,842.705048
2986.017555,-9548.656652,-1702.473667,2374.896044
2986.017892,-10436.903782,-740.205942,2145.067394
2986.018229,-9844.739029,-296.082377,1915.238745
2986.018566,-9696.697840,370.102971,919.314598
2986.018904,-10510.924376,592.164754,153.219100
2986.019241,-9326.594869,444.123565,153.219100
2986.019578,-9622.677246,666.185348,919.314598
2986.019915,-9770.718434,444.123565,459.657299
2986.020253,-9474.636058,2516.700203,459.657299
2986.020590,-10436.903782,2738.761985,229.828649
2986.020927,-10288.862594,1850.514855,-459.657299
2986.021264,-10436.903782,1184.329507,-383.047749
2986.021602,-9770.718434,888.247130,-1225.752797
2986.021939,-9104.533087,74.020594,-153.219100
2986.022276,-9474.636058,0.000000,229.828649
2986.022613,-9548.656652,-1036.288319,-229.828649
2986.022951,-10436.903782,-592.164754,-383.047749
2986.023288,-9696.697840,-370.102971,-1072.533697
2986.023625,-10066.800811,-740.205942,-995.924147
2986.023962,-9992.780217,-1480.411884,-536.266849
2986.024300,-8956.491898,-1480.411884,153.219100
2986.024637,-9622.677246,-1554.432478,919.314598
2986.024974,-10807.006753,-1036.288319,1302.362347
2986.025311,-9992.780217,-592.164754,766.095498
2986.025649,-9622.677246,-1184.329507,919.314598
2986.025986,-10807.006753,-1554.432478,1608.800546
2986.026323,-10066.800811,-1924.535449,1378.971896
2986.026660,-10066.800811,-1628.453072,2681.334243
2986.026998,-9844.739029,0.000000,2221.676944
2986.027335,-10066.800811,666.185348,76.609550
2986.027672,-10732.986159,814.226536,-383.047749
2986.028009,-11251.130318,0.000000,-995.924147
2986.028346,-9696.697840,-814.226536,-766.095498
2986.028684,-8808.450710,-592.164754,612.876398
2986.029021,-10436.903782,296.082377,1225.752797
2986.029358,-11103.089130,-444.123565,-459.657299
2986.029695,-10510.924376,-296.082377,-1455.581446
2986.030033,-10066.800811,-740.205942,-153.219100
2986.030370,-9326.594869,-1776.494261,-306.438199
2986.030707,-9178.553681,-888.247130,536.266849
2986.031044,-8956.491898,-740.205942,919.314598
2986.031382,-9844.739029,-296.082377,1149.143247
2986.031719,-10066.800811,962.267725,459.657299
2986.032056,-10140.821405,1776.494261,383.047749
2986.032393,-10214.842000,888.247130,612.876398
2986.032731,-10658.965565,0.000000,229.828649
2986.033068,-9474.636058,0.000000,1072.533697
2986.033405,-8734.430116,1406.391290,1838.629195
2986.033742,-9104.533087,1628.453072,1532.190996
2986.034080,-10214.842000,2368.659014,229.828649
2986.034417,-11251.130318,1184.329507,-766.095498
2986.034754,-11325.150913,370.102971,-766.095498
2986.035091,-9770.718434,-444.123565,-536.266849
2986.035429,-8512.368333,-1184.329507,153.219100
2986.035766,-8660.409521,-370.102971,919.314598
2986.036103,-9400.615463,-370.102971,-612.876398
2986.036440,-9918.759623,74.020594,-1762.019645
2986.036777,-10955.047942,-1850.514855,-1762.019645
2986.037115,-10955.047942,-2442.679609,-1455.581446
2986.037452,-10362.883188,-2738.761985,-1225.752797
2986.037789,-9178.553681,-2516.700203,229.828649
2986.038127,-9326.594869,-2146.597232,1072.533697
2986.038464,-9548.656652,-1850.514855,536.266849
2986.038801,-10362.883188,-1998.556043,842.705048
2986.039139,-11251.130318,-1850.514855,536.266849
2986.039476,-10955.047942,-1850.514855,842.705048
2986.039813,-10214.842000,-1332.370696,2451.505594
2986.040151,-9770.718434,-370.102971,2221.676944
2986.040488,-9918.759623,0.000000,1991.848295
2986.040825,-10510.924376,888.247130,1378.971896
2986.041163,-10288.862594,592.164754,229.828649
2986.041500,-10066.800811,592.164754,306.438199
2986.041837,-10214.842000,888.247130,1149.143247
2986.042175,-9770.718434,1480.411884,0.000000
2986.042512,-10584.944971,1776.494261,0.000000
2986.042849,-10436.903782,1480.411884,-459.657299
2986.043187,-8808.450710,518.144159,-995.924147
2986.043524,-9548.656652,-444.123565,306.438199
2986.043861,-9474.636058,-888.247130,1225.752797
2986.044199,-9622.677246,-814.226536,1685.410096
2986.044536,-10140.821405,296.082377,1225.752797
2986.044873,-9918.759623,1036.288319,-229.828649
2986.045211,-10436.903782,1036.288319,-76.609550
2986.045548,-9844.739029,0.000000,-995.924147
2986.045885,-9326.594869,-962.267725,-536.266849
2986.046223,-9622.677246,-740.205942,76.609550
2986.046560,-9474.636058,444.123565,1072.533697
2986.046897,-10066.800811,370.102971,919.314598
2986.047235,-10510.924376,148.041188,306.438199
2986.047572,-10510.924376,814.226536,306.438199
2986.047909,-11029.068536,-74.020594,689.485948
2986.048247,-9992.780217,0.000000,536.266849
2986.048584,-9844.739029,-444.123565,1608.800546
2986.048921,-10807.006753,888.247130,1149.143247
2986.049259,-9918.759623,222.061783,-842.705048
2986.049596,-11029.068536,888.247130,-1455.581446
2986.049933,-9844.739029,-740.205942,-2374.896044
2986.050271,-9252.574275,-1850.514855,-2221.676944
2986.050608,-9548.656652,-1480.411884,-1225.752797
2986.050945,-9474.636058,-2368.659014,-842.705048
2986.051283,-9992.780217,-1258.350101,-76.609550
2986.051620,-10140.821405,-1924.535449,-306.438199
2986.051957,-10214.842000,-666.185348,0.000000
2986.052295,-9918.759623,-1332.370696,995.924147
2986.052632,-9918.759623,-1702.473667,1915.238745
2986.052969,-10288.862594,-1184.329507,3064.381992
2986.053307,-11029.068536,-1258.350101,2604.724693
2986.053644,-10362.883188,814.226536,1685.410096
2986.053981,-10214.842000,518.144159,1378.971896
2986.054319,-10140.821405,296.082377,2068.457845
2986.054656,-9622.677246,-444.123565,919.314598
2986.054993,-9548.656652,74.020594,1378.971896
2986.055331,-9252.574275,666.185348,995.924147
2986.055668,-9622.677246,1480.411884,1378.971896
2986.056005,-10584.944971,1258.350101,1072.533697
2986.056343,-10955.047942,1406.391290,-383.047749
2986.056680,-10362.883188,-444.123565,-153.219100
2986.057017,-9474.636058,222.061783,153.219100
2986.057355,-9548.656652,-1406.391290,612.876398
2986.057692,-9770.718434,-518.144159,612.876398
2986.058029,-9400.615463,-296.082377,-1149.143247
2986.058367,-10288.862594,-740.205942,-919.314598
2986.058704,-10066.800811,-2146.597232,-1072.533697
2986.059041,-9326.594869,-2220.617826,-1225.752797
2986.059379,-9252.574275,-1554.432478,0.000000
2986.059716,-10140.821405,-1554.432478,0.000000
2986.060053,-10140.821405,0.000000,0.000000
2986.060391,-10510.924376,-444.123565,0.000000
2986.060728,-10955.047942,-296.082377,153.219100
2986.061065,-11399.171507,-1110.308913,383.047749
2986.061403,-10510.924376,-1258.350101,1378.971896
2986.061740,-10214.842000,-740.205942,2451.505594
2986.062077,-9696.697840,74.020594,1378.971896
2986.062415,-10658.965565,1258.350101,766.095498
2986.062752,-10881.027347,592.164754,-1608.800546
2986.063089,-10436.903782,444.123565,-2757.943793
2986.063427,-9992.780217,-518.144159,-1685.410096
2986.063764,-8882.471304,0.000000,-1072.533697
2986.064101,-8956.491898,-370.102971,153.219100
2986.064439,-9548.656652,296.082377,459.657299
2986.064776,-9770.718434,222.061783,-459.657299
2986.065113,-10955.047942,74.020594,0.000000
2986.065451,-10658.965565,-592.164754,995.924147
2986.065788,-9696.697840,-1110.308913,995.924147
2986.066125,-9696.697840,-740.205942,1762.019645
2986.066463,-9548.656652,1406.391290,995.924147
2986.066800,-10510.924376,962.267725,76.609550
2986.067137,-9770.718434,1332.370696,-459.657299
2986.067475,-8882.471304,1776.494261,842.705048
2986.067812,-10584.944971,1258.350101,2528.115143
2986.068149,-10955.047942,1850.514855,2068.457845
2986.068487,-10658.965565,1406.391290,1072.533697
2986.068824,-9696.697840,2442.679609,1455.581446
2986.069161,-9844.739029,1628.453072,1915.238745
2986.069499,-10881.027347,1776.494261,1991.848295
2986.069836,-10066.800811,296.082377,306.438199
2986.070173,-10584.944971,148.041188,459.657299
2986.070511,-9770.718434,0.000000,612.876398
2986.070848,-8956.491898,148.041188,-306.438199
2986.071185,-9474.636058,74.020594,-383.047749
2986.071523,-10436.903782,-1258.350101,-1915.238745
2986.071860,-9474.636058,-962.267725,-2451.505594
2986.072197,-9178.553681,-2516.700203,-1532.190996
2986.072535,-9474.636058,-2516.700203,383.047749
2986.072872,-10510.924376,-2516.700203,383.047749
2986.073209,-11029.068536,-2294.638420,0.000000
2986.073547,-10510.924376,-2146.597232,153.219100
2986.073884,-9326.594869,-2590.720797,536.266849
2986.074221,-9696.697840,-2220.617826,1149.143247
2986.074559,-9992.780217,-2886.803174,1762.019645
2986.074896,-11251.130318,-1110.308913,1532.190996
2986.075233,-11029.068536,0.000000,919.314598
2986.075571,-11251.130318,-296.082377,1225.752797
2986.075908,-10436.903782,0.000000,1149.143247
2986.076245,-10658.965565,518.144159,1455.581446
2986.076583,-10362.883188,0.000000,1149.143247
2986.076920,-10584.944971,518.144159,536.266849
2986.077257,-10436.903782,0.000000,689.485948
2986.077595,-8882.471304,888.247130,76.609550
2986.077932,-9622.677246,-222.061783,0.000000
2986.078270,-10732.986159,0.000000,-229.828649
2986.078607,-9918.759623,-444.123565,-1378.971896
2986.078944,-9178.553681,148.041188,-459.657299
2986.079282,-8068.244768,0.000000,-536.266849
2986.079619,-9326.594869,0.000000,-919.314598
2986.079956,-10066.800811,0.000000,-536.266849
2986.080294,-9474.636058,-518.144159,-766.095498
2986.080631,-8882.471304,444.123565,-689.485948
2986.080968,-8808.450710,-888.247130,459.657299
2986.081306,-9844.739029,-666.185348,1915.238745
2986.081643,-10214.842000,-518.144159,1838.629195
2986.081980,-10955.047942,222.061783,1608.800546
2986.082318,-10881.027347,592.164754,1532.190996
2986.082655,-10066.800811,0.000000,689.485948
2986.082992,-10140.821405,370.102971,612.876398
2986.083330,-9770.718434,-888.247130,-306.438199
2986.083667,-9696.697840,370.102971,-306.438199
2986.084004,-10066.800811,370.102971,-536.266849
2986.084342,-9992.780217,0.000000,-1072.533697
2986.084679,-10510.924376,740.205942,-995.924147
2986.085016,-11399.171507,-222.061783,-1302.362347
2986.085354,-11325.150913,-1036.288319,0.000000
2986.085691,-10214.842000,-962.267725,229.828649
2986.086028,-9918.759623,-296.082377,153.219100
2986.086366,-10658.965565,-1480.411884,0.000000
2986.086703,-9696.697840,-1702.473667,0.000000
2986.087040,-9770.718434,-1184.329507,383.047749
2986.087378,-9918.759623,-1332.370696,842.705048
2986.087715,-9474.636058,-1184.329507,689.485948
2986.088052,-10140.821405,-888.247130,1225.752797
2986.088390,-9918.759623,-666.185348,1762.019645
2986.088727,-10066.800811,0.000000,1608.800546
2986.089064,-9844.739029,592.164754,1762.019645
2986.089402,-9548.656652,1332.370696,1378.971896
2986.089739,-9548.656652,962.267725,1072.533697
2986.090076,-10066.800811,1110.308913,2145.067394
2986.090414,-9622.677246,1184.329507,2604.724693
2986.090751,-9474.636058,1406.391290,2221.676944
2986.091088,-10584.944971,1924.535449,2374.896044
2986.091426,-10732.986159,2146.597232,612.876398
2986.091763,-10362.883188,2146.597232,-612.876398
2986.092100,-10140.821405,1184.329507,-689.485948
2986.092438,-9770.718434,1850.514855,-1991.848295
2986.092775,-9030.512492,74.020594,-2298.286494
2986.093112,-9178.553681,518.144159,-1991.848295
2986.093450,-9326.594869,-888.247130,-1685.410096
2986.093787,-10288.862594,-74.020594,-995.924147
2986.094124,-10140.821405,-1258.350101,-306.438199
2986.094462,-10436.903782,-1776.494261,0.000000
2986.094799,-10066.800811,-1628.453072,-306.438199
2986.095136,-10140.821405,-2072.576638,536.266849
2986.095474,-10140.821405,-1258.350101,1532.190996
2986.095811,-10510.924376,-888.247130,612.876398
2986.096148,-10658.965565,-888.247130,383.047749
2986.096486,-9548.656652,-148.041188,229.828649
2986.096823,-10362.883188,-1184.329507,842.705048
2986.097160,-10140.821405,-1628.453072,842.705048
2986.097498,-9548.656652,-1332.370696,459.657299
2986.097835,-10436.903782,-1258.350101,1149.143247
2986.098172,-10140.821405,-370.102971,229.828649
2986.098510,-9992.780217,-370.102971,0.000000
2986.098847,-10362.883188,-592.164754,689.485948
2986.099184,-9844.739029,-1184.329507,153.219100
2986.099522,-10066.800811,-222.061783,689.485948
2986.099859,-10807.006753,-444.123565,229.828649
2986.100196,-11029.068536,-1036.288319,-153.219100
2986.100534,-10214.842000,-1332.370696,-383.047749
2986.100871,-9622.677246,-1184.329507,153.219100
2986.101208,-8956.491898,-740.205942,229.828649
2986.101546,-8956.491898,-1924.535449,459.657299
2986.101883,-9252.574275,-814.226536,1225.752797
2986.102220,-9548.656652,-666.185348,306.438199
2986.102558,-10658.965565,-518.144159,842.705048
2986.102895,-10288.862594,592.164754,1685.410096
2986.103232,-10288.862594,0.000000,1762.019645
2986.103570,-9770.718434,1110.308913,1838.629195
2986.103907,-9474.636058,1184.329507,2528.115143
2986.104244,-10362.883188,814.226536,1991.848295
2986.104582,-11029.068536,0.000000,229.828649
2986.104919,-10732.986159,592.164754,-536.266849
2986.105256,-10066.800811,888.247130,-1225.752797
2986.105594,-9104.533087,-222.061783,-2757.943793
2986.105931,-8438.347739,-962.267725,-1915.238745
2986.106268,-9104.533087,-370.102971,-2145.067394
2986.106606,-8956.491898,-1554.432478,-995.924147
2986.106943,-10362.883188,-888.247130,-1225.752797
2986.107280,-10658.965565,-1332.370696,-1455.581446
2986.107618,-11547.212695,-1924.535449,-153.219100
2986.107955,-10807.006753,-2368.659014,-766.095498
2986.108292,-9474.636058,-1554.432478,-689.485948
2986.108630,-10066.800811,-2368.659014,306.438199
2986.108967,-10066.800811,-2146.597232,0.000000
2986.109304,-9548.656652,-1850.514855,-689.485948
2986.109642,-11103.089130,-814.226536,612.876398
2986.109979,-10584.944971,-444.123565,-306.438199
2986.110316,-10436.903782,-148.041188,-612.876398
2986.110654,-10732.986159,592.164754,919.314598
2986.110991,-9252.574275,-370.102971,689.485948
2986.111328,-10140.821405,814.226536,1762.019645
2986.111666,-10584.944971,1036.288319,2451.505594
2986.112003,-9992.780217,1184.329507,766.095498
2986.112340,-11029.068536,1480.411884,766.095498
2986.112678,-11029.068536,444.123565,1225.752797
2986.113015,-8512.368333,1776.494261,612.876398
2986.113352,-8660.409521,666.185348,842.705048
2986.113690,-9252.574275,1628.453072,153.219100
2986.114027,-8364.327145,1184.329507,-1455.581446
2986.114364,-9770.718434,1258.350101,-766.095498
2986.114702,-9992.780217,148.041188,-612.876398
2986.115039,-9844.739029,-370.102971,0.000000
2986.115376,-9326.594869,666.185348,689.485948
2986.115714,-8808.450710,962.267725,1762.019645
2986.116051,-9844.739029,0.000000,2298.286494
2986.116388,-10140.821405,0.000000,1915.238745
2986.116726,-11103.089130,-74.020594,2145.067394
2986.117063,-11177.109724,148.041188,2298.286494
2986.117400,-10584.944971,296.082377,1225.752797
2986.117738,-10214.842000,444.123565,1915.238745
2986.118075,-9622.677246,0.000000,689.485948
2986.118412,-9474.636058,296.082377,153.219100
2986.118750,-10807.006753,444.123565,76.609550
2986.119087,-10881.027347,-148.041188,-995.924147
2986.119424,-10807.006753,-370.102971,-229.828649
2986.119762,-10584.944971,-1258.350101,76.609550
2986.120099,-8586.388927,-1110.308913,-306.438199
2986.120436,-9400.615463,-1628.453072,459.657299
2986.120774,-10584.944971,-1554.432478,459.657299
2986.121111,-10436.903782,-2072.576638,-1532.190996
2986.121448,-11029.068536,-2146.597232,-1378.971896
2986.121786,-10140.821405,-2516.700203,-1455.581446
2986.122123,-9178.553681,-2886.803174,-1072.533697
2986.122460,-9770.718434,-1776.494261,229.828649
2986.122798,-9622.677246,-1702.473667,-689.485948
2986.123135,-9918.759623,-1332.370696,-383.047749
2986.123472,-10362.883188,-2442.679609,306.438199
2986.123810,-9844.739029,-1850.514855,1302.362347
2986.124147,-10807.006753,-1110.308913,2298.286494
2986.124484,-10732.986159,0.000000,2911.162892
2986.124822,-9548.656652,518.144159,1762.019645
2986.125159,-10288.862594,1184.329507,1455.581446
2986.125496,-10436.903782,1480.411884,153.219100
2986.125834,-10584.944971,592.164754,-1072.533697
2986.126171,-10140.821405,0.000000,-1225.752797
2986.126508,-9104.533087,962.267725,-689.485948
2986.126846,-8882.471304,1184.329507,-766.095498
2986.127183,-8734.430116,1776.494261,-1149.143247
2986.127520,-8734.430116,666.185348,-2068.457845
2986.127858,-10510.924376,518.144159,-919.314598
2986.128195,-10732.986159,-222.061783,-995.924147
2986.128532,-10510.924376,-1036.288319,-766.095498
2986.128870,-9770.718434,-1332.370696,0.000000
2986.129207,-9400.615463,-1628.453072,842.705048
2986.129544,-9770.718434,-666.185348,842.705048
2986.129882,-8586.388927,-962.267725,-689.485948
2986.130219,-9474.636058,-1850.514855,-612.876398
2986.130556,-10362.883188,-2146.597232,0.000000
2986.130894,-9696.697840,-1406.391290,612.876398
2986.131231,-9992.780217,0.000000,2068.457845
2986.131568,-11251.130318,74.020594,1149.143247
2986.131906,-11325.150913,148.041188,536.266849
2986.132243,-10955.047942,-296.082377,536.266849
2986.132580,-9622.677246,-518.144159,1225.752797
2986.132918,-10140.821405,0.000000,1762.019645
2986.133255,-10807.006753,0.000000,766.095498
2986.133592,-10436.903782,148.041188,0.000000
2986.133930,-10584.944971,518.144159,306.438199
2986.134267,-9918.759623,666.185348,-612.876398
2986.134604,-10140.821405,296.082377,0.000000
2986.134942,-10140.821405,-74.020594,-383.047749
2986.135279,-10066.800811,-888.247130,-76.609550
2986.135616,-10140.821405,-74.020594,153.219100
2986.135954,-9326.594869,148.041188,0.000000
2986.136291,-9474.636058,-370.102971,306.438199
2986.136628,-9770.718434,-444.123565,-459.657299
2986.136966,-9252.574275,-814.226536,-612.876398
2986.137303,-9400.615463,-888.247130,2374.896044
2986.137640,-9030.512492,-666.185348,2911.162892
2986.137978,-9548.656652,148.041188,3064.381992
2986.138315,-11177.109724,1702.473667,2757.943793
2986.138652,-11399.171507,1332.370696,1838.629195
2986.138990,-9992.780217,888.247130,1225.752797
2986.139327,-9844.739029,0.000000,689.485948
2986.139664,-9104.533087,444.123565,995.924147
2986.140001,-9696.697840,666.185348,842.705048
2986.140339,-10436.903782,814.226536,-689.485948
2986.140676,-10066.800811,1110.308913,-1915.238745
2986.141013,-10362.883188,222.061783,-1225.752797
2986.141350,-10214.842000,0.000000,-1532.190996
2986.141688,-9474.636058,-962.267725,-1915.238745
2986.142025,-9696.697840,-740.205942,-612.876398
2986.142362,-10362.883188,-740.205942,-766.095498
2986.142699,-10510.924376,-740.205942,-995.924147
2986.143037,-10881.027347,-1258.350101,-1762.019645
2986.143374,-10288.862594,-2368.659014,-995.924147
2986.143711,-9696.697840,-2368.659014,-995.924147
2986.144048,-10140.821405,-2960.823768,612.876398
2986.144386,-10362.883188,-1998.556043,1455.581446
2986.144723,-9992.780217,-1998.556043,-459.657299
2986.145060,-10807.006753,-1184.329507,536.266849
2986.145397,-10658.965565,-1554.432478,766.095498
2986.145735,-9474.636058,-1036.288319,229.828649
2986.146072,-8956.491898,-1776.494261,2068.457845
2986.146409,-9474.636058,-518.144159,2528.115143
2986.146746,-10362.883188,296.082377,2374.896044
2986.147084,-10732.986159,962.267725,612.876398
2986.147421,-11621.233289,962.267725,536.266849
2986.147758,-11843.295072,1480.411884,229.828649
2986.148095,-9696.697840,74.020594,-536.266849
2986.148433,-8216.285956,0.000000,-459.657299
2986.148770,-9252.574275,-370.102971,1608.800546
2986.149107,-9178.553681,518.144159,-383.047749
2986.149444,-9252.574275,-444.123565,-1915.238745
2986.149781,-9918.759623,-74.020594,0.000000
2986.150119,-10214.842000,74.020594,0.000000
2986.150456,-10362.883188,-296.082377,-229.828649
2986.150793,-10436.903782,444.123565,1685.410096
2986.151130,-10436.903782,-518.144159,1838.629195
2986.151468,-9622.677246,0.000000,612.876398
2986.151805,-10140.821405,0.000000,1225.752797
2986.152142,-9696.697840,-740.205942,1149.143247
2986.152479,-9400.615463,-962.267725,153.219100
2986.152817,-9252.574275,-518.144159,76.609550
2986.153154,-9770.718434,148.041188,459.657299
2986.153491,-9770.718434,-74.020594,0.000000
2986.153828,-9474.636058,592.164754,-383.047749
2986.154166,-10807.006753,74.020594,-306.438199
2986.154503,-10658.965565,0.000000,0.000000
2986.154840,-9252.574275,-962.267725,-766.095498
2986.155177,-9474.636058,-1258.350101,612.876398
2986.155515,-9992.780217,-1110.308913,536.266849
2986.155852,-10436.903782,-962.267725,-459.657299
2986.156189,-11695.253884,-222.061783,-766.095498
2986.156526,-10732.986159,-740.205942,-2145.067394
2986.156864,-10881.027347,-1998.556043,-1378.971896
2986.157201,-8882.471304,-1924.535449,-1149.143247
2986.157538,-8438.347739,-1850.514855,459.657299
2986.157875,-9696.697840,-1332.370696,995.924147
2986.158213,-9992.780217,-1406.391290,-536.266849
2986.158550,-10066.800811,-666.185348,76.609550
2986.158887,-11473.192101,-444.123565,919.314598
2986.159224,-10732.986159,-962.267725,1455.581446
2986.159562,-11103.089130,592.164754,3294.210641
2986.159899,-10955.047942,962.267725,3370.820191
2986.160236,-10066.800811,2294.638420,2451.505594
2986.160573,-10732.986159,1702.473667,1915.238745
2986.160910,-11177.109724,1332.370696,1302.362347
2986.161248,-9696.697840,1924.535449,-229.828649
2986.161585,-9104.533087,1702.473667,459.657299
2986.161922,-9400.615463,1480.411884,459.657299
2986.162259,-8660.409521,1998.556043,0.000000
2986.162597,-9474.636058,1998.556043,-459.657299
2986.162934,-9696.697840,1406.391290,-1072.533697
2986.163271,-9474.636058,592.164754,-919.314598
2986.163608,-9400.615463,-1110.308913,-612.876398
2986.163946,-9252.574275,-1036.288319,459.657299
2986.164283,-8808.450710,-814.226536,842.705048
2986.164620,-9400.615463,-888.247130,153.219100
2986.164957,-10214.842000,-814.226536,-306.438199
2986.165295,-9622.677246,-2220.617826,-842.705048
2986.165632,-10510.924376,-1332.370696,306.438199
2986.165969,-9696.697840,-1924.535449,1072.533697
2986.166306,-9844.739029,-1258.350101,1378.971896
2986.166644,-10955.047942,-1332.370696,1455.581446
2986.166981,-11621.233289,-592.164754,689.485948
2986.167318,-10362.883188,-740.205942,0.000000
2986.167655,-10732.986159,-1110.308913,306.438199
2986.167993,-10955.047942,-2146.597232,536.266849
2986.168330,-10140.821405,-1776.494261,306.438199
2986.168667,-10658.965565,-1184.329507,919.314598
2986.169004,-11103.089130,-518.144159,-459.657299
2986.169342,-9992.780217,-1036.288319,-1762.019645
2986.169679,-10658.965565,-1258.350101,-1915.238745
2986.170016,-9400.615463,-1184.329507,-1915.238745
2986.170353,-9030.512492,-1702.473667,-2374.896044
2986.170691,-9252.574275,-2294.638420,-383.047749
2986.171028,-9770.718434,-2442.679609,383.047749
2986.171365,-10362.883188,-1628.453072,766.095498
2986.171702,-10066.800811,-740.205942,1455.581446
2986.172039,-9474.636058,-962.267725,766.095498
2986.172377,-10288.862594,-1480.411884,1762.019645
2986.172714,-10436.903782,-592.164754,1838.629195
2986.173051,-9548.656652,1110.308913,1455.581446
2986.173388,-10362.883188,1110.308913,1608.800546
2986.173726,-10066.800811,1258.350101,306.438199
2986.174063,-9770.718434,1924.535449,-459.657299
2986.174400,-9474.636058,1998.556043,0.000000
2986.174737,-8956.491898,1776.494261,536.266849
2986.175075,-9844.739029,2146.597232,306.438199
2986.175412,-11251.130318,2442.679609,919.314598
2986.175749,-11621.233289,2812.782580,0.000000
2986.176086,-10658.965565,1702.473667,-689.485948
2986.176424,-9474.636058,1110.308913,-612.876398
2986.176761,-9548.656652,-814.226536,689.485948
2986.177098,-8364.327145,-370.102971,0.000000
2986.177435,-8586.388927,0.000000,-919.314598
2986.177773,-9622.677246,-222.061783,-842.705048
2986.178110,-9696.697840,-296.082377,-1991.848295
2986.178447,-10881.027347,-814.226536,-1685.410096
2986.178784,-10584.944971,-888.247130,-1072.533697
2986.179122,-9474.636058,-1480.411884,-919.314598
2986.179459,-9178.553681,-2146.597232,612.876398
2986.179796,-9252.574275,-2442.679609,1838.629195
2986.180133,-10362.883188,-1184.329507,1915.238745
2986.180471,-11695.253884,-1110.308913,919.314598
2986.180808,-10584.944971,-962.267725,689.485948
2986.181145,-10066.800811,-1258.350101,1838.629195
2986.181482,-10140.821405,-370.102971,2987.772442
2986.181820,-10214.842000,0.000000,1991.848295
2986.182157,-11399.171507,518.144159,1149.143247
2986.182494,-11029.068536,370.102971,306.438199
2986.182831,-9992.780217,444.123565,-153.219100
2986.183168,-10214.842000,74.020594,-459.657299
2986.183506,-9400.615463,-296.082377,-76.609550
2986.183843,-8882.471304,-518.144159,-919.314598
2986.184180,-9548.656652,74.020594,-995.924147
2986.184517,-10288.862594,888.247130,0.000000
2986.184855,-10288.862594,-592.164754,-689.485948
2986.185192,-9992.780217,-1776.494261,306.438199
2986.185529,-9326.594869,-1258.350101,2068.457845
2986.185866,-9696.697840,-592.164754,3217.601092
2986.186204,-9992.780217,370.102971,1838.629195
2986.186541,-10955.047942,-370.102971,229.828649
2986.186878,-9918.759623,0.000000,0.000000
2986.187215,-10362.883188,-666.185348,536.266849
2986.187553,-9918.759623,-370.102971,612.876398
2986.187890,-9104.533087,148.041188,229.828649
2986.188227,-9770.718434,0.000000,306.438199
2986.188564,-9622.677246,370.102971,-229.828649
2986.188902,-9622.677246,1110.308913,-459.657299
2986.189239,-10510.924376,592.164754,-153.219100
2986.189576,-10510.924376,148.041188,-995.924147
2986.189913,-10436.903782,296.082377,-536.266849
2986.190251,-9992.780217,0.000000,-612.876398
2986.190588,-9622.677246,-296.082377,-153.219100
2986.190925,-10955.047942,-666.185348,-536.266849
2986.191262,-10436.903782,-666.185348,-1225.752797
2986.191600,-9696.697840,-370.102971,-2221.676944
2986.191937,-9326.594869,-1776.494261,-1608.800546
2986.192274,-10214.842000,-2442.679609,-459.657299
2986.192611,-9770.718434,-2738.761985,-1072.533697
2986.192949,-10066.800811,-2368.659014,-383.047749
2986.193286,-9770.718434,-666.185348,1149.143247
2986.193623,-10510.924376,-962.267725,459.657299
2986.193960,-10362.883188,-666.185348,919.314598
2986.194297,-9992.780217,-518.144159,1532.190996
2986.194635,-10214.842000,-592.164754,2681.334243
2986.194972,-10955.047942,592.164754,1838.629195
2986.195309,-10140.821405,592.164754,2068.457845
2986.195646,-10140.821405,74.020594,2221.676944
2986.195984,-9252.574275,0.000000,1378.971896
2986.196321,-9178.553681,888.247130,995.924147
2986.196658,-9030.512492,518.144159,2068.457845
2986.196995,-9178.553681,1184.329507,995.924147
2986.197333,-10807.006753,2072.576638,-153.219100
2986.197670,-10658.965565,1998.556043,-612.876398
2986.198007,-10584.944971,1702.473667,-612.876398
2986.198344,-9918.759623,0.000000,-1302.362347
2986.198682,-9178.553681,444.123565,-306.438199
2986.199019,-9104.533087,0.000000,-229.828649
2986.199356,-9548.656652,-1184.329507,0.000000
2986.199693,-10214.842000,-888.247130,153.219100
2986.200031,-10584.944971,-370.102971,-306.438199
2986.200368,-9622.677246,0.000000,-919.314598
2986.200705,-9252.574275,-666.185348,-842.705048
2986.201042,-9918.759623,-1406.391290,1149.143247
2986.201380,-9844.739029,-666.185348,919.314598
2986.201717,-10510.924376,222.061783,919.314598
2986.202054,-10436.903782,74.020594,766.095498
2986.202391,-10436.903782,-222.061783,536.266849
2986.202729,-10881.027347,-518.144159,689.485948
2986.203066,-9918.759623,296.082377,842.705048
2986.203403,-9918.759623,0.000000,919.314598
2986.203740,-10140.821405,-370.102971,-459.657299
2986.204078,-10658.965565,0.000000,-536.266849
2986.204415,-10288.862594,0.000000,-306.438199
2986.204752,-9548.656652,-666.185348,-612.876398
2986.205089,-9844.739029,0.000000,-229.828649
2986.205426,-9992.780217,-518.144159,-229.828649
2986.205764,-10140.821405,-296.082377,-536.266849
2986.206101,-10510.924376,-1184.329507,-842.705048
2986.206438,-10584.944971,-888.247130,-306.438199
2986.206775,-10881.027347,-1480.411884,689.485948
2986.207113,-10140.821405,-814.226536,995.924147
2986.207450,-9252.574275,370.102971,919.314598
2986.207787,-10066.800811,-666.185348,1149.143247
2986.208124,-10362.883188,-666.185348,1762.019645
2986.208462,-9844.739029,-296.082377,2528.115143
2986.208799,-10658.965565,74.020594,2987.772442
2986.209136,-10955.047942,1110.308913,1838.629195
2986.209473,-9992.780217,1110.308913,1072.533697
2986.209811,-8216.285956,518.144159,1072.533697
2986.210148,-8586.388927,222.061783,536.266849
2986.210485,-9252.574275,814.226536,842.705048
2986.210822,-9696.697840,814.226536,229.828649
2986.211160,-10288.862594,444.123565,0.000000
2986.211497,-10436.903782,-74.020594,-995.924147
2986.211834,-9992.780217,-296.082377,-842.705048
2986.212171,-9474.636058,-444.123565,-612.876398
2986.212509,-9474.636058,-1184.329507,-612.876398
2986.212846,-9252.574275,-962.267725,-766.095498
2986.213183,-9992.780217,-1258.350101,-842.705048
2986.213520,-11251.130318,-1036.288319,0.000000
2986.213858,-11843.295072,-370.102971,-766.095498
2986.214195,-11325.150913,-1554.432478,-1685.410096
2986.214532,-10066.800811,-1628.453072,-612.876398
2986.214869,-9992.780217,-1406.391290,229.828649
2986.215206,-9104.533087,-1702.473667,459.657299
2986.215544,-10362.883188,-1406.391290,689.485948
2986.215881,-11399.171507,-1184.329507,1378.971896
2986.216218,-11769.274478,-666.185348,383.047749
2986.216555,-10584.944971,-370.102971,612.876398
2986.216893,-9770.718434,-740.205942,842.705048
2986.217230,-8660.409521,0.000000,766.095498
2986.217567,-8956.491898,296.082377,229.828649
2986.217904,-9844.739029,0.000000,536.266849
2986.218242,-10066.800811,0.000000,0.000000
2986.218579,-9622.677246,518.144159,0.000000
2986.218916,-10584.944971,0.000000,229.828649
2986.219253,-10214.842000,888.247130,229.828649
2986.219591,-9622.677246,740.205942,-689.485948
2986.219928,-9400.615463,444.123565,0.000000
2986.220265,-9252.574275,0.000000,-76.609550
2986.220602,-10214.842000,0.000000,459.657299
2986.220940,-10066.800811,666.185348,-306.438199
2986.221277,-9696.697840,148.041188,-536.266849
2986.221614,-10140.821405,592.164754,612.876398
2986.221951,-9770.718434,444.123565,459.657299
2986.222289,-9844.739029,1036.288319,766.095498
2986.222626,-10807.006753,888.247130,1762.019645
2986.222963,-10362.883188,1258.350101,1302.362347
2986.223300,-10658.965565,1554.432478,1838.629195
2986.223638,-10807.006753,666.185348,612.876398
2986.223975,-9770.718434,-370.102971,1072.533697
2986.224312,-8512.368333,-1332.370696,1225.752797
2986.224649,-8660.409521,-222.061783,1991.848295
2986.224987,-9326.594869,740.205942,1302.362347
2986.225324,-9622.677246,1110.308913,76.609550
2986.225661,-11695.253884,222.061783,-1149.143247
2986.225998,-11325.150913,-1258.350101,-2068.457845
2986.226335,-9252.574275,-518.144159,-2068.457845
2986.226673,-8364.327145,-1776.494261,-536.266849
2986.227010,-9178.553681,-1924.535449,383.047749
2986.227347,-9548.656652,-1850.514855,0.000000
2986.227684,-11177.109724,-2294.638420,689.485948
2986.228022,-11103.089130,-1480.411884,76.609550
2986.228359,-10732.986159,-2220.617826,229.828649
2986.228696,-10732.986159,-1480.411884,1225.752797
2986.229033,-10288.862594,-1628.453072,842.705048
2986.229371,-10288.862594,-1110.308913,1225.752797
2986.229708,-10066.800811,0.000000,1378.971896
2986.230045,-10436.903782,-296.082377,1378.971896
2986.230382,-10584.944971,666.185348,1378.971896
2986.230720,-9696.697840,222.061783,612.876398
2986.231057,-9918.759623,296.082377,995.924147
2986.231394,-9918.759623,148.041188,1838.629195
2986.231731,-10140.821405,1332.370696,1991.848295
2986.232069,-9992.780217,814.226536,0.000000
2986.232406,-9474.636058,370.102971,459.657299
2986.232743,-10214.842000,0.000000,689.485948
2986.233080,-9178.553681,-444.123565,-766.095498
2986.233418,-9400.615463,0.000000,153.219100
2986.233755,-9918.759623,0.000000,-995.924147
2986.234092,-9548.656652,-370.102971,-1608.800546
2986.234429,-9474.636058,-962.267725,-1532.190996
2986.234767,-9770.718434,-962.267725,-995.924147
2986.235104,-10214.842000,-1184.329507,-536.266849
2986.235441,-9696.697840,-1184.329507,-1762.019645
2986.235778,-9326.594869,-222.061783,-536.266849
2986.236116,-10362.883188,-518.144159,-306.438199
2986.236453,-11103.089130,-444.123565,-306.438199
2986.236790,-10732.986159,296.082377,-306.438199
2986.237127,-10362.883188,-666.185348,766.095498
2986.237464,-10066.800811,0.000000,2068.457845
2986.237802,-10214.842000,0.000000,1762.019645
2986.238139,-11399.171507,444.123565,1685.410096
2986.238476,-10732.986159,74.020594,153.219100
2986.238813,-10288.862594,0.000000,-995.924147
2986.239151,-9992.780217,0.000000,-842.705048
2986.239488,-9844.739029,-1258.350101,76.609550
2986.239825,-8512.368333,-1258.350101,229.828649
2986.240162,-8956.491898,-222.061783,306.438199
2986.240500,-10436.903782,1110.308913,-76.609550
2986.240837,-10510.924376,0.000000,-1608.800546
2986.241174,-10510.924376,-222.061783,-1149.143247
2986.241512,-10140.821405,-1776.494261,-153.219100
2986.241849,-9326.594869,-1998.556043,995.924147
2986.242186,-9474.636058,148.041188,1838.629195
2986.242524,-9992.780217,-888.247130,536.266849
2986.242861,-9474.636058,0.000000,0.000000
2986.243198,-10066.800811,-888.247130,1378.971896
2986.243535,-10510.924376,-592.164754,1762.019645
2986.243873,-9548.656652,370.102971,2221.676944
2986.244210,-10362.883188,592.164754,2221.676944
2986.244547,-10658.965565,1776.494261,2987.772442
2986.244885,-10066.800811,1480.411884,1532.190996
2986.245222,-11029.068536,1998.556043,1532.190996
2986.245559,-10732.986159,814.226536,766.095498
2986.245897,-9400.615463,0.000000,0.000000
2986.246234,-9178.553681,814.226536,153.219100
2986.246571,-9252.574275,296.082377,995.924147
2986.246908,-9622.677246,444.123565,-612.876398
2986.247246,-10066.800811,0.000000,-2298.286494
2986.247583,-10066.800811,222.061783,-1608.800546
2986.247920,-9474.636058,-370.102971,-1608.800546
2986.248258,-9696.697840,-1628.453072,-919.314598
2986.248595,-9770.718434,-888.247130,0.000000
2986.248932,-9992.780217,-1258.350101,536.266849
2986.249269,-10066.800811,-1110.308913,306.438199
2986.249607,-10510.924376,-1628.453072,-536.266849
2986.249944,-10584.944971,-2072.576638,0.000000
2986.250281,-9622.677246,-2738.761985,153.219100
2986.250619,-9770.718434,-2220.617826,1149.143247
2986.250956,-9844.739029,-666.185348,1532.190996
2986.251293,-11029.068536,-296.082377,1302.362347
2986.251631,-11029.068536,0.000000,76.609550
2986.251968,-11029.068536,-370.102971,229.828649
2986.252305,-10807.006753,0.000000,306.438199
2986.252642,-9252.574275,-518.144159,689.485948
2986.252980,-9474.636058,0.000000,1685.410096
2986.253317,-9918.759623,296.082377,1225.752797
2986.253654,-10658.965565,296.082377,-612.876398
2986.253992,-11843.295072,444.123565,-842.705048
2986.254329,-10584.944971,-666.185348,-766.095498
2986.254666,-8956.491898,-740.205942,-919.314598
2986.255004,-8438.347739,-592.164754,383.047749
2986.255341,-9474.636058,0.000000,1762.019645
2986.255678,-9252.574275,74.020594,383.047749
2986.256015,-10510.924376,-666.185348,-842.705048
2986.256353,-10732.986159,444.123565,-383.047749
2986.256690,-9622.677246,-1480.411884,-766.095498
2986.257027,-9178.553681,-1036.288319,1378.971896
2986.257365,-8586.388927,-1258.350101,1762.019645
2986.257702,-8586.388927,148.041188,2451.505594
2986.258039,-10140.821405,1258.350101,1225.752797
2986.258376,-11177.109724,666.185348,-459.657299
2986.258714,-10955.047942,518.144159,-536.266849
2986.259051,-10066.800811,0.000000,459.657299
2986.259388,-9104.533087,-1184.329507,1378.971896
2986.259726,-8956.491898,0.000000,1915.238745
2986.260063,-9252.574275,222.061783,919.314598
2986.260400,-9548.656652,0.000000,0.000000
2986.260738,-11029.068536,74.020594,-306.438199
2986.261075,-11769.274478,222.061783,-995.924147
2986.261412,-11399.171507,-1406.391290,-1532.190996
2986.261749,-9844.739029,-592.164754,0.000000
2986.262087,-9030.512492,-814.226536,-842.705048
2986.262424,-10362.883188,-518.144159,-995.924147
2986.262761,-10955.047942,-666.185348,-1762.019645
2986.263099,-10584.944971,-1628.453072,-1225.752797
2986.263436,-10362.883188,-2072.576638,-536.266849
2986.263773,-10436.903782,-1924.535449,842.705048
2986.264111,-10436.903782,-962.267725,1302.362347
2986.264448,-9326.594869,-1258.350101,536.266849
2986.264785,-10214.842000,-814.226536,612.876398
2986.265122,-9696.697840,222.061783,1378.971896
2986.265460,-9400.615463,-444.123565,1455.581446
2986.265797,-9844.739029,148.041188,2451.505594
2986.266134,-10510.924376,222.061783,3064.381992
2986.266472,-11177.109724,1702.473667,2374.896044
2986.266809,-10066.800811,1554.432478,1149.143247
2986.267146,-9696.697840,1480.411884,842.705048
2986.267483,-9474.636058,1110.308913,-459.657299
2986.267821,-8586.388927,444.123565,-689.485948
2986.268158,-8956.491898,814.226536,0.000000
2986.268495,-9252.574275,740.205942,459.657299
2986.268833,-9400.615463,1554.432478,-536.266849
2986.269170,-10807.006753,1480.411884,-1762.019645
2986.269507,-10510.924376,888.247130,-2374.896044
2986.269845,-9400.615463,-518.144159,-766.095498
2986.270182,-9474.636058,-1776.494261,1838.629195
2986.270519,-9992.780217,-962.267725,3217.601092
2986.270856,-11103.089130,-148.041188,1608.800546
2986.271194,-11029.068536,-814.226536,0.000000
2986.271531,-10288.862594,-1110.308913,-459.657299
2986.271868,-9622.677246,-1554.432478,0.000000
2986.272206,-8956.491898,-814.226536,0.000000
2986.272543,-9326.594869,-1702.473667,1072.533697
2986.272880,-10214.842000,-518.144159,1838.629195
2986.273218,-10288.862594,-888.247130,919.314598
2986.273555,-11473.192101,-444.123565,766.095498
2986.273892,-11325.150913,-444.123565,459.657299
2986.274229,-10510.924376,-1924.535449,229.828649
2986.274567,-9178.553681,-2220.617826,383.047749
2986.274904,-8586.388927,-1554.432478,1455.581446
2986.275241,-9474.636058,-1406.391290,612.876398
2986.275579,-11029.068536,-962.267725,-1378.971896
2986.275916,-10732.986159,-592.164754,-2374.896044
2986.276253,-10732.986159,-962.267725,-2834.553343
2986.276590,-9252.574275,-2516.700203,-1915.238745
2986.276928,-9178.553681,-2072.576638,0.000000
2986.277265,-10066.800811,-1554.432478,1072.533697
2986.277602,-9918.759623,-814.226536,306.438199
2986.277940,-11177.109724,-592.164754,1072.533697
2986.278277,-10214.842000,74.020594,766.095498
2986.278614,-10066.800811,-962.267725,842.705048
2986.278952,-10436.903782,-1406.391290,1455.581446
2986.279289,-8734.430116,444.123565,1762.019645
2986.279626,-9918.759623,2072.576638,2298.286494
2986.279963,-10955.047942,1850.514855,995.924147
2986.280301,-10214.842000,1776.494261,612.876398
2986.280638,-10140.821405,1776.494261,306.438199
2986.280975,-10066.800811,1036.288319,459.657299
2986.281313,-9622.677246,1184.329507,842.705048
2986.281650,-9104.533087,1850.514855,842.705048
2986.281987,-8956.491898,1258.350101,-459.657299
2986.282325,-10362.883188,1924.535449,-1378.971896
2986.282662,-10510.924376,1184.329507,-2451.505594
2986.282999,-9474.636058,0.000000,-2145.067394
2986.283336,-8882.471304,-1184.329507,-1532.190996
2986.283674,-8660.409521,296.082377,-383.047749
2986.284011,-9844.739029,0.000000,0.000000
2986.284348,-10732.986159,74.020594,-229.828649
2986.284686,-11399.171507,0.000000,-1378.971896
2986.285023,-11399.171507,-962.267725,-1608.800546
2986.285360,-9474.636058,-2146.597232,-306.438199
2986.285697,-9474.636058,-1924.535449,2528.115143
2986.286035,-10658.965565,-1998.556043,3677.258390
2986.286372,-10362.883188,-148.041188,1149.143247
2986.286709,-11695.253884,-888.247130,1378.971896
2986.287047,-10362.883188,-370.102971,995.924147
2986.287384,-9622.677246,-1406.391290,766.095498
2986.287721,-10140.821405,-592.164754,2374.896044
2986.288059,-9474.636058,148.041188,459.657299
2986.288396,-9548.656652,444.123565,919.314598
2986.288733,-10362.883188,0.000000,306.438199
2986.289070,-9844.739029,296.082377,153.219100
2986.289408,-10288.862594,0.000000,-153.219100
2986.289745,-9992.780217,-740.205942,-919.314598
2986.290082,-9622.677246,-888.247130,153.219100
2986.290420,-9844.739029,-814.226536,689.485948
2986.290757,-9178.553681,-222.061783,383.047749
2986.291094,-9326.594869,296.082377,306.438199
2986.291432,-11399.171507,-296.082377,689.485948
2986.291769,-10436.903782,0.000000,0.000000
2986.292106,-9474.636058,0.000000,919.314598
2986.292443,-10066.800811,222.061783,2221.676944
2986.292781,-10510.924376,0.000000,919.314598
2986.293118,-10362.883188,888.247130,842.705048
2986.293455,-10807.006753,444.123565,995.924147
2986.293793,-9178.553681,74.020594,383.047749
2986.294130,-8586.388927,-296.082377,229.828649
2986.294467,-9474.636058,148.041188,2221.676944
2986.294804,-10066.800811,444.123565,1149.143247
2986.295142,-10436.903782,1184.329507,-306.438199
2986.295479,-10584.944971,1406.391290,-842.705048
2986.295816,-10658.965565,-296.082377,-766.095498
2986.296154,-9548.656652,-740.205942,-766.095498
2986.296491,-8660.409521,-444.123565,-995.924147
2986.296828,-9400.615463,-814.226536,-842.705048
2986.297166,-9474.636058,-1258.350101,-766.095498
2986.297503,-10140.821405,-962.267725,-1608.800546
2986.297840,-10881.027347,-1554.432478,-1378.971896
2986.298177,-10510.924376,-1480.411884,-2221.676944
2986.298515,-10658.965565,-2590.720797,-766.095498
2986.298852,-10510.924376,-1702.473667,612.876398
2986.299189,-9326.594869,-2294.638420,919.314598
2986.299527,-9770.718434,-1776.494261,1915.238745
2986.299864,-10214.842000,-888.247130,995.924147
2986.300201,-10584.944971,-740.205942,1072.533697
2986.300539,-10881.027347,-1480.411884,536.266849
2986.300876,-9844.739029,-888.247130,612.876398
2986.301213,-9696.697840,296.082377,1378.971896
2986.301550,-10584.944971,0.000000,1532.190996
2986.301888,-10288.862594,222.061783,995.924147
2986.302225,-10214.842000,814.226536,536.266849
2986.302562,-10066.800811,74.020594,689.485948
2986.302900,-9474.636058,222.061783,919.314598
2986.303237,-9104.533087,518.144159,1378.971896
2986.303574,-9696.697840,740.205942,76.609550
2986.303911,-9696.697840,518.144159,-1072.533697
2986.304249,-9992.780217,592.164754,-842.705048
2986.304586,-9844.739029,-592.164754,-1378.971896
2986.304923,-8956.491898,-444.123565,-842.705048
2986.305261,-9030.512492,296.082377,383.047749
2986.305598,-10955.047942,814.226536,-612.876398
2986.305935,-10288.862594,-296.082377,-766.095498
2986.306273,-9696.697840,0.000000,-995.924147
2986.306610,-10066.800811,-222.061783,536.266849
2986.306947,-9918.759623,222.061783,689.485948
2986.307284,-10214.842000,-592.164754,1378.971896
2986.307622,-10510.924376,148.041188,2298.286494
2986.307959,-9844.739029,0.000000,1838.629195
2986.308296,-11325.150913,814.226536,1762.019645
2986.308634,-11251.130318,666.185348,995.924147
2986.308971,-10214.842000,148.041188,-229.828649
2986.309308,-9474.636058,-592.164754,-612.876398
2986.309646,-9178.553681,296.082377,-306.438199
2986.309983,-9474.636058,222.061783,-612.876398
2986.310320,-9992.780217,-962.267725,-1532.190996
2986.310657,-9252.574275,-666.185348,-1915.238745
2986.310995,-9178.553681,-518.144159,-1072.533697
2986.311332,-9474.636058,-296.082377,229.828649
2986.311669,-9548.656652,-1258.350101,-383.047749
2986.312007,-10362.883188,-1258.350101,0.000000
2986.312344,-9918.759623,-814.226536,0.000000
2986.312681,-10140.821405,-1332.370696,842.705048
2986.313018,-10214.842000,-518.144159,1302.362347
2986.313356,-10066.800811,-1184.329507,995.924147
2986.313693,-10510.924376,-740.205942,2068.457845
2986.314030,-11547.212695,0.000000,1915.238745
2986.314368,-11029.068536,518.144159,1685.410096
2986.314705,-10584.944971,888.247130,1072.533697
2986.315042,-10584.944971,1332.370696,1838.629195
2986.315380,-9918.759623,1332.370696,919.314598
2986.315717,-9918.759623,1110.308913,842.705048
2986.316054,-10066.800811,888.247130,1762.019645
2986.316391,-10214.842000,1110.308913,919.314598
2986.316729,-9918.759623,814.226536,76.609550
2986.317066,-9696.697840,296.082377,306.438199
2986.317403,-10066.800811,148.041188,306.438199
2986.317741,-9474.636058,-74.020594,0.000000
2986.318078,-9474.636058,-962.267725,-689.485948
2986.318415,-8956.491898,-962.267725,-229.828649
2986.318753,-8956.491898,-1628.453072,-689.485948
2986.319090,-9104.533087,-2220.617826,-1302.362347
2986.319427,-9474.636058,-1184.329507,-1072.533697
2986.319764,-9474.636058,-2146.597232,-1378.971896
2986.320102,-9696.697840,-2146.597232,-919.314598
2986.320439,-9696.697840,-1776.494261,0.000000
2986.320776,-10214.842000,-1776.494261,919.314598
2986.321114,-11251.130318,-1480.411884,459.657299
2986.321451,-10881.027347,-1850.514855,76.609550
2986.321788,-11325.150913,-1406.391290,1838.629195
2986.322125,-10658.965565,-1258.350101,1532.190996
2986.322463,-10066.800811,-370.102971,1149.143247
2986.322800,-10955.047942,296.082377,1455.581446
2986.323137,-11473.192101,1036.288319,383.047749
2986.323475,-11103.089130,-222.061783,-1302.362347
2986.323812,-10140.821405,592.164754,-766.095498
2986.324149,-9992.780217,0.000000,-1149.143247
2986.324487,-9474.636058,-592.164754,-1302.362347
2986.324824,-9548.656652,370.102971,-459.657299
2986.325161,-9918.759623,0.000000,0.000000
2986.325498,-9844.739029,444.123565,-1532.190996
2986.325836,-9178.553681,-1110.308913,-1838.629195
2986.326173,-9770.718434,-1332.370696,0.000000
2986.326510,-8586.388927,-1036.288319,919.314598
2986.326848,-9178.553681,-444.123565,1225.752797
2986.327185,-9326.594869,444.123565,1149.143247
2986.327522,-9474.636058,0.000000,229.828649
2986.327860,-9918.759623,-666.185348,1225.752797
2986.328197,-10288.862594,-518.144159,1915.238745
2986.328534,-9622.677246,-370.102971,2681.334243
2986.328871,-10584.944971,518.144159,2298.286494
2986.329209,-10362.883188,666.185348,842.705048
2986.329546,-10214.842000,2072.576638,0.000000
2986.329883,-10288.862594,1184.329507,-153.219100
2986.330221,-10362.883188,814.226536,-766.095498
2986.330558,-10140.821405,0.000000,0.000000
2986.330895,-9992.780217,296.082377,1072.533697
2986.331232,-9474.636058,1036.288319,0.000000
2986.331570,-10732.986159,1110.308913,-383.047749
2986.331907,-10955.047942,962.267725,-1149.143247
2986.332244,-10732.986159,-592.164754,-1838.629195
2986.332582,-10510.924376,-1184.329507,-306.438199
2986.332919,-9252.574275,-1258.350101,-76.609550
2986.333256,-8734.430116,-2072.576638,536.266849
2986.333594,-9770.718434,-1702.473667,76.609550
2986.333931,-10214.842000,-1702.473667,0.000000
2986.334268,-9622.677246,-888.247130,0.000000
2986.334605,-9770.718434,-1702.473667,536.266849
2986.334943,-9622.677246,-1998.556043,1838.629195
2986.335280,-9400.615463,-1850.514855,1915.238745
2986.335617,-9844.739029,0.000000,2374.896044
2986.335955,-10658.965565,0.000000,2221.676944
2986.336292,-10658.965565,1036.288319,766.095498
2986.336629,-9770.718434,148.041188,1225.752797
2986.336967,-10807.006753,666.185348,2068.457845
2986.337304,-9622.677246,592.164754,1532.190996
2986.337641,-10436.903782,666.185348,1455.581446
2986.337978,-10584.944971,1406.391290,536.266849
2986.338316,-9844.739029,1998.556043,-1225.752797
2986.338653,-10658.965565,1850.514855,-459.657299
2986.338990,-10066.800811,518.144159,-1225.752797
2986.339328,-9844.739029,-148.041188,-459.657299
2986.339665,-10140.821405,148.041188,459.657299
2986.340002,-9992.780217,370.102971,-536.266849
2986.340339,-10362.883188,-444.123565,-919.314598
2986.340677,-9770.718434,-296.082377,-919.314598
2986.341014,-9252.574275,-962.267725,-1302.362347
2986.341351,-9992.780217,-1110.308913,383.047749
2986.341689,-9474.636058,-2072.576638,306.438199
2986.342026,-9326.594869,-2442.679609,919.314598
2986.342363,-10066.800811,-1628.453072,1455.581446
2986.342701,-10288.862594,-444.123565,2221.676944
2986.343038,-10362.883188,740.205942,459.657299
2986.343376,-10066.800811,-740.205942,-689.485948
2986.343713,-9548.656652,-1110.308913,-1378.971896
2986.344050,-8512.368333,-1850.514855,-536.266849
2986.344388,-8586.388927,-296.082377,1455.581446
2986.344725,-10214.842000,0.000000,612.876398
2986.345062,-11473.192101,1110.308913,-1685.410096
2986.345400,-11325.150913,740.205942,-2757.943793
2986.345737,-10955.047942,-1036.288319,-1072.533697
2986.346074,-10436.903782,-1184.329507,1149.143247
2986.346412,-8734.430116,-666.185348,383.047749
2986.346749,-10658.965565,-518.144159,995.924147
2986.347086,-10955.047942,0.000000,-995.924147
2986.347424,-10955.047942,0.000000,-2145.067394
2986.347761,-10658.965565,-666.185348,-383.047749
2986.348098,-9696.697840,-1332.370696,0.000000
2986.348436,-9326.594869,-962.267725,1149.143247
2986.348773,-9992.780217,-666.185348,1149.143247
2986.349111,-10510.924376,-222.061783,1225.752797
2986.349448,-10140.821405,-222.061783,995.924147
2986.349785,-9622.677246,0.000000,1455.581446
2986.350123,-9252.574275,814.226536,2221.676944
2986.350460,-9474.636058,370.102971,2451.505594
2986.350797,-8438.347739,74.020594,2221.676944
2986.351135,-9474.636058,888.247130,2451.505594
2986.351472,-10140.821405,1110.308913,766.095498
2986.351809,-10140.821405,888.247130,-689.485948
2986.352147,-10140.821405,444.123565,-306.438199
2986.352484,-9252.574275,740.205942,-306.438199
2986.352821,-8956.491898,-444.123565,-919.314598
2986.353159,-9622.677246,0.000000,-306.438199
2986.353496,-9326.594869,-1036.288319,-1685.410096
2986.353833,-10214.842000,-740.205942,-1762.019645
2986.354171,-10807.006753,-888.247130,-1532.190996
2986.354508,-10658.965565,-1776.494261,0.000000
2986.354845,-10288.862594,-2368.659014,766.095498
2986.355183,-9918.759623,-1998.556043,1838.629195
2986.355520,-10807.006753,-592.164754,1378.971896
2986.355858,-11177.109724,-1406.391290,0.000000
2986.356195,-11843.295072,-1110.308913,0.000000
2986.356532,-10955.047942,-1628.453072,153.219100
2986.356870,-10732.986159,-1702.473667,919.314598
2986.357207,-9844.739029,-962.267725,1072.533697
2986.357544,-9622.677246,0.000000,1072.533697
2986.357882,-10140.821405,518.144159,995.924147
2986.358219,-10362.883188,296.082377,383.047749
2986.358556,-10140.821405,888.247130,919.314598
2986.358894,-10214.842000,0.000000,229.828649
2986.359231,-9548.656652,-666.185348,306.438199
2986.359568,-9400.615463,370.102971,1608.800546
2986.359906,-9622.677246,666.185348,842.705048
2986.360243,-9400.615463,740.205942,689.485948
2986.360580,-10658.965565,518.144159,-689.485948
2986.360918,-9622.677246,814.226536,-842.705048
2986.361255,-9474.636058,-296.082377,-689.485948
2986.361592,-10214.842000,-888.247130,0.000000
2986.361930,-9474.636058,296.082377,1149.143247
2986.362267,-8808.450710,0.000000,383.047749
2986.362605,-9252.574275,814.226536,-306.438199
2986.362942,-10066.800811,1184.329507,-459.657299
2986.363279,-10584.944971,0.000000,689.485948
2986.363617,-10658.965565,-1036.288319,306.438199
2986.363954,-9992.780217,444.123565,1991.848295
2986.364291,-10510.924376,1702.473667,2145.067394
2986.364629,-11177.109724,1184.329507,459.657299
2986.364966,-11103.089130,592.164754,-153.219100
2986.365303,-9770.718434,-1110.308913,-459.657299
2986.365641,-9326.594869,-1776.494261,919.314598
2986.365978,-9770.718434,-814.226536,1762.019645
2986.366315,-9844.739029,-444.123565,1455.581446
2986.366653,-10066.800811,-370.102971,-919.314598
2986.366990,-10658.965565,-592.164754,-2834.553343
2986.367327,-10510.924376,-962.267725,-2528.115143
2986.367665,-8438.347739,-2294.638420,-2374.896044
2986.368002,-8882.471304,-2812.782580,-1608.800546
2986.368340,-9252.574275,-2516.700203,0.000000
2986.368677,-10288.862594,-2294.638420,0.000000
2986.369014,-10955.047942,-1332.370696,-536.266849
2986.369352,-11769.274478,-2072.576638,-383.047749
2986.369689,-9918.759623,-1554.432478,0.000000
2986.370026,-9548.656652,-2072.576638,1072.533697
2986.370364,-10214.842000,-2146.597232,2528.115143
2986.370701,-10066.800811,-740.205942,2451.505594
2986.371038,-11251.130318,444.123565,2068.457845
2986.371376,-11843.295072,1776.494261,842.705048
2986.371713,-11251.130318,1776.494261,229.828649
2986.372050,-10807.006753,1406.391290,842.705048
2986.372388,-10140.821405,1184.329507,842.705048
2986.372725,-9474.636058,1332.370696,2145.067394
2986.373062,-10140.821405,1998.556043,1455.581446
2986.373400,-9696.697840,962.267725,383.047749
2986.373737,-8216.285956,1776.494261,153.219100
2986.374074,-8882.471304,1332.370696,-612.876398
2986.374412,-9474.636058,222.061783,-153.219100
2986.374749,-9474.636058,0.000000,-612.876398
2986.375087,-9400.615463,592.164754,383.047749
2986.375424,-9252.574275,0.000000,0.000000
2986.375761,-9400.615463,0.000000,-229.828649
2986.376099,-9770.718434,-74.020594,76.609550
2986.376436,-9548.656652,-888.247130,-306.438199
2986.376773,-9326.594869,-2516.700203,153.219100
2986.377111,-8734.430116,-1776.494261,1685.410096
2986.377448,-9696.697840,-740.205942,2298.286494
2986.377785,-10955.047942,0.000000,1302.362347
2986.378123,-11843.295072,0.000000,153.219100
2986.378460,-11251.130318,148.041188,-306.438199
2986.378797,-10732.986159,-370.102971,229.828649
2986.379135,-9918.759623,-370.102971,995.924147
2986.379472,-10510.924376,0.000000,1455.581446
2986.379809,-10288.862594,0.000000,76.609550
2986.380147,-10807.006753,0.000000,-153.219100
2986.380484,-11473.192101,-888.247130,-1378.971896
2986.380821,-10288.862594,-962.267725,-536.266849
2986.381159,-9696.697840,-2220.617826,-306.438199
2986.381496,-9400.615463,-1406.391290,689.485948
2986.381834,-10066.800811,-962.267725,536.266849
2986.382171,-10436.903782,-1036.288319,-306.438199
2986.382508,-9770.718434,-1184.329507,-842.705048
2986.382846,-10066.800811,-1258.350101,-1302.362347
2986.383183,-9918.759623,-1924.535449,-536.266849
2986.383520,-9548.656652,-2072.576638,383.047749
2986.383858,-8734.430116,-1110.308913,1685.410096
2986.384195,-9474.636058,-1184.329507,1378.971896
2986.384532,-9696.697840,0.000000,1532.190996
2986.384870,-10140.821405,1036.288319,1225.752797
2986.385207,-10881.027347,0.000000,2451.505594
2986.385544,-9474.636058,518.144159,2068.457845
2986.385882,-9474.636058,1480.411884,2145.067394
2986.386219,-10658.965565,2442.679609,919.314598
2986.386556,-9326.594869,2294.638420,842.705048
2986.386894,-9918.759623,2294.638420,612.876398
2986.387231,-10066.800811,2738.761985,-1608.800546
2986.387568,-11177.109724,1184.329507,-2145.067394
2986.387906,-10510.924376,222.061783,-766.095498
2986.388243,-8956.491898,-370.102971,76.609550
2986.388581,-9178.553681,592.164754,459.657299
2986.388918,-9770.718434,148.041188,-1378.971896
2986.389255,-9474.636058,-1258.350101,-2145.067394
2986.389593,-9844.739029,-1406.391290,-1149.143247
2986.389930,-9918.759623,-2738.761985,76.609550
2986.390267,-10140.821405,-1184.329507,1225.752797
2986.390605,-10881.027347,-962.267725,689.485948
2986.390942,-11177.109724,-1258.350101,-766.095498
2986.391279,-10658.965565,-1480.411884,-1072.533697
2986.391617,-8734.430116,-1554.432478,-689.485948
2986.391954,-8364.327145,-2072.576638,0.000000
2986.392291,-10732.986159,-2294.638420,1762.019645
2986.392629,-10881.027347,-1554.432478,1378.971896
2986.392966,-9622.677246,-592.164754,1149.143247
2986.393303,-10288.862594,148.041188,2068.457845
2986.393641,-11251.130318,0.000000,995.924147
2986.393978,-10732.986159,-666.185348,536.266849
2986.394316,-9622.677246,-148.041188,842.705048
2986.394653,-10362.883188,-222.061783,2221.676944
2986.394990,-9252.574275,962.267725,306.438199
2986.395328,-9474.636058,-148.041188,-919.314598
2986.395665,-10214.842000,740.205942,-1149.143247
2986.396002,-9992.780217,222.061783,-2221.676944
2986.396340,-9696.697840,296.082377,-2221.676944
2986.396677,-9770.718434,0.000000,842.705048
2986.397014,-11177.109724,0.000000,1378.971896
2986.397352,-10510.924376,1406.391290,-153.219100
2986.397689,-10214.842000,592.164754,536.266849
2986.398026,-10066.800811,-444.123565,1991.848295
2986.398364,-10140.821405,-518.144159,1838.629195
2986.398701,-9326.594869,-518.144159,2298.286494
2986.399038,-9104.533087,1480.411884,2451.505594
2986.399376,-10362.883188,592.164754,1455.581446
2986.399713,-11473.192101,1184.329507,766.095498
2986.400050,-10362.883188,1480.411884,-306.438199
2986.400388,-9548.656652,814.226536,-153.219100
2986.400725,-8956.491898,74.020594,-766.095498
2986.401063,-8068.244768,-592.164754,-1072.533697
2986.401400,-9252.574275,74.020594,842.705048
2986.401737,-9548.656652,-814.226536,0.000000
2986.402075,-9918.759623,0.000000,-306.438199
2986.402412,-10510.924376,-666.185348,-459.657299
2986.402749,-10436.903782,-1554.432478,-306.438199
2986.403087,-10288.862594,-1554.432478,-995.924147
2986.403424,-10362.883188,-2368.659014,-306.438199
2986.403761,-9178.553681,-1554.432478,-766.095498
2986.404099,-10066.800811,-2368.659014,-153.219100
2986.404436,-10955.047942,-1628.453072,459.657299
2986.404773,-10955.047942,-1628.453072,-1302.362347
2986.405111,-10732.986159,-2590.720797,-306.438199
2986.405448,-10436.903782,-2590.720797,1608.800546
2986.405785,-10288.862594,-1776.494261,2451.505594
2986.406123,-10658.965565,-370.102971,1838.629195
2986.406460,-10658.965565,666.185348,229.828649
2986.406797,-10881.027347,0.000000,919.314598
2986.407135,-10362.883188,0.000000,1608.800546
2986.407472,-10214.842000,-296.082377,2911.162892
2986.407810,-10214.842000,296.082377,2528.115143
2986.408147,-9474.636058,666.185348,1149.143247
2986.408484,-10066.800811,1332.370696,536.266849
2986.408822,-9992.780217,1628.453072,-995.924147
2986.409159,-8660.409521,1036.288319,-995.924147
2986.409496,-7994.224174,0.000000,-1072.533697
2986.409834,-7179.997637,74.020594,-1149.143247
2986.410171,-8364.327145,888.247130,-459.657299
2986.410508,-10066.800811,0.000000,-612.876398
2986.410846,-9770.718434,518.144159,-1378.971896
2986.411183,-10066.800811,0.000000,-1302.362347
2986.411520,-10436.903782,0.000000,0.000000
2986.411858,-9474.636058,-518.144159,1225.752797
2986.412195,-9770.718434,-1332.370696,612.876398
2986.412532,-10288.862594,-1110.308913,1149.143247
2986.412870,-10807.006753,-296.082377,1762.019645
2986.413207,-11399.171507,592.164754,1378.971896
2986.413545,-11325.150913,592.164754,-612.876398
2986.413882,-10732.986159,370.102971,0.000000
2986.414219,-11177.109724,74.020594,229.828649
2986.414557,-10658.965565,-148.041188,612.876398
2986.414894,-10214.842000,0.000000,536.266849
2986.415231,-9548.656652,0.000000,0.000000
2986.415569,-9918.759623,0.000000,0.000000
2986.415906,-10732.986159,-1332.370696,-76.609550
2986.416243,-11103.089130,-1036.288319,306.438199
2986.416581,-10510.924376,-1998.556043,-383.047749
2986.416918,-9326.594869,-1776.494261,-612.876398
2986.417255,-8734.430116,-592.164754,-306.438199
2986.417593,-9326.594869,-1702.473667,-383.047749
2986.417930,-8956.491898,-1628.453072,0.000000
2986.418267,-9622.677246,-1554.432478,0.000000
2986.418605,-9918.759623,-962.267725,536.266849
2986.418942,-10066.800811,-444.123565,76.609550
2986.419279,-11251.130318,-518.144159,995.924147
2986.419617,-10214.842000,-148.041188,1149.143247
2986.419954,-9326.594869,-592.164754,2451.505594
2986.420292,-9104.533087,148.041188,3447.429741
2986.420629,-9622.677246,1036.288319,2757.943793
2986.420966,-10436.903782,814.226536,2911.162892
2986.421304,-11547.212695,2072.576638,1149.143247
2986.421641,-9474.636058,1850.514855,1991.848295
2986.421978,-10955.047942,2072.576638,-153.219100
2986.422316,-10362.883188,2294.638420,536.266849
2986.422653,-9030.512492,1702.473667,-383.047749
2986.422990,-10140.821405,814.226536,76.609550
2986.423328,-10732.986159,888.247130,-536.266849
2986.423665,-9622.677246,296.082377,-1838.629195
2986.424002,-8734.430116,-444.123565,-1455.581446
2986.424340,-10362.883188,0.000000,-2221.676944
2986.424677,-10955.047942,-2146.597232,-2987.772442
2986.425014,-8364.327145,-1628.453072,229.828649
2986.425352,-9770.718434,-2664.741391,2374.896044
2986.425689,-10214.842000,-1924.535449,919.314598
2986.426026,-10510.924376,-1258.350101,-766.095498
2986.426364,-11547.212695,-1406.391290,-1378.971896
2986.426701,-10955.047942,-2146.597232,76.609550
2986.427039,-9844.739029,-2368.659014,153.219100
2986.427376,-8956.491898,-1554.432478,76.609550
2986.427713,-9770.718434,-1702.473667,689.485948
2986.428051,-9844.739029,-2072.576638,0.000000
2986.428388,-9326.594869,-962.267725,612.876398
2986.428725,-9844.739029,-1110.308913,1838.629195
2986.429063,-10807.006753,-148.041188,1762.019645
2986.429400,-11399.171507,0.000000,766.095498
2986.429737,-10436.903782,0.000000,229.828649
2986.430075,-10140.821405,0.000000,0.000000
2986.430412,-10066.800811,296.082377,-306.438199
2986.430749,-9474.636058,740.205942,-383.047749
2986.431087,-10288.862594,-962.267725,-995.924147
2986.431424,-10436.903782,0.000000,-842.705048
2986.431761,-9992.780217,-592.164754,-612.876398
2986.432099,-9622.677246,-74.020594,153.219100
2986.432436,-9326.594869,0.000000,919.314598
2986.432773,-10436.903782,0.000000,459.657299
2986.433111,-9474.636058,1110.308913,0.000000
2986.433448,-9622.677246,-370.102971,0.000000
2986.433786,-9770.718434,962.267725,1991.848295
2986.434123,-10362.883188,518.144159,1762.019645
2986.434460,-10066.800811,222.061783,1225.752797
2986.434798,-9178.553681,296.082377,1838.629195
2986.435135,-9696.697840,1702.473667,3600.648841
2986.435472,-9548.656652,296.082377,1838.629195
2986.435810,-10436.903782,0.000000,76.609550
2986.436147,-10214.842000,592.164754,-229.828649
2986.436484,-9252.574275,666.185348,-1225.752797
2986.436822,-9104.533087,74.020594,-229.828649
2986.437159,-9104.533087,-666.185348,-689.485948
2986.437496,-9474.636058,444.123565,-842.705048
2986.437834,-10955.047942,74.020594,-1302.362347
2986.438171,-11177.109724,-666.185348,-2068.457845
2986.438508,-9844.739029,-666.185348,-1608.800546
2986.438846,-10436.903782,-1628.453072,-689.485948
2986.439183,-10214.842000,-2220.617826,-229.828649
2986.439521,-10881.027347,-1554.432478,-306.438199
2986.439858,-10584.944971,-1850.514855,0.000000
2986.440195,-10436.903782,-1480.411884,0.000000
2986.440533,-10881.027347,-1776.494261,1149.143247
2986.440870,-11325.150913,-1480.411884,1225.752797
2986.441207,-10584.944971,-814.226536,1378.971896
2986.441545,-10214.842000,-444.123565,2145.067394
2986.441882,-9992.780217,0.000000,1762.019645
2986.442219,-9622.677246,814.226536,995.924147
2986.442557,-10436.903782,518.144159,1225.752797
2986.442894,-9548.656652,666.185348,1378.971896
2986.443231,-10140.821405,1480.411884,919.314598
2986.443568,-10288.862594,1628.453072,229.828649
2986.443906,-9992.780217,1480.411884,919.314598
2986.444243,-9326.594869,1332.370696,-383.047749
2986.444580,-8364.327145,2146.597232,-76.609550
2986.444918,-9474.636058,1110.308913,612.876398
2986.445255,-9400.615463,-222.061783,842.705048
2986.445592,-9400.615463,0.000000,-612.876398
2986.445929,-8734.430116,148.041188,-229.828649
2986.446267,-9918.759623,-296.082377,0.000000
2986.446604,-9548.656652,0.000000,76.609550
2986.446941,-10436.903782,0.000000,-612.876398
2986.447279,-9326.594869,-444.123565,-842.705048
2986.447616,-9474.636058,-888.247130,-536.266849
2986.447953,-10140.821405,-1036.288319,1149.143247
2986.448290,-10288.862594,-1628.453072,1455.581446
2986.448628,-10066.800811,-1924.535449,1762.019645
2986.448965,-11251.130318,-1110.308913,2604.724693
2986.449302,-10584.944971,0.000000,1378.971896
2986.449639,-11177.109724,0.000000,766.095498
2986.449977,-11399.171507,-592.164754,459.657299
2986.450314,-10510.924376,-518.144159,-153.219100
2986.450651,-10214.842000,-814.226536,-689.485948
2986.450989,-10140.821405,-1258.350101,-1302.362347
2986.451326,-9400.615463,-1110.308913,-1991.848295
2986.451663,-9622.677246,-1332.370696,-2451.505594
2986.452000,-9178.553681,-1406.391290,-2298.286494
2986.452338,-9770.718434,-2220.617826,-842.705048
2986.452675,-10140.821405,-2368.659014,306.438199
2986.453012,-9104.533087,-518.144159,-689.485948
2986.453350,-10066.800811,-814.226536,612.876398
2986.453687,-10955.047942,-444.123565,766.095498
2986.454024,-11103.089130,-1776.494261,229.828649
2986.454361,-9696.697840,-740.205942,842.705048
2986.454699,-8512.368333,-592.164754,1378.971896
2986.455036,-9622.677246,148.041188,2757.943793
2986.455373,-10362.883188,1258.350101,3294.210641
2986.455710,-10510.924376,1776.494261,2451.505594
2986.456048,-10362.883188,2886.803174,1915.238745
2986.456385,-10584.944971,4145.153275,1378.971896
2986.456722,-11399.171507,2368.659014,1838.629195
2986.457060,-9992.780217,2220.617826,2298.286494
2986.457397,-7994.224174,2516.700203,1455.581446
2986.457734,-9844.739029,2812.782580,3447.429741
2986.458071,-10288.862594,2442.679609,2451.505594
2986.458409,-10955.047942,2294.638420,766.095498
2986.458746,-9622.677246,1628.453072,229.828649
2986.459083,-8956.491898,1702.473667,153.219100
2986.459421,-9992.780217,1110.308913,383.047749
2986.459758,-9696.697840,444.123565,229.828649
2986.460095,-9030.512492,0.000000,612.876398
2986.460432,-9252.574275,-296.082377,1532.190996
2986.460770,-10288.862594,296.082377,2068.457845
2986.461107,-10732.986159,1184.329507,1685.410096
2986.461444,-10732.986159,-370.102971,1225.752797
2986.461782,-10140.821405,-592.164754,1378.971896
2986.462119,-9474.636058,-666.185348,2681.334243
2986.462456,-9770.718434,0.000000,4979.620737
2986.462793,-10140.821405,814.226536,4443.353888
2986.463131,-11325.150913,1998.556043,2681.334243
2986.463468,-11399.171507,1702.473667,1915.238745
2986.463805,-11325.150913,296.082377,3294.210641
2986.464142,-10584.944971,370.102971,4060.306139
2986.464480,-8808.450710,1406.391290,3677.258390
2986.464817,-9252.574275,2220.617826,2987.772442
2986.465154,-10066.800811,2886.803174,2451.505594
2986.465492,-10510.924376,3256.906145,1072.533697
2986.465829,-10436.903782,2146.597232,1072.533697
2986.466166,-10510.924376,2812.782580,919.314598
2986.466503,-10436.903782,2220.617826,1149.143247
2986.466841,-10436.903782,1998.556043,459.657299
2986.467178,-9474.636058,1036.288319,1225.752797
2986.467515,-8068.244768,740.205942,2451.505594
2986.467853,-8808.450710,2072.576638,4443.353888
2986.468190,-9400.615463,2886.803174,3447.429741
2986.468527,-9992.780217,2960.823768,3677.258390
2986.468864,-10066.800811,2812.782580,2528.115143
2986.469202,-11547.212695,3256.906145,2987.772442
2986.469539,-11843.295072,2886.803174,2681.334243
2986.469876,-9992.780217,2738.761985,2681.334243
2986.470213,-8068.244768,1628.453072,2987.772442
2986.470551,-8808.450710,2812.782580,3983.696590
2986.470888,-8586.388927,2960.823768,3370.820191
2986.471225,-9770.718434,3034.844362,2528.115143
2986.471563,-11251.130318,2886.803174,1991.848295
2986.471900,-11399.171507,2886.803174,689.485948
2986.472237,-11325.150913,2664.741391,1225.752797
2986.472574,-8956.491898,1184.329507,1378.971896
2986.472912,-9326.594869,666.185348,2757.943793
2986.473249,-9918.759623,0.000000,2374.896044
2986.473586,-10214.842000,740.205942,536.266849
2986.473924,-9918.759623,370.102971,766.095498
2986.474261,-10066.800811,888.247130,153.219100
2986.474598,-10362.883188,-296.082377,459.657299
2986.474935,-11103.089130,-518.144159,612.876398
2986.475273,-9992.780217,222.061783,2298.286494
2986.475610,-10140.821405,0.000000,2221.676944
2986.475947,-9548.656652,0.000000,3140.991542
2986.476285,-10214.842000,0.000000,3140.991542
2986.476622,-11621.233289,0.000000,4136.915689
2986.476959,-9696.697840,1036.288319,3447.429741
2986.477296,-9474.636058,814.226536,4826.401637
2986.477634,-10288.862594,2516.700203,5822.325785
2986.477971,-9104.533087,3256.906145,3217.601092
2986.478308,-11769.274478,2664.741391,3064.381992
2986.478645,-11103.089130,3108.864956,1838.629195
2986.478983,-10658.965565,2442.679609,1915.238745
2986.479320,-10288.862594,2738.761985,1915.238745
2986.479657,-7994.224174,3034.844362,1149.143247
2986.479995,-9474.636058,2442.679609,1072.533697
2986.480332,-8364.327145,1406.391290,612.876398
2986.480669,-8660.409521,2220.617826,1378.971896
2986.481006,-9474.636058,2812.782580,1532.190996
2986.481344,-9326.594869,2294.638420,2451.505594
2986.481681,-10584.944971,2886.803174,2987.772442
2986.482018,-12065.356855,3182.885551,3370.820191
2986.482356,-11843.295072,2738.761985,1378.971896
2986.482693,-10066.800811,1332.370696,1149.143247
2986.483030,-9696.697840,-296.082377,2681.334243
2986.483367,-9696.697840,-518.144159,3600.648841
2986.483705,-8660.409521,444.123565,2145.067394
2986.484042,-9252.574275,1406.391290,2451.505594
2986.484379,-10732.986159,1628.453072,2451.505594
2986.484716,-10288.862594,3182.885551,766.095498
2986.485054,-9770.718434,3552.988522,995.924147
2986.485391,-9770.718434,2368.659014,3064.381992
2986.485728,-10584.944971,1776.494261,3140.991542
2986.486066,-11917.315666,2368.659014,2374.896044
2986.486403,-10066.800811,1998.556043,1302.362347
2986.486740,-9696.697840,-370.102971,2145.067394
2986.487077,-9918.759623,-740.205942,3447.429741
2986.487415,-9622.677246,1184.329507,2451.505594
2986.487752,-8586.388927,1480.411884,2298.286494
2986.488089,-9326.594869,1406.391290,689.485948
2986.488427,-11177.109724,1036.288319,383.047749
2986.488764,-11177.109724,1184.329507,1608.800546
2986.489101,-9474.636058,1998.556043,2451.505594
2986.489438,-9104.533087,2368.659014,3064.381992
2986.489776,-10584.944971,2368.659014,2374.896044
2986.490113,-11843.295072,592.164754,2757.943793
2986.490450,-10436.903782,444.123565,3294.210641
2986.490788,-8808.450710,1628.453072,4979.620737
2986.491125,-9252.574275,3182.885551,5286.058936
2986.491462,-10584.944971,3034.844362,3677.258390
2986.491799,-10955.047942,3923.091493,2451.505594
2986.492137,-10214.842000,3404.947333,1225.752797
2986.492474,-9252.574275,3701.029710,2221.676944
2986.492811,-9326.594869,4515.256246,2604.724693
2986.493148,-9474.636058,4663.297435,2528.115143
2986.493486,-10288.862594,4589.276840,1072.533697
2986.493823,-10732.986159,3775.050304,919.314598
2986.494160,-10658.965565,1850.514855,1149.143247
2986.494498,-9030.512492,1702.473667,1302.362347
2986.494835,-8290.306550,296.082377,536.266849
2986.495172,-8882.471304,0.000000,919.314598
2986.495509,-9400.615463,-148.041188,1762.019645
2986.495847,-9400.615463,222.061783,2681.334243
2986.496184,-9770.718434,1702.473667,2681.334243
2986.496521,-10140.821405,2664.741391,2374.896044
2986.496859,-12139.377449,2294.638420,2528.115143
2986.497196,-12509.480420,962.267725,2757.943793
2986.497533,-11251.130318,444.123565,3064.381992
2986.497870,-10436.903782,444.123565,3753.867940
2986.498208,-10066.800811,222.061783,3830.477490
2986.498545,-9770.718434,0.000000,3140.991542
2986.498882,-9992.780217,74.020594,3064.381992
2986.499220,-9548.656652,1554.432478,2298.286494
2986.499557,-10362.883188,2294.638420,1915.238745
2986.499894,-10955.047942,3182.885551,1532.190996
2986.500231,-10732.986159,3108.864956,919.314598
2986.500569,-10881.027347,2664.741391,1762.019645
2986.500906,-10214.842000,1776.494261,1685.410096
2986.501243,-9622.677246,1110.308913,2528.115143
2986.501580,-9770.718434,370.102971,2374.896044
2986.501918,-9474.636058,74.020594,1455.581446
2986.502255,-9252.574275,148.041188,459.657299
2986.502592,-8956.491898,-814.226536,766.095498
2986.502930,-9474.636058,296.082377,1072.533697
2986.503267,-8882.471304,666.185348,689.485948
2986.503604,-8882.471304,1998.556043,919.314598
2986.503941,-9178.553681,1998.556043,1225.752797
2986.504279,-9770.718434,2220.617826,2451.505594
2986.504616,-10732.986159,2294.638420,2834.553343
2986.504953,-10658.965565,1998.556043,2911.162892
2986.505291,-10881.027347,2442.679609,3140.991542
2986.505628,-10658.965565,1850.514855,2987.772442
2986.505965,-10658.965565,592.164754,3370.820191
2986.506302,-9548.656652,814.226536,3140.991542
2986.506640,-9548.656652,1184.329507,2911.162892
2986.506977,-10140.821405,2442.679609,2221.676944
2986.507314,-10288.862594,2960.823768,689.485948
2986.507651,-10436.903782,2294.638420,689.485948
2986.507989,-10584.944971,2368.659014,0.000000
2986.508326,-9770.718434,1628.453072,1455.581446
2986.508663,-10140.821405,962.267725,2451.505594
2986.509001,-9474.636058,370.102971,2604.724693
2986.509338,-9474.636058,148.041188,3600.648841
2986.509675,-10510.924376,518.144159,4213.525239
2986.510012,-10362.883188,296.082377,3753.867940
