#time,accel_x,accel_y,accel_z
3000.545233,-10436.903782,1184.329507,76.609550
3000.545571,-10362.883188,1332.370696,153.219100
3000.545909,-10140.821405,740.205942,0.000000
3000.546247,-9992.780217,1332.370696,-76.609550
3000.546585,-10140.821405,296.082377,-153.219100
3000.546923,-9844.739029,962.267725,-689.485948
3000.547261,-10140.821405,0.000000,-919.314598
3000.547599,-10140.821405,-592.164754,76.609550
3000.547937,-9770.718434,-1258.350101,0.000000
3000.548274,-10288.862594,-740.205942,-689.485948
3000.548612,-9400.615463,-888.247130,-1762.019645
3000.548950,-9770.718434,-1776.494261,-1991.848295
3000.549288,-10140.821405,-2812.782580,612.876398
3000.549626,-10214.842000,-2368.659014,612.876398
3000.549964,-9400.615463,-1258.350101,306.438199
3000.550302,-9918.759623,-1258.350101,536.266849
3000.550640,-11103.089130,-1628.453072,383.047749
3000.550978,-11399.171507,-1998.556043,766.095498
3000.551316,-9770.718434,-1554.432478,1302.362347
3000.551653,-9252.574275,-370.102971,1532.190996
3000.551991,-10881.027347,-370.102971,766.095498
3000.552329,-11325.150913,-666.185348,689.485948
3000.552667,-10288.862594,-518.144159,0.000000
3000.553005,-9622.677246,0.000000,766.095498
3000.553343,-9770.718434,666.185348,536.266849
3000.553681,-10214.842000,222.061783,-536.266849
3000.554019,-10510.924376,222.061783,-1225.752797
3000.554357,-9474.636058,0.000000,-306.438199
3000.554695,-9326.594869,74.020594,-919.314598
3000.555032,-9918.759623,-148.041188,-1302.362347
3000.555370,-9918.759623,-740.205942,-1991.848295
3000.555708,-9474.636058,-1480.411884,-2145.067394
3000.556046,-8290.306550,-1702.473667,-1378.971896
3000.556384,-8586.388927,-1628.453072,153.219100
3000.556722,-10436.903782,-1184.329507,-1072.533697
3000.557060,-10510.924376,-1332.370696,-2528.115143
3000.557398,-10658.965565,-1702.473667,-2374.896044
3000.557736,-9548.656652,-2220.617826,-689.485948
3000.558074,-9474.636058,-1850.514855,-306.438199
3000.558412,-10732.986159,-2072.576638,-612.876398
3000.558749,-10436.903782,-1110.308913,-2451.505594
3000.559087,-10214.842000,-2072.576638,-1838.629195
3000.559425,-10214.842000,-2442.679609,-1072.533697
3000.559763,-10140.821405,-2146.597232,-1838.629195
3000.560101,-11621.233289,-1776.494261,-2528.115143
3000.560439,-11103.089130,-2368.659014,-4060.306139
3000.560777,-9400.615463,-3552.988522,-5439.278036
3000.561115,-8660.409521,-3701.029710,-3600.648841
3000.561453,-8882.471304,-4663.297435,-2451.505594
3000.561791,-8956.491898,-3627.009116,-1685.410096
3000.562128,-10066.800811,-3478.967927,-2374.896044
3000.562466,-10214.842000,-2960.823768,-2757.943793
3000.562804,-10881.027347,-2590.720797,-2757.943793
3000.563142,-10955.047942,-4071.132681,-3983.696590
3000.563480,-10436.903782,-4737.318029,-4213.525239
3000.563818,-9770.718434,-6365.771101,-3064.381992
3000.564156,-8956.491898,-5329.482782,-1991.848295
3000.564494,-8734.430116,-5699.585753,-766.095498
3000.564832,-8364.327145,-4145.153275,-536.266849
3000.565170,-9400.615463,-2664.741391,-766.095498
3000.565508,-11621.233289,-1258.350101,-536.266849
3000.565845,-11547.212695,-666.185348,-1302.362347
3000.566183,-11251.130318,-962.267725,-995.924147
3000.566521,-11621.233289,-2294.638420,459.657299
3000.566859,-9844.739029,-1110.308913,0.000000
3000.567197,-9992.780217,-1850.514855,1302.362347
3000.567535,-9770.718434,-444.123565,842.705048
3000.567873,-9178.553681,-1776.494261,-995.924147
3000.568211,-9622.677246,-2220.617826,-919.314598
3000.568549,-8734.430116,-2072.576638,-1072.533697
3000.568887,-8660.409521,-888.247130,76.609550
3000.569224,-10362.883188,444.123565,-459.657299
3000.569562,-10732.986159,74.020594,-2298.286494
3000.569900,-11621.233289,-1110.308913,-3753.867940
3000.570238,-10510.924376,-3552.988522,-2911.162892
3000.570576,-9030.512492,-3330.926739,-1455.581446
3000.570914,-8290.306550,-4589.276840,-1532.190996
3000.571252,-8438.347739,-4071.132681,-1762.019645
3000.571590,-9178.553681,-4811.338623,-2145.067394
3000.571928,-9918.759623,-3775.050304,-2145.067394
3000.572266,-9474.636058,-1702.473667,-1838.629195
3000.572603,-9844.739029,-1480.411884,-2374.896044
3000.572941,-11991.336260,-444.123565,-1149.143247
3000.573279,-12953.603985,-1480.411884,-1991.848295
3000.573617,-11177.109724,-296.082377,-2068.457845
3000.573955,-8660.409521,-2072.576638,-1225.752797
3000.574293,-8808.450710,-2664.741391,229.828649
3000.574631,-11177.109724,-2664.741391,-459.657299
3000.574969,-10807.006753,-1184.329507,-2451.505594
3000.575307,-9474.636058,-1184.329507,-3753.867940
3000.575645,-10436.903782,-1924.535449,-3677.258390
3000.575983,-11991.336260,-740.205942,-4749.792088
3000.576320,-10807.006753,-1258.350101,-4903.011187
3000.576658,-9252.574275,-1184.329507,-3140.991542
3000.576996,-8438.347739,-1480.411884,-2068.457845
3000.577334,-10066.800811,-2146.597232,-2757.943793
3000.577672,-10732.986159,-2368.659014,-1532.190996
3000.578010,-9548.656652,-2960.823768,-1149.143247
3000.578348,-8660.409521,-2738.761985,383.047749
3000.578686,-9400.615463,-1554.432478,306.438199
3000.579024,-9844.739029,-1406.391290,229.828649
3000.579362,-10658.965565,-888.247130,-1378.971896
3000.579699,-9770.718434,-1998.556043,-2451.505594
3000.580037,-10807.006753,-814.226536,-1302.362347
3000.580375,-9918.759623,-1406.391290,-1455.581446
3000.580713,-8956.491898,-666.185348,-306.438199
3000.581051,-8660.409521,-1036.288319,-1378.971896
3000.581389,-9474.636058,-1628.453072,-1149.143247
3000.581727,-10140.821405,-1184.329507,-459.657299
3000.582065,-9474.636058,-1702.473667,153.219100
3000.582403,-9992.780217,-666.185348,766.095498
3000.582741,-10881.027347,-740.205942,-612.876398
3000.583078,-11177.109724,-1036.288319,-612.876398
3000.583416,-11769.274478,-2072.576638,-2451.505594
3000.583754,-11029.068536,-4145.153275,-2757.943793
3000.584092,-10214.842000,-4959.379811,-3753.867940
3000.584430,-8290.306550,-5995.668130,-4290.134789
3000.584768,-7994.224174,-6513.812290,-3217.601092
3000.585106,-8290.306550,-7105.977043,-2911.162892
3000.585444,-7920.203579,-5921.647536,-1838.629195
3000.585782,-10140.821405,-4293.194464,76.609550
3000.586120,-11029.068536,-2368.659014,-766.095498
3000.586458,-12139.377449,-2812.782580,-1455.581446
3000.586795,-12435.459826,-2664.741391,-2451.505594
3000.587133,-11325.150913,-4515.256246,-1378.971896
3000.587471,-10881.027347,-3627.009116,-1762.019645
3000.587809,-8512.368333,-4515.256246,-2528.115143
3000.588147,-8660.409521,-5625.565159,-2374.896044
3000.588485,-8438.347739,-5625.565159,-2298.286494
3000.588823,-9474.636058,-3552.988522,-1302.362347
3000.589161,-9918.759623,-1036.288319,-1532.190996
3000.589499,-10955.047942,1258.350101,-2681.334243
3000.589837,-11547.212695,444.123565,-3983.696590
3000.590174,-12731.542202,296.082377,-4060.306139
3000.590512,-10584.944971,-1480.411884,-3447.429741
3000.590850,-9474.636058,-3627.009116,-1762.019645
3000.591188,-7624.121203,-4219.173869,-919.314598
3000.591526,-8438.347739,-4515.256246,-919.314598
3000.591864,-9104.533087,-3478.967927,-1378.971896
3000.592202,-8586.388927,-3404.947333,-2221.676944
3000.592540,-9696.697840,-2294.638420,-1915.238745
3000.592878,-10732.986159,-888.247130,-3140.991542
3000.593216,-11177.109724,-888.247130,-3370.820191
3000.593553,-9474.636058,-740.205942,-2145.067394
3000.593891,-9030.512492,-1776.494261,0.000000
3000.594229,-10140.821405,-1184.329507,689.485948
3000.594567,-10510.924376,-1036.288319,-536.266849
3000.594905,-10584.944971,-2294.638420,-306.438199
3000.595243,-10214.842000,-2812.782580,-689.485948
3000.595581,-9474.636058,-3256.906145,-612.876398
3000.595919,-10066.800811,-2368.659014,0.000000
3000.596257,-10140.821405,-962.267725,-306.438199
3000.596595,-10362.883188,444.123565,-2068.457845
3000.596933,-11325.150913,962.267725,-2911.162892
3000.597270,-11695.253884,0.000000,-2987.772442
3000.597608,-11103.089130,-1332.370696,-3140.991542
3000.597946,-10140.821405,-2146.597232,-2911.162892
3000.598284,-7846.182985,-3330.926739,-2451.505594
3000.598622,-8882.471304,-4219.173869,0.000000
3000.598960,-9178.553681,-4219.173869,383.047749
3000.599298,-9474.636058,-2738.761985,0.000000
3000.599636,-11473.192101,-1036.288319,-919.314598
3000.599974,-12361.439231,-1110.308913,-2068.457845
3000.600312,-11325.150913,-1480.411884,-3217.601092
3000.600649,-9548.656652,-2072.576638,-1838.629195
3000.600987,-8216.285956,-1184.329507,766.095498
3000.601325,-8068.244768,0.000000,1072.533697
3000.601663,-9992.780217,148.041188,229.828649
3000.602001,-11621.233289,-814.226536,306.438199
3000.602339,-10584.944971,-518.144159,612.876398
3000.602676,-9992.780217,222.061783,2604.724693
3000.603014,-10955.047942,1924.535449,2068.457845
3000.603351,-10807.006753,1406.391290,-1378.971896
3000.603689,-10658.965565,370.102971,-1762.019645
3000.604026,-8882.471304,-1036.288319,-2221.676944
3000.604363,-8364.327145,-814.226536,-383.047749
3000.604701,-9400.615463,-888.247130,0.000000
3000.605038,-9844.739029,-296.082377,-153.219100
3000.605376,-8586.388927,74.020594,-1991.848295
3000.605713,-8956.491898,0.000000,76.609550
3000.606051,-11251.130318,-1184.329507,1149.143247
3000.606388,-10510.924376,-1480.411884,-1378.971896
3000.606725,-10436.903782,-1776.494261,-1072.533697
3000.607063,-9844.739029,-3330.926739,306.438199
3000.607400,-9770.718434,-3478.967927,995.924147
3000.607738,-9252.574275,-3108.864956,842.705048
3000.608075,-11399.171507,-2220.617826,842.705048
3000.608412,-9770.718434,-1776.494261,-459.657299
3000.608750,-10510.924376,-2072.576638,0.000000
3000.609087,-10066.800811,-592.164754,2298.286494
3000.609425,-10510.924376,-444.123565,2068.457845
3000.609762,-11843.295072,0.000000,919.314598
3000.610099,-12139.377449,222.061783,-919.314598
3000.610437,-12509.480420,-1258.350101,-1762.019645
3000.610774,-10510.924376,-1850.514855,-1072.533697
3000.611112,-7698.141797,-2442.679609,-612.876398
3000.611449,-7772.162391,-1924.535449,459.657299
3000.611787,-9770.718434,-1480.411884,76.609550
3000.612124,-10362.883188,-1480.411884,-1762.019645
3000.612461,-10066.800811,-1406.391290,-1378.971896
3000.612799,-10436.903782,-444.123565,306.438199
3000.613136,-10214.842000,-592.164754,1302.362347
3000.613474,-11103.089130,666.185348,1762.019645
3000.613811,-10584.944971,0.000000,689.485948
3000.614148,-10140.821405,-444.123565,-153.219100
3000.614486,-9918.759623,-888.247130,459.657299
3000.614823,-8882.471304,-1258.350101,2145.067394
3000.615161,-8290.306550,-740.205942,2604.724693
3000.615498,-9474.636058,888.247130,3294.210641
3000.615835,-10881.027347,2738.761985,3217.601092
3000.616173,-11251.130318,3849.070898,1302.362347
3000.616510,-11325.150913,2886.803174,0.000000
3000.616848,-10807.006753,2664.741391,0.000000
3000.617185,-9548.656652,888.247130,612.876398
3000.617523,-9474.636058,592.164754,1685.410096
3000.617860,-8586.388927,370.102971,842.705048
3000.618197,-8216.285956,148.041188,0.000000
3000.618535,-10140.821405,-296.082377,0.000000
3000.618872,-9992.780217,-444.123565,-1302.362347
3000.619210,-9770.718434,-74.020594,-536.266849
3000.619547,-9770.718434,0.000000,-842.705048
3000.619884,-10214.842000,-1036.288319,-2834.553343
3000.620222,-10436.903782,-1184.329507,-2834.553343
3000.620559,-10214.842000,-2664.741391,-2221.676944
3000.620897,-9104.533087,-3330.926739,-1225.752797
3000.621234,-8882.471304,-3330.926739,995.924147
3000.621571,-10436.903782,-2812.782580,1685.410096
3000.621909,-11177.109724,-2368.659014,919.314598
3000.622246,-10955.047942,-1702.473667,-689.485948
3000.622584,-11177.109724,-2220.617826,-383.047749
3000.622921,-10881.027347,-1332.370696,919.314598
3000.623258,-10288.862594,-222.061783,612.876398
3000.623596,-10362.883188,-148.041188,689.485948
3000.623933,-10955.047942,-370.102971,0.000000
3000.624271,-10214.842000,-962.267725,-229.828649
3000.624608,-10955.047942,-814.226536,612.876398
3000.624946,-10214.842000,-666.185348,1149.143247
3000.625283,-9474.636058,148.041188,842.705048
3000.625620,-10362.883188,666.185348,153.219100
3000.625958,-11399.171507,666.185348,-612.876398
3000.626295,-10807.006753,962.267725,-1302.362347
3000.626633,-10362.883188,222.061783,-536.266849
3000.626970,-8882.471304,962.267725,0.000000
3000.627307,-8216.285956,74.020594,0.000000
3000.627645,-9548.656652,0.000000,1455.581446
3000.627982,-9770.718434,-518.144159,0.000000
3000.628320,-9252.574275,-518.144159,0.000000
3000.628657,-8734.430116,-296.082377,842.705048
3000.628994,-8586.388927,518.144159,2451.505594
3000.629332,-9178.553681,1036.288319,2374.896044
3000.629669,-9844.739029,1702.473667,1532.190996
3000.630007,-10807.006753,1406.391290,1608.800546
3000.630344,-11621.233289,1110.308913,995.924147
3000.630682,-10066.800811,148.041188,612.876398
3000.631019,-9770.718434,-222.061783,1455.581446
3000.631356,-9104.533087,-296.082377,1991.848295
3000.631694,-9622.677246,296.082377,1225.752797
3000.632031,-10436.903782,-444.123565,-612.876398
3000.632369,-10214.842000,-1406.391290,-995.924147
3000.632706,-10510.924376,-814.226536,-1072.533697
3000.633043,-10510.924376,-1480.411884,-689.485948
3000.633381,-9918.759623,-1258.350101,-306.438199
3000.633718,-10066.800811,-2146.597232,-1302.362347
3000.634056,-9992.780217,-2590.720797,-1762.019645
3000.634393,-9770.718434,-3108.864956,-1072.533697
3000.634730,-10436.903782,-3330.926739,766.095498
3000.635068,-10362.883188,-3404.947333,229.828649
3000.635405,-10510.924376,-3034.844362,0.000000
3000.635743,-10658.965565,-2146.597232,76.609550
3000.636080,-10807.006753,-1998.556043,153.219100
3000.636418,-9992.780217,-2442.679609,1378.971896
3000.636755,-9992.780217,-1702.473667,2451.505594
3000.637092,-10066.800811,-296.082377,2911.162892
3000.637430,-10881.027347,444.123565,2221.676944
3000.637767,-10955.047942,814.226536,306.438199
3000.638105,-11325.150913,1184.329507,229.828649
3000.638442,-11399.171507,888.247130,76.609550
3000.638779,-9400.615463,2146.597232,0.000000
3000.639117,-8956.491898,1480.411884,1072.533697
3000.639454,-10288.862594,1702.473667,766.095498
3000.639792,-9844.739029,1184.329507,-919.314598
3000.640129,-9696.697840,2886.803174,0.000000
3000.640466,-10362.883188,2146.597232,536.266849
3000.640804,-9548.656652,1924.535449,-995.924147
3000.641141,-8586.388927,2294.638420,-1915.238745
3000.641479,-8586.388927,148.041188,-1455.581446
3000.641816,-9030.512492,-148.041188,1225.752797
3000.642154,-8882.471304,0.000000,76.609550
3000.642491,-9178.553681,518.144159,306.438199
3000.642828,-9696.697840,0.000000,919.314598
3000.643166,-10362.883188,-518.144159,612.876398
3000.643503,-10436.903782,-888.247130,766.095498
3000.643841,-9326.594869,-1110.308913,919.314598
3000.644178,-9030.512492,592.164754,919.314598
3000.644515,-10658.965565,370.102971,229.828649
3000.644853,-11177.109724,370.102971,-383.047749
3000.645190,-10288.862594,-518.144159,-689.485948
3000.645528,-10658.965565,-1258.350101,842.705048
3000.645865,-10807.006753,-1850.514855,1608.800546
3000.646202,-10732.986159,-1480.411884,1149.143247
3000.646540,-10288.862594,-1924.535449,0.000000
3000.646877,-9548.656652,-962.267725,-459.657299
3000.647215,-10881.027347,-1628.453072,-306.438199
3000.647552,-11325.150913,-962.267725,-1915.238745
3000.647890,-10066.800811,-2220.617826,-2604.724693
3000.648227,-9918.759623,-2590.720797,-306.438199
3000.648564,-9622.677246,-2368.659014,229.828649
3000.648902,-9252.574275,-1776.494261,919.314598
3000.649239,-10066.800811,-1776.494261,1685.410096
3000.649577,-9992.780217,-962.267725,306.438199
3000.649914,-10732.986159,-888.247130,153.219100
3000.650251,-10362.883188,-222.061783,1302.362347
3000.650589,-9770.718434,518.144159,2068.457845
3000.650926,-9622.677246,0.000000,2068.457845
3000.651264,-9622.677246,1702.473667,1915.238745
3000.651601,-10140.821405,1554.432478,2374.896044
3000.651938,-10658.965565,1480.411884,2987.772442
3000.652276,-9992.780217,1850.514855,2221.676944
3000.652613,-10140.821405,2368.659014,1225.752797
3000.652951,-11325.150913,3034.844362,459.657299
3000.653288,-10066.800811,2072.576638,-1072.533697
3000.653626,-8290.306550,2220.617826,-995.924147
3000.653963,-9548.656652,1036.288319,-842.705048
3000.654300,-9104.533087,1850.514855,-1532.190996
3000.654638,-9770.718434,1776.494261,-2145.067394
3000.654975,-10510.924376,592.164754,-1302.362347
3000.655313,-9770.718434,-962.267725,-1378.971896
3000.655650,-8882.471304,-1480.411884,-689.485948
3000.655987,-9770.718434,-962.267725,536.266849
3000.656325,-9252.574275,-2072.576638,306.438199
3000.656662,-10214.842000,-1702.473667,153.219100
3000.657000,-9992.780217,-666.185348,-459.657299
3000.657337,-11029.068536,-1776.494261,76.609550
3000.657674,-9918.759623,-1998.556043,0.000000
3000.658012,-10510.924376,-1998.556043,612.876398
3000.658349,-10807.006753,-1702.473667,1225.752797
3000.658687,-10288.862594,-1406.391290,153.219100
3000.659024,-10214.842000,-1480.411884,766.095498
3000.659362,-10214.842000,-1110.308913,-459.657299
3000.659699,-10288.862594,-1406.391290,-612.876398
3000.660036,-10732.986159,-814.226536,0.000000
3000.660374,-9030.512492,-1406.391290,0.000000
3000.660711,-10140.821405,0.000000,1225.752797
3000.661049,-11547.212695,-148.041188,-153.219100
3000.661386,-10732.986159,-296.082377,-1838.629195
3000.661723,-10881.027347,-444.123565,-919.314598
3000.662061,-9992.780217,-962.267725,0.000000
3000.662398,-7624.121203,-740.205942,229.828649
3000.662736,-9252.574275,-1480.411884,1072.533697
3000.663073,-9770.718434,74.020594,612.876398
3000.663410,-9992.780217,222.061783,-689.485948
3000.663748,-9992.780217,74.020594,1302.362347
3000.664085,-8956.491898,-296.082377,1608.800546
3000.664423,-9548.656652,888.247130,3064.381992
3000.664760,-10658.965565,2368.659014,2451.505594
3000.665098,-10362.883188,2368.659014,919.314598
3000.665435,-10214.842000,1776.494261,536.266849
3000.665772,-9696.697840,814.226536,1302.362347
3000.666110,-9400.615463,814.226536,1991.848295
3000.666447,-9104.533087,370.102971,2604.724693
3000.666785,-9918.759623,1850.514855,1225.752797
3000.667122,-9622.677246,2368.659014,0.000000
3000.667459,-11251.130318,1998.556043,-1455.581446
3000.667797,-10436.903782,0.000000,-1608.800546
3000.668134,-9992.780217,148.041188,-612.876398
3000.668472,-9178.553681,740.205942,536.266849
3000.668809,-9918.759623,222.061783,459.657299
3000.669146,-10288.862594,-592.164754,-1225.752797
3000.669484,-10510.924376,-1332.370696,-2374.896044
3000.669821,-10214.842000,-3182.885551,-1225.752797
3000.670159,-9622.677246,-2294.638420,306.438199
3000.670496,-8808.450710,-1480.411884,612.876398
3000.670834,-9918.759623,-888.247130,0.000000
3000.671171,-10436.903782,-444.123565,-1302.362347
3000.671508,-11769.274478,-148.041188,-995.924147
3000.671846,-11399.171507,-518.144159,1072.533697
3000.672183,-9474.636058,-1554.432478,1455.581446
3000.672521,-8734.430116,-666.185348,3064.381992
3000.672858,-9844.739029,0.000000,3064.381992
3000.673195,-10288.862594,666.185348,612.876398
3000.673533,-11251.130318,1110.308913,-1149.143247
3000.673870,-11251.130318,370.102971,-689.485948
3000.674208,-9844.739029,74.020594,0.000000
3000.674545,-9474.636058,666.185348,842.705048
3000.674882,-8734.430116,814.226536,536.266849
3000.675220,-9252.574275,148.041188,0.000000
3000.675557,-10955.047942,592.164754,-459.657299
3000.675895,-11103.089130,74.020594,-1685.410096
3000.676232,-9104.533087,-1184.329507,-383.047749
3000.676570,-8734.430116,-1110.308913,1532.190996
3000.676907,-9252.574275,-1184.329507,2145.067394
3000.677244,-10140.821405,148.041188,612.876398
3000.677582,-10658.965565,74.020594,-536.266849
3000.677919,-10881.027347,-518.144159,-459.657299
3000.678257,-9992.780217,-1480.411884,306.438199
3000.678594,-9844.739029,-1036.288319,2068.457845
3000.678931,-9474.636058,666.185348,2987.772442
3000.679269,-11251.130318,444.123565,1608.800546
3000.679606,-11695.253884,518.144159,306.438199
3000.679944,-11177.109724,0.000000,76.609550
3000.680281,-9548.656652,-444.123565,1225.752797
3000.680618,-8882.471304,-666.185348,1915.238745
3000.680956,-9474.636058,222.061783,1302.362347
3000.681293,-10881.027347,888.247130,0.000000
3000.681631,-11399.171507,0.000000,-2145.067394
3000.681968,-9474.636058,-518.144159,-2451.505594
3000.682306,-8660.409521,-1332.370696,-612.876398
3000.682643,-9252.574275,-740.205942,1225.752797
3000.682980,-9770.718434,-592.164754,-76.609550
3000.683318,-10658.965565,-888.247130,-1072.533697
3000.683655,-10807.006753,-1110.308913,-2374.896044
3000.683993,-9252.574275,-1406.391290,-2221.676944
3000.684330,-7772.162391,-1110.308913,229.828649
3000.684667,-8364.327145,-1702.473667,612.876398
3000.685005,-9178.553681,-962.267725,383.047749
3000.685342,-10732.986159,-518.144159,-306.438199
3000.685680,-12213.398043,370.102971,306.438199
3000.686017,-11029.068536,888.247130,76.609550
3000.686354,-9770.718434,444.123565,1225.752797
3000.686692,-9918.759623,814.226536,3524.039291
3000.687029,-9474.636058,2220.617826,2298.286494
3000.687367,-10362.883188,1480.411884,1302.362347
3000.687704,-10881.027347,1184.329507,0.000000
3000.688042,-10881.027347,1110.308913,0.000000
3000.688379,-9622.677246,1332.370696,766.095498
3000.688716,-9696.697840,740.205942,1455.581446
3000.689054,-9770.718434,1776.494261,689.485948
3000.689391,-10510.924376,666.185348,-1302.362347
3000.689729,-10436.903782,222.061783,-2604.724693
3000.690066,-9030.512492,-888.247130,-2145.067394
3000.690403,-8734.430116,-2368.659014,-536.266849
3000.690741,-8512.368333,-2146.597232,1608.800546
3000.691078,-8586.388927,-2072.576638,1915.238745
3000.691416,-9918.759623,-1184.329507,383.047749
3000.691753,-11547.212695,-1480.411884,-842.705048
3000.692090,-10510.924376,-1480.411884,-612.876398
3000.692428,-9918.759623,-1110.308913,1838.629195
3000.692765,-9548.656652,-1258.350101,2834.553343
3000.693103,-9918.759623,-518.144159,2298.286494
3000.693440,-11843.295072,370.102971,919.314598
3000.693778,-11843.295072,-444.123565,-76.609550
3000.694115,-10732.986159,-592.164754,-76.609550
3000.694452,-10066.800811,-296.082377,1838.629195
3000.694790,-9844.739029,0.000000,3140.991542
3000.695127,-9770.718434,962.267725,2145.067394
3000.695465,-10584.944971,1406.391290,0.000000
3000.695802,-11325.150913,962.267725,-995.924147
3000.696139,-11103.089130,592.164754,-1685.410096
3000.696477,-8734.430116,-518.144159,-76.609550
3000.696814,-8956.491898,222.061783,1302.362347
3000.697152,-8882.471304,592.164754,766.095498
3000.697489,-10362.883188,444.123565,-1225.752797
3000.697826,-10436.903782,-370.102971,-2374.896044
3000.698164,-9474.636058,-1850.514855,-536.266849
3000.698501,-8586.388927,-1110.308913,1991.848295
3000.698839,-8216.285956,-296.082377,2298.286494
3000.699176,-8808.450710,444.123565,1302.362347
3000.699513,-10066.800811,1406.391290,-842.705048
3000.699851,-10955.047942,222.061783,-2451.505594
3000.700188,-10214.842000,0.000000,-459.657299
3000.700526,-10066.800811,-148.041188,1455.581446
3000.700863,-9474.636058,1036.288319,1378.971896
3000.701201,-9770.718434,518.144159,1532.190996
3000.701538,-11029.068536,1776.494261,-153.219100
3000.701875,-10955.047942,740.205942,-1455.581446
3000.702213,-9992.780217,-888.247130,-842.705048
3000.702550,-9696.697840,-1406.391290,1149.143247
3000.702888,-10288.862594,-592.164754,1225.752797
3000.703225,-10362.883188,0.000000,76.609550
3000.703562,-10807.006753,0.000000,-1762.019645
3000.703900,-10510.924376,-222.061783,-2451.505594
3000.704237,-10510.924376,-1628.453072,-2451.505594
3000.704574,-9622.677246,-2368.659014,-459.657299
3000.704911,-8660.409521,-2516.700203,306.438199
3000.705248,-9696.697840,-1924.535449,459.657299
3000.705585,-10584.944971,-1924.535449,0.000000
3000.705922,-10658.965565,-2146.597232,-995.924147
3000.706259,-10140.821405,-2368.659014,0.000000
3000.706597,-9548.656652,-3034.844362,2298.286494
3000.706934,-8882.471304,-1480.411884,3064.381992
3000.707271,-10140.821405,-888.247130,3524.039291
3000.707608,-11695.253884,148.041188,1762.019645
3000.707945,-11251.130318,888.247130,-306.438199
3000.708282,-10066.800811,666.185348,536.266849
3000.708619,-9252.574275,444.123565,2911.162892
3000.708956,-9474.636058,1924.535449,2528.115143
3000.709294,-10288.862594,2294.638420,1685.410096
3000.709631,-11769.274478,1850.514855,229.828649
3000.709968,-11177.109724,1258.350101,-995.924147
3000.710305,-9622.677246,1628.453072,-459.657299
3000.710642,-7846.182985,1406.391290,1225.752797
3000.710979,-8512.368333,740.205942,1532.190996
3000.711316,-10658.965565,1480.411884,229.828649
3000.711653,-10807.006753,1332.370696,-2451.505594
3000.711991,-10066.800811,0.000000,-1838.629195
3000.712328,-9400.615463,-444.123565,-229.828649
3000.712665,-7105.977043,0.000000,1072.533697
3000.713002,-8808.450710,74.020594,1915.238745
3000.713339,-10140.821405,-148.041188,766.095498
3000.713676,-10658.965565,-1480.411884,-1225.752797
3000.714013,-10732.986159,-1480.411884,-995.924147
3000.714350,-9030.512492,-740.205942,-383.047749
3000.714688,-9104.533087,-1998.556043,1149.143247
3000.715025,-9548.656652,-1776.494261,1838.629195
3000.715362,-10362.883188,-962.267725,459.657299
3000.715699,-11399.171507,-370.102971,0.000000
3000.716036,-11029.068536,-666.185348,-842.705048
3000.716373,-10436.903782,-1110.308913,-536.266849
3000.716710,-10881.027347,-1554.432478,229.828649
3000.717047,-9474.636058,-1184.329507,229.828649
3000.717385,-11177.109724,-518.144159,306.438199
3000.717722,-11621.233289,-1406.391290,-1991.848295
3000.718059,-10362.883188,-1258.350101,-3140.991542
3000.718396,-11177.109724,-1332.370696,-383.047749
3000.718733,-9770.718434,-1924.535449,-536.266849
3000.719070,-9400.615463,-1924.535449,459.657299
3000.719407,-10807.006753,-1258.350101,0.000000
3000.719744,-9918.759623,-666.185348,-1378.971896
3000.720082,-10584.944971,-666.185348,0.000000
3000.720419,-9992.780217,-666.185348,689.485948
3000.720756,-9400.615463,-666.185348,2298.286494
3000.721093,-10436.903782,666.185348,3294.210641
3000.721430,-10732.986159,1258.350101,919.314598
3000.721767,-10658.965565,1776.494261,459.657299
3000.722104,-9992.780217,1036.288319,306.438199
3000.722441,-8364.327145,1110.308913,2221.676944
3000.722779,-9326.594869,1702.473667,2834.553343
3000.723116,-9326.594869,814.226536,2068.457845
3000.723453,-9400.615463,2442.679609,995.924147
3000.723790,-10066.800811,2442.679609,0.000000
3000.724127,-10510.924376,2072.576638,-919.314598
3000.724464,-10510.924376,666.185348,0.000000
3000.724801,-9326.594869,1406.391290,-153.219100
3000.725138,-9030.512492,1110.308913,-306.438199
3000.725476,-9474.636058,-370.102971,-612.876398
3000.725813,-9178.553681,-962.267725,-1685.410096
3000.726150,-9326.594869,-1406.391290,-1225.752797
3000.726487,-9400.615463,-1924.535449,689.485948
3000.726824,-9918.759623,-1036.288319,0.000000
3000.727161,-10658.965565,-2368.659014,229.828649
3000.727498,-10510.924376,-1258.350101,-612.876398
3000.727835,-10362.883188,-2590.720797,0.000000
3000.728173,-11029.068536,-2812.782580,1991.848295
3000.728510,-9622.677246,-2220.617826,1838.629195
3000.728847,-10510.924376,-2072.576638,995.924147
3000.729184,-11251.130318,-2072.576638,1149.143247
3000.729521,-10510.924376,-2146.597232,766.095498
3000.729858,-11029.068536,-1480.411884,306.438199
3000.730195,-10362.883188,-1110.308913,0.000000
3000.730532,-10066.800811,-370.102971,153.219100
3000.730870,-10214.842000,-1258.350101,-383.047749
3000.731207,-10140.821405,-518.144159,-1072.533697
3000.731544,-9770.718434,-1184.329507,-229.828649
3000.731881,-10436.903782,-1184.329507,536.266849
3000.732218,-9622.677246,-1480.411884,-229.828649
3000.732555,-10066.800811,-592.164754,0.000000
3000.732892,-10066.800811,518.144159,-383.047749
3000.733229,-9992.780217,-444.123565,-689.485948
3000.733567,-9918.759623,-518.144159,-536.266849
3000.733904,-9770.718434,-1036.288319,-76.609550
3000.734241,-8808.450710,74.020594,306.438199
3000.734578,-8364.327145,0.000000,689.485948
3000.734915,-9548.656652,370.102971,1762.019645
3000.735252,-10288.862594,148.041188,1149.143247
3000.735589,-9770.718434,444.123565,2145.067394
3000.735926,-12065.356855,2146.597232,2681.334243
3000.736264,-10955.047942,1998.556043,1762.019645
3000.736601,-10140.821405,2072.576638,842.705048
3000.736938,-10436.903782,2368.659014,1378.971896
3000.737275,-11695.253884,1258.350101,689.485948
3000.737612,-10288.862594,888.247130,-536.266849
3000.737949,-9548.656652,1184.329507,-1225.752797
3000.738286,-9326.594869,74.020594,0.000000
3000.738623,-8956.491898,666.185348,-1532.190996
3000.738961,-8808.450710,74.020594,-1762.019645
3000.739298,-9770.718434,-444.123565,-766.095498
3000.739635,-9474.636058,-1184.329507,-1455.581446
3000.739972,-12213.398043,-1776.494261,-1302.362347
3000.740309,-9252.574275,-2664.741391,-919.314598
3000.740646,-8142.265362,-2812.782580,-689.485948
3000.740983,-11473.192101,-3478.967927,1532.190996
3000.741320,-9474.636058,-3034.844362,0.000000
3000.741658,-7994.224174,-3108.864956,459.657299
3000.741995,-11621.233289,-2960.823768,1762.019645
3000.742332,-10881.027347,-1998.556043,689.485948
3000.742669,-10732.986159,-1924.535449,-919.314598
3000.743006,-10658.965565,-1184.329507,1225.752797
3000.743343,-10288.862594,-518.144159,919.314598
3000.743680,-10214.842000,148.041188,1762.019645
3000.744017,-9992.780217,-370.102971,919.314598
3000.744355,-10732.986159,1184.329507,612.876398
3000.744692,-11547.212695,1628.453072,-612.876398
3000.745029,-10658.965565,0.000000,-766.095498
3000.745366,-9326.594869,222.061783,153.219100
3000.745703,-8586.388927,444.123565,766.095498
3000.746040,-9918.759623,148.041188,612.876398
3000.746377,-10436.903782,0.000000,-76.609550
3000.746714,-10214.842000,518.144159,-995.924147
3000.747052,-10214.842000,0.000000,-842.705048
3000.747389,-10214.842000,-148.041188,0.000000
3000.747726,-9178.553681,-370.102971,536.266849
3000.748063,-8956.491898,74.020594,153.219100
3000.748400,-8956.491898,592.164754,76.609550
3000.748737,-9918.759623,666.185348,612.876398
3000.749074,-10436.903782,-888.247130,536.266849
3000.749411,-10955.047942,-1110.308913,1149.143247
3000.749749,-10066.800811,-370.102971,1685.410096
3000.750086,-10066.800811,592.164754,2374.896044
3000.750423,-9474.636058,370.102971,2145.067394
3000.750760,-9844.739029,222.061783,1378.971896
3000.751097,-10436.903782,1036.288319,153.219100
3000.751434,-10955.047942,518.144159,-76.609550
3000.751771,-11251.130318,518.144159,76.609550
3000.752108,-10066.800811,74.020594,-1149.143247
3000.752446,-8882.471304,0.000000,0.000000
3000.752783,-9474.636058,-666.185348,-612.876398
3000.753120,-10436.903782,-1332.370696,0.000000
3000.753457,-10658.965565,-1924.535449,-689.485948
3000.753794,-9474.636058,-1184.329507,-459.657299
3000.754131,-10362.883188,-1924.535449,0.000000
3000.754468,-10658.965565,-1924.535449,383.047749
3000.754805,-9696.697840,-2072.576638,-842.705048
3000.755143,-8734.430116,-2442.679609,-919.314598
3000.755480,-9030.512492,-2368.659014,1072.533697
3000.755817,-9622.677246,-2368.659014,2221.676944
3000.756154,-11325.150913,-1776.494261,1838.629195
3000.756491,-10807.006753,-1036.288319,2068.457845
3000.756828,-10362.883188,592.164754,842.705048
3000.757165,-10362.883188,888.247130,0.000000
3000.757502,-10362.883188,-962.267725,-383.047749
3000.757840,-9104.533087,-1110.308913,1378.971896
3000.758177,-8882.471304,222.061783,2145.067394
3000.758514,-10732.986159,2368.659014,2068.457845
3000.758851,-11473.192101,2220.617826,0.000000
3000.759188,-11029.068536,1332.370696,-1302.362347
3000.759525,-10214.842000,1036.288319,-1072.533697
3000.759862,-9474.636058,444.123565,-459.657299
3000.760199,-8882.471304,370.102971,536.266849
3000.760537,-9844.739029,222.061783,-612.876398
3000.760874,-10510.924376,-370.102971,-2298.286494
3000.761211,-10288.862594,-962.267725,-2298.286494
3000.761548,-8734.430116,-1554.432478,-842.705048
3000.761885,-8364.327145,-2220.617826,1302.362347
3000.762222,-9474.636058,-1628.453072,1455.581446
3000.762559,-9844.739029,-888.247130,459.657299
3000.762896,-10288.862594,-888.247130,-1149.143247
3000.763234,-10732.986159,-1480.411884,-153.219100
3000.763571,-10288.862594,-1628.453072,689.485948
3000.763908,-10584.944971,-1332.370696,1838.629195
3000.764245,-9474.636058,814.226536,1455.581446
3000.764582,-9548.656652,444.123565,842.705048
3000.764919,-11177.109724,888.247130,1072.533697
3000.765256,-11843.295072,222.061783,-842.705048
3000.765594,-11843.295072,0.000000,-842.705048
3000.765931,-9548.656652,-740.205942,919.314598
3000.766268,-9474.636058,-592.164754,1532.190996
3000.766605,-9770.718434,666.185348,1762.019645
3000.766942,-9770.718434,1406.391290,-536.266849
3000.767279,-11769.274478,0.000000,-1149.143247
3000.767616,-11621.233289,-444.123565,-1225.752797
3000.767953,-9622.677246,-370.102971,0.000000
3000.768291,-9104.533087,0.000000,1378.971896
3000.768628,-8882.471304,-1184.329507,766.095498
3000.768965,-9474.636058,-1258.350101,-306.438199
3000.769302,-9992.780217,-1332.370696,536.266849
3000.769639,-9030.512492,-370.102971,689.485948
3000.769976,-8512.368333,-962.267725,842.705048
3000.770313,-9474.636058,-592.164754,1225.752797
3000.770650,-8882.471304,0.000000,1455.581446
3000.770988,-10066.800811,-1184.329507,2068.457845
3000.771325,-10140.821405,-370.102971,2298.286494
3000.771662,-8734.430116,0.000000,1991.848295
3000.771999,-10214.842000,1184.329507,2374.896044
3000.772336,-11325.150913,1480.411884,2604.724693
3000.772673,-11621.233289,1628.453072,0.000000
3000.773010,-11399.171507,1702.473667,-919.314598
3000.773347,-10955.047942,444.123565,-1608.800546
3000.773685,-9844.739029,0.000000,-1149.143247
3000.774022,-9104.533087,-1406.391290,-1149.143247
3000.774359,-8734.430116,0.000000,153.219100
3000.774696,-9992.780217,-814.226536,-612.876398
3000.775033,-10807.006753,0.000000,-1915.238745
3000.775370,-10510.924376,-1184.329507,-2911.162892
3000.775707,-10288.862594,-1924.535449,-1072.533697
3000.776044,-9548.656652,-1850.514855,536.266849
3000.776382,-9474.636058,-2146.597232,1302.362347
3000.776719,-10584.944971,-592.164754,459.657299
3000.777056,-10955.047942,-1110.308913,-1378.971896
3000.777393,-11547.212695,-1776.494261,-153.219100
3000.777730,-9178.553681,-2072.576638,612.876398
3000.778067,-8586.388927,-1850.514855,3217.601092
3000.778404,-9770.718434,148.041188,4290.134789
3000.778741,-11029.068536,1332.370696,1149.143247
3000.779079,-12213.398043,1406.391290,0.000000
3000.779416,-11621.233289,740.205942,-689.485948
3000.779753,-8956.491898,444.123565,306.438199
3000.780090,-9474.636058,1110.308913,1225.752797
3000.780427,-9326.594869,740.205942,842.705048
3000.780764,-9326.594869,1406.391290,-919.314598
3000.781101,-10658.965565,888.247130,-1608.800546
3000.781438,-9770.718434,222.061783,-1378.971896
3000.781776,-8734.430116,74.020594,-995.924147
3000.782113,-8734.430116,74.020594,0.000000
3000.782450,-8512.368333,222.061783,-612.876398
3000.782787,-9918.759623,-296.082377,-689.485948
3000.783124,-9770.718434,-370.102971,-766.095498
3000.783461,-9474.636058,-1406.391290,-995.924147
3000.783798,-9474.636058,-666.185348,842.705048
3000.784135,-9252.574275,-1554.432478,2298.286494
3000.784473,-10288.862594,-1258.350101,3064.381992
3000.784810,-10658.965565,-444.123565,2681.334243
3000.785147,-11103.089130,-666.185348,919.314598
3000.785484,-10584.944971,-666.185348,0.000000
3000.785821,-10362.883188,-1480.411884,306.438199
3000.786158,-8586.388927,74.020594,1532.190996
3000.786495,-9030.512492,0.000000,1762.019645
3000.786832,-10584.944971,1406.391290,0.000000
3000.787170,-11621.233289,518.144159,-995.924147
3000.787507,-12731.542202,370.102971,-1991.848295
3000.787844,-9844.739029,-740.205942,-1302.362347
3000.788181,-9474.636058,-962.267725,1072.533697
3000.788518,-9252.574275,-592.164754,1762.019645
3000.788855,-9918.759623,-666.185348,0.000000
3000.789192,-11251.130318,-1480.411884,-612.876398
3000.789529,-10955.047942,-1776.494261,-1685.410096
3000.789867,-9326.594869,-2146.597232,0.000000
3000.790204,-9400.615463,-1258.350101,1608.800546
3000.790541,-9178.553681,-592.164754,1149.143247
3000.790878,-9918.759623,-296.082377,306.438199
3000.791215,-10140.821405,0.000000,0.000000
3000.791552,-10140.821405,74.020594,0.000000
3000.791889,-10732.986159,-296.082377,1608.800546
3000.792226,-9770.718434,0.000000,2451.505594
3000.792564,-8734.430116,1036.288319,2451.505594
3000.792901,-10732.986159,1554.432478,2298.286494
3000.793238,-10955.047942,1628.453072,1838.629195
3000.793575,-10140.821405,1702.473667,0.000000
3000.793912,-10066.800811,1554.432478,766.095498
3000.794249,-9548.656652,2516.700203,995.924147
3000.794586,-10066.800811,2146.597232,306.438199
3000.794923,-10214.842000,2294.638420,-766.095498
3000.795261,-10288.862594,962.267725,-1915.238745
3000.795598,-10732.986159,740.205942,-1302.362347
3000.795935,-9252.574275,-888.247130,-995.924147
3000.796272,-8290.306550,-962.267725,459.657299
3000.796609,-9030.512492,-1184.329507,689.485948
3000.796946,-10807.006753,-74.020594,-459.657299
3000.797283,-10955.047942,-1258.350101,-1991.848295
3000.797620,-10436.903782,-2368.659014,-1991.848295
3000.797958,-8956.491898,-2368.659014,-306.438199
3000.798295,-9104.533087,-2442.679609,1838.629195
3000.798632,-8882.471304,-1332.370696,2221.676944
3000.798969,-10807.006753,-1480.411884,2068.457845
3000.799306,-12287.418637,-1332.370696,0.000000
3000.799643,-10436.903782,-1036.288319,-536.266849
3000.799980,-10140.821405,-666.185348,689.485948
3000.800317,-9548.656652,-740.205942,1838.629195
3000.800655,-10436.903782,-222.061783,383.047749
3000.800992,-11103.089130,-444.123565,0.000000
3000.801329,-11029.068536,0.000000,-1302.362347
3000.801664,-9992.780217,0.000000,-383.047749
3000.802001,-9622.677246,0.000000,689.485948
3000.802339,-9400.615463,518.144159,612.876398
3000.802676,-10140.821405,592.164754,229.828649
3000.803013,-10732.986159,888.247130,-919.314598
3000.803350,-10807.006753,222.061783,-1762.019645
3000.803687,-10214.842000,-1628.453072,-842.705048
3000.804024,-9252.574275,-814.226536,766.095498
3000.804361,-8438.347739,-666.185348,1608.800546
3000.804698,-9252.574275,0.000000,2145.067394
3000.805035,-9992.780217,-148.041188,995.924147
3000.805372,-10510.924376,0.000000,0.000000
3000.805710,-10066.800811,0.000000,766.095498
3000.806047,-9474.636058,592.164754,1838.629195
3000.806384,-9104.533087,740.205942,1838.629195
3000.806721,-9622.677246,2294.638420,1378.971896
3000.807058,-10658.965565,814.226536,1149.143247
3000.807395,-11029.068536,2664.741391,-842.705048
3000.807732,-10362.883188,1110.308913,-689.485948
3000.808069,-10658.965565,1406.391290,1302.362347
3000.808406,-9844.739029,1850.514855,383.047749
3000.808743,-10140.821405,592.164754,-1072.533697
3000.809080,-9844.739029,-444.123565,-306.438199
3000.809418,-9030.512492,-1480.411884,-995.924147
3000.809755,-9104.533087,-1110.308913,306.438199
3000.810092,-10140.821405,-1258.350101,76.609550
3000.810429,-10288.862594,-1110.308913,-306.438199
3000.810766,-10658.965565,-1480.411884,-1072.533697
3000.811103,-10658.965565,-1036.288319,-1378.971896
3000.811440,-9400.615463,-1924.535449,-1149.143247
3000.811777,-9474.636058,-3108.864956,153.219100
3000.812114,-9326.594869,-2960.823768,995.924147
3000.812451,-8660.409521,-2590.720797,1149.143247
3000.812789,-10214.842000,-1184.329507,1532.190996
3000.813126,-11473.192101,-1258.350101,0.000000
3000.813463,-11029.068536,-888.247130,-1378.971896
3000.813800,-9918.759623,-1850.514855,536.266849
3000.814137,-8142.265362,-1702.473667,2451.505594
3000.814474,-7624.121203,-962.267725,3830.477490
3000.814811,-10510.924376,296.082377,3677.258390
3000.815148,-11473.192101,1406.391290,842.705048
3000.815485,-12287.418637,1924.535449,-153.219100
3000.815822,-12287.418637,1776.494261,-1455.581446
3000.816159,-9548.656652,1258.350101,-1072.533697
3000.816497,-8586.388927,1110.308913,1072.533697
3000.816834,-10066.800811,1332.370696,536.266849
3000.817171,-10881.027347,888.247130,-919.314598
3000.817508,-10510.924376,1110.308913,-1378.971896
3000.817845,-9844.739029,0.000000,-919.314598
3000.818182,-9992.780217,-74.020594,766.095498
3000.818519,-9400.615463,1184.329507,842.705048
3000.818856,-10140.821405,592.164754,536.266849
3000.819193,-10807.006753,1036.288319,-612.876398
3000.819530,-10066.800811,370.102971,-1915.238745
3000.819868,-10140.821405,-148.041188,-1072.533697
3000.820205,-8734.430116,-370.102971,459.657299
3000.820542,-8142.265362,-370.102971,1072.533697
3000.820879,-9400.615463,-1110.308913,2298.286494
3000.821216,-8882.471304,-962.267725,1072.533697
3000.821553,-9326.594869,-518.144159,612.876398
3000.821890,-10732.986159,-666.185348,1072.533697
3000.822227,-10288.862594,0.000000,842.705048
3000.822564,-10658.965565,0.000000,153.219100
3000.822901,-10584.944971,222.061783,-612.876398
3000.823238,-9474.636058,-370.102971,-1302.362347
3000.823576,-9696.697840,0.000000,-1915.238745
3000.823913,-10140.821405,-1628.453072,-2145.067394
3000.824250,-9770.718434,-1332.370696,-1991.848295
3000.824587,-10807.006753,-1628.453072,-842.705048
3000.824924,-11251.130318,-1776.494261,-76.609550
3000.825261,-9696.697840,-962.267725,-612.876398
3000.825598,-10881.027347,-1406.391290,1072.533697
3000.825935,-11769.274478,-740.205942,1072.533697
3000.826272,-9770.718434,-1998.556043,612.876398
3000.826609,-10584.944971,-1036.288319,2604.724693
3000.826947,-10288.862594,-444.123565,2681.334243
3000.827284,-11843.295072,-222.061783,1608.800546
3000.827621,-10584.944971,-370.102971,1378.971896
3000.827958,-9030.512492,-222.061783,1532.190996
3000.828295,-8956.491898,814.226536,2604.724693
3000.828632,-9770.718434,1332.370696,1685.410096
3000.828969,-9844.739029,666.185348,1072.533697
3000.829306,-10066.800811,740.205942,0.000000
3000.829643,-8956.491898,1332.370696,-153.219100
3000.829980,-9696.697840,814.226536,306.438199
3000.830317,-9252.574275,666.185348,536.266849
3000.830655,-8956.491898,518.144159,0.000000
3000.830992,-9992.780217,1332.370696,-612.876398
3000.831329,-10214.842000,0.000000,-1378.971896
3000.831666,-9992.780217,0.000000,-995.924147
3000.832003,-9326.594869,-1184.329507,-1072.533697
3000.832340,-9548.656652,-1036.288319,153.219100
3000.832677,-9844.739029,-888.247130,383.047749
3000.833014,-9992.780217,-1406.391290,0.000000
3000.833351,-10288.862594,-888.247130,306.438199
3000.833688,-11843.295072,-1184.329507,1149.143247
3000.834026,-10807.006753,-740.205942,1149.143247
3000.834363,-9548.656652,0.000000,1072.533697
3000.834700,-11473.192101,-592.164754,1455.581446
3000.835037,-11103.089130,-962.267725,229.828649
3000.835374,-10584.944971,-370.102971,-229.828649
3000.835711,-9474.636058,-592.164754,76.609550
3000.836048,-9918.759623,-1110.308913,383.047749
3000.836385,-10362.883188,0.000000,536.266849
3000.836722,-10584.944971,0.000000,-229.828649
3000.837059,-10214.842000,370.102971,-76.609550
3000.837396,-10140.821405,-296.082377,-766.095498
3000.837734,-9770.718434,-296.082377,0.000000
3000.838071,-8734.430116,-370.102971,-459.657299
3000.838408,-9474.636058,-370.102971,0.000000
3000.838745,-10066.800811,-962.267725,-689.485948
3000.839082,-9770.718434,-666.185348,-689.485948
3000.839419,-9400.615463,-814.226536,-459.657299
3000.839756,-9844.739029,0.000000,612.876398
3000.840093,-9400.615463,666.185348,0.000000
3000.840430,-9770.718434,518.144159,612.876398
3000.840767,-10214.842000,370.102971,689.485948
3000.841105,-9622.677246,592.164754,842.705048
3000.841442,-10066.800811,962.267725,1608.800546
3000.841779,-10214.842000,370.102971,2374.896044
3000.842116,-10066.800811,740.205942,3370.820191
3000.842453,-10066.800811,2146.597232,2987.772442
3000.842790,-10214.842000,1850.514855,1455.581446
3000.843127,-11029.068536,1184.329507,153.219100
3000.843464,-10362.883188,1776.494261,-1225.752797
3000.843801,-9770.718434,814.226536,-1762.019645
3000.844138,-9992.780217,-222.061783,-766.095498
3000.844475,-9622.677246,-888.247130,-229.828649
3000.844813,-9030.512492,-1406.391290,-383.047749
3000.845150,-8808.450710,-1036.288319,-689.485948
3000.845487,-9474.636058,-962.267725,306.438199
3000.845824,-10658.965565,-2072.576638,153.219100
3000.846161,-10732.986159,-2220.617826,-766.095498
3000.846498,-10807.006753,-2368.659014,-153.219100
3000.846835,-9844.739029,-1924.535449,-383.047749
3000.847172,-9696.697840,-2590.720797,0.000000
3000.847509,-9252.574275,-2664.741391,842.705048
3000.847846,-9474.636058,-1776.494261,919.314598
3000.848184,-10510.924376,-1702.473667,1378.971896
3000.848521,-11177.109724,-1406.391290,612.876398
3000.848858,-10955.047942,-444.123565,383.047749
3000.849195,-10881.027347,-666.185348,995.924147
3000.849532,-9992.780217,296.082377,1225.752797
3000.849869,-9326.594869,888.247130,1608.800546
3000.850206,-10732.986159,1258.350101,2374.896044
3000.850543,-11177.109724,1332.370696,842.705048
3000.850880,-11251.130318,1184.329507,-76.609550
3000.851217,-11325.150913,2294.638420,0.000000
3000.851554,-10066.800811,1332.370696,-153.219100
3000.851892,-9622.677246,888.247130,459.657299
3000.852229,-8956.491898,370.102971,229.828649
3000.852566,-9474.636058,148.041188,-766.095498
3000.852903,-9104.533087,0.000000,-459.657299
3000.853240,-8808.450710,370.102971,0.000000
3000.853577,-9548.656652,370.102971,536.266849
3000.853914,-9918.759623,-74.020594,919.314598
3000.854251,-9474.636058,1554.432478,919.314598
3000.854588,-9474.636058,-296.082377,612.876398
3000.854925,-9252.574275,-814.226536,689.485948
3000.855263,-9104.533087,-592.164754,383.047749
3000.855600,-9770.718434,-518.144159,1302.362347
3000.855937,-9844.739029,148.041188,1072.533697
3000.856274,-9770.718434,0.000000,153.219100
3000.856611,-10436.903782,148.041188,-306.438199
3000.856948,-9622.677246,-666.185348,-536.266849
3000.857285,-10214.842000,-1332.370696,459.657299
3000.857622,-10881.027347,-592.164754,689.485948
3000.857959,-10732.986159,-444.123565,1608.800546
3000.858296,-11695.253884,148.041188,919.314598
3000.858633,-11769.274478,-296.082377,-1149.143247
3000.858971,-11177.109724,-1258.350101,-1762.019645
3000.859308,-10066.800811,-2294.638420,-689.485948
3000.859645,-9400.615463,-2664.741391,-995.924147
3000.859982,-10362.883188,-1776.494261,-1225.752797
3000.860319,-9918.759623,-2368.659014,-1991.848295
3000.860656,-10658.965565,-2294.638420,-1532.190996
3000.860993,-10140.821405,-2368.659014,-1149.143247
3000.861330,-9326.594869,-1924.535449,0.000000
3000.861667,-9400.615463,-1628.453072,1149.143247
3000.862004,-10658.965565,-1406.391290,1838.629195
3000.862342,-10362.883188,-962.267725,995.924147
3000.862679,-9474.636058,-370.102971,306.438199
3000.863016,-9474.636058,-962.267725,1762.019645
3000.863353,-9844.739029,-740.205942,2451.505594
3000.863690,-9030.512492,1184.329507,3064.381992
3000.864027,-10066.800811,1924.535449,2681.334243
3000.864364,-11621.233289,2590.720797,1455.581446
3000.864701,-10807.006753,2664.741391,-1149.143247
3000.865038,-10288.862594,1554.432478,-1072.533697
3000.865375,-9252.574275,1036.288319,689.485948
3000.865712,-9178.553681,1628.453072,1149.143247
3000.866050,-9400.615463,2886.803174,76.609550
3000.866387,-10362.883188,1110.308913,-1072.533697
3000.866724,-10732.986159,1702.473667,-2298.286494
3000.867061,-10066.800811,222.061783,-2757.943793
3000.867398,-9918.759623,-666.185348,-995.924147
3000.867735,-8142.265362,-962.267725,0.000000
3000.868072,-8882.471304,0.000000,1072.533697
3000.868409,-10288.862594,0.000000,536.266849
3000.868746,-10436.903782,-1036.288319,-1532.190996
3000.869083,-9992.780217,-2516.700203,229.828649
3000.869421,-9844.739029,-2072.576638,1455.581446
3000.869758,-9474.636058,-1702.473667,2451.505594
3000.870095,-10066.800811,0.000000,1685.410096
3000.870432,-10807.006753,-296.082377,-459.657299
3000.870769,-10658.965565,-1702.473667,-1225.752797
3000.871106,-11029.068536,-1702.473667,153.219100
3000.871443,-9104.533087,-2368.659014,1072.533697
3000.871780,-9252.574275,-1628.453072,2374.896044
3000.872117,-10436.903782,-814.226536,1838.629195
3000.872454,-11547.212695,-74.020594,459.657299
3000.872791,-12139.377449,-1258.350101,-306.438199
3000.873129,-11325.150913,-1702.473667,-766.095498
3000.873466,-9696.697840,-1850.514855,-76.609550
3000.873803,-9326.594869,-666.185348,1149.143247
3000.874140,-9622.677246,222.061783,0.000000
3000.874477,-11177.109724,-444.123565,-1991.848295
3000.874814,-11177.109724,-370.102971,-2374.896044
3000.875151,-9770.718434,-962.267725,-1455.581446
3000.875488,-10214.842000,-1036.288319,766.095498
3000.875825,-9030.512492,0.000000,2298.286494
3000.876162,-9770.718434,370.102971,2834.553343
3000.876500,-11029.068536,-370.102971,3064.381992
3000.876837,-11473.192101,1406.391290,1608.800546
3000.877174,-10510.924376,666.185348,995.924147
3000.877511,-8438.347739,444.123565,1838.629195
3000.877848,-8586.388927,1480.411884,2451.505594
3000.878185,-10214.842000,1776.494261,766.095498
3000.878522,-9844.739029,1998.556043,-1915.238745
3000.878859,-9474.636058,1110.308913,-3064.381992
3000.879196,-8734.430116,222.061783,-1532.190996
3000.879533,-8364.327145,0.000000,0.000000
3000.879870,-9474.636058,296.082377,842.705048
3000.880208,-9918.759623,0.000000,0.000000
3000.880545,-10510.924376,0.000000,-1532.190996
3000.880882,-11029.068536,-888.247130,-1225.752797
3000.881219,-9770.718434,-1628.453072,-1532.190996
3000.881556,-9104.533087,-1776.494261,-229.828649
3000.881893,-9400.615463,-1850.514855,536.266849
3000.882230,-10436.903782,-814.226536,-459.657299
3000.882567,-11843.295072,-1258.350101,-1378.971896
3000.882904,-11621.233289,-1406.391290,-2298.286494
3000.883241,-10288.862594,-2368.659014,-1455.581446
3000.883579,-9474.636058,-2664.741391,1838.629195
3000.883916,-9252.574275,-1554.432478,2987.772442
3000.884253,-9326.594869,-518.144159,2451.505594
3000.884590,-11325.150913,-444.123565,1149.143247
3000.884927,-11917.315666,-1628.453072,536.266849
3000.885264,-10436.903782,-1184.329507,1685.410096
3000.885601,-9992.780217,0.000000,2757.943793
3000.885938,-9474.636058,518.144159,2451.505594
3000.886275,-9992.780217,592.164754,459.657299
3000.886612,-10362.883188,1480.411884,-2374.896044
3000.886949,-9770.718434,-814.226536,-2834.553343
3000.887287,-9030.512492,-814.226536,-1072.533697
3000.887624,-8364.327145,-1184.329507,306.438199
3000.887961,-9104.533087,-222.061783,1762.019645
3000.888298,-9252.574275,74.020594,383.047749
3000.888635,-10362.883188,74.020594,-612.876398
3000.888972,-10658.965565,222.061783,-459.657299
3000.889309,-10510.924376,-222.061783,-76.609550
3000.889646,-9104.533087,370.102971,2068.457845
3000.889983,-9918.759623,518.144159,2298.286494
3000.890320,-10362.883188,888.247130,1378.971896
3000.890658,-11325.150913,370.102971,459.657299
3000.890995,-11325.150913,0.000000,-229.828649
3000.891332,-9252.574275,-222.061783,229.828649
3000.891669,-9326.594869,444.123565,2451.505594
3000.892006,-9918.759623,1110.308913,2681.334243
3000.892343,-10214.842000,1406.391290,0.000000
3000.892680,-10955.047942,1184.329507,-306.438199
3000.893017,-10955.047942,-370.102971,-1149.143247
3000.893354,-10066.800811,-1258.350101,0.000000
3000.893691,-9326.594869,-444.123565,919.314598
3000.894028,-9030.512492,518.144159,-153.219100
3000.894366,-9696.697840,592.164754,-766.095498
3000.894703,-10732.986159,-296.082377,-2221.676944
3000.895040,-9844.739029,-1924.535449,-2757.943793
3000.895377,-9474.636058,-3330.926739,-1915.238745
3000.895714,-8882.471304,-2516.700203,689.485948
3000.896051,-8808.450710,-2146.597232,1455.581446
3000.896388,-9030.512492,-2294.638420,842.705048
3000.896725,-10584.944971,-1110.308913,-612.876398
3000.897062,-10881.027347,-1850.514855,-76.609550
3000.897399,-10732.986159,-1480.411884,919.314598
3000.897737,-10214.842000,-1480.411884,2221.676944
3000.898074,-10362.883188,0.000000,3294.210641
3000.898411,-10658.965565,1036.288319,2068.457845
3000.898748,-10807.006753,296.082377,689.485948
3000.899085,-10288.862594,444.123565,689.485948
3000.899422,-9030.512492,296.082377,383.047749
3000.899759,-9178.553681,740.205942,1532.190996
3000.900096,-10584.944971,1850.514855,689.485948
3000.900433,-11991.336260,1258.350101,-995.924147
3000.900770,-10288.862594,592.164754,-1991.848295
3000.901107,-8216.285956,1406.391290,0.000000
3000.901445,-8882.471304,74.020594,2068.457845
3000.901782,-10140.821405,-222.061783,1532.190996
3000.902119,-9326.594869,888.247130,-229.828649
3000.902456,-10881.027347,-444.123565,-1072.533697
3000.902793,-11325.150913,-814.226536,-1302.362347
3000.903130,-9622.677246,-1702.473667,-1072.533697
3000.903468,-8956.491898,-1332.370696,-153.219100
3000.903805,-8364.327145,-1332.370696,1455.581446
3000.904142,-8956.491898,-1036.288319,0.000000
3000.904480,-11251.130318,-296.082377,0.000000
3000.904817,-11621.233289,-962.267725,-766.095498
3000.905154,-10807.006753,-592.164754,-1302.362347
3000.905491,-9548.656652,-518.144159,766.095498
3000.905829,-9030.512492,-666.185348,1608.800546
3000.906166,-9548.656652,-222.061783,1149.143247
3000.906503,-11177.109724,0.000000,536.266849
3000.906841,-11399.171507,444.123565,-995.924147
3000.907178,-11547.212695,-592.164754,-536.266849
3000.907515,-9696.697840,-740.205942,2145.067394
3000.907852,-9474.636058,518.144159,1455.581446
3000.908190,-10584.944971,74.020594,1149.143247
3000.908527,-10732.986159,148.041188,-995.924147
3000.908864,-10732.986159,0.000000,-2757.943793
3000.909202,-9844.739029,-1184.329507,-1762.019645
3000.909539,-8956.491898,-1480.411884,-459.657299
3000.909876,-9474.636058,-888.247130,536.266849
3000.910214,-8956.491898,-296.082377,76.609550
3000.910551,-9918.759623,0.000000,536.266849
3000.910888,-10214.842000,-148.041188,0.000000
3000.911225,-9844.739029,-1850.514855,1072.533697
3000.911563,-10288.862594,-666.185348,2834.553343
3000.911900,-9326.594869,-222.061783,3677.258390
3000.912237,-9474.636058,1554.432478,3524.039291
3000.912575,-9770.718434,1776.494261,2298.286494
3000.912912,-10436.903782,1554.432478,153.219100
3000.913249,-10066.800811,1480.411884,0.000000
3000.913586,-9548.656652,370.102971,153.219100
3000.913924,-8956.491898,1924.535449,766.095498
3000.914261,-9770.718434,1702.473667,76.609550
3000.914598,-10955.047942,1332.370696,-1072.533697
3000.914936,-10288.862594,222.061783,-1455.581446
3000.915273,-10584.944971,-740.205942,-229.828649
3000.915610,-9918.759623,-296.082377,1532.190996
3000.915947,-9474.636058,-1480.411884,1149.143247
3000.916285,-10436.903782,-1480.411884,689.485948
3000.916622,-10584.944971,-2442.679609,0.000000
3000.916959,-10510.924376,-1480.411884,-995.924147
3000.917297,-10288.862594,-1850.514855,-1532.190996
3000.917634,-9992.780217,-2072.576638,-995.924147
3000.917971,-9104.533087,-1998.556043,-1302.362347
3000.918308,-9844.739029,-1850.514855,-919.314598
3000.918646,-10955.047942,-1480.411884,229.828649
3000.918983,-9918.759623,-2072.576638,-153.219100
3000.919320,-10140.821405,-2220.617826,1149.143247
3000.919658,-10214.842000,-1332.370696,2834.553343
3000.919995,-10584.944971,-666.185348,3830.477490
3000.920332,-11103.089130,148.041188,2911.162892
3000.920669,-10658.965565,592.164754,842.705048
3000.921007,-11473.192101,814.226536,536.266849
3000.921344,-10288.862594,518.144159,-612.876398
3000.921681,-9770.718434,592.164754,-995.924147
3000.922019,-7920.203579,740.205942,-919.314598
3000.922356,-9474.636058,888.247130,0.000000
3000.922693,-9992.780217,2072.576638,-1838.629195
3000.923031,-9474.636058,0.000000,-2145.067394
3000.923368,-10436.903782,444.123565,0.000000
3000.923705,-10140.821405,0.000000,383.047749
3000.924042,-10510.924376,444.123565,459.657299
3000.924380,-9474.636058,0.000000,919.314598
3000.924717,-9104.533087,0.000000,1302.362347
3000.925054,-8956.491898,444.123565,995.924147
3000.925392,-9696.697840,444.123565,1838.629195
3000.925729,-10584.944971,0.000000,1225.752797
3000.926066,-10658.965565,148.041188,0.000000
3000.926403,-10881.027347,592.164754,612.876398
3000.926741,-9400.615463,1184.329507,612.876398
3000.927078,-9474.636058,296.082377,-689.485948
3000.927415,-8586.388927,740.205942,229.828649
3000.927753,-9770.718434,-518.144159,766.095498
3000.928090,-10436.903782,0.000000,1378.971896
3000.928427,-9844.739029,-592.164754,919.314598
3000.928764,-10955.047942,222.061783,383.047749
3000.929102,-11621.233289,-370.102971,0.000000
3000.929439,-10658.965565,-592.164754,-842.705048
3000.929776,-9104.533087,-592.164754,-766.095498
3000.930114,-9474.636058,-1480.411884,-995.924147
3000.930451,-9918.759623,-1628.453072,-1225.752797
3000.930788,-11029.068536,-2368.659014,-1838.629195
3000.931125,-10881.027347,-2442.679609,-842.705048
3000.931463,-9474.636058,-2442.679609,0.000000
3000.931800,-9474.636058,-2812.782580,1762.019645
3000.932137,-9548.656652,-1480.411884,2221.676944
3000.932475,-10732.986159,-222.061783,1685.410096
3000.932812,-11103.089130,-222.061783,689.485948
3000.933149,-11547.212695,-888.247130,1302.362347
3000.933487,-10436.903782,-740.205942,1225.752797
3000.933824,-8956.491898,-888.247130,1378.971896
3000.934161,-7994.224174,444.123565,2298.286494
3000.934498,-9030.512492,222.061783,2298.286494
3000.934836,-9918.759623,1036.288319,1532.190996
3000.935173,-11029.068536,1406.391290,459.657299
3000.935510,-11621.233289,2072.576638,536.266849
3000.935848,-10955.047942,2294.638420,0.000000
3000.936185,-9992.780217,1554.432478,-229.828649
3000.936522,-9474.636058,1332.370696,0.000000
3000.936859,-8216.285956,2368.659014,-1455.581446
3000.937197,-10066.800811,740.205942,-229.828649
3000.937534,-10658.965565,740.205942,-1378.971896
3000.937871,-10214.842000,444.123565,-1608.800546
3000.938209,-10436.903782,0.000000,-536.266849
3000.938546,-9548.656652,-1110.308913,-536.266849
3000.938883,-9992.780217,-1850.514855,689.485948
3000.939220,-9178.553681,-1702.473667,766.095498
3000.939558,-8216.285956,-1702.473667,153.219100
3000.939895,-10066.800811,-74.020594,383.047749
3000.940232,-10658.965565,-1406.391290,-536.266849
3000.940570,-10140.821405,-1184.329507,-383.047749
3000.940907,-9844.739029,-1554.432478,306.438199
3000.941244,-9030.512492,-444.123565,689.485948
3000.941581,-9844.739029,-74.020594,995.924147
3000.941919,-10658.965565,-1184.329507,0.000000
3000.942256,-10362.883188,-518.144159,0.000000
3000.942593,-10732.986159,-666.185348,0.000000
3000.942931,-10955.047942,-1036.288319,0.000000
3000.943268,-9548.656652,-1332.370696,-1072.533697
3000.943605,-9326.594869,-740.205942,0.000000
3000.943942,-9474.636058,-666.185348,-229.828649
3000.944280,-10955.047942,-592.164754,-1302.362347
3000.944617,-11251.130318,-518.144159,-1149.143247
3000.944954,-10881.027347,-814.226536,-612.876398
3000.945292,-10881.027347,-148.041188,306.438199
3000.945629,-10362.883188,-222.061783,1149.143247
3000.945966,-9918.759623,-296.082377,919.314598
3000.946304,-9548.656652,-1776.494261,995.924147
3000.946641,-9696.697840,-814.226536,1225.752797
3000.946978,-9548.656652,-962.267725,2451.505594
3000.947315,-10362.883188,518.144159,2834.553343
3000.947653,-10510.924376,1258.350101,1455.581446
3000.947990,-10436.903782,3034.844362,536.266849
3000.948327,-9992.780217,1702.473667,0.000000
3000.948665,-8734.430116,1332.370696,459.657299
3000.949002,-8068.244768,370.102971,1838.629195
3000.949339,-9252.574275,1406.391290,2068.457845
3000.949676,-10436.903782,518.144159,1608.800546
3000.950014,-10584.944971,1036.288319,306.438199
3000.950351,-9622.677246,296.082377,459.657299
3000.950688,-9400.615463,-74.020594,459.657299
3000.951026,-9030.512492,444.123565,0.000000
3000.951363,-9178.553681,222.061783,-1302.362347
3000.951700,-10436.903782,518.144159,-612.876398
3000.952037,-11029.068536,-1036.288319,-1455.581446
3000.952375,-10436.903782,-740.205942,-995.924147
3000.952712,-10510.924376,-1924.535449,-536.266849
3000.953049,-10214.842000,-1332.370696,229.828649
3000.953387,-9622.677246,-962.267725,306.438199
3000.953724,-9918.759623,-1480.411884,1072.533697
3000.954061,-10807.006753,-1258.350101,689.485948
3000.954398,-11917.315666,-1554.432478,1072.533697
3000.954736,-12213.398043,-1110.308913,1991.848295
3000.955073,-10658.965565,-962.267725,1378.971896
3000.955410,-9548.656652,0.000000,2145.067394
3000.955748,-9474.636058,0.000000,919.314598
3000.956085,-9844.739029,-444.123565,306.438199
3000.956422,-10066.800811,-666.185348,0.000000
3000.956759,-9474.636058,814.226536,-1838.629195
3000.957097,-9622.677246,222.061783,-766.095498
3000.957434,-9696.697840,518.144159,-1072.533697
3000.957771,-8882.471304,148.041188,-1915.238745
3000.958109,-9474.636058,0.000000,-1225.752797
3000.958446,-8882.471304,-296.082377,0.000000
3000.958783,-9400.615463,-962.267725,229.828649
3000.959121,-9992.780217,-1554.432478,1225.752797
3000.959458,-10140.821405,-740.205942,919.314598
3000.959795,-10584.944971,666.185348,995.924147
3000.960132,-10732.986159,0.000000,0.000000
3000.960470,-9622.677246,-148.041188,-459.657299
3000.960807,-8734.430116,-740.205942,0.000000
3000.961144,-9030.512492,888.247130,459.657299
3000.961482,-9992.780217,1406.391290,459.657299
3000.961819,-11547.212695,1406.391290,-229.828649
3000.962156,-11547.212695,962.267725,-1762.019645
3000.962493,-10881.027347,1110.308913,0.000000
3000.962831,-9696.697840,222.061783,1225.752797
3000.963168,-9030.512492,0.000000,2604.724693
3000.963505,-9326.594869,0.000000,2374.896044
3000.963843,-10066.800811,296.082377,1225.752797
3000.964180,-11547.212695,-370.102971,76.609550
3000.964517,-11547.212695,-1036.288319,-689.485948
3000.964854,-9918.759623,-1480.411884,0.000000
3000.965192,-8364.327145,-1332.370696,0.000000
3000.965529,-9030.512492,-740.205942,-612.876398
3000.965866,-9252.574275,-592.164754,-2604.724693
3000.966204,-10214.842000,-1480.411884,-2757.943793
3000.966541,-10436.903782,-1036.288319,-1608.800546
3000.966878,-10658.965565,-2368.659014,-1072.533697
3000.967215,-10658.965565,-2146.597232,1149.143247
3000.967553,-9770.718434,-1554.432478,2145.067394
3000.967890,-9326.594869,-962.267725,2451.505594
3000.968227,-9918.759623,-1184.329507,2528.115143
3000.968565,-11399.171507,-518.144159,3370.820191
3000.968902,-11769.274478,-222.061783,2987.772442
3000.969239,-11325.150913,888.247130,2298.286494
3000.969576,-11103.089130,1554.432478,1532.190996
3000.969914,-11399.171507,1628.453072,536.266849
3000.970251,-9548.656652,1258.350101,-229.828649
3000.970588,-8068.244768,888.247130,-766.095498
3000.970926,-8660.409521,814.226536,919.314598
3000.971263,-8882.471304,666.185348,919.314598
3000.971600,-10510.924376,1776.494261,766.095498
3000.971938,-11473.192101,1406.391290,-306.438199
3000.972275,-11325.150913,592.164754,-995.924147
3000.972612,-10584.944971,0.000000,-459.657299
3000.972949,-8512.368333,-888.247130,-459.657299
3000.973287,-6957.935855,-1258.350101,1455.581446
3000.973624,-8068.244768,-1036.288319,842.705048
3000.973961,-9622.677246,-1110.308913,-1149.143247
3000.974299,-11029.068536,-814.226536,-1685.410096
3000.974636,-10362.883188,-1554.432478,-1915.238745
3000.974973,-8882.471304,-2368.659014,0.000000
3000.975310,-9252.574275,-666.185348,1915.238745
3000.975648,-10584.944971,222.061783,2145.067394
3000.975985,-11473.192101,-444.123565,1532.190996
3000.976322,-11843.295072,-592.164754,0.000000
3000.976660,-11473.192101,-370.102971,0.000000
3000.976997,-10288.862594,-1554.432478,1915.238745
3000.977334,-10140.821405,-444.123565,1378.971896
3000.977671,-9844.739029,296.082377,-306.438199
3000.978009,-11177.109724,370.102971,-1072.533697
3000.978346,-10955.047942,370.102971,-1838.629195
3000.978683,-10955.047942,-1406.391290,-1838.629195
3000.979021,-9844.739029,-1184.329507,-689.485948
3000.979358,-9400.615463,-1258.350101,383.047749
3000.979695,-9252.574275,-888.247130,-383.047749
3000.980032,-9622.677246,-518.144159,-766.095498
3000.980370,-10584.944971,-444.123565,-689.485948
3000.980707,-10881.027347,-1332.370696,-612.876398
3000.981044,-9474.636058,-1184.329507,-229.828649
3000.981382,-8956.491898,-740.205942,689.485948
3000.981719,-9474.636058,-962.267725,1378.971896
3000.982056,-9474.636058,-592.164754,1455.581446
3000.982393,-9474.636058,-370.102971,766.095498
3000.982731,-9918.759623,518.144159,1225.752797
3000.983068,-9474.636058,222.061783,1532.190996
3000.983405,-9770.718434,1406.391290,2451.505594
3000.983743,-10288.862594,1776.494261,2451.505594
3000.984080,-10807.006753,2072.576638,689.485948
3000.984417,-10658.965565,2146.597232,0.000000
3000.984755,-10510.924376,814.226536,0.000000
3000.985092,-8956.491898,740.205942,76.609550
3000.985429,-8882.471304,740.205942,612.876398
3000.985766,-9918.759623,888.247130,459.657299
3000.986104,-11399.171507,370.102971,-1685.410096
3000.986441,-10732.986159,-1110.308913,-2451.505594
3000.986778,-9548.656652,-962.267725,-1532.190996
3000.987116,-9104.533087,-2072.576638,-153.219100
3000.987453,-8882.471304,-1776.494261,842.705048
3000.987790,-9104.533087,0.000000,76.609550
3000.988127,-11103.089130,-666.185348,-536.266849
3000.988465,-11991.336260,-962.267725,0.000000
3000.988802,-10732.986159,-2812.782580,-459.657299
3000.989139,-10066.800811,-2516.700203,1991.848295
3000.989477,-9474.636058,-1850.514855,2528.115143
3000.989814,-9770.718434,-1110.308913,2374.896044
3000.990151,-11473.192101,-888.247130,919.314598
3000.990488,-11177.109724,-888.247130,-306.438199
3000.990826,-9400.615463,-222.061783,76.609550
3000.991163,-8956.491898,0.000000,1149.143247
3000.991500,-9622.677246,814.226536,2068.457845
3000.991838,-10214.842000,666.185348,76.609550
3000.992175,-11029.068536,1258.350101,0.000000
3000.992512,-10214.842000,74.020594,-459.657299
3000.992849,-9918.759623,0.000000,1072.533697
3000.993187,-9474.636058,148.041188,1838.629195
3000.993524,-9326.594869,-222.061783,1378.971896
3000.993861,-9474.636058,814.226536,1302.362347
3000.994199,-10362.883188,74.020594,-1915.238745
3000.994536,-10288.862594,0.000000,-1762.019645
3000.994873,-9474.636058,-740.205942,-995.924147
3000.995210,-9178.553681,222.061783,383.047749
3000.995548,-9770.718434,888.247130,1072.533697
3000.995885,-10140.821405,888.247130,0.000000
3000.996222,-11251.130318,592.164754,229.828649
3000.996560,-10658.965565,-1184.329507,766.095498
3000.996897,-9104.533087,-592.164754,1302.362347
3000.997234,-9252.574275,-666.185348,2757.943793
3000.997572,-10066.800811,0.000000,2451.505594
3000.997909,-9844.739029,888.247130,536.266849
3000.998246,-11399.171507,962.267725,-689.485948
3000.998583,-11547.212695,0.000000,-1302.362347
3000.998921,-9770.718434,-888.247130,-1838.629195
3000.999258,-8364.327145,-1332.370696,612.876398
3000.999595,-7920.203579,-518.144159,0.000000
3000.999933,-9622.677246,-296.082377,-1225.752797
3001.000270,-10584.944971,-666.185348,-2681.334243
3001.000607,-10362.883188,-1332.370696,-4213.525239
3001.000944,-9992.780217,-2146.597232,-2068.457845
3001.001282,-9992.780217,-2368.659014,-306.438199
3001.001619,-9992.780217,-2220.617826,1225.752797
3001.001956,-11325.150913,-2516.700203,1608.800546
3001.002294,-11621.233289,-2294.638420,919.314598
3001.002631,-10436.903782,-1776.494261,76.609550
3001.002968,-9918.759623,-3108.864956,2221.676944
3001.003305,-9992.780217,-2220.617826,2528.115143
3001.003643,-10362.883188,-1924.535449,2068.457845
3001.003980,-10881.027347,518.144159,229.828649
3001.004317,-11029.068536,1184.329507,-536.266849
3001.004655,-10955.047942,222.061783,-689.485948
3001.004992,-10214.842000,296.082377,229.828649
3001.005329,-8586.388927,888.247130,995.924147
3001.005666,-9326.594869,1702.473667,2757.943793
3001.006004,-10881.027347,1406.391290,1532.190996
3001.006341,-11251.130318,1406.391290,153.219100
3001.006678,-9844.739029,814.226536,-842.705048
3001.007015,-8586.388927,74.020594,1149.143247
3001.007353,-8660.409521,666.185348,2298.286494
3001.007690,-9770.718434,962.267725,919.314598
3001.008027,-9992.780217,1480.411884,-612.876398
3001.008365,-10214.842000,0.000000,-1838.629195
3001.008702,-9918.759623,0.000000,-1378.971896
3001.009039,-8512.368333,0.000000,0.000000
3001.009376,-8734.430116,-444.123565,76.609550
3001.009714,-9400.615463,0.000000,0.000000
3001.010051,-10881.027347,444.123565,-842.705048
3001.010388,-10066.800811,0.000000,153.219100
3001.010726,-10214.842000,-1480.411884,1378.971896
3001.011063,-9992.780217,-592.164754,2757.943793
3001.011400,-10436.903782,-370.102971,2221.676944
3001.011737,-11029.068536,74.020594,2451.505594
3001.012075,-10658.965565,296.082377,1149.143247
3001.012412,-10658.965565,0.000000,-306.438199
3001.012749,-11547.212695,-518.144159,-459.657299
3001.013086,-10362.883188,-1184.329507,-536.266849
3001.013424,-8364.327145,-370.102971,0.000000
3001.013761,-9030.512492,-1036.288319,612.876398
3001.014098,-10732.986159,-1406.391290,76.609550
3001.014436,-11547.212695,-1850.514855,-1072.533697
3001.014773,-11029.068536,-2220.617826,-766.095498
3001.015110,-9326.594869,-1776.494261,-306.438199
3001.015447,-9252.574275,-1480.411884,306.438199
3001.015785,-9104.533087,-1554.432478,536.266849
3001.016122,-9844.739029,-1628.453072,-536.266849
3001.016459,-11103.089130,-1850.514855,-383.047749
3001.016797,-10362.883188,-666.185348,-612.876398
3001.017134,-9918.759623,-1850.514855,1838.629195
3001.017471,-9400.615463,-370.102971,1532.190996
3001.017808,-9252.574275,-370.102971,1302.362347
3001.018146,-10584.944971,222.061783,2451.505594
3001.018483,-10955.047942,1184.329507,689.485948
3001.018820,-11399.171507,1480.411884,919.314598
3001.019157,-9992.780217,1332.370696,1608.800546
3001.019495,-8808.450710,1184.329507,1378.971896
3001.019832,-10584.944971,2072.576638,2145.067394
3001.020169,-10807.006753,2146.597232,459.657299
3001.020507,-9548.656652,2220.617826,-2374.896044
3001.020844,-10288.862594,592.164754,-2145.067394
3001.021181,-8364.327145,444.123565,-1838.629195
3001.021518,-7920.203579,0.000000,-842.705048
3001.021856,-9918.759623,-296.082377,-766.095498
3001.022193,-9696.697840,148.041188,-1838.629195
3001.022530,-9770.718434,-666.185348,-1915.238745
3001.022868,-10658.965565,-666.185348,229.828649
3001.023205,-9548.656652,-740.205942,536.266849
3001.023542,-10510.924376,-74.020594,1149.143247
3001.023879,-11695.253884,-814.226536,536.266849
3001.024217,-10510.924376,-1702.473667,-383.047749
3001.024554,-10140.821405,-2294.638420,0.000000
3001.024891,-9104.533087,-2960.823768,1378.971896
3001.025228,-9400.615463,-2294.638420,2068.457845
3001.025566,-9992.780217,-814.226536,1225.752797
3001.025903,-11103.089130,148.041188,536.266849
3001.026240,-10510.924376,-518.144159,0.000000
3001.026578,-10362.883188,-1110.308913,76.609550
3001.026915,-10214.842000,-888.247130,1608.800546
3001.027252,-10436.903782,-962.267725,1838.629195
3001.027589,-9474.636058,-814.226536,1455.581446
3001.027927,-10288.862594,-666.185348,1532.190996
3001.028264,-10510.924376,-444.123565,842.705048
3001.028601,-10362.883188,-666.185348,-1225.752797
3001.028939,-10732.986159,-1332.370696,-459.657299
3001.029276,-9474.636058,-296.082377,-1685.410096
3001.029613,-8068.244768,-1332.370696,-1072.533697
3001.029950,-9622.677246,-962.267725,459.657299
3001.030288,-8956.491898,-444.123565,76.609550
3001.030625,-10436.903782,0.000000,536.266849
3001.030962,-10584.944971,888.247130,383.047749
3001.031299,-9770.718434,444.123565,306.438199
3001.031637,-10362.883188,888.247130,1762.019645
3001.031974,-10807.006753,-1036.288319,1915.238745
3001.032311,-9474.636058,74.020594,2145.067394
3001.032649,-9474.636058,444.123565,1915.238745
3001.032986,-10510.924376,592.164754,1762.019645
3001.033323,-9622.677246,814.226536,689.485948
3001.033660,-11103.089130,888.247130,536.266849
3001.033998,-10214.842000,1776.494261,-995.924147
3001.034335,-9474.636058,888.247130,-2528.115143
3001.034672,-9918.759623,888.247130,-1608.800546
3001.035009,-9696.697840,-592.164754,-1991.848295
3001.035347,-9104.533087,74.020594,-612.876398
3001.035684,-9474.636058,-518.144159,459.657299
3001.036021,-10955.047942,0.000000,612.876398
3001.036359,-10510.924376,-370.102971,-383.047749
3001.036696,-11325.150913,-1480.411884,-766.095498
3001.037033,-10510.924376,-2664.741391,383.047749
3001.037370,-9178.553681,-2368.659014,153.219100
3001.037708,-8956.491898,-2442.679609,1225.752797
3001.038045,-10066.800811,-1850.514855,766.095498
3001.038382,-9844.739029,-1184.329507,-153.219100
3001.038720,-10510.924376,-592.164754,0.000000
3001.039057,-10732.986159,-1258.350101,1302.362347
3001.039394,-10584.944971,-740.205942,1608.800546
3001.039731,-10658.965565,-592.164754,1455.581446
3001.040069,-10066.800811,-222.061783,1532.190996
3001.040406,-9696.697840,148.041188,2374.896044
3001.040743,-10140.821405,0.000000,2604.724693
3001.041080,-9770.718434,1628.453072,1915.238745
3001.041418,-11399.171507,962.267725,536.266849
3001.041755,-11325.150913,1184.329507,-306.438199
3001.042092,-9844.739029,518.144159,-1225.752797
3001.042430,-8734.430116,370.102971,0.000000
3001.042767,-9030.512492,592.164754,-536.266849
3001.043104,-8586.388927,222.061783,-1685.410096
3001.043441,-8956.491898,518.144159,-2528.115143
3001.043779,-9178.553681,0.000000,-2374.896044
3001.044116,-9770.718434,148.041188,-1915.238745
3001.044453,-10214.842000,-370.102971,-1378.971896
3001.044791,-10362.883188,-1110.308913,-229.828649
3001.045128,-9474.636058,-592.164754,995.924147
3001.045465,-9474.636058,-814.226536,2068.457845
3001.045802,-10288.862594,-1036.288319,2987.772442
3001.046140,-11103.089130,-1554.432478,2451.505594
3001.046477,-10732.986159,-814.226536,1838.629195
3001.046814,-11103.089130,-296.082377,919.314598
3001.047151,-9918.759623,518.144159,229.828649
3001.047489,-10214.842000,666.185348,-689.485948
3001.047826,-11029.068536,0.000000,-1302.362347
3001.048163,-9548.656652,74.020594,-1532.190996
3001.048501,-9548.656652,666.185348,-459.657299
3001.048838,-10214.842000,0.000000,-153.219100
3001.049175,-11103.089130,-148.041188,-383.047749
3001.049512,-11029.068536,444.123565,-459.657299
3001.049850,-10362.883188,-370.102971,-842.705048
3001.050187,-10066.800811,-1332.370696,153.219100
3001.050524,-9548.656652,-1554.432478,842.705048
3001.050862,-8660.409521,-1776.494261,1072.533697
3001.051199,-9622.677246,-1480.411884,1302.362347
3001.051536,-10658.965565,-1628.453072,1072.533697
3001.051873,-10807.006753,-1110.308913,612.876398
3001.052211,-9622.677246,-518.144159,153.219100
3001.052548,-9548.656652,-814.226536,995.924147
3001.052885,-9548.656652,0.000000,1378.971896
3001.053222,-9474.636058,518.144159,1991.848295
3001.053560,-9326.594869,222.061783,2374.896044
3001.053897,-10214.842000,222.061783,2604.724693
3001.054234,-9696.697840,1036.288319,2451.505594
3001.054572,-10436.903782,592.164754,2451.505594
3001.054909,-10955.047942,1184.329507,3370.820191
3001.055246,-9918.759623,2368.659014,842.705048
3001.055583,-9992.780217,2294.638420,0.000000
3001.055921,-11399.171507,1480.411884,-536.266849
3001.056258,-9918.759623,444.123565,-1608.800546
3001.056595,-9770.718434,0.000000,-995.924147
3001.056933,-8882.471304,-74.020594,-153.219100
3001.057270,-9326.594869,-592.164754,-612.876398
3001.057607,-10066.800811,-74.020594,-1302.362347
3001.057944,-9770.718434,-444.123565,-2298.286494
3001.058282,-9770.718434,-814.226536,-1455.581446
3001.058619,-10584.944971,-1184.329507,-306.438199
3001.058956,-9696.697840,-592.164754,153.219100
3001.059293,-10584.944971,-1258.350101,383.047749
3001.059631,-10658.965565,-1554.432478,383.047749
3001.059968,-10362.883188,-1480.411884,229.828649
3001.060305,-10066.800811,-1480.411884,383.047749
3001.060643,-9326.594869,-1184.329507,1149.143247
3001.060980,-9474.636058,0.000000,1225.752797
3001.061317,-11251.130318,0.000000,229.828649
3001.061654,-11325.150913,0.000000,-383.047749
3001.061992,-10436.903782,-444.123565,-459.657299
3001.062329,-9474.636058,-444.123565,306.438199
3001.062666,-8660.409521,0.000000,612.876398
3001.063003,-9474.636058,74.020594,1149.143247
3001.063341,-10658.965565,518.144159,-536.266849
3001.063678,-11029.068536,-296.082377,-1455.581446
3001.064015,-10510.924376,-518.144159,-2068.457845
3001.064353,-9548.656652,-666.185348,-766.095498
3001.064690,-9474.636058,-1332.370696,766.095498
3001.065027,-9400.615463,-814.226536,612.876398
3001.065364,-9844.739029,-666.185348,229.828649
3001.065702,-10584.944971,-1184.329507,766.095498
3001.066039,-10436.903782,-962.267725,76.609550
3001.066376,-8660.409521,-1036.288319,766.095498
3001.066714,-9474.636058,-370.102971,1072.533697
3001.067051,-9548.656652,222.061783,1991.848295
3001.067388,-10140.821405,962.267725,1455.581446
3001.067725,-10732.986159,592.164754,229.828649
3001.068063,-10658.965565,-370.102971,919.314598
3001.068400,-10140.821405,222.061783,1838.629195
3001.068737,-9252.574275,888.247130,1532.190996
3001.069074,-9770.718434,1110.308913,1072.533697
3001.069412,-10140.821405,518.144159,76.609550
3001.069749,-10140.821405,0.000000,-1225.752797
3001.070086,-9474.636058,-74.020594,-612.876398
3001.070424,-9400.615463,-592.164754,383.047749
3001.070761,-9178.553681,-222.061783,766.095498
3001.071098,-11399.171507,222.061783,459.657299
3001.071435,-11621.233289,518.144159,-1302.362347
3001.071773,-10658.965565,-1258.350101,-2374.896044
3001.072110,-10214.842000,-2072.576638,-919.314598
3001.072447,-8438.347739,-2516.700203,0.000000
3001.072785,-8364.327145,-1554.432478,1302.362347
3001.073122,-10732.986159,-1258.350101,1149.143247
3001.073459,-11177.109724,-1258.350101,-76.609550
3001.073796,-10955.047942,-518.144159,0.000000
3001.074134,-10510.924376,-592.164754,612.876398
3001.074471,-9918.759623,-518.144159,1302.362347
3001.074808,-9770.718434,222.061783,2451.505594
3001.075145,-10140.821405,148.041188,1455.581446
3001.075483,-9696.697840,1036.288319,1608.800546
3001.075820,-10658.965565,0.000000,1072.533697
3001.076157,-11695.253884,0.000000,2145.067394
3001.076495,-10214.842000,-888.247130,1838.629195
3001.076832,-8512.368333,1110.308913,1225.752797
3001.077169,-8660.409521,1332.370696,766.095498
3001.077506,-10066.800811,1110.308913,-995.924147
3001.077844,-10436.903782,888.247130,-2681.334243
3001.078181,-9844.739029,-666.185348,-2451.505594
3001.078518,-8364.327145,-666.185348,-1149.143247
3001.078856,-7550.100608,222.061783,229.828649
3001.079193,-8882.471304,-370.102971,536.266849
3001.079530,-10658.965565,-592.164754,0.000000
3001.079867,-11399.171507,-814.226536,-919.314598
3001.080205,-10732.986159,-1702.473667,0.000000
3001.080542,-9696.697840,-1480.411884,1685.410096
3001.080879,-9548.656652,-222.061783,2757.943793
3001.081216,-11177.109724,0.000000,1378.971896
3001.081554,-11399.171507,-222.061783,-229.828649
3001.081891,-11547.212695,-74.020594,-612.876398
3001.082228,-10066.800811,-444.123565,-459.657299
3001.082566,-8734.430116,-148.041188,-536.266849
3001.082903,-9918.759623,222.061783,766.095498
3001.083240,-10288.862594,888.247130,459.657299
3001.083577,-10436.903782,0.000000,0.000000
3001.083915,-11251.130318,370.102971,0.000000
3001.084252,-10658.965565,0.000000,0.000000
3001.084589,-9474.636058,-518.144159,-612.876398
3001.084926,-9696.697840,-1258.350101,0.000000
3001.085264,-9992.780217,-444.123565,306.438199
3001.085601,-10066.800811,0.000000,-995.924147
3001.085938,-10214.842000,-962.267725,-2221.676944
3001.086276,-8808.450710,-1776.494261,-1762.019645
3001.086613,-8586.388927,-1702.473667,-995.924147
3001.086950,-8660.409521,-1036.288319,842.705048
3001.087287,-9770.718434,0.000000,766.095498
3001.087625,-10658.965565,0.000000,-459.657299
3001.087962,-11177.109724,-296.082377,536.266849
3001.088299,-10807.006753,-962.267725,1915.238745
3001.088637,-9696.697840,-962.267725,4060.306139
3001.088974,-9474.636058,-296.082377,5439.278036
3001.089311,-10288.862594,592.164754,3983.696590
3001.089648,-10881.027347,888.247130,1762.019645
3001.089986,-11695.253884,1850.514855,612.876398
3001.090323,-9400.615463,1258.350101,-689.485948
3001.090660,-8586.388927,1332.370696,0.000000
3001.090997,-9622.677246,1184.329507,1762.019645
3001.091335,-9992.780217,1924.535449,-459.657299
3001.091672,-11251.130318,1480.411884,-1532.190996
3001.092009,-11251.130318,962.267725,-1455.581446
3001.092347,-9696.697840,-370.102971,-612.876398
3001.092684,-9252.574275,0.000000,536.266849
3001.093021,-8956.491898,-1628.453072,153.219100
3001.093358,-9770.718434,-1258.350101,153.219100
3001.093696,-9992.780217,-1850.514855,-689.485948
3001.094033,-10362.883188,-1924.535449,-383.047749
3001.094370,-9992.780217,-2368.659014,229.828649
3001.094708,-9548.656652,-2072.576638,919.314598
3001.095045,-10140.821405,-1554.432478,459.657299
3001.095382,-10066.800811,-888.247130,842.705048
3001.095719,-10066.800811,-370.102971,-536.266849
3001.096057,-10584.944971,-962.267725,-919.314598
3001.096394,-9770.718434,-2294.638420,153.219100
3001.096731,-8660.409521,-740.205942,919.314598
3001.097068,-10510.924376,-1036.288319,2451.505594
3001.097406,-10881.027347,962.267725,1072.533697
3001.097743,-10955.047942,370.102971,-1302.362347
3001.098080,-11991.336260,-444.123565,-229.828649
3001.098418,-9548.656652,-592.164754,-1225.752797
3001.098755,-8586.388927,222.061783,306.438199
3001.099092,-10066.800811,0.000000,995.924147
3001.099429,-10436.903782,296.082377,-1225.752797
3001.099767,-11325.150913,370.102971,-2298.286494
3001.100104,-11399.171507,-518.144159,-2221.676944
3001.100441,-10140.821405,-1110.308913,-536.266849
3001.100779,-9030.512492,-1406.391290,1378.971896
3001.101116,-8734.430116,74.020594,1302.362347
3001.101453,-9178.553681,592.164754,1149.143247
3001.101790,-11621.233289,0.000000,1149.143247
3001.102128,-10807.006753,0.000000,-153.219100
3001.102465,-9030.512492,-888.247130,76.609550
3001.102802,-8808.450710,296.082377,3370.820191
3001.103139,-8586.388927,888.247130,3294.210641
3001.103477,-10807.006753,1554.432478,2068.457845
3001.103814,-11251.130318,888.247130,-306.438199
3001.104151,-10066.800811,222.061783,-612.876398
3001.104489,-9770.718434,-296.082377,612.876398
3001.104826,-8660.409521,-518.144159,1072.533697
3001.105163,-8586.388927,518.144159,766.095498
3001.105501,-9474.636058,666.185348,0.000000
3001.105838,-10955.047942,666.185348,-1149.143247
3001.106175,-10510.924376,-592.164754,-1532.190996
3001.106513,-9770.718434,-1036.288319,-383.047749
3001.106850,-9622.677246,-296.082377,536.266849
3001.107188,-10584.944971,-888.247130,-76.609550
3001.107525,-9844.739029,-1258.350101,-536.266849
3001.107862,-10288.862594,-1628.453072,-766.095498
3001.108200,-10881.027347,-1850.514855,-229.828649
3001.108537,-9770.718434,-1554.432478,-1149.143247
3001.108874,-9622.677246,-1998.556043,1072.533697
3001.109212,-10362.883188,-1184.329507,2068.457845
3001.109549,-10436.903782,-740.205942,1532.190996
3001.109887,-11177.109724,444.123565,612.876398
3001.110224,-9992.780217,222.061783,0.000000
3001.110561,-9770.718434,0.000000,1455.581446
3001.110899,-10436.903782,-444.123565,2604.724693
3001.111236,-9770.718434,740.205942,1685.410096
3001.111574,-10362.883188,1480.411884,1685.410096
3001.111911,-11103.089130,1036.288319,229.828649
3001.112248,-9474.636058,592.164754,-842.705048
3001.112586,-9252.574275,0.000000,-689.485948
3001.112923,-9252.574275,444.123565,306.438199
3001.113260,-9104.533087,1036.288319,-306.438199
3001.113598,-10658.965565,444.123565,-459.657299
3001.113935,-10214.842000,1110.308913,-1378.971896
3001.114273,-10362.883188,0.000000,-1149.143247
3001.114610,-10288.862594,-222.061783,229.828649
3001.114947,-9844.739029,-1776.494261,1378.971896
3001.115285,-9696.697840,-740.205942,1532.190996
3001.115622,-9844.739029,-666.185348,612.876398
3001.115959,-10732.986159,-740.205942,-153.219100
3001.116297,-10214.842000,-1998.556043,0.000000
3001.116634,-9104.533087,-1480.411884,153.219100
3001.116972,-8734.430116,-740.205942,1838.629195
3001.117309,-10584.944971,888.247130,1685.410096
3001.117646,-11399.171507,-74.020594,306.438199
3001.117984,-11547.212695,370.102971,-536.266849
3001.118321,-9918.759623,-740.205942,-689.485948
3001.118659,-8882.471304,-962.267725,1149.143247
3001.118996,-8364.327145,-962.267725,1149.143247
3001.119333,-9104.533087,-592.164754,1225.752797
3001.119671,-10732.986159,-1258.350101,229.828649
3001.120008,-11399.171507,-666.185348,-2221.676944
3001.120345,-10658.965565,-888.247130,-2604.724693
3001.120683,-9474.636058,-1850.514855,-1455.581446
3001.121020,-8142.265362,-962.267725,-995.924147
3001.121358,-9104.533087,-1258.350101,-1149.143247
3001.121695,-10510.924376,-666.185348,-306.438199
3001.122032,-11251.130318,-2072.576638,-459.657299
3001.122370,-10807.006753,-1480.411884,-383.047749
3001.122707,-9622.677246,296.082377,536.266849
3001.123045,-10436.903782,-148.041188,2221.676944
3001.123382,-11473.192101,-444.123565,2528.115143
3001.123719,-11399.171507,-518.144159,2145.067394
3001.124057,-10436.903782,592.164754,1685.410096
3001.124394,-10510.924376,962.267725,1838.629195
3001.124731,-10510.924376,1036.288319,1455.581446
3001.125069,-9252.574275,1110.308913,689.485948
3001.125406,-9622.677246,1332.370696,919.314598
3001.125744,-9474.636058,1924.535449,229.828649
3001.126081,-9548.656652,1850.514855,-766.095498
3001.126418,-9474.636058,740.205942,-536.266849
3001.126756,-9178.553681,444.123565,-536.266849
3001.127093,-9104.533087,74.020594,459.657299
3001.127431,-9918.759623,518.144159,1072.533697
3001.127768,-10066.800811,74.020594,-306.438199
3001.128105,-9622.677246,-296.082377,-995.924147
3001.128443,-10140.821405,-1258.350101,-1532.190996
3001.128780,-8956.491898,-1258.350101,-459.657299
3001.129117,-9622.677246,-1480.411884,536.266849
3001.129455,-9992.780217,-1258.350101,995.924147
3001.129792,-10658.965565,-370.102971,-536.266849
3001.130130,-10584.944971,-1258.350101,-995.924147
3001.130467,-10140.821405,-1480.411884,306.438199
3001.130804,-9770.718434,-1924.535449,1532.190996
3001.131142,-10066.800811,-296.082377,2068.457845
3001.131479,-11029.068536,0.000000,2068.457845
3001.131817,-11325.150913,-592.164754,1302.362347
3001.132154,-11177.109724,-296.082377,1072.533697
3001.132491,-11103.089130,-1258.350101,2221.676944
3001.132829,-10584.944971,74.020594,2451.505594
3001.133166,-9548.656652,-370.102971,1455.581446
3001.133503,-9992.780217,518.144159,842.705048
3001.133841,-10288.862594,-518.144159,-995.924147
3001.134178,-9770.718434,0.000000,-842.705048
3001.134516,-9474.636058,222.061783,-1532.190996
3001.134853,-9400.615463,-740.205942,-995.924147
3001.135190,-9770.718434,148.041188,-842.705048
3001.135528,-9622.677246,-222.061783,-995.924147
3001.135865,-9696.697840,592.164754,-689.485948
3001.136202,-8956.491898,-962.267725,-1149.143247
3001.136540,-9770.718434,-1036.288319,459.657299
3001.136877,-9178.553681,-592.164754,689.485948
3001.137215,-9104.533087,-1110.308913,1149.143247
3001.137552,-9770.718434,-370.102971,2221.676944
3001.137889,-11103.089130,148.041188,1685.410096
3001.138227,-11029.068536,888.247130,1455.581446
3001.138564,-10436.903782,1554.432478,536.266849
3001.138902,-9622.677246,1332.370696,306.438199
3001.139239,-10362.883188,1036.288319,76.609550
3001.139576,-10140.821405,74.020594,-995.924147
3001.139914,-9474.636058,814.226536,-1072.533697
3001.140251,-10066.800811,-222.061783,-153.219100
3001.140588,-9696.697840,-74.020594,-76.609550
3001.140926,-9696.697840,0.000000,-459.657299
3001.141263,-10362.883188,-1036.288319,0.000000
3001.141601,-10362.883188,-666.185348,-919.314598
3001.141938,-9696.697840,-1110.308913,-842.705048
3001.142275,-9992.780217,-1184.329507,153.219100
3001.142613,-9992.780217,-1554.432478,-459.657299
3001.142950,-10140.821405,-1258.350101,-1378.971896
3001.143288,-10881.027347,-2146.597232,-689.485948
3001.143625,-11029.068536,-2664.741391,0.000000
3001.143962,-9104.533087,-1628.453072,-306.438199
3001.144300,-9326.594869,-1850.514855,1149.143247
3001.144637,-10214.842000,-1480.411884,919.314598
3001.144974,-10066.800811,-1776.494261,306.438199
3001.145312,-10807.006753,-666.185348,1838.629195
3001.145649,-9770.718434,-518.144159,2298.286494
3001.145987,-10140.821405,74.020594,2528.115143
3001.146324,-10288.862594,592.164754,2604.724693
3001.146661,-10288.862594,1258.350101,1991.848295
3001.146999,-11029.068536,1554.432478,1302.362347
3001.147336,-10436.903782,1480.411884,0.000000
3001.147674,-9844.739029,888.247130,-306.438199
3001.148011,-9844.739029,666.185348,459.657299
3001.148348,-9178.553681,1628.453072,0.000000
3001.148686,-8882.471304,1036.288319,-766.095498
3001.149023,-9474.636058,74.020594,-1225.752797
3001.149360,-9104.533087,370.102971,-919.314598
3001.149698,-9622.677246,0.000000,-612.876398
3001.150035,-10436.903782,814.226536,76.609550
3001.150373,-10436.903782,444.123565,0.000000
3001.150710,-9622.677246,-296.082377,306.438199
3001.151047,-9474.636058,-592.164754,306.438199
3001.151385,-9770.718434,-666.185348,306.438199
3001.151722,-9770.718434,-666.185348,1225.752797
3001.152059,-10732.986159,-1998.556043,1302.362347
3001.152397,-10732.986159,-740.205942,1302.362347
3001.152734,-10584.944971,740.205942,1455.581446
3001.153072,-10955.047942,370.102971,536.266849
3001.153409,-10807.006753,518.144159,-919.314598
3001.153746,-10807.006753,0.000000,153.219100
3001.154084,-10066.800811,74.020594,0.000000
3001.154421,-9474.636058,-666.185348,306.438199
3001.154759,-10436.903782,222.061783,689.485948
3001.155096,-10362.883188,-444.123565,-1225.752797
3001.155433,-11325.150913,-1554.432478,-1455.581446
3001.155771,-9844.739029,-1776.494261,0.000000
3001.156108,-9622.677246,-1258.350101,459.657299
3001.156445,-9918.759623,-1850.514855,0.000000
3001.156783,-9326.594869,-1036.288319,-1072.533697
3001.157120,-10066.800811,-1184.329507,-1225.752797
3001.157458,-10510.924376,-1332.370696,-689.485948
3001.157795,-8808.450710,-1924.535449,-689.485948
3001.158132,-8808.450710,-2294.638420,1302.362347
3001.158470,-9474.636058,-1554.432478,2451.505594
3001.158807,-9252.574275,-1184.329507,2145.067394
3001.159145,-11843.295072,-666.185348,2221.676944
3001.159482,-11251.130318,74.020594,1225.752797
3001.159819,-9992.780217,148.041188,612.876398
3001.160157,-10066.800811,814.226536,2681.334243
3001.160494,-9252.574275,2516.700203,2145.067394
3001.160831,-10140.821405,2294.638420,383.047749
3001.161169,-10584.944971,2294.638420,-1149.143247
3001.161506,-10362.883188,2294.638420,-2145.067394
3001.161844,-10362.883188,1332.370696,-1532.190996
3001.162181,-9326.594869,518.144159,-536.266849
3001.162518,-8586.388927,814.226536,0.000000
3001.162856,-10807.006753,814.226536,-459.657299
3001.163193,-10066.800811,444.123565,-2451.505594
3001.163531,-8734.430116,-370.102971,-2757.943793
3001.163868,-9326.594869,-2072.576638,-1532.190996
3001.164205,-8882.471304,-1850.514855,229.828649
3001.164543,-10066.800811,-814.226536,229.828649
3001.164880,-10362.883188,-888.247130,0.000000
3001.165217,-10362.883188,-2368.659014,-1225.752797
3001.165555,-10881.027347,-1258.350101,-536.266849
3001.165892,-8586.388927,-1036.288319,-383.047749
3001.166230,-9474.636058,-2294.638420,1991.848295
3001.166567,-10658.965565,-1480.411884,2451.505594
3001.166904,-11251.130318,-518.144159,1685.410096
3001.167242,-11917.315666,0.000000,2221.676944
3001.167579,-10881.027347,-444.123565,1302.362347
3001.167917,-10214.842000,-592.164754,1991.848295
3001.168254,-9992.780217,-518.144159,2221.676944
3001.168591,-10362.883188,-666.185348,2221.676944
3001.168929,-10362.883188,0.000000,1149.143247
3001.169266,-10510.924376,0.000000,-689.485948
3001.169603,-9400.615463,-296.082377,-919.314598
3001.169941,-9548.656652,0.000000,76.609550
3001.170278,-9548.656652,-518.144159,229.828649
3001.170616,-9696.697840,0.000000,-229.828649
3001.170953,-10807.006753,0.000000,-536.266849
3001.171290,-10214.842000,-74.020594,-1149.143247
3001.171628,-10066.800811,-296.082377,-459.657299
3001.171965,-9326.594869,-1184.329507,919.314598
3001.172302,-8586.388927,-1554.432478,3064.381992
3001.172640,-9548.656652,-592.164754,3370.820191
3001.172977,-10658.965565,814.226536,2528.115143
3001.173315,-11251.130318,740.205942,919.314598
3001.173652,-11399.171507,296.082377,536.266849
3001.173989,-9030.512492,148.041188,1149.143247
3001.174327,-8956.491898,518.144159,2145.067394
3001.174664,-9548.656652,1258.350101,1762.019645
3001.175002,-9770.718434,1406.391290,-612.876398
3001.175339,-10584.944971,1628.453072,-2374.896044
3001.175676,-10436.903782,518.144159,-2451.505594
3001.176014,-10066.800811,-518.144159,-919.314598
3001.176351,-9030.512492,0.000000,-229.828649
3001.176688,-8734.430116,0.000000,-1072.533697
3001.177026,-9844.739029,74.020594,-1991.848295
3001.177363,-10658.965565,296.082377,-2604.724693
3001.177701,-11399.171507,-888.247130,-2374.896044
3001.178038,-10584.944971,-3034.844362,-689.485948
3001.178375,-9400.615463,-2220.617826,1225.752797
3001.178713,-10955.047942,-296.082377,1302.362347
3001.179050,-11325.150913,-888.247130,-536.266849
3001.179388,-10362.883188,-1924.535449,-1838.629195
3001.179725,-11473.192101,-2220.617826,-306.438199
3001.180062,-9104.533087,-2146.597232,-612.876398
3001.180400,-7698.141797,-1628.453072,1149.143247
3001.180737,-9030.512492,-370.102971,2451.505594
3001.181074,-10362.883188,444.123565,612.876398
3001.181412,-12213.398043,1036.288319,76.609550
3001.181749,-10510.924376,74.020594,0.000000
3001.182087,-9326.594869,-222.061783,1762.019645
3001.182424,-9770.718434,1554.432478,2987.772442
3001.182761,-10658.965565,1702.473667,1532.190996
3001.183099,-10658.965565,1258.350101,153.219100
3001.183436,-10140.821405,0.000000,-995.924147
3001.183774,-9770.718434,0.000000,0.000000
3001.184111,-8438.347739,0.000000,306.438199
3001.184448,-8438.347739,148.041188,1149.143247
3001.184786,-9474.636058,370.102971,0.000000
3001.185123,-10362.883188,666.185348,-1532.190996
3001.185460,-10732.986159,814.226536,-1225.752797
3001.185798,-10362.883188,0.000000,-459.657299
3001.186135,-8956.491898,-1258.350101,842.705048
3001.186473,-9030.512492,-1258.350101,1915.238745
3001.186810,-10140.821405,0.000000,2681.334243
3001.187147,-11251.130318,-296.082377,1685.410096
3001.187485,-11325.150913,-666.185348,459.657299
3001.187822,-9918.759623,-1036.288319,1072.533697
3001.188160,-8734.430116,-962.267725,2604.724693
3001.188497,-8364.327145,0.000000,3217.601092
3001.188834,-11325.150913,296.082377,2374.896044
3001.189172,-11917.315666,1258.350101,-919.314598
3001.189509,-10955.047942,1184.329507,-2528.115143
3001.189846,-10066.800811,148.041188,-1455.581446
3001.190184,-8882.471304,-666.185348,0.000000
3001.190521,-9326.594869,-518.144159,995.924147
3001.190859,-9770.718434,-592.164754,0.000000
3001.191196,-10436.903782,-740.205942,-1915.238745
3001.191533,-11547.212695,-370.102971,-1991.848295
3001.191871,-10362.883188,0.000000,-995.924147
3001.192208,-9622.677246,-2294.638420,306.438199
3001.192545,-8956.491898,-2072.576638,1762.019645
3001.192883,-9992.780217,-1036.288319,689.485948
3001.193220,-9770.718434,370.102971,-536.266849
3001.193558,-10807.006753,-740.205942,-612.876398
3001.193895,-9400.615463,-1776.494261,-1149.143247
3001.194232,-9030.512492,-1258.350101,612.876398
3001.194570,-9696.697840,-222.061783,2451.505594
3001.194907,-9474.636058,518.144159,2528.115143
3001.195245,-10807.006753,1036.288319,229.828649
3001.195582,-10955.047942,962.267725,-76.609550
3001.195919,-10807.006753,814.226536,842.705048
3001.196257,-9548.656652,0.000000,1762.019645
3001.196594,-9030.512492,1036.288319,2145.067394
3001.196931,-9696.697840,1628.453072,919.314598
3001.197269,-10955.047942,2368.659014,-919.314598
3001.197606,-10510.924376,1110.308913,-2451.505594
3001.197944,-9474.636058,0.000000,-2068.457845
3001.198281,-9474.636058,-296.082377,0.000000
3001.198618,-9474.636058,0.000000,536.266849
3001.198956,-9770.718434,370.102971,-536.266849
3001.199293,-11399.171507,0.000000,-1532.190996
3001.199631,-10658.965565,-1184.329507,-1378.971896
3001.199968,-10140.821405,-1036.288319,-383.047749
3001.200305,-9030.512492,-1702.473667,1455.581446
3001.200643,-8586.388927,-1998.556043,1762.019645
3001.200980,-8956.491898,-1036.288319,2145.067394
3001.201317,-10807.006753,-1332.370696,766.095498
3001.201655,-11325.150913,-1702.473667,306.438199
3001.201992,-10140.821405,-1998.556043,1378.971896
3001.202330,-9400.615463,-1406.391290,2604.724693
3001.202667,-9844.739029,0.000000,2451.505594
3001.203004,-10584.944971,444.123565,766.095498
3001.203342,-11251.130318,0.000000,-459.657299
3001.203679,-10214.842000,-222.061783,-1532.190996
3001.204017,-9400.615463,-518.144159,0.000000
3001.204354,-8660.409521,-74.020594,1608.800546
3001.204691,-9474.636058,-592.164754,1149.143247
3001.205029,-11103.089130,518.144159,-459.657299
3001.205366,-11399.171507,148.041188,-1915.238745
3001.205703,-10807.006753,0.000000,-1838.629195
3001.206041,-9474.636058,-666.185348,-995.924147
3001.206378,-8956.491898,-1480.411884,919.314598
3001.206715,-9178.553681,-888.247130,459.657299
3001.207053,-9844.739029,-222.061783,459.657299
3001.207390,-11251.130318,592.164754,-459.657299
3001.207727,-10510.924376,-74.020594,-766.095498
3001.208065,-9918.759623,-666.185348,76.609550
3001.208402,-9178.553681,0.000000,2604.724693
3001.208739,-9030.512492,518.144159,2911.162892
3001.209077,-10066.800811,1406.391290,2145.067394
3001.209414,-11769.274478,888.247130,1149.143247
3001.209751,-11325.150913,1406.391290,0.000000
3001.210088,-10066.800811,148.041188,-229.828649
3001.210426,-9104.533087,296.082377,1378.971896
3001.210763,-8364.327145,148.041188,919.314598
3001.211100,-9696.697840,444.123565,459.657299
3001.211438,-9992.780217,222.061783,-1685.410096
3001.211775,-10436.903782,-222.061783,-2068.457845
3001.212112,-10288.862594,-1036.288319,-766.095498
3001.212449,-9474.636058,-1406.391290,153.219100
3001.212787,-9548.656652,-1110.308913,0.000000
3001.213124,-10288.862594,-1924.535449,-383.047749
3001.213461,-9770.718434,-1406.391290,-612.876398
3001.213799,-10584.944971,-2294.638420,0.000000
3001.214136,-10436.903782,-2220.617826,306.438199
3001.214473,-10288.862594,-2294.638420,612.876398
3001.214811,-10732.986159,-1924.535449,919.314598
3001.215148,-10732.986159,-1184.329507,842.705048
3001.215485,-10955.047942,-1406.391290,383.047749
3001.215822,-10066.800811,-666.185348,612.876398
3001.216160,-9622.677246,-1554.432478,1532.190996
3001.216497,-9844.739029,-888.247130,2834.553343
3001.216834,-9474.636058,740.205942,2298.286494
3001.217172,-10807.006753,296.082377,2298.286494
3001.217509,-11473.192101,1184.329507,1072.533697
3001.217846,-10732.986159,1480.411884,-1532.190996
3001.218184,-10436.903782,1036.288319,459.657299
3001.218521,-9326.594869,888.247130,0.000000
3001.218858,-8068.244768,888.247130,153.219100
3001.219195,-9474.636058,1036.288319,0.000000
3001.219533,-9474.636058,592.164754,-1991.848295
3001.219870,-9770.718434,1036.288319,-1991.848295
3001.220207,-9252.574275,0.000000,-1838.629195
3001.220545,-8068.244768,-222.061783,-459.657299
3001.220882,-9178.553681,296.082377,1225.752797
3001.221219,-10288.862594,0.000000,766.095498
3001.221557,-10510.924376,888.247130,76.609550
3001.221894,-11177.109724,-740.205942,306.438199
3001.222231,-10288.862594,0.000000,995.924147
3001.222568,-8660.409521,-1258.350101,1225.752797
3001.222906,-9844.739029,0.000000,1838.629195
3001.223243,-10214.842000,518.144159,153.219100
3001.223580,-11399.171507,-296.082377,-1072.533697
3001.223918,-11029.068536,370.102971,-612.876398
3001.224255,-9770.718434,-148.041188,153.219100
3001.224592,-10362.883188,296.082377,842.705048
3001.224930,-10362.883188,0.000000,0.000000
3001.225267,-11029.068536,74.020594,0.000000
3001.225604,-10066.800811,-444.123565,-306.438199
3001.225941,-10362.883188,-1332.370696,-1149.143247
3001.226279,-9400.615463,-1554.432478,-229.828649
3001.226616,-9474.636058,-1406.391290,-306.438199
3001.226953,-10658.965565,-2072.576638,229.828649
3001.227291,-11029.068536,-1850.514855,-689.485948
3001.227628,-10140.821405,-1924.535449,-689.485948
3001.227965,-9474.636058,-2146.597232,766.095498
3001.228303,-9696.697840,-1702.473667,612.876398
3001.228640,-9104.533087,-666.185348,459.657299
3001.228977,-9400.615463,-1184.329507,919.314598
3001.229314,-10510.924376,-888.247130,1838.629195
3001.229652,-10584.944971,-74.020594,1762.019645
3001.229989,-10955.047942,1184.329507,2911.162892
3001.230326,-10140.821405,1924.535449,2451.505594
3001.230664,-11621.233289,888.247130,2681.334243
3001.231001,-10436.903782,1776.494261,2681.334243
3001.231338,-9104.533087,1924.535449,1302.362347
3001.231676,-9548.656652,1554.432478,1685.410096
3001.232013,-10362.883188,1406.391290,1072.533697
3001.232350,-9326.594869,1628.453072,76.609550
3001.232687,-8882.471304,2072.576638,-1072.533697
3001.233025,-9400.615463,1406.391290,0.000000
3001.233362,-9622.677246,1406.391290,-612.876398
3001.233699,-11177.109724,-222.061783,-1302.362347
3001.234037,-10140.821405,-296.082377,-1838.629195
3001.234374,-7920.203579,-1406.391290,-766.095498
3001.234711,-9178.553681,-1702.473667,229.828649
3001.235048,-9104.533087,-2368.659014,0.000000
3001.235386,-9918.759623,-2368.659014,-383.047749
3001.235723,-10510.924376,-1998.556043,-459.657299
3001.236060,-10807.006753,-2294.638420,0.000000
3001.236398,-10362.883188,-1776.494261,1072.533697
3001.236735,-9548.656652,-1554.432478,459.657299
3001.237072,-10510.924376,-1850.514855,536.266849
3001.237410,-10732.986159,-1850.514855,229.828649
3001.237747,-10732.986159,-1184.329507,76.609550
3001.238084,-10510.924376,-1036.288319,842.705048
3001.238421,-10658.965565,-740.205942,536.266849
3001.238759,-11695.253884,-592.164754,842.705048
3001.239096,-11177.109724,-814.226536,-229.828649
3001.239433,-9548.656652,-666.185348,76.609550
3001.239771,-9918.759623,-296.082377,842.705048
3001.240108,-10362.883188,0.000000,-919.314598
3001.240445,-9548.656652,444.123565,-2298.286494
3001.240783,-9326.594869,-1332.370696,-1915.238745
3001.241120,-9696.697840,-1554.432478,-459.657299
3001.241457,-9770.718434,-1184.329507,0.000000
3001.241794,-9474.636058,-1184.329507,1225.752797
3001.242132,-9548.656652,-888.247130,1762.019645
3001.242469,-10214.842000,-444.123565,1455.581446
3001.242806,-9992.780217,592.164754,1302.362347
3001.243144,-9770.718434,0.000000,689.485948
3001.243481,-9548.656652,74.020594,919.314598
3001.243818,-9252.574275,-444.123565,1302.362347
3001.244156,-9030.512492,1628.453072,1915.238745
3001.244493,-9992.780217,1850.514855,1302.362347
3001.244830,-10214.842000,1554.432478,919.314598
3001.245167,-11103.089130,1480.411884,-153.219100
3001.245505,-10658.965565,1850.514855,383.047749
3001.245842,-9918.759623,2590.720797,689.485948
3001.246179,-10140.821405,1406.391290,612.876398
3001.246517,-10584.944971,1184.329507,-459.657299
3001.246854,-9474.636058,1110.308913,-1302.362347
3001.247191,-10140.821405,0.000000,-1072.533697
3001.247529,-9104.533087,0.000000,-612.876398
3001.247866,-10066.800811,-518.144159,-842.705048
3001.248203,-9622.677246,-370.102971,-612.876398
3001.248540,-10584.944971,-1406.391290,-1762.019645
3001.248878,-10658.965565,-1850.514855,-383.047749
3001.249215,-9770.718434,-2516.700203,153.219100
3001.249552,-9400.615463,-2220.617826,306.438199
3001.249890,-9178.553681,-2294.638420,919.314598
3001.250227,-9992.780217,-1850.514855,306.438199
3001.250564,-11621.233289,-1554.432478,612.876398
3001.250902,-11399.171507,-2072.576638,842.705048
3001.251239,-9474.636058,-1480.411884,1608.800546
3001.251576,-9400.615463,-666.185348,2681.334243
3001.251913,-10288.862594,-592.164754,1608.800546
3001.252251,-10881.027347,666.185348,2374.896044
3001.252588,-11029.068536,74.020594,1915.238745
3001.252925,-10436.903782,296.082377,1455.581446
3001.253263,-10436.903782,1184.329507,1072.533697
3001.253600,-10214.842000,1480.411884,1225.752797
3001.253937,-10214.842000,962.267725,306.438199
3001.254275,-10510.924376,1184.329507,-536.266849
3001.254612,-9770.718434,1110.308913,-1149.143247
3001.254949,-8882.471304,74.020594,-1302.362347
3001.255286,-9252.574275,296.082377,0.000000
3001.255624,-9622.677246,-370.102971,459.657299
3001.255961,-8512.368333,222.061783,1302.362347
3001.256298,-9104.533087,592.164754,2221.676944
3001.256636,-10214.842000,1554.432478,2298.286494
3001.256973,-10955.047942,1184.329507,536.266849
3001.257310,-11325.150913,-444.123565,0.000000
3001.257647,-10436.903782,-592.164754,1302.362347
3001.257985,-8586.388927,-1110.308913,2451.505594
3001.258322,-8290.306550,444.123565,3217.601092
3001.258659,-9326.594869,814.226536,1915.238745
3001.258997,-10066.800811,222.061783,766.095498
3001.259334,-9844.739029,814.226536,1149.143247
3001.259671,-10140.821405,1332.370696,1915.238745
3001.260009,-10955.047942,2738.761985,1991.848295
3001.260346,-11547.212695,2886.803174,689.485948
3001.260683,-12065.356855,666.185348,-229.828649
3001.261020,-9622.677246,518.144159,153.219100
3001.261358,-9400.615463,0.000000,2298.286494
3001.261695,-9696.697840,370.102971,2298.286494
3001.262032,-9844.739029,222.061783,229.828649
3001.262370,-10881.027347,444.123565,919.314598
3001.262707,-10807.006753,0.000000,536.266849
3001.263044,-10288.862594,1628.453072,1991.848295
3001.263382,-10436.903782,1924.535449,1685.410096
3001.263719,-10436.903782,1258.350101,1455.581446
3001.264056,-9696.697840,1184.329507,1685.410096
3001.264393,-10362.883188,-592.164754,2987.772442
3001.264731,-10140.821405,222.061783,5822.325785
3001.265068,-9696.697840,814.226536,4826.401637
3001.265405,-9844.739029,2590.720797,4290.134789
3001.265743,-9918.759623,2590.720797,3600.648841
3001.266080,-10288.862594,2368.659014,3064.381992
3001.266417,-9696.697840,2368.659014,3907.087040
3001.266755,-9178.553681,2812.782580,3677.258390
3001.267092,-9474.636058,4071.132681,3370.820191
3001.267429,-10510.924376,5107.421000,2911.162892
3001.267766,-10658.965565,4885.359217,306.438199
3001.268104,-9548.656652,3552.988522,919.314598
3001.268441,-9696.697840,2072.576638,2145.067394
3001.268778,-10066.800811,2886.803174,1838.629195
3001.269116,-10140.821405,1554.432478,1532.190996
3001.269453,-9844.739029,1776.494261,2068.457845
3001.269790,-9326.594869,1702.473667,2068.457845
3001.270128,-10214.842000,1924.535449,1838.629195
3001.270465,-10214.842000,2294.638420,1455.581446
3001.270802,-10732.986159,1332.370696,1455.581446
3001.271139,-11177.109724,2220.617826,689.485948
3001.271477,-10436.903782,1110.308913,1072.533697
3001.271814,-10362.883188,1184.329507,3217.601092
3001.272151,-10066.800811,518.144159,4290.134789
3001.272489,-10881.027347,814.226536,3907.087040
3001.272826,-9474.636058,1702.473667,2911.162892
3001.273163,-9770.718434,1184.329507,2834.553343
3001.273501,-10658.965565,1406.391290,2681.334243
3001.273838,-11399.171507,740.205942,1455.581446
3001.274175,-10436.903782,2294.638420,842.705048
3001.274512,-9696.697840,1480.411884,1149.143247
3001.274850,-8142.265362,1480.411884,2374.896044
3001.275187,-8660.409521,1184.329507,3600.648841
3001.275524,-9474.636058,1406.391290,3753.867940
3001.275862,-10436.903782,2072.576638,2145.067394
3001.276199,-11621.233289,1480.411884,1149.143247
3001.276536,-11991.336260,1110.308913,995.924147
3001.276874,-10584.944971,0.000000,1455.581446
3001.277211,-8438.347739,-370.102971,1762.019645
3001.277548,-8660.409521,-296.082377,2528.115143
3001.277885,-8364.327145,-222.061783,1762.019645
3001.278223,-9918.759623,1110.308913,3294.210641
3001.278560,-9992.780217,2072.576638,2451.505594
3001.278897,-10584.944971,4367.215058,2757.943793
3001.279235,-12361.439231,3923.091493,2987.772442
3001.279572,-11843.295072,2294.638420,2528.115143
3001.279909,-10288.862594,2294.638420,3753.867940
3001.280246,-9548.656652,740.205942,4596.572988
3001.280584,-8660.409521,2442.679609,3907.087040
3001.280921,-9548.656652,1036.288319,2604.724693
3001.281258,-10436.903782,2368.659014,1915.238745
3001.281596,-8512.368333,2294.638420,459.657299
3001.281933,-9918.759623,2516.700203,2221.676944
3001.282270,-9104.533087,3701.029710,1302.362347
3001.282608,-8956.491898,2368.659014,0.000000
3001.282945,-11251.130318,2738.761985,612.876398
3001.283282,-10436.903782,1406.391290,-306.438199
3001.283619,-10436.903782,0.000000,766.095498
3001.283957,-9770.718434,-888.247130,1608.800546
3001.284294,-8660.409521,-592.164754,1838.629195
3001.284631,-9918.759623,0.000000,1302.362347
3001.284969,-9326.594869,-666.185348,1378.971896
3001.285306,-9474.636058,444.123565,2604.724693
3001.285643,-9400.615463,1406.391290,2528.115143
3001.285981,-10510.924376,3182.885551,3830.477490
3001.286318,-12879.583391,3552.988522,4366.744339
3001.286655,-12953.603985,3330.926739,3677.258390
3001.286992,-12509.480420,2442.679609,2681.334243
3001.287330,-11251.130318,2072.576638,3600.648841
3001.287667,-9696.697840,296.082377,4213.525239
3001.288004,-9178.553681,666.185348,3983.696590
3001.288342,-8364.327145,1258.350101,3140.991542
3001.288679,-8586.388927,2812.782580,2911.162892
3001.289016,-9844.739029,3552.988522,2298.286494
3001.289354,-10288.862594,4737.318029,153.219100
3001.289691,-9400.615463,4589.276840,995.924147
3001.290028,-10362.883188,4589.276840,2451.505594
3001.290365,-11399.171507,3404.947333,2298.286494
3001.290703,-11103.089130,3404.947333,995.924147
3001.291040,-9178.553681,1036.288319,1455.581446
3001.291377,-7846.182985,-962.267725,2834.553343
3001.291715,-8068.244768,-74.020594,5132.839837
3001.292052,-8142.265362,666.185348,4596.572988
3001.292389,-7476.080014,2516.700203,2604.724693
3001.292727,-9622.677246,2220.617826,1455.581446
3001.293064,-12213.398043,3552.988522,1915.238745
3001.293401,-11769.274478,3997.112087,1455.581446
3001.293738,-11325.150913,4071.132681,3140.991542
3001.294076,-9770.718434,4367.215058,2451.505594
3001.294413,-11399.171507,2294.638420,1838.629195
3001.294750,-11991.336260,962.267725,2068.457845
3001.295088,-9474.636058,-740.205942,2451.505594
3001.295425,-8290.306550,74.020594,3983.696590
3001.295762,-8882.471304,1702.473667,3677.258390
3001.296100,-10362.883188,2886.803174,1532.190996
3001.296437,-11251.130318,2072.576638,0.000000
3001.296774,-10362.883188,2072.576638,-1225.752797
3001.297111,-10955.047942,1776.494261,919.314598
3001.297449,-10658.965565,2368.659014,1838.629195
3001.297786,-10288.862594,1998.556043,1378.971896
3001.298123,-11103.089130,518.144159,1072.533697
3001.298461,-9992.780217,-592.164754,1149.143247
3001.298798,-9622.677246,-1110.308913,2528.115143
3001.299135,-9178.553681,-1258.350101,3140.991542
3001.299473,-8068.244768,-962.267725,2451.505594
3001.299810,-9474.636058,-370.102971,3064.381992
3001.300147,-10584.944971,1184.329507,4060.306139
3001.300484,-10066.800811,3256.906145,4213.525239
3001.300822,-10436.903782,4219.173869,4443.353888
3001.301159,-10955.047942,4663.297435,3753.867940
3001.301496,-11917.315666,4589.276840,3907.087040
3001.301834,-12361.439231,3923.091493,4136.915689
3001.302171,-10510.924376,2294.638420,3524.039291
3001.302508,-8808.450710,1258.350101,3294.210641
3001.302845,-8290.306550,1628.453072,3677.258390
3001.303183,-8364.327145,1850.514855,2987.772442
3001.303520,-8956.491898,2294.638420,1762.019645
3001.303857,-9770.718434,2812.782580,536.266849
3001.304195,-10436.903782,3627.009116,-459.657299
3001.304532,-11029.068536,3997.112087,-919.314598
3001.304869,-10955.047942,2960.823768,-995.924147
3001.305207,-10288.862594,1406.391290,0.000000
3001.305544,-9178.553681,0.000000,1455.581446
3001.305881,-8808.450710,-888.247130,2604.724693
3001.306218,-9400.615463,-1628.453072,2987.772442
3001.306556,-9474.636058,-592.164754,1378.971896
3001.306893,-10362.883188,-888.247130,1762.019645
3001.307230,-10362.883188,814.226536,1225.752797
3001.307568,-10362.883188,666.185348,1302.362347
3001.307905,-10658.965565,888.247130,1685.410096
3001.308242,-9992.780217,1554.432478,1455.581446
3001.308580,-10214.842000,1850.514855,1532.190996
3001.308917,-10732.986159,1850.514855,2681.334243
3001.309254,-11399.171507,1036.288319,2374.896044
3001.309592,-10140.821405,1036.288319,1915.238745
3001.309929,-10214.842000,962.267725,1685.410096
3001.310266,-9474.636058,814.226536,1991.848295
3001.310604,-9844.739029,518.144159,2221.676944
3001.310941,-10362.883188,1036.288319,2298.286494
3001.311278,-9770.718434,1628.453072,1608.800546
3001.311616,-10436.903782,2220.617826,1378.971896
3001.311953,-10584.944971,2368.659014,1608.800546
3001.312290,-10066.800811,1850.514855,1302.362347
3001.312627,-10214.842000,1110.308913,2451.505594
3001.312965,-9474.636058,1110.308913,2834.553343
3001.313302,-8956.491898,1332.370696,4136.915689
3001.313639,-9030.512492,962.267725,5745.716235
3001.313977,-8956.491898,1332.370696,5745.716235
3001.314314,-9326.594869,2886.803174,6205.373534
3001.314651,-10510.924376,3849.070898,5745.716235
3001.314989,-11399.171507,4145.153275,4673.182538
3001.315326,-11177.109724,4367.215058,3677.258390
3001.315663,-10362.883188,3997.112087,3524.039291
3001.316001,-9474.636058,3701.029710,3983.696590
3001.316338,-8956.491898,3108.864956,4136.915689
3001.316675,-9030.512492,4145.153275,4290.134789
3001.317013,-9770.718434,4367.215058,3217.601092
3001.317350,-10658.965565,5477.523971,1762.019645
3001.317687,-10955.047942,4293.194464,459.657299
3001.318025,-11029.068536,2368.659014,919.314598
3001.318362,-9918.759623,2294.638420,612.876398
3001.318699,-9178.553681,1850.514855,1455.581446
3001.319037,-9474.636058,2738.761985,1762.019645
3001.319374,-9474.636058,1776.494261,1378.971896
3001.319711,-9992.780217,1332.370696,1455.581446
3001.320048,-10288.862594,1702.473667,2298.286494
3001.320386,-10732.986159,1998.556043,2604.724693
3001.320723,-10955.047942,2664.741391,1685.410096
3001.321060,-10807.006753,2294.638420,0.000000
3001.321398,-10807.006753,1110.308913,0.000000
3001.321735,-10362.883188,0.000000,1072.533697
3001.322072,-8956.491898,148.041188,2757.943793
3001.322410,-8068.244768,1332.370696,2911.162892
3001.322747,-8586.388927,2664.741391,3064.381992
3001.323084,-10140.821405,2738.761985,2451.505594
3001.323422,-11843.295072,3256.906145,2681.334243
3001.323759,-11399.171507,3330.926739,3064.381992
3001.324096,-9400.615463,4885.359217,2374.896044
3001.324434,-9918.759623,4441.235652,2681.334243
3001.324771,-12139.377449,2368.659014,2911.162892
3001.325108,-11621.233289,1998.556043,766.095498
3001.325446,-9252.574275,1036.288319,0.000000
3001.325783,-7920.203579,740.205942,1762.019645
3001.326120,-8364.327145,444.123565,1838.629195
3001.326458,-9918.759623,296.082377,612.876398
3001.326795,-8290.306550,1406.391290,-306.438199
3001.327132,-9252.574275,740.205942,766.095498
3001.327469,-10658.965565,1776.494261,3140.991542
3001.327807,-10066.800811,2886.803174,1532.190996
3001.328144,-10436.903782,1776.494261,3753.867940
3001.328481,-11547.212695,1258.350101,5209.449386
3001.328819,-11325.150913,666.185348,4903.011187
3001.329156,-11621.233289,592.164754,5132.839837
3001.329493,-9770.718434,74.020594,4673.182538
3001.329831,-9474.636058,-666.185348,4136.915689
3001.330168,-10066.800811,74.020594,3600.648841
3001.330505,-10584.944971,1184.329507,2681.334243
3001.330843,-9400.615463,1184.329507,153.219100
3001.331180,-9252.574275,370.102971,0.000000
3001.331517,-9548.656652,1332.370696,459.657299
3001.331855,-9844.739029,962.267725,459.657299
3001.332192,-9992.780217,1258.350101,2298.286494
3001.332529,-9992.780217,1480.411884,1991.848295
3001.332867,-11547.212695,1110.308913,2221.676944
3001.333204,-11621.233289,444.123565,2374.896044
3001.333541,-9844.739029,-296.082377,3677.258390
3001.333879,-10140.821405,-370.102971,4903.011187
3001.334216,-10732.986159,592.164754,3217.601092
3001.334553,-11103.089130,592.164754,2221.676944
3001.334891,-10436.903782,148.041188,1302.362347
3001.335228,-9030.512492,444.123565,459.657299
3001.335565,-8660.409521,1406.391290,1915.238745
3001.335902,-8216.285956,3182.885551,2604.724693
3001.336240,-8956.491898,4515.256246,3217.601092
3001.336577,-11473.192101,4071.132681,3140.991542
3001.336914,-11251.130318,5033.400406,3294.210641
3001.337252,-11473.192101,4737.318029,3907.087040
3001.337589,-11177.109724,4589.276840,3677.258390
3001.337926,-8438.347739,2442.679609,2298.286494
3001.338264,-9696.697840,1332.370696,2298.286494
3001.338601,-8660.409521,1332.370696,2604.724693
3001.338938,-7105.977043,2590.720797,1685.410096
3001.339276,-8808.450710,4071.132681,919.314598
3001.339613,-8956.491898,3701.029710,0.000000
3001.339950,-11177.109724,4811.338623,-153.219100
3001.340288,-11251.130318,5107.421000,-689.485948
3001.340625,-9918.759623,3849.070898,-1149.143247
3001.340962,-10955.047942,2442.679609,1149.143247
3001.341300,-9844.739029,0.000000,1378.971896
3001.341637,-10436.903782,148.041188,3524.039291
3001.341974,-8586.388927,370.102971,4290.134789
3001.342312,-9548.656652,666.185348,5439.278036
3001.342649,-10584.944971,1850.514855,4290.134789
3001.342986,-11843.295072,2516.700203,2757.943793
3001.343323,-11621.233289,4515.256246,1915.238745
3001.343661,-10732.986159,2368.659014,2298.286494
3001.343998,-10436.903782,2442.679609,3064.381992
3001.344335,-10288.862594,2368.659014,3217.601092
3001.344673,-10140.821405,2664.741391,3830.477490
3001.345010,-8660.409521,1628.453072,2145.067394
3001.345347,-9696.697840,1850.514855,2911.162892
3001.345685,-10436.903782,1184.329507,2374.896044
3001.346022,-9622.677246,1554.432478,3294.210641
3001.346359,-10214.842000,1184.329507,3370.820191
3001.346697,-9844.739029,1776.494261,2451.505594
3001.347034,-10140.821405,1702.473667,2145.067394
3001.347371,-9770.718434,1702.473667,1762.019645
3001.347709,-9696.697840,1480.411884,2451.505594
3001.348046,-10955.047942,518.144159,2068.457845
3001.348383,-10288.862594,148.041188,1685.410096
3001.348721,-9400.615463,1184.329507,2221.676944
3001.349058,-9770.718434,0.000000,2221.676944
3001.349395,-10658.965565,-148.041188,3064.381992
3001.349733,-9252.574275,444.123565,3524.039291
3001.350070,-8956.491898,2738.761985,4290.134789
3001.350407,-9844.739029,3108.864956,2374.896044
3001.350744,-11177.109724,2072.576638,1838.629195
3001.351082,-12583.501014,1776.494261,2451.505594
3001.351419,-10955.047942,1258.350101,1532.190996
3001.351756,-9992.780217,1998.556043,1608.800546
3001.352094,-10510.924376,2442.679609,229.828649
3001.352431,-9622.677246,-370.102971,-1225.752797
3001.352768,-8512.368333,-888.247130,-689.485948
3001.353106,-7476.080014,-1184.329507,153.219100
3001.353443,-7994.224174,-148.041188,0.000000
3001.353780,-9844.739029,296.082377,0.000000
3001.354118,-10436.903782,1776.494261,-1532.190996
3001.354455,-11251.130318,0.000000,-2145.067394
3001.354792,-9844.739029,-962.267725,-689.485948
3001.355130,-10066.800811,-1332.370696,536.266849
3001.355467,-10510.924376,-1628.453072,842.705048
3001.355804,-10214.842000,-2368.659014,995.924147
3001.356142,-10362.883188,-3034.844362,1302.362347
3001.356479,-10436.903782,-2664.741391,1225.752797
3001.356816,-9030.512492,-1480.411884,306.438199
3001.357154,-10288.862594,-592.164754,383.047749
3001.357491,-9548.656652,518.144159,0.000000
3001.357828,-9474.636058,888.247130,153.219100
3001.358165,-11547.212695,1628.453072,2681.334243
3001.358503,-12065.356855,1998.556043,1762.019645
3001.358840,-12213.398043,1998.556043,536.266849
3001.359177,-11547.212695,1036.288319,0.000000
3001.359515,-8956.491898,-370.102971,1378.971896
3001.359852,-8512.368333,-740.205942,2911.162892
3001.360189,-9474.636058,-592.164754,1838.629195
3001.360527,-9844.739029,1036.288319,-153.219100
3001.360864,-10066.800811,962.267725,-1455.581446
3001.361201,-10066.800811,1184.329507,-1838.629195
3001.361539,-9252.574275,1480.411884,-1455.581446
3001.361876,-8660.409521,370.102971,0.000000
3001.362213,-9252.574275,1184.329507,1685.410096
3001.362551,-11399.171507,592.164754,229.828649
3001.362888,-11695.253884,148.041188,1072.533697
3001.363225,-9696.697840,-814.226536,383.047749
3001.363563,-8586.388927,-1258.350101,2757.943793
3001.363900,-8660.409521,-1332.370696,3140.991542
3001.364237,-8882.471304,-148.041188,1838.629195
3001.364575,-9770.718434,1406.391290,612.876398
3001.364912,-10066.800811,444.123565,-1455.581446
3001.365249,-10658.965565,962.267725,-383.047749
3001.365586,-10584.944971,592.164754,689.485948
3001.365924,-10510.924376,1184.329507,995.924147
3001.366261,-10584.944971,296.082377,0.000000
3001.366598,-9696.697840,444.123565,-536.266849
3001.366936,-8586.388927,-1184.329507,0.000000
3001.367273,-9770.718434,-1924.535449,536.266849
3001.367610,-10658.965565,-1998.556043,76.609550
3001.367948,-10732.986159,-1332.370696,-229.828649
3001.368285,-10436.903782,-740.205942,-1225.752797
3001.368622,-8956.491898,-666.185348,-1532.190996
3001.368960,-10214.842000,-1332.370696,0.000000
3001.369297,-11103.089130,-814.226536,-842.705048
3001.369634,-10955.047942,-1702.473667,-459.657299
3001.369972,-10881.027347,-1332.370696,459.657299
3001.370309,-9992.780217,-1628.453072,1072.533697
3001.370646,-9622.677246,-2072.576638,2145.067394
