#time,accel_x,accel_y,accel_z
3239.021666,-10140.821405,-3256.906145,2451.505594
3239.022004,-10881.027347,-2368.659014,2221.676944
3239.022341,-9252.574275,-962.267725,1072.533697
3239.022679,-9918.759623,-1036.288319,1532.190996
3239.023017,-11029.068536,-814.226536,2604.724693
3239.023355,-9696.697840,-962.267725,1455.581446
3239.023692,-9326.594869,-370.102971,2451.505594
3239.024030,-9400.615463,0.000000,1838.629195
3239.024368,-9474.636058,-370.102971,1378.971896
3239.024705,-10288.862594,814.226536,1072.533697
3239.025043,-9474.636058,740.205942,459.657299
3239.025381,-9474.636058,1258.350101,-153.219100
3239.025719,-9548.656652,1776.494261,536.266849
3239.026056,-10288.862594,888.247130,-153.219100
3239.026394,-10584.944971,0.000000,-842.705048
3239.026732,-9918.759623,0.000000,-612.876398
3239.027070,-8660.409521,0.000000,0.000000
3239.027407,-9104.533087,-592.164754,1762.019645
3239.027745,-9770.718434,-444.123565,2451.505594
3239.028083,-10732.986159,-814.226536,2298.286494
3239.028420,-11325.150913,-1110.308913,3064.381992
3239.028758,-11029.068536,-1406.391290,3294.210641
3239.029096,-11325.150913,-1850.514855,4136.915689
3239.029434,-10881.027347,-962.267725,4290.134789
3239.029771,-10214.842000,-1850.514855,3983.696590
3239.030109,-9918.759623,-2146.597232,4596.572988
3239.030447,-9400.615463,-2516.700203,4673.182538
3239.030784,-10362.883188,-2368.659014,4366.744339
3239.031122,-10288.862594,-3108.864956,3983.696590
3239.031460,-9326.594869,-2738.761985,2834.553343
3239.031798,-9178.553681,-3627.009116,3524.039291
3239.032135,-8438.347739,-4145.153275,4136.915689
3239.032473,-8438.347739,-3997.112087,4596.572988
3239.032811,-9548.656652,-4737.318029,4443.353888
3239.033149,-10807.006753,-5329.482782,4826.401637
3239.033486,-11473.192101,-5329.482782,3677.258390
3239.033824,-11251.130318,-5995.668130,3600.648841
3239.034162,-9548.656652,-4663.297435,1762.019645
3239.034499,-8438.347739,-5255.462188,1302.362347
3239.034837,-9030.512492,-5847.626942,1685.410096
3239.035175,-8734.430116,-5847.626942,1455.581446
3239.035513,-9548.656652,-5181.441594,2757.943793
3239.035850,-10881.027347,-4071.132681,2451.505594
3239.036188,-11695.253884,-4145.153275,2221.676944
3239.036526,-11399.171507,-3108.864956,1915.238745
3239.036864,-10436.903782,-3108.864956,2757.943793
3239.037201,-10140.821405,-2516.700203,3447.429741
3239.037539,-10955.047942,-2146.597232,3983.696590
3239.037877,-11473.192101,-1036.288319,2834.553343
3239.038214,-10955.047942,-1184.329507,229.828649
3239.038552,-10732.986159,-1480.411884,-612.876398
3239.038890,-9178.553681,-1406.391290,-689.485948
3239.039228,-7846.182985,-2442.679609,-1608.800546
3239.039565,-7402.059420,-1998.556043,-1762.019645
3239.039903,-8734.430116,-1924.535449,-1532.190996
3239.040241,-10362.883188,-1998.556043,-1532.190996
3239.040579,-10214.842000,-1628.453072,-1608.800546
3239.040916,-9474.636058,-2442.679609,0.000000
3239.041254,-10140.821405,-2294.638420,1072.533697
3239.041592,-9770.718434,-1480.411884,0.000000
3239.041929,-9474.636058,-296.082377,-536.266849
3239.042267,-9548.656652,-1036.288319,-1608.800546
3239.042605,-9918.759623,-1998.556043,-1225.752797
3239.042943,-10807.006753,-2294.638420,-766.095498
3239.043280,-9104.533087,-1184.329507,-766.095498
3239.043618,-9474.636058,-444.123565,306.438199
3239.043956,-10658.965565,-592.164754,1378.971896
3239.044294,-9474.636058,296.082377,2374.896044
3239.044627,-11547.212695,2516.700203,2604.724693
3239.044965,-12435.459826,4663.297435,383.047749
3239.045302,-12657.521608,4811.338623,-1532.190996
3239.045640,-11843.295072,2590.720797,-383.047749
3239.045977,-9178.553681,1110.308913,0.000000
3239.046315,-7994.224174,1406.391290,2221.676944
3239.046652,-9104.533087,1554.432478,2681.334243
3239.046990,-11103.089130,222.061783,1838.629195
3239.047327,-11769.274478,-370.102971,1685.410096
3239.047665,-10214.842000,740.205942,2145.067394
3239.048002,-9548.656652,2812.782580,1608.800546
3239.048340,-9622.677246,3997.112087,0.000000
3239.048677,-10362.883188,3775.050304,-2068.457845
3239.049015,-9252.574275,2146.597232,-1991.848295
3239.049352,-7402.059420,1480.411884,0.000000
3239.049689,-7846.182985,222.061783,2681.334243
3239.050027,-10436.903782,-1406.391290,5669.106685
3239.050364,-10881.027347,-1850.514855,5132.839837
3239.050702,-9844.739029,148.041188,2987.772442
3239.051039,-8660.409521,2220.617826,2221.676944
3239.051377,-9474.636058,4145.153275,612.876398
3239.051714,-11177.109724,3256.906145,612.876398
3239.052052,-10881.027347,3923.091493,-1685.410096
3239.052389,-10436.903782,3330.926739,-2145.067394
3239.052727,-11029.068536,1554.432478,842.705048
3239.053064,-10510.924376,-370.102971,1149.143247
3239.053402,-10362.883188,-2072.576638,383.047749
3239.053739,-9326.594869,-1406.391290,-306.438199
3239.054077,-9104.533087,-1332.370696,-1302.362347
3239.054414,-10288.862594,-2072.576638,-2451.505594
3239.054752,-10584.944971,-1924.535449,-3370.820191
3239.055089,-9252.574275,-1258.350101,-4290.134789
3239.055427,-9548.656652,-1480.411884,-3140.991542
3239.055764,-10436.903782,-2442.679609,-1991.848295
3239.056102,-10955.047942,-4293.194464,-995.924147
3239.056439,-10214.842000,-4367.215058,-536.266849
3239.056777,-9178.553681,-3404.947333,0.000000
3239.057114,-9770.718434,-3404.947333,536.266849
3239.057452,-11547.212695,-4663.297435,919.314598
3239.057789,-9844.739029,-4885.359217,-153.219100
3239.058127,-8438.347739,-3034.844362,1532.190996
3239.058464,-9252.574275,-1924.535449,2911.162892
3239.058802,-11251.130318,-1628.453072,2681.334243
3239.059139,-12361.439231,-1628.453072,1149.143247
3239.059477,-11399.171507,-740.205942,306.438199
3239.059814,-10214.842000,740.205942,306.438199
3239.060152,-11473.192101,1332.370696,459.657299
3239.060489,-11325.150913,74.020594,-76.609550
3239.060827,-9548.656652,-2072.576638,-1532.190996
3239.061164,-7254.018232,-2220.617826,-153.219100
3239.061502,-7105.977043,-1332.370696,2528.115143
3239.061839,-9770.718434,-2368.659014,2911.162892
3239.062177,-10214.842000,-2294.638420,536.266849
3239.062514,-10214.842000,-962.267725,-842.705048
3239.062852,-10288.862594,888.247130,612.876398
3239.063189,-10140.821405,1480.411884,229.828649
3239.063526,-10955.047942,-296.082377,766.095498
3239.063864,-9474.636058,-1184.329507,-76.609550
3239.064201,-7254.018232,-2146.597232,1378.971896
3239.064539,-8438.347739,-2294.638420,4903.011187
3239.064876,-9992.780217,-2738.761985,4979.620737
3239.065214,-11695.253884,-2146.597232,2987.772442
3239.065551,-10584.944971,-666.185348,-153.219100
3239.065889,-8956.491898,1258.350101,-995.924147
3239.066226,-10732.986159,2072.576638,842.705048
3239.066564,-11547.212695,1184.329507,-1532.190996
3239.066901,-9622.677246,1628.453072,-3447.429741
3239.067239,-9178.553681,814.226536,-1991.848295
3239.067576,-11103.089130,148.041188,2145.067394
3239.067914,-11325.150913,-1332.370696,1838.629195
3239.068251,-11103.089130,-1480.411884,-459.657299
3239.068589,-9770.718434,222.061783,-2681.334243
3239.068926,-9622.677246,962.267725,-2451.505594
3239.069264,-11399.171507,0.000000,-1302.362347
3239.069601,-10881.027347,-1110.308913,-1915.238745
3239.069939,-8660.409521,-444.123565,-1532.190996
3239.070276,-8586.388927,0.000000,919.314598
3239.070614,-11917.315666,296.082377,2911.162892
3239.070951,-11769.274478,-1036.288319,1838.629195
3239.071289,-9992.780217,74.020594,0.000000
3239.071626,-8290.306550,962.267725,1149.143247
3239.071964,-10066.800811,2442.679609,1838.629195
3239.072301,-11547.212695,1036.288319,919.314598
3239.072639,-9252.574275,1036.288319,-1072.533697
3239.072976,-6661.853478,1776.494261,76.609550
3239.073314,-8956.491898,2442.679609,2068.457845
3239.073651,-11843.295072,2072.576638,2145.067394
3239.073989,-11843.295072,2368.659014,0.000000
3239.074326,-9474.636058,3330.926739,-1762.019645
3239.074664,-9474.636058,3775.050304,-1608.800546
3239.075001,-10807.006753,3034.844362,0.000000
3239.075339,-10732.986159,296.082377,0.000000
3239.075676,-8364.327145,-296.082377,-1915.238745
3239.076014,-7254.018232,-444.123565,-689.485948
3239.076351,-10140.821405,0.000000,1991.848295
3239.076689,-11843.295072,-2220.617826,536.266849
3239.077026,-11843.295072,-1924.535449,-995.924147
3239.077363,-10362.883188,-148.041188,-1685.410096
3239.077701,-9844.739029,592.164754,-153.219100
3239.078038,-11473.192101,-518.144159,153.219100
3239.078376,-10584.944971,-2664.741391,-1149.143247
3239.078713,-8512.368333,-2664.741391,-1378.971896
3239.079051,-8290.306550,-2516.700203,1991.848295
3239.079388,-10584.944971,-2442.679609,3677.258390
3239.079726,-10955.047942,-3775.050304,2528.115143
3239.080063,-10955.047942,-3034.844362,0.000000
3239.080401,-9474.636058,-1406.391290,76.609550
3239.080738,-10140.821405,74.020594,0.000000
3239.081076,-11103.089130,-888.247130,383.047749
3239.081413,-10140.821405,-2368.659014,-689.485948
3239.081751,-7698.141797,-1924.535449,-842.705048
3239.082088,-8586.388927,-1628.453072,1302.362347
3239.082426,-10807.006753,-2368.659014,3370.820191
3239.082763,-11769.274478,-3478.967927,1302.362347
3239.083101,-10658.965565,-2960.823768,-1149.143247
3239.083438,-9400.615463,-1036.288319,-1225.752797
3239.083776,-9770.718434,-370.102971,306.438199
3239.084113,-10807.006753,-1628.453072,459.657299
3239.084451,-9844.739029,-1258.350101,-1915.238745
3239.084788,-7846.182985,-518.144159,-1455.581446
3239.085126,-9326.594869,-444.123565,1838.629195
3239.085463,-12139.377449,-2220.617826,3524.039291
3239.085801,-11325.150913,-1554.432478,1302.362347
3239.086138,-9326.594869,0.000000,306.438199
3239.086476,-8586.388927,1480.411884,1149.143247
3239.086813,-10584.944971,1332.370696,2681.334243
3239.087151,-10807.006753,-592.164754,1838.629195
3239.087488,-8586.388927,0.000000,-919.314598
3239.087826,-8290.306550,1110.308913,153.219100
3239.088163,-10732.986159,1776.494261,1455.581446
3239.088501,-12287.418637,-1036.288319,1225.752797
3239.088838,-10658.965565,-888.247130,-995.924147
3239.089176,-8734.430116,0.000000,-2528.115143
3239.089513,-8734.430116,444.123565,-766.095498
3239.089851,-10510.924376,-370.102971,-1149.143247
3239.090188,-10436.903782,-1776.494261,-2068.457845
3239.090526,-8660.409521,-1480.411884,-3064.381992
3239.090863,-8216.285956,-1480.411884,-1532.190996
3239.091200,-11547.212695,-1332.370696,2068.457845
3239.091538,-12509.480420,-2146.597232,766.095498
3239.091875,-10881.027347,-1628.453072,-1302.362347
3239.092213,-9770.718434,0.000000,-1378.971896
3239.092550,-10362.883188,592.164754,536.266849
3239.092888,-11843.295072,-1036.288319,1838.629195
3239.093225,-10807.006753,-1480.411884,229.828649
3239.093563,-7994.224174,444.123565,229.828649
3239.093900,-9326.594869,1110.308913,2528.115143
3239.094238,-11621.233289,370.102971,3907.087040
3239.094575,-11843.295072,148.041188,2834.553343
3239.094913,-10732.986159,1628.453072,76.609550
3239.095250,-9622.677246,3404.947333,-229.828649
3239.095588,-10214.842000,2960.823768,76.609550
3239.095925,-10510.924376,1702.473667,-229.828649
3239.096263,-8956.491898,1406.391290,-2221.676944
3239.096600,-7402.059420,1776.494261,-1302.362347
3239.096938,-8808.450710,1184.329507,612.876398
3239.097275,-10732.986159,0.000000,1072.533697
3239.097613,-10288.862594,-370.102971,-306.438199
3239.097950,-8808.450710,814.226536,-1225.752797
3239.098288,-8660.409521,1480.411884,76.609550
3239.098625,-10288.862594,1332.370696,76.609550
3239.098963,-10807.006753,666.185348,612.876398
3239.099300,-9400.615463,74.020594,-459.657299
3239.099638,-8364.327145,370.102971,766.095498
3239.099975,-10362.883188,444.123565,3217.601092
3239.100313,-12805.562797,-962.267725,3370.820191
3239.100650,-11177.109724,-888.247130,919.314598
3239.100988,-8512.368333,-592.164754,0.000000
3239.101325,-9400.615463,666.185348,1302.362347
3239.101663,-10807.006753,-740.205942,1378.971896
3239.102000,-11029.068536,-740.205942,-919.314598
3239.102338,-8808.450710,-370.102971,-2681.334243
3239.102675,-9474.636058,-518.144159,0.000000
3239.103013,-11473.192101,-1184.329507,1838.629195
3239.103350,-11325.150913,-2590.720797,-536.266849
3239.103688,-10584.944971,-2294.638420,-1608.800546
3239.104025,-9252.574275,-1110.308913,-2221.676944
3239.104363,-9326.594869,-1850.514855,-842.705048
3239.104700,-11029.068536,-2590.720797,-383.047749
3239.105038,-10288.862594,-3997.112087,-1149.143247
3239.105375,-8068.244768,-3034.844362,-842.705048
3239.105712,-9252.574275,-2220.617826,1762.019645
3239.106050,-11177.109724,-2516.700203,2987.772442
3239.106387,-12065.356855,-3034.844362,1991.848295
3239.106725,-10732.986159,-2146.597232,536.266849
3239.107062,-9252.574275,-296.082377,1991.848295
3239.107400,-10584.944971,296.082377,3064.381992
3239.107737,-11917.315666,-148.041188,2221.676944
3239.108075,-9770.718434,-296.082377,-766.095498
3239.108412,-7994.224174,740.205942,76.609550
3239.108750,-8808.450710,888.247130,2298.286494
3239.109087,-10732.986159,222.061783,2757.943793
3239.109425,-11325.150913,1184.329507,536.266849
3239.109762,-9326.594869,1184.329507,-1608.800546
3239.110100,-8438.347739,2220.617826,-995.924147
3239.110437,-9178.553681,1924.535449,383.047749
3239.110775,-10214.842000,1184.329507,0.000000
3239.111112,-9104.533087,-592.164754,-1225.752797
3239.111450,-7920.203579,888.247130,-995.924147
3239.111787,-9474.636058,-296.082377,2221.676944
3239.112125,-11991.336260,-2146.597232,2374.896044
3239.112462,-10362.883188,-2294.638420,0.000000
3239.112800,-8586.388927,-1036.288319,-306.438199
3239.113137,-8586.388927,0.000000,536.266849
3239.113475,-10658.965565,-222.061783,0.000000
3239.113812,-11103.089130,-1480.411884,-459.657299
3239.114150,-8808.450710,-148.041188,-2145.067394
3239.114487,-8956.491898,222.061783,689.485948
3239.114825,-11621.233289,0.000000,2604.724693
3239.115162,-11843.295072,-740.205942,919.314598
3239.115500,-10510.924376,-666.185348,0.000000
3239.115837,-9178.553681,666.185348,-459.657299
3239.116175,-10140.821405,1554.432478,995.924147
3239.116512,-12583.501014,1110.308913,459.657299
3239.116850,-11251.130318,-296.082377,-689.485948
3239.117187,-8068.244768,740.205942,-383.047749
3239.117525,-9252.574275,740.205942,1225.752797
3239.117862,-11843.295072,444.123565,2451.505594
3239.118200,-11769.274478,-814.226536,-229.828649
3239.118537,-9474.636058,-74.020594,-1991.848295
3239.118875,-7994.224174,1554.432478,-995.924147
3239.119212,-10214.842000,592.164754,383.047749
3239.119549,-10807.006753,0.000000,229.828649
3239.119887,-8364.327145,-444.123565,-1608.800546
3239.120224,-7550.100608,1036.288319,76.609550
3239.120562,-9474.636058,740.205942,2451.505594
3239.120899,-11769.274478,-740.205942,3140.991542
3239.121237,-10881.027347,444.123565,1991.848295
3239.121574,-8660.409521,1924.535449,536.266849
3239.121912,-9178.553681,2886.803174,1915.238745
3239.122249,-10732.986159,2146.597232,1455.581446
3239.122587,-10288.862594,666.185348,766.095498
3239.122924,-8660.409521,1110.308913,-689.485948
3239.123262,-8142.265362,1702.473667,229.828649
3239.123599,-10584.944971,1406.391290,2221.676944
3239.123937,-12657.521608,-518.144159,919.314598
3239.124274,-10214.842000,-740.205942,-1302.362347
3239.124612,-8734.430116,444.123565,-1608.800546
3239.124949,-9622.677246,518.144159,-612.876398
3239.125287,-11473.192101,-370.102971,-1072.533697
3239.125624,-11029.068536,-2146.597232,-1762.019645
3239.125962,-8734.430116,-1406.391290,-2757.943793
3239.126299,-8956.491898,-1776.494261,229.828649
3239.126637,-11769.274478,-2220.617826,2374.896044
3239.126974,-11769.274478,-3997.112087,229.828649
3239.127312,-10436.903782,-2516.700203,-1072.533697
3239.127649,-8882.471304,-1850.514855,-689.485948
3239.127987,-10066.800811,-1702.473667,1302.362347
3239.128324,-11621.233289,-2664.741391,1762.019645
3239.128662,-10066.800811,-2442.679609,153.219100
3239.128999,-8142.265362,-1332.370696,1302.362347
3239.129337,-8956.491898,-888.247130,2451.505594
3239.129674,-11473.192101,-1406.391290,3907.087040
3239.130012,-11399.171507,-2368.659014,1762.019645
3239.130349,-9178.553681,-370.102971,383.047749
3239.130687,-8660.409521,1406.391290,612.876398
3239.131024,-10436.903782,592.164754,842.705048
3239.131362,-10955.047942,296.082377,-689.485948
3239.131699,-9326.594869,-296.082377,-2757.943793
3239.132037,-7402.059420,888.247130,-1991.848295
3239.132374,-9474.636058,888.247130,153.219100
3239.132712,-11695.253884,-814.226536,1302.362347
3239.133049,-10214.842000,-740.205942,-995.924147
3239.133386,-8882.471304,666.185348,-1378.971896
3239.133724,-9326.594869,1702.473667,0.000000
3239.134061,-11029.068536,740.205942,229.828649
3239.134399,-11325.150913,-222.061783,0.000000
3239.134736,-8808.450710,222.061783,-612.876398
3239.135074,-8734.430116,296.082377,1455.581446
3239.135411,-11177.109724,148.041188,3447.429741
3239.135749,-11917.315666,-1480.411884,2604.724693
3239.136086,-10436.903782,-74.020594,689.485948
3239.136424,-8660.409521,1184.329507,-612.876398
3239.136761,-9252.574275,1184.329507,689.485948
3239.137099,-11029.068536,74.020594,306.438199
3239.137436,-9992.780217,-592.164754,-919.314598
3239.137774,-7624.121203,444.123565,-2221.676944
3239.138111,-8808.450710,370.102971,-229.828649
3239.138449,-11399.171507,-370.102971,1685.410096
3239.138786,-11029.068536,-1702.473667,-306.438199
3239.139124,-9770.718434,-888.247130,-1838.629195
3239.139461,-8956.491898,148.041188,-1072.533697
3239.139799,-9918.759623,-74.020594,-689.485948
3239.140136,-11769.274478,-1036.288319,-689.485948
3239.140474,-9844.739029,-1924.535449,-1608.800546
3239.140811,-7994.224174,-814.226536,-1072.533697
3239.141149,-9474.636058,-1036.288319,1225.752797
3239.141486,-11843.295072,-962.267725,2604.724693
3239.141824,-11843.295072,-1702.473667,1149.143247
3239.142161,-9844.739029,0.000000,229.828649
3239.142499,-9622.677246,2368.659014,1685.410096
3239.142836,-11695.253884,1924.535449,2604.724693
3239.143173,-11621.233289,1406.391290,383.047749
3239.143511,-9770.718434,814.226536,-919.314598
3239.143848,-8438.347739,2146.597232,842.705048
3239.144185,-9696.697840,1628.453072,2834.553343
3239.144523,-11769.274478,962.267725,2681.334243
3239.144860,-10510.924376,1406.391290,0.000000
3239.145197,-8808.450710,2442.679609,-1149.143247
3239.145535,-8956.491898,2368.659014,-383.047749
3239.145872,-9992.780217,1702.473667,-536.266849
3239.146210,-10066.800811,666.185348,-1225.752797
3239.146547,-8290.306550,296.082377,-2451.505594
3239.146884,-7846.182985,222.061783,-383.047749
3239.147222,-10140.821405,-666.185348,1838.629195
3239.147559,-11399.171507,-2812.782580,1378.971896
3239.147896,-9770.718434,-1850.514855,0.000000
3239.148234,-8438.347739,-962.267725,-766.095498
3239.148571,-9770.718434,-814.226536,153.219100
3239.148909,-11103.089130,-1258.350101,-229.828649
3239.149246,-10584.944971,-1702.473667,-1149.143247
3239.149583,-9104.533087,-1110.308913,-995.924147
3239.149921,-9474.636058,-592.164754,919.314598
3239.150258,-11991.336260,-888.247130,2604.724693
3239.150595,-12583.501014,-1998.556043,995.924147
3239.150933,-9844.739029,-1406.391290,-383.047749
3239.151270,-9844.739029,222.061783,383.047749
3239.151607,-10510.924376,0.000000,1302.362347
3239.151945,-11843.295072,-592.164754,-383.047749
3239.152282,-10510.924376,-1998.556043,-2068.457845
3239.152620,-7920.203579,-518.144159,-1455.581446
3239.152957,-9474.636058,-1332.370696,1378.971896
3239.153294,-11769.274478,-1850.514855,1608.800546
3239.153632,-10955.047942,-2072.576638,-766.095498
3239.153969,-9400.615463,-1184.329507,-1608.800546
3239.154306,-8364.327145,0.000000,-459.657299
3239.154644,-10362.883188,-74.020594,0.000000
3239.154981,-10955.047942,-1036.288319,-766.095498
3239.155319,-8734.430116,-1036.288319,-2221.676944
3239.155656,-7772.162391,0.000000,76.609550
3239.155993,-9474.636058,-666.185348,2757.943793
3239.156331,-11547.212695,-1110.308913,4060.306139
3239.156668,-10807.006753,-592.164754,1991.848295
3239.157005,-8956.491898,814.226536,459.657299
3239.157343,-9474.636058,2960.823768,1838.629195
3239.157680,-11473.192101,1998.556043,1225.752797
3239.158017,-10807.006753,1184.329507,383.047749
3239.158355,-9252.574275,962.267725,-536.266849
3239.158692,-8364.327145,2072.576638,1455.581446
3239.159030,-11177.109724,2146.597232,2834.553343
3239.159367,-12731.542202,0.000000,1225.752797
3239.159704,-10436.903782,-444.123565,-1225.752797
3239.160042,-8438.347739,370.102971,-1991.848295
3239.160379,-9548.656652,1110.308913,0.000000
3239.160716,-10955.047942,0.000000,-1149.143247
3239.161054,-10140.821405,-1184.329507,-3064.381992
3239.161391,-8068.244768,-1332.370696,-3140.991542
3239.161729,-8068.244768,-1406.391290,0.000000
3239.162066,-11769.274478,-2072.576638,2451.505594
3239.162403,-11621.233289,-3034.844362,766.095498
3239.162741,-9474.636058,-2072.576638,-1149.143247
3239.163078,-8882.471304,-592.164754,-306.438199
3239.163415,-10510.924376,-666.185348,766.095498
3239.163753,-10955.047942,-1258.350101,0.000000
3239.164090,-10140.821405,-1850.514855,-842.705048
3239.164427,-7994.224174,0.000000,383.047749
3239.164765,-9770.718434,-74.020594,2757.943793
3239.165102,-12435.459826,-444.123565,3753.867940
3239.165440,-11621.233289,-814.226536,842.705048
3239.165777,-9770.718434,1110.308913,0.000000
3239.166114,-9548.656652,2368.659014,612.876398
3239.166452,-11103.089130,1480.411884,229.828649
3239.166789,-11621.233289,888.247130,-1532.190996
3239.167126,-8956.491898,148.041188,-2911.162892
3239.167464,-8068.244768,2072.576638,-1455.581446
3239.167801,-10214.842000,814.226536,919.314598
3239.168139,-11917.315666,0.000000,689.485948
3239.168476,-10214.842000,-814.226536,-919.314598
3239.168813,-8512.368333,1110.308913,-1072.533697
3239.169151,-9326.594869,1702.473667,1149.143247
3239.169488,-11103.089130,148.041188,842.705048
3239.169825,-9770.718434,0.000000,-766.095498
3239.170163,-8142.265362,-370.102971,-842.705048
3239.170500,-7994.224174,518.144159,2145.067394
3239.170837,-10140.821405,-1036.288319,3677.258390
3239.171175,-12139.377449,-1924.535449,3217.601092
3239.171512,-9400.615463,-592.164754,229.828649
3239.171850,-8142.265362,444.123565,0.000000
3239.172187,-9770.718434,592.164754,1149.143247
3239.172524,-10732.986159,222.061783,-612.876398
3239.172862,-9622.677246,-1184.329507,-2298.286494
3239.173199,-8142.265362,518.144159,-2221.676944
3239.173536,-9474.636058,-444.123565,306.438199
3239.173874,-12139.377449,-1184.329507,1838.629195
3239.174211,-11547.212695,-2590.720797,-459.657299
3239.174549,-9770.718434,-1036.288319,-1915.238745
3239.174886,-9844.739029,-296.082377,-1532.190996
3239.175223,-11103.089130,-814.226536,-842.705048
3239.175561,-12213.398043,-2368.659014,-1455.581446
3239.175898,-10140.821405,-2664.741391,-1915.238745
3239.176235,-8068.244768,-1332.370696,-612.876398
3239.176573,-10436.903782,-2368.659014,2145.067394
3239.176910,-11991.336260,-2812.782580,2451.505594
3239.177247,-10955.047942,-3034.844362,612.876398
3239.177585,-9622.677246,-962.267725,1302.362347
3239.177922,-9400.615463,518.144159,2374.896044
3239.178260,-11103.089130,-592.164754,2451.505594
3239.178597,-10955.047942,0.000000,612.876398
3239.178934,-8586.388927,0.000000,0.000000
3239.179272,-7920.203579,814.226536,1225.752797
3239.179609,-9474.636058,0.000000,2757.943793
3239.179946,-10807.006753,-592.164754,1915.238745
3239.180284,-9770.718434,0.000000,76.609550
3239.180621,-8142.265362,1628.453072,-1302.362347
3239.180958,-8660.409521,2072.576638,229.828649
3239.181296,-10288.862594,1554.432478,-459.657299
3239.181633,-10066.800811,518.144159,-1685.410096
3239.181971,-8882.471304,888.247130,-2374.896044
3239.182308,-8808.450710,296.082377,0.000000
3239.182645,-11769.274478,-740.205942,2604.724693
3239.182983,-12287.418637,-2220.617826,1762.019645
3239.183320,-9770.718434,-814.226536,-383.047749
3239.183657,-9400.615463,-74.020594,-306.438199
3239.183995,-10955.047942,-74.020594,689.485948
3239.184332,-11177.109724,-1628.453072,-536.266849
3239.184670,-10288.862594,-1480.411884,-689.485948
3239.185007,-8586.388927,-518.144159,-612.876398
3239.185344,-9992.780217,-370.102971,1532.190996
3239.185682,-12287.418637,-666.185348,2987.772442
3239.186019,-11547.212695,-2072.576638,766.095498
3239.186356,-9622.677246,-444.123565,612.876398
3239.186694,-9252.574275,444.123565,229.828649
3239.187031,-10955.047942,74.020594,919.314598
3239.187368,-11325.150913,-296.082377,-995.924147
3239.187706,-9030.512492,-1628.453072,-2298.286494
3239.188043,-7402.059420,-370.102971,-612.876398
3239.188381,-9474.636058,-1184.329507,2451.505594
3239.188718,-11769.274478,-1406.391290,1991.848295
3239.189055,-10658.965565,-1628.453072,-842.705048
3239.189393,-9104.533087,444.123565,-1608.800546
3239.189730,-9104.533087,370.102971,-153.219100
3239.190067,-10658.965565,-518.144159,229.828649
3239.190405,-10658.965565,-222.061783,-995.924147
3239.190742,-8808.450710,148.041188,-1378.971896
3239.191080,-9030.512492,296.082377,612.876398
3239.191417,-10584.944971,0.000000,2451.505594
3239.191754,-11843.295072,-888.247130,3140.991542
3239.192092,-10362.883188,296.082377,766.095498
3239.192429,-9030.512492,1702.473667,-536.266849
3239.192766,-10436.903782,2960.823768,1378.971896
3239.193104,-11325.150913,1776.494261,612.876398
3239.193441,-9992.780217,1480.411884,-919.314598
3239.193778,-8956.491898,1628.453072,-689.485948
3239.194116,-9030.512492,1776.494261,766.095498
3239.194453,-11843.295072,444.123565,2221.676944
3239.194791,-11843.295072,-962.267725,536.266849
3239.195128,-8956.491898,-74.020594,-1608.800546
3239.195465,-8438.347739,-222.061783,-919.314598
3239.195803,-9918.759623,0.000000,-383.047749
3239.196140,-10510.924376,-1184.329507,-1762.019645
3239.196477,-9548.656652,-1924.535449,-2757.943793
3239.196815,-7328.038826,-2146.597232,-1915.238745
3239.197152,-9178.553681,-2516.700203,1225.752797
3239.197490,-11843.295072,-2960.823768,2528.115143
3239.197827,-11769.274478,-3775.050304,229.828649
3239.198164,-9548.656652,-1850.514855,0.000000
3239.198502,-9326.594869,-1628.453072,612.876398
3239.198839,-10436.903782,-1702.473667,1378.971896
3239.199176,-11843.295072,-1702.473667,459.657299
3239.199514,-9844.739029,-1924.535449,-383.047749
3239.199851,-8808.450710,-888.247130,1225.752797
3239.200188,-10955.047942,-444.123565,3983.696590
3239.200526,-12213.398043,-814.226536,3753.867940
3239.200863,-11621.233289,-1110.308913,1378.971896
3239.201201,-9400.615463,518.144159,153.219100
3239.201538,-9770.718434,2294.638420,919.314598
3239.201875,-11991.336260,814.226536,1149.143247
3239.202213,-10732.986159,148.041188,-1608.800546
3239.202550,-8438.347739,444.123565,-2145.067394
3239.202887,-7994.224174,1258.350101,-306.438199
3239.203225,-10288.862594,-148.041188,612.876398
3239.203562,-11103.089130,-1924.535449,0.000000
3239.203900,-9178.553681,-1110.308913,-1685.410096
3239.204237,-7328.038826,370.102971,-1378.971896
3239.204574,-9400.615463,1406.391290,689.485948
3239.204912,-11029.068536,0.000000,306.438199
3239.205249,-9474.636058,0.000000,-689.485948
3239.205586,-8068.244768,-370.102971,-306.438199
3239.205924,-8586.388927,518.144159,2374.896044
3239.206261,-11251.130318,-740.205942,4213.525239
3239.206598,-11917.315666,-1554.432478,1838.629195
3239.206936,-9252.574275,0.000000,-612.876398
3239.207273,-8586.388927,888.247130,306.438199
3239.207611,-10584.944971,1036.288319,536.266849
3239.207948,-11177.109724,-222.061783,-995.924147
3239.208285,-9696.697840,-296.082377,-2451.505594
3239.208623,-8364.327145,518.144159,-1608.800546
3239.208960,-10288.862594,74.020594,919.314598
3239.209297,-12583.501014,-1258.350101,1608.800546
3239.209635,-11843.295072,-1554.432478,-766.095498
3239.209972,-9548.656652,-222.061783,-1838.629195
3239.210310,-9696.697840,518.144159,-1378.971896
3239.210647,-11103.089130,-962.267725,-919.314598
3239.210984,-11399.171507,-2294.638420,-1838.629195
3239.211322,-9030.512492,-2146.597232,-1685.410096
3239.211659,-8438.347739,-1554.432478,459.657299
3239.211996,-10732.986159,-1406.391290,2451.505594
3239.212334,-11547.212695,-2368.659014,2298.286494
3239.212671,-10214.842000,-2072.576638,919.314598
3239.213008,-8512.368333,-296.082377,766.095498
3239.213346,-9770.718434,1036.288319,2681.334243
3239.213683,-11695.253884,222.061783,2221.676944
3239.214021,-10510.924376,592.164754,612.876398
3239.214358,-8734.430116,814.226536,536.266849
3239.214695,-8660.409521,1702.473667,2298.286494
3239.215033,-10658.965565,592.164754,3677.258390
3239.215370,-11177.109724,296.082377,1991.848295
3239.215707,-9400.615463,1036.288319,-766.095498
3239.216045,-9030.512492,2664.741391,-612.876398
3239.216382,-9918.759623,2960.823768,459.657299
3239.216720,-10732.986159,888.247130,-229.828649
3239.217057,-9992.780217,814.226536,-1149.143247
3239.217394,-8290.306550,1110.308913,-995.924147
3239.217732,-9474.636058,518.144159,689.485948
3239.218069,-11843.295072,-1110.308913,2451.505594
3239.218406,-11843.295072,-2294.638420,1149.143247
3239.218744,-9474.636058,-666.185348,-1225.752797
3239.219081,-9252.574275,222.061783,-612.876398
3239.219418,-10658.965565,-222.061783,919.314598
3239.219756,-10584.944971,-2220.617826,-995.924147
3239.220093,-9326.594869,-1480.411884,-1455.581446
3239.220431,-8142.265362,-1110.308913,76.609550
3239.220768,-10066.800811,-1036.288319,1838.629195
3239.221105,-11917.315666,-2590.720797,2221.676944
3239.221443,-10807.006753,-1998.556043,766.095498
3239.221780,-9400.615463,-740.205942,0.000000
3239.222117,-9252.574275,0.000000,306.438199
3239.222455,-11029.068536,-444.123565,-76.609550
3239.222792,-11621.233289,-1406.391290,-1225.752797
3239.223129,-9252.574275,-1332.370696,-2221.676944
3239.223467,-8364.327145,-518.144159,-995.924147
3239.223804,-10732.986159,-1554.432478,1302.362347
3239.224142,-11843.295072,-2146.597232,229.828649
3239.224479,-10510.924376,-1924.535449,-1685.410096
3239.224816,-9030.512492,0.000000,-1455.581446
3239.225154,-10066.800811,296.082377,-229.828649
3239.225491,-11695.253884,-1110.308913,-612.876398
3239.225828,-10658.965565,-592.164754,-1762.019645
3239.226166,-9104.533087,-518.144159,-306.438199
3239.226503,-8660.409521,296.082377,1838.629195
3239.226841,-11029.068536,-1258.350101,3830.477490
3239.227178,-11843.295072,-1332.370696,2834.553343
3239.227515,-9622.677246,74.020594,1225.752797
3239.227853,-8734.430116,1628.453072,1685.410096
3239.228190,-9992.780217,2516.700203,2757.943793
3239.228527,-10732.986159,370.102971,1532.190996
3239.228865,-9104.533087,1036.288319,153.219100
3239.229202,-7994.224174,1554.432478,612.876398
3239.229539,-9178.553681,1628.453072,2374.896044
3239.229877,-10881.027347,370.102971,1838.629195
3239.230214,-11399.171507,-296.082377,689.485948
3239.230552,-9030.512492,518.144159,-1455.581446
3239.230889,-8068.244768,592.164754,-1838.629195
3239.231226,-10066.800811,518.144159,-383.047749
3239.231564,-10436.903782,-370.102971,-1685.410096
3239.231901,-9326.594869,-1258.350101,-2604.724693
3239.232238,-8586.388927,-962.267725,-995.924147
3239.232576,-9918.759623,-1332.370696,1685.410096
3239.232913,-13175.665768,-2220.617826,2604.724693
3239.233251,-11473.192101,-2368.659014,0.000000
3239.233588,-9104.533087,-888.247130,-612.876398
3239.233925,-10436.903782,-666.185348,1149.143247
3239.234263,-11843.295072,-1480.411884,1532.190996
3239.234600,-11917.315666,-740.205942,-153.219100
3239.234937,-9622.677246,-1258.350101,-459.657299
3239.235275,-8512.368333,0.000000,842.705048
3239.235612,-10362.883188,-814.226536,3524.039291
3239.235949,-12213.398043,-1184.329507,2681.334243
3239.236287,-10214.842000,-296.082377,229.828649
3239.236624,-8882.471304,1110.308913,-383.047749
3239.236962,-9992.780217,1554.432478,689.485948
3239.237299,-11547.212695,518.144159,76.609550
3239.237636,-9844.739029,74.020594,-2221.676944
3239.237974,-7550.100608,222.061783,-1915.238745
3239.238311,-7994.224174,370.102971,0.000000
3239.238648,-10584.944971,-888.247130,1149.143247
3239.238986,-10955.047942,-1332.370696,-383.047749
3239.239323,-8734.430116,-666.185348,-2298.286494
3239.239661,-8216.285956,814.226536,-766.095498
3239.239998,-9770.718434,962.267725,919.314598
3239.240335,-11251.130318,-74.020594,229.828649
3239.240673,-9622.677246,222.061783,-1149.143247
3239.241010,-8364.327145,814.226536,153.219100
3239.241347,-10436.903782,592.164754,2757.943793
3239.241685,-12139.377449,-592.164754,3447.429741
3239.242022,-11917.315666,0.000000,1685.410096
3239.242359,-9474.636058,296.082377,-383.047749
3239.242697,-8956.491898,1110.308913,766.095498
3239.243034,-11473.192101,888.247130,1685.410096
3239.243372,-11473.192101,148.041188,-689.485948
3239.243709,-9252.574275,0.000000,-2068.457845
3239.244046,-8660.409521,296.082377,-612.876398
3239.244384,-10066.800811,-370.102971,1762.019645
3239.244721,-12065.356855,-1702.473667,1455.581446
3239.245058,-10362.883188,-2294.638420,-766.095498
3239.245395,-8290.306550,-888.247130,-1302.362347
3239.245733,-9992.780217,296.082377,76.609550
3239.246070,-11399.171507,-1850.514855,0.000000
3239.246407,-10658.965565,-3182.885551,-1455.581446
3239.246745,-8660.409521,-2886.803174,-766.095498
3239.247082,-7624.121203,-1998.556043,842.705048
3239.247419,-10362.883188,-2220.617826,3217.601092
3239.247757,-11621.233289,-3182.885551,1685.410096
3239.248094,-9548.656652,-2294.638420,0.000000
3239.248431,-8586.388927,-444.123565,1378.971896
3239.248769,-9770.718434,814.226536,2451.505594
3239.249106,-11843.295072,0.000000,2068.457845
3239.249443,-10955.047942,0.000000,-383.047749
3239.249780,-8364.327145,1184.329507,0.000000
3239.250118,-9622.677246,1332.370696,2451.505594
3239.250455,-11991.336260,888.247130,3370.820191
3239.250792,-11325.150913,296.082377,306.438199
3239.251130,-9474.636058,1406.391290,-1378.971896
3239.251467,-8068.244768,2812.782580,-1378.971896
3239.251804,-10436.903782,2294.638420,306.438199
3239.252142,-11325.150913,740.205942,-536.266849
3239.252479,-9326.594869,1184.329507,-2681.334243
3239.252816,-8290.306550,1258.350101,-689.485948
3239.253154,-9770.718434,1184.329507,766.095498
3239.253491,-11695.253884,-1554.432478,1149.143247
3239.253828,-11103.089130,-1776.494261,306.438199
3239.254166,-7846.182985,-222.061783,-1915.238745
3239.254503,-8512.368333,518.144159,-459.657299
3239.254840,-10732.986159,-296.082377,76.609550
3239.255177,-10214.842000,-1702.473667,-1225.752797
3239.255515,-8364.327145,-1480.411884,-1608.800546
3239.255852,-7846.182985,-148.041188,306.438199
3239.256189,-10955.047942,-370.102971,2298.286494
3239.256527,-12509.480420,-1998.556043,1455.581446
3239.256864,-10140.821405,-1628.453072,76.609550
3239.257201,-8068.244768,222.061783,153.219100
3239.257539,-10436.903782,1184.329507,1685.410096
3239.257876,-12287.418637,0.000000,1225.752797
3239.258213,-11325.150913,-1554.432478,-995.924147
3239.258551,-9104.533087,-518.144159,-995.924147
3239.258888,-9178.553681,0.000000,842.705048
3239.259225,-11769.274478,-666.185348,2911.162892
3239.259563,-12139.377449,-1850.514855,0.000000
3239.259900,-10066.800811,-592.164754,-2145.067394
3239.260237,-8364.327145,518.144159,-1302.362347
3239.260574,-10066.800811,0.000000,1149.143247
3239.260912,-11843.295072,-1480.411884,459.657299
3239.261249,-10214.842000,0.000000,-1608.800546
3239.261586,-8216.285956,222.061783,-383.047749
3239.261924,-9400.615463,444.123565,2298.286494
3239.262261,-11177.109724,-1554.432478,3447.429741
3239.262598,-11251.130318,-1258.350101,1991.848295
3239.262936,-8734.430116,296.082377,842.705048
3239.263273,-8364.327145,2146.597232,919.314598
3239.263610,-10214.842000,1628.453072,2451.505594
3239.263948,-10881.027347,370.102971,919.314598
3239.264285,-8438.347739,1036.288319,-919.314598
3239.264622,-7772.162391,2294.638420,459.657299
3239.264960,-9770.718434,1776.494261,1991.848295
3239.265297,-11991.336260,0.000000,1762.019645
3239.265634,-10807.006753,74.020594,-612.876398
3239.265971,-8068.244768,666.185348,-2068.457845
3239.266309,-9548.656652,1406.391290,-383.047749
3239.266646,-11103.089130,148.041188,-995.924147
3239.266983,-10732.986159,-1258.350101,-2757.943793
3239.267321,-8734.430116,-962.267725,-3064.381992
3239.267658,-8142.265362,-1554.432478,-612.876398
3239.267995,-11029.068536,-1406.391290,1915.238745
3239.268333,-12879.583391,-3034.844362,1302.362347
3239.268670,-10658.965565,-2146.597232,-995.924147
3239.269007,-8438.347739,-1332.370696,-536.266849
3239.269345,-10584.944971,-740.205942,1225.752797
3239.269682,-11917.315666,-2146.597232,1225.752797
3239.270019,-10288.862594,-2368.659014,-306.438199
3239.270356,-8882.471304,-888.247130,383.047749
3239.270694,-9548.656652,-296.082377,2528.115143
3239.271031,-11399.171507,-1628.453072,3600.648841
3239.271368,-11695.253884,-1554.432478,1225.752797
3239.271706,-9474.636058,-370.102971,76.609550
3239.272043,-8586.388927,1258.350101,689.485948
3239.272380,-10362.883188,1628.453072,1149.143247
3239.272718,-11769.274478,222.061783,-76.609550
3239.273055,-9770.718434,148.041188,-2451.505594
3239.273392,-8142.265362,518.144159,-1302.362347
3239.273730,-9400.615463,148.041188,1378.971896
3239.274067,-11029.068536,-592.164754,1532.190996
3239.274404,-10732.986159,-1332.370696,0.000000
3239.274742,-8882.471304,0.000000,-1225.752797
3239.275079,-8290.306550,1924.535449,306.438199
3239.275416,-11029.068536,444.123565,1225.752797
3239.275753,-11325.150913,148.041188,306.438199
3239.276091,-9252.574275,0.000000,-459.657299
3239.276428,-8882.471304,296.082377,2221.676944
3239.276765,-10140.821405,592.164754,4136.915689
3239.277103,-12361.439231,-444.123565,3600.648841
3239.277440,-11399.171507,370.102971,842.705048
3239.277777,-8882.471304,592.164754,-689.485948
3239.278115,-9252.574275,1480.411884,1302.362347
3239.278452,-11103.089130,74.020594,1302.362347
3239.278789,-10140.821405,-296.082377,-1608.800546
3239.279127,-8512.368333,0.000000,-2451.505594
3239.279464,-8364.327145,222.061783,229.828649
3239.279801,-10214.842000,-888.247130,1378.971896
3239.280139,-11769.274478,-1702.473667,459.657299
3239.280476,-10288.862594,-1184.329507,-1838.629195
3239.280813,-8586.388927,-740.205942,-2604.724693
3239.281150,-10140.821405,-370.102971,-1149.143247
3239.281488,-11399.171507,-1332.370696,-1762.019645
3239.281825,-10881.027347,-2738.761985,-2528.115143
3239.282162,-7772.162391,-1924.535449,-1991.848295
3239.282500,-9104.533087,-1480.411884,536.266849
3239.282837,-11473.192101,-1924.535449,2068.457845
3239.283174,-11991.336260,-2738.761985,76.609550
3239.283512,-9770.718434,-1628.453072,-306.438199
3239.283849,-8956.491898,0.000000,1072.533697
3239.284186,-10881.027347,740.205942,2451.505594
3239.284524,-12213.398043,296.082377,1225.752797
3239.284861,-10214.842000,148.041188,-306.438199
3239.285198,-8512.368333,1332.370696,1225.752797
3239.285536,-9844.739029,444.123565,3217.601092
3239.285873,-11843.295072,592.164754,3217.601092
3239.286210,-11325.150913,148.041188,842.705048
3239.286547,-8364.327145,1110.308913,-1378.971896
3239.286885,-7698.141797,2368.659014,0.000000
3239.287222,-9696.697840,1406.391290,1072.533697
3239.287559,-10214.842000,74.020594,-766.095498
3239.287897,-8512.368333,518.144159,-2145.067394
3239.288234,-8438.347739,1258.350101,0.000000
3239.288571,-9696.697840,444.123565,1685.410096
3239.288909,-11769.274478,-1332.370696,1685.410096
3239.289246,-10288.862594,-1258.350101,229.828649
3239.289583,-8068.244768,-518.144159,-536.266849
3239.289921,-9474.636058,740.205942,1072.533697
3239.290258,-11547.212695,-444.123565,612.876398
3239.290595,-10881.027347,-1036.288319,-1378.971896
3239.290932,-8660.409521,-1332.370696,-1685.410096
3239.291270,-8586.388927,0.000000,1532.190996
3239.291607,-11547.212695,-148.041188,2987.772442
3239.291944,-12065.356855,-1480.411884,1608.800546
3239.292282,-10881.027347,-814.226536,153.219100
3239.292619,-9104.533087,666.185348,153.219100
3239.292956,-10436.903782,740.205942,1225.752797
3239.293294,-12435.459826,-444.123565,153.219100
3239.293631,-11029.068536,-1702.473667,-1378.971896
3239.293968,-7920.203579,-1184.329507,-766.095498
3239.294306,-8512.368333,-1110.308913,1302.362347
3239.294643,-11103.089130,-1480.411884,2528.115143
3239.294980,-11991.336260,-2664.741391,-383.047749
3239.295318,-9252.574275,-1110.308913,-2068.457845
3239.295655,-8142.265362,0.000000,-1532.190996
3239.295992,-10436.903782,-74.020594,459.657299
3239.296329,-11325.150913,-1406.391290,-766.095498
3239.296667,-8956.491898,-1406.391290,-2834.553343
3239.297004,-7772.162391,0.000000,153.219100
3239.297341,-9474.636058,-1036.288319,2757.943793
3239.297679,-11399.171507,-1110.308913,3370.820191
3239.298016,-11103.089130,-1110.308913,1455.581446
3239.298353,-9252.574275,740.205942,689.485948
3239.298691,-8734.430116,2220.617826,842.705048
3239.299028,-11251.130318,1998.556043,1762.019645
3239.299365,-11177.109724,1036.288319,766.095498
3239.299703,-8660.409521,592.164754,-1378.971896
3239.300040,-8142.265362,2812.782580,995.924147
3239.300377,-10955.047942,1702.473667,2451.505594
3239.300715,-12287.418637,0.000000,842.705048
3239.301052,-10510.924376,-296.082377,-1225.752797
3239.301389,-8068.244768,1332.370696,-2221.676944
3239.301726,-9252.574275,1258.350101,-1149.143247
3239.302064,-11177.109724,0.000000,-2145.067394
3239.302401,-9918.759623,-1554.432478,-3447.429741
3239.302738,-8290.306550,-1036.288319,-2911.162892
3239.303076,-8438.347739,-1554.432478,0.000000
3239.303413,-10955.047942,-1850.514855,2221.676944
3239.303750,-12435.459826,-3552.988522,1378.971896
3239.304088,-10288.862594,-2220.617826,0.000000
3239.304425,-8438.347739,-1184.329507,-229.828649
3239.304762,-10658.965565,-740.205942,1991.848295
3239.305100,-11843.295072,-1924.535449,1225.752797
3239.305437,-9992.780217,-2738.761985,-229.828649
3239.305774,-8734.430116,-444.123565,459.657299
3239.306112,-9696.697840,-666.185348,3140.991542
3239.306449,-11917.315666,-1480.411884,4213.525239
3239.306786,-11843.295072,-1850.514855,1915.238745
3239.307123,-9770.718434,518.144159,0.000000
3239.307461,-8808.450710,1628.453072,76.609550
3239.307798,-11251.130318,740.205942,1225.752797
3239.308135,-11399.171507,370.102971,-689.485948
3239.308473,-9400.615463,-74.020594,-2374.896044
3239.308810,-7920.203579,1776.494261,-689.485948
3239.309147,-10362.883188,296.082377,1532.190996
3239.309485,-11843.295072,-888.247130,1225.752797
3239.309822,-9770.718434,-1184.329507,-1225.752797
3239.310159,-8364.327145,222.061783,-612.876398
3239.310497,-8734.430116,1850.514855,919.314598
3239.310834,-11251.130318,518.144159,459.657299
3239.311171,-11103.089130,-74.020594,0.000000
3239.311508,-8142.265362,814.226536,-919.314598
3239.311846,-8734.430116,592.164754,2374.896044
3239.312183,-10436.903782,296.082377,3907.087040
3239.312520,-11325.150913,-740.205942,2604.724693
3239.312858,-10658.965565,0.000000,383.047749
3239.313195,-8438.347739,1184.329507,-1225.752797
3239.313532,-9548.656652,1554.432478,766.095498
3239.313870,-11325.150913,0.000000,0.000000
3239.314207,-9474.636058,-296.082377,-2681.334243
3239.314544,-7772.162391,666.185348,-2834.553343
3239.314882,-9104.533087,-296.082377,76.609550
3239.315219,-10955.047942,-888.247130,919.314598
3239.315556,-12139.377449,-2368.659014,0.000000
3239.315894,-10288.862594,-666.185348,-1455.581446
3239.316231,-8956.491898,296.082377,-1838.629195
3239.316568,-11251.130318,-74.020594,-995.924147
3239.316905,-11843.295072,-2072.576638,-1072.533697
3239.317243,-10140.821405,-2960.823768,-1915.238745
3239.317580,-8438.347739,-1332.370696,-153.219100
3239.317917,-10066.800811,-1554.432478,2068.457845
3239.318255,-11991.336260,-2146.597232,2374.896044
3239.318592,-11843.295072,-2516.700203,0.000000
3239.318929,-9548.656652,-666.185348,0.000000
3239.319267,-8734.430116,444.123565,1225.752797
3239.319604,-10955.047942,666.185348,2068.457845
3239.319941,-11103.089130,296.082377,536.266849
3239.320279,-9030.512492,0.000000,-1225.752797
3239.320616,-7994.224174,1184.329507,1072.533697
3239.320953,-9548.656652,0.000000,3294.210641
3239.321291,-11325.150913,0.000000,2221.676944
3239.321628,-10436.903782,0.000000,76.609550
3239.321965,-8512.368333,1406.391290,-612.876398
3239.322302,-8068.244768,1924.535449,153.219100
3239.322640,-10214.842000,1036.288319,0.000000
3239.322977,-10807.006753,592.164754,-689.485948
3239.323314,-8068.244768,666.185348,-2757.943793
3239.323652,-8068.244768,518.144159,612.876398
3239.323989,-10807.006753,-296.082377,2604.724693
3239.324326,-11917.315666,-2368.659014,2145.067394
3239.324664,-10807.006753,-1036.288319,76.609550
3239.325001,-9326.594869,-592.164754,-689.485948
3239.325338,-9992.780217,222.061783,536.266849
3239.325676,-11473.192101,-1184.329507,0.000000
3239.326013,-10140.821405,-1332.370696,-1455.581446
3239.326350,-8068.244768,-666.185348,-766.095498
3239.326688,-9400.615463,-1184.329507,1838.629195
3239.327025,-11473.192101,-962.267725,2604.724693
3239.327362,-12213.398043,-2072.576638,919.314598
3239.327699,-9992.780217,-1110.308913,0.000000
3239.328037,-8808.450710,148.041188,0.000000
3239.328374,-10510.924376,74.020594,1685.410096
3239.328711,-11029.068536,-740.205942,-229.828649
3239.329049,-9696.697840,-2368.659014,-1608.800546
3239.329386,-7994.224174,-1258.350101,-229.828649
3239.329723,-9030.512492,-1776.494261,1455.581446
3239.330061,-11769.274478,-2220.617826,1455.581446
3239.330398,-11621.233289,-2442.679609,-995.924147
3239.330735,-9104.533087,-1184.329507,-1991.848295
3239.331073,-8216.285956,-1258.350101,-536.266849
3239.331410,-9992.780217,-370.102971,-383.047749
3239.331747,-11547.212695,-962.267725,-1225.752797
3239.332084,-9622.677246,-666.185348,-1838.629195
3239.332422,-8142.265362,74.020594,306.438199
3239.332759,-10362.883188,-1036.288319,3600.648841
3239.333096,-11695.253884,-1184.329507,3294.210641
3239.333434,-11251.130318,-518.144159,1915.238745
3239.333771,-9474.636058,1554.432478,995.924147
3239.334108,-9252.574275,3330.926739,1532.190996
3239.334446,-11103.089130,2072.576638,1225.752797
3239.334783,-10807.006753,1036.288319,0.000000
3239.335120,-8512.368333,1850.514855,-383.047749
3239.335458,-8068.244768,1702.473667,1225.752797
3239.335795,-10436.903782,1702.473667,2221.676944
3239.336132,-11769.274478,-518.144159,919.314598
3239.336470,-9696.697840,148.041188,-842.705048
3239.336807,-7846.182985,814.226536,-1762.019645
3239.337144,-9400.615463,1628.453072,-842.705048
3239.337481,-11251.130318,74.020594,-1991.848295
3239.337819,-9770.718434,-888.247130,-3983.696590
3239.338156,-7328.038826,-1110.308913,-2681.334243
3239.338493,-8512.368333,-1702.473667,995.924147
3239.338831,-11325.150913,-2294.638420,2374.896044
3239.339168,-11843.295072,-2442.679609,612.876398
3239.339505,-10140.821405,-1406.391290,-1072.533697
3239.339843,-9548.656652,-370.102971,-612.876398
3239.340180,-11325.150913,0.000000,842.705048
3239.340517,-12287.418637,-592.164754,842.705048
3239.340855,-10436.903782,-1702.473667,-459.657299
3239.341192,-8882.471304,74.020594,766.095498
3239.341529,-10436.903782,-740.205942,3677.258390
3239.341867,-12361.439231,-1258.350101,4136.915689
3239.342204,-12065.356855,-1480.411884,1225.752797
3239.342541,-9400.615463,518.144159,459.657299
3239.342878,-9474.636058,1776.494261,536.266849
3239.343216,-11399.171507,888.247130,536.266849
3239.343553,-10658.965565,0.000000,-1149.143247
3239.343890,-7846.182985,74.020594,-2604.724693
3239.344228,-7624.121203,370.102971,-459.657299
3239.344565,-10066.800811,-370.102971,1608.800546
3239.344902,-11325.150913,-1554.432478,1072.533697
3239.345239,-9252.574275,-1776.494261,-612.876398
3239.345577,-7994.224174,74.020594,-689.485948
3239.345914,-8586.388927,962.267725,842.705048
3239.346251,-11029.068536,0.000000,536.266849
3239.346588,-10362.883188,-74.020594,-306.438199
3239.346926,-8216.285956,296.082377,0.000000
3239.347263,-8586.388927,518.144159,2911.162892
3239.347600,-10955.047942,-222.061783,3677.258390
3239.347937,-13027.624579,-222.061783,2068.457845
3239.348275,-10658.965565,74.020594,153.219100
3239.348612,-9104.533087,962.267725,-383.047749
3239.348949,-10214.842000,1776.494261,1225.752797
3239.349286,-11473.192101,666.185348,-919.314598
3239.349624,-9992.780217,-222.061783,-3140.991542
3239.349961,-7994.224174,518.144159,-2451.505594
3239.350298,-9178.553681,-222.061783,842.705048
3239.350635,-11695.253884,-1332.370696,1685.410096
3239.350973,-11399.171507,-2368.659014,-383.047749
3239.351310,-9844.739029,-962.267725,-1991.848295
3239.351647,-9252.574275,-518.144159,-1762.019645
3239.351984,-10436.903782,-1036.288319,-1072.533697
3239.352321,-11029.068536,-2812.782580,-1455.581446
3239.352659,-9474.636058,-3256.906145,-1532.190996
3239.352996,-7402.059420,-1850.514855,-536.266849
3239.353333,-10066.800811,-2294.638420,2068.457845
3239.353670,-11695.253884,-3108.864956,2221.676944
3239.354008,-11251.130318,-3034.844362,612.876398
3239.354345,-9252.574275,-1480.411884,612.876398
3239.354682,-9178.553681,740.205942,1225.752797
3239.355019,-11251.130318,74.020594,1915.238745
3239.355357,-11399.171507,-148.041188,0.000000
3239.355694,-8956.491898,518.144159,-306.438199
3239.356031,-8364.327145,1184.329507,2298.286494
3239.356368,-10658.965565,296.082377,3753.867940
3239.356706,-11843.295072,222.061783,2221.676944
3239.357043,-10658.965565,592.164754,0.000000
3239.357380,-8512.368333,2442.679609,-383.047749
3239.357717,-9178.553681,2442.679609,76.609550
3239.358055,-10732.986159,1480.411884,-229.828649
3239.358392,-10140.821405,962.267725,-1532.190996
3239.358729,-7994.224174,1406.391290,-1915.238745
3239.359066,-8438.347739,1110.308913,842.705048
3239.359403,-11325.150913,-592.164754,2451.505594
3239.359741,-11547.212695,-1480.411884,689.485948
3239.360078,-9770.718434,-370.102971,-536.266849
3239.360415,-9104.533087,370.102971,153.219100
3239.360752,-9622.677246,518.144159,459.657299
3239.361090,-10807.006753,-1480.411884,-229.828649
3239.361427,-9770.718434,-518.144159,-1149.143247
3239.361764,-7994.224174,-222.061783,-383.047749
3239.362101,-9548.656652,-1036.288319,2221.676944
3239.362439,-11547.212695,-666.185348,2145.067394
3239.362776,-11695.253884,-1554.432478,842.705048
3239.363113,-9548.656652,0.000000,-76.609550
3239.363450,-9030.512492,888.247130,0.000000
3239.363788,-11325.150913,592.164754,1225.752797
3239.364125,-11547.212695,-740.205942,-689.485948
3239.364462,-9400.615463,-1554.432478,-1991.848295
3239.364799,-8586.388927,-296.082377,-306.438199
3239.365137,-10140.821405,-1554.432478,2068.457845
3239.365474,-12287.418637,-2220.617826,842.705048
3239.365811,-10807.006753,-2146.597232,-1302.362347
3239.366148,-8808.450710,-592.164754,-1532.190996
3239.366485,-9104.533087,-296.082377,76.609550
3239.366823,-11103.089130,-592.164754,-76.609550
3239.367160,-10807.006753,-888.247130,-2068.457845
3239.367497,-8734.430116,-592.164754,-2451.505594
3239.367834,-8438.347739,0.000000,689.485948
3239.368172,-10807.006753,-1406.391290,2757.943793
3239.368509,-11547.212695,-1406.391290,2911.162892
3239.368846,-9770.718434,-222.061783,689.485948
3239.369183,-8734.430116,1776.494261,766.095498
3239.369521,-9696.697840,2590.720797,1762.019645
3239.369858,-11177.109724,1554.432478,995.924147
3239.370195,-10362.883188,1184.329507,-229.828649
3239.370532,-7846.182985,1702.473667,-76.609550
3239.370870,-8882.471304,2294.638420,1915.238745
3239.371207,-11917.315666,814.226536,2451.505594
3239.371544,-11621.233289,0.000000,0.000000
3239.371881,-9474.636058,148.041188,-1532.190996
3239.372219,-8586.388927,888.247130,-766.095498
3239.372556,-9548.656652,962.267725,-689.485948
3239.372893,-11029.068536,-518.144159,-2298.286494
3239.373230,-9548.656652,-1110.308913,-3600.648841
3239.373567,-7179.997637,-1480.411884,-2451.505594
3239.373905,-9400.615463,-2146.597232,1685.410096
3239.374242,-11917.315666,-2072.576638,1685.410096
3239.374579,-11621.233289,-3108.864956,0.000000
3239.374916,-9622.677246,-1924.535449,-1149.143247
3239.375254,-8882.471304,-962.267725,995.924147
3239.375591,-11177.109724,-1406.391290,2451.505594
3239.375928,-11769.274478,-2294.638420,766.095498
3239.376265,-9474.636058,-2220.617826,-459.657299
3239.376603,-8512.368333,-666.185348,1762.019645
3239.376940,-10362.883188,-962.267725,3753.867940
3239.377277,-11917.315666,-1850.514855,2451.505594
3239.377614,-11473.192101,-1702.473667,919.314598
3239.377952,-9030.512492,740.205942,383.047749
3239.378289,-9548.656652,1110.308913,689.485948
3239.378626,-11621.233289,740.205942,0.000000
3239.378963,-10214.842000,0.000000,-2374.896044
3239.379301,-8068.244768,148.041188,-2451.505594
3239.379638,-8586.388927,518.144159,0.000000
3239.379975,-10881.027347,-296.082377,1685.410096
3239.380312,-11843.295072,-1110.308913,0.000000
3239.380649,-9252.574275,-962.267725,-1532.190996
3239.380987,-8216.285956,592.164754,0.000000
3239.381324,-9474.636058,1554.432478,842.705048
3239.381661,-11621.233289,74.020594,536.266849
3239.381998,-9918.759623,518.144159,-383.047749
3239.382336,-7920.203579,370.102971,0.000000
3239.382673,-9178.553681,962.267725,3447.429741
3239.383010,-12065.356855,444.123565,3907.087040
3239.383347,-11917.315666,222.061783,1455.581446
3239.383685,-9844.739029,888.247130,383.047749
3239.384022,-8660.409521,1480.411884,842.705048
3239.384359,-10214.842000,1554.432478,1225.752797
3239.384696,-11177.109724,888.247130,-229.828649
3239.385034,-8882.471304,370.102971,-2374.896044
3239.385371,-7550.100608,444.123565,-1608.800546
3239.385708,-9844.739029,222.061783,1072.533697
3239.386045,-11251.130318,-814.226536,919.314598
3239.386383,-11029.068536,-1850.514855,-536.266849
3239.386720,-9178.553681,148.041188,-1608.800546
3239.387057,-9474.636058,444.123565,-995.924147
3239.387394,-11769.274478,-518.144159,-306.438199
3239.387731,-11621.233289,-2368.659014,-1532.190996
3239.388069,-8660.409521,-2368.659014,-1532.190996
3239.388406,-8364.327145,-1480.411884,842.705048
3239.388743,-10807.006753,-1406.391290,2145.067394
3239.389080,-12879.583391,-2590.720797,1225.752797
3239.389418,-10881.027347,-2590.720797,-229.828649
3239.389755,-8956.491898,74.020594,153.219100
3239.390092,-10066.800811,666.185348,2298.286494
3239.390429,-11769.274478,222.061783,1685.410096
3239.390767,-10881.027347,-222.061783,-306.438199
3239.391104,-8808.450710,222.061783,0.000000
3239.391441,-8364.327145,1702.473667,1915.238745
3239.391778,-11547.212695,0.000000,3370.820191
3239.392116,-11473.192101,0.000000,842.705048
3239.392453,-9474.636058,1036.288319,-995.924147
3239.392790,-8216.285956,2072.576638,229.828649
3239.393127,-9030.512492,1702.473667,76.609550
3239.393465,-10955.047942,0.000000,-383.047749
3239.393802,-9622.677246,0.000000,-1838.629195
3239.394139,-7105.977043,888.247130,-1455.581446
3239.394476,-9252.574275,592.164754,1608.800546
3239.394813,-11399.171507,-888.247130,2221.676944
3239.395151,-11251.130318,-1184.329507,306.438199
3239.395488,-9400.615463,-888.247130,-459.657299
3239.395825,-8882.471304,518.144159,0.000000
3239.396162,-10436.903782,296.082377,919.314598
3239.396500,-11399.171507,-1628.453072,-919.314598
3239.396837,-9252.574275,-1184.329507,-1225.752797
3239.397174,-7994.224174,-370.102971,459.657299
3239.397511,-10436.903782,-740.205942,3064.381992
3239.397849,-12065.356855,-1184.329507,1915.238745
3239.398186,-11473.192101,-1406.391290,76.609550
3239.398523,-9474.636058,296.082377,0.000000
3239.398860,-9770.718434,1110.308913,536.266849
3239.399198,-11473.192101,148.041188,919.314598
3239.399535,-11399.171507,-1554.432478,-995.924147
3239.399872,-8808.450710,-1628.453072,-2068.457845
3239.400209,-8438.347739,-814.226536,459.657299
3239.400546,-10658.965565,-1332.370696,1915.238745
3239.400884,-12213.398043,-3108.864956,229.828649
3239.401221,-10140.821405,-2146.597232,-1608.800546
3239.401558,-8438.347739,-888.247130,-1378.971896
3239.401895,-9548.656652,-518.144159,842.705048
3239.402233,-10807.006753,-1554.432478,0.000000
3239.402570,-9770.718434,-1258.350101,-1762.019645
3239.402907,-8660.409521,-518.144159,-995.924147
3239.403244,-9104.533087,0.000000,1455.581446
3239.403582,-11621.233289,-1554.432478,3677.258390
3239.403919,-11473.192101,-1554.432478,2221.676944
3239.404256,-9252.574275,-148.041188,689.485948
3239.404593,-9474.636058,1850.514855,1225.752797
3239.404931,-10510.924376,2442.679609,1838.629195
3239.405268,-11399.171507,1184.329507,842.705048
3239.405605,-10140.821405,1480.411884,-153.219100
3239.405942,-7846.182985,2516.700203,76.609550
3239.406280,-9474.636058,2368.659014,2298.286494
3239.406617,-12287.418637,740.205942,1762.019645
3239.406954,-11029.068536,222.061783,-536.266849
3239.407291,-9326.594869,1332.370696,-1685.410096
3239.407628,-8660.409521,1480.411884,-1149.143247
3239.407966,-10510.924376,1332.370696,-1149.143247
3239.408303,-11029.068536,-888.247130,-2681.334243
3239.408640,-8438.347739,-962.267725,-3830.477490
3239.408977,-7254.018232,-962.267725,-1532.190996
3239.409315,-9548.656652,-1258.350101,2374.896044
3239.409652,-11991.336260,-3034.844362,1225.752797
3239.409989,-11251.130318,-1776.494261,-842.705048
3239.410326,-9104.533087,-888.247130,-1072.533697
3239.410664,-9696.697840,-296.082377,842.705048
3239.411001,-10955.047942,-1628.453072,1225.752797
3239.411338,-10807.006753,-1480.411884,-536.266849
3239.411675,-9252.574275,-1332.370696,76.609550
3239.412013,-8882.471304,-296.082377,1762.019645
3239.412350,-11103.089130,-1406.391290,3677.258390
3239.412687,-12879.583391,-888.247130,2221.676944
3239.413024,-10584.944971,-962.267725,0.000000
3239.413362,-8882.471304,1110.308913,459.657299
3239.413699,-10066.800811,1110.308913,1608.800546
3239.414036,-11473.192101,518.144159,536.266849
3239.414373,-10288.862594,-740.205942,-2221.676944
3239.414710,-8438.347739,296.082377,-1532.190996
3239.415048,-9252.574275,666.185348,919.314598
3239.415385,-11325.150913,-1110.308913,1915.238745
3239.415722,-10584.944971,-1332.370696,0.000000
3239.416059,-8808.450710,-1036.288319,-612.876398
3239.416397,-8660.409521,518.144159,919.314598
3239.416734,-9918.759623,148.041188,1225.752797
3239.417071,-11029.068536,-296.082377,306.438199
3239.417408,-9178.553681,-592.164754,-306.438199
3239.417746,-7476.080014,-222.061783,1072.533697
3239.418083,-9548.656652,740.205942,4060.306139
3239.418420,-11547.212695,-296.082377,3677.258390
3239.418757,-11325.150913,-296.082377,1225.752797
3239.419095,-9252.574275,592.164754,0.000000
3239.419432,-9104.533087,1406.391290,842.705048
3239.419769,-10214.842000,888.247130,766.095498
3239.420106,-10436.903782,0.000000,-1532.190996
3239.420444,-8808.450710,-222.061783,-2834.553343
3239.420781,-7846.182985,0.000000,-995.924147
3239.421118,-9622.677246,-444.123565,1455.581446
3239.421455,-12065.356855,-1406.391290,0.000000
3239.421792,-10732.986159,-1702.473667,-2145.067394
3239.422130,-9326.594869,-518.144159,-2451.505594
3239.422467,-9770.718434,-74.020594,-1225.752797
3239.422804,-11399.171507,-1554.432478,-689.485948
3239.423141,-10955.047942,-2812.782580,-1762.019645
3239.423479,-8808.450710,-2738.761985,-1072.533697
3239.423816,-9030.512492,-1998.556043,1608.800546
3239.424153,-11843.295072,-2368.659014,3064.381992
3239.424490,-12583.501014,-2664.741391,536.266849
3239.424828,-10881.027347,-2442.679609,0.000000
3239.425165,-8882.471304,-370.102971,1455.581446
3239.425502,-9770.718434,370.102971,2451.505594
3239.425839,-11547.212695,148.041188,1685.410096
3239.426177,-10288.862594,-592.164754,-612.876398
3239.426514,-7994.224174,74.020594,0.000000
3239.426851,-8734.430116,814.226536,2681.334243
3239.427188,-11473.192101,370.102971,3217.601092
3239.427526,-10955.047942,222.061783,306.438199
3239.427863,-8956.491898,1036.288319,-919.314598
3239.428200,-7772.162391,2442.679609,229.828649
3239.428537,-9548.656652,2368.659014,-229.828649
3239.428874,-10807.006753,1110.308913,-1302.362347
3239.429212,-8660.409521,666.185348,-2451.505594
3239.429549,-7179.997637,888.247130,-766.095498
3239.429886,-9326.594869,888.247130,1608.800546
3239.430223,-11695.253884,-962.267725,2451.505594
3239.430561,-11325.150913,-592.164754,-76.609550
3239.430898,-8956.491898,-74.020594,-536.266849
3239.431235,-9844.739029,1554.432478,1225.752797
3239.431572,-11029.068536,222.061783,919.314598
3239.431910,-11473.192101,-814.226536,-1072.533697
3239.432247,-9030.512492,-740.205942,-1762.019645
3239.432584,-8364.327145,296.082377,459.657299
3239.432921,-10955.047942,0.000000,3140.991542
3239.433259,-12361.439231,-740.205942,1149.143247
3239.433596,-10732.986159,-888.247130,-459.657299
3239.433933,-9252.574275,740.205942,0.000000
3239.434270,-9548.656652,888.247130,229.828649
3239.434608,-11621.233289,222.061783,-459.657299
3239.434945,-10140.821405,-1184.329507,-2374.896044
3239.435282,-7846.182985,-962.267725,-1762.019645
3239.435619,-8068.244768,-666.185348,995.924147
3239.435956,-11103.089130,-1924.535449,2528.115143
3239.436294,-11769.274478,-2812.782580,0.000000
3239.436631,-10066.800811,-2294.638420,-2068.457845
3239.436968,-8586.388927,-222.061783,-536.266849
3239.437305,-9918.759623,-666.185348,1225.752797
3239.437643,-11621.233289,-1258.350101,153.219100
3239.437980,-9844.739029,-1036.288319,-1762.019645
3239.438317,-8586.388927,-666.185348,-536.266849
3239.438654,-9622.677246,0.000000,1991.848295
3239.438992,-11695.253884,-1702.473667,3524.039291
3239.439329,-11843.295072,-1332.370696,2451.505594
3239.439666,-9030.512492,222.061783,229.828649
3239.440003,-9548.656652,2294.638420,2145.067394
3239.440341,-11325.150913,1924.535449,2374.896044
3239.440678,-11251.130318,962.267725,0.000000
3239.441015,-9326.594869,518.144159,0.000000
3239.441352,-8142.265362,2664.741391,1072.533697
3239.441690,-9918.759623,1258.350101,2987.772442
3239.442027,-12435.459826,148.041188,1991.848295
3239.442364,-10214.842000,74.020594,-689.485948
3239.442701,-8512.368333,518.144159,-995.924147
3239.443038,-9030.512492,1184.329507,-766.095498
3239.443376,-10288.862594,222.061783,-995.924147
3239.443713,-10436.903782,-1332.370696,-2834.553343
3239.444050,-7772.162391,-2072.576638,-3217.601092
3239.444387,-6661.853478,-1998.556043,-306.438199
3239.444725,-10140.821405,-2146.597232,2987.772442
3239.445062,-11769.274478,-3182.885551,766.095498
3239.445399,-10510.924376,-2664.741391,-995.924147
3239.445736,-9252.574275,-814.226536,-229.828649
3239.446074,-9992.780217,-1110.308913,995.924147
3239.446411,-11621.233289,-1628.453072,1225.752797
3239.446749,-10584.944971,-1924.535449,-1072.533697
3239.447086,-8956.491898,-814.226536,-153.219100
3239.447423,-9696.697840,-296.082377,2145.067394
3239.447761,-11843.295072,-1258.350101,3140.991542
3239.448098,-12139.377449,-1258.350101,76.609550
3239.448436,-10140.821405,-888.247130,-995.924147
3239.448773,-9400.615463,1776.494261,76.609550
3239.449110,-10658.965565,962.267725,459.657299
3239.449448,-11325.150913,444.123565,-995.924147
3239.449785,-9548.656652,-148.041188,-3064.381992
3239.450123,-8512.368333,592.164754,-1608.800546
3239.450460,-9548.656652,518.144159,1149.143247
3239.450797,-11621.233289,-1036.288319,1378.971896
3239.451135,-10658.965565,-1554.432478,-383.047749
3239.451472,-8216.285956,-222.061783,-1225.752797
3239.451809,-8660.409521,444.123565,1149.143247
3239.452147,-9992.780217,0.000000,1149.143247
3239.452484,-10214.842000,0.000000,-153.219100
3239.452822,-9178.553681,74.020594,0.000000
3239.453159,-8290.306550,296.082377,1532.190996
3239.453496,-9770.718434,740.205942,4136.915689
3239.453834,-12213.398043,0.000000,3600.648841
3239.454171,-10584.944971,592.164754,1685.410096
3239.454509,-9178.553681,1554.432478,1225.752797
3239.454846,-9622.677246,1554.432478,1532.190996
3239.455183,-11103.089130,1406.391290,1225.752797
3239.455521,-10955.047942,370.102971,-766.095498
3239.455858,-8734.430116,296.082377,-2221.676944
3239.456196,-8290.306550,370.102971,76.609550
3239.456533,-10658.965565,-444.123565,2374.896044
3239.456870,-11695.253884,-1406.391290,229.828649
3239.457208,-10807.006753,-962.267725,-1762.019645
3239.457545,-9474.636058,0.000000,-1532.190996
3239.457883,-10288.862594,0.000000,-1149.143247
3239.458220,-11399.171507,-1924.535449,-1378.971896
3239.458557,-10288.862594,-2368.659014,-2681.334243
3239.458895,-7772.162391,-2664.741391,-229.828649
3239.459232,-9178.553681,-2368.659014,1838.629195
3239.459570,-10881.027347,-2960.823768,2451.505594
3239.459907,-11917.315666,-3552.988522,76.609550
3239.460244,-9844.739029,-2220.617826,-766.095498
3239.460582,-9030.512492,-370.102971,536.266849
3239.460919,-10140.821405,-444.123565,1762.019645
3239.461257,-11029.068536,296.082377,-306.438199
3239.461594,-9326.594869,-370.102971,-1149.143247
3239.461931,-8808.450710,518.144159,689.485948
3239.462269,-9474.636058,74.020594,2528.115143
3239.462606,-11917.315666,0.000000,2528.115143
3239.462944,-11399.171507,592.164754,153.219100
3239.463281,-9030.512492,1332.370696,-1378.971896
3239.463618,-8660.409521,1998.556043,306.438199
3239.463956,-9696.697840,1924.535449,-612.876398
3239.464293,-10658.965565,740.205942,-2451.505594
3239.464631,-9400.615463,814.226536,-3140.991542
3239.464968,-7772.162391,1110.308913,-612.876398
3239.465305,-9622.677246,74.020594,2221.676944
3239.465643,-11399.171507,-1036.288319,1225.752797
3239.465980,-9992.780217,-1110.308913,-459.657299
3239.466318,-9104.533087,0.000000,76.609550
3239.466655,-9696.697840,444.123565,1225.752797
3239.466992,-11251.130318,0.000000,842.705048
3239.467330,-11029.068536,-1110.308913,-919.314598
3239.467667,-8808.450710,-1258.350101,-229.828649
3239.468004,-8142.265362,-296.082377,2068.457845
3239.468342,-10881.027347,-962.267725,3907.087040
3239.468679,-11917.315666,-1998.556043,1532.190996
3239.469017,-10362.883188,-962.267725,-306.438199
3239.469354,-8512.368333,370.102971,306.438199
3239.469691,-10140.821405,1036.288319,1455.581446
3239.470029,-11399.171507,0.000000,0.000000
3239.470366,-9918.759623,-1480.411884,-1838.629195
3239.470704,-8364.327145,-1480.411884,-766.095498
3239.471041,-9178.553681,-1406.391290,1915.238745
3239.471378,-11843.295072,-1776.494261,2604.724693
3239.471716,-11843.295072,-2368.659014,-536.266849
3239.472053,-9696.697840,-1850.514855,-1532.190996
3239.472391,-9104.533087,-74.020594,-306.438199
3239.472728,-10658.965565,-444.123565,536.266849
3239.473065,-11251.130318,-962.267725,-842.705048
3239.473403,-10214.842000,-888.247130,-1838.629195
3239.473740,-8512.368333,-444.123565,0.000000
3239.474078,-9548.656652,0.000000,2757.943793
3239.474415,-12509.480420,-1480.411884,3600.648841
3239.474752,-11029.068536,-1184.329507,1302.362347
3239.475090,-8956.491898,518.144159,612.876398
3239.475427,-9252.574275,1998.556043,2068.457845
3239.475765,-10658.965565,2368.659014,1685.410096
3239.476102,-11103.089130,1554.432478,0.000000
3239.476439,-8660.409521,1184.329507,-1378.971896
3239.476777,-7772.162391,2368.659014,919.314598
3239.477114,-10140.821405,2146.597232,2604.724693
3239.477452,-11769.274478,0.000000,995.924147
3239.477789,-9400.615463,0.000000,-1072.533697
3239.478126,-8586.388927,1184.329507,-1225.752797
3239.478464,-9400.615463,1110.308913,-1072.533697
3239.478801,-10362.883188,962.267725,-2528.115143
3239.479139,-9992.780217,-1110.308913,-3983.696590
3239.479476,-7994.224174,-1406.391290,-3064.381992
3239.479813,-7846.182985,-1628.453072,-459.657299
3239.480151,-10955.047942,-1924.535449,2528.115143
3239.480488,-12435.459826,-2960.823768,383.047749
3239.480826,-9844.739029,-2072.576638,-1608.800546
3239.481163,-9548.656652,-444.123565,0.000000
3239.481500,-11029.068536,0.000000,1608.800546
3239.481838,-12065.356855,-1628.453072,536.266849
3239.482175,-10362.883188,-1776.494261,-1225.752797
3239.482513,-8956.491898,-666.185348,612.876398
3239.482850,-10288.862594,-592.164754,3907.087040
3239.483187,-11991.336260,-2294.638420,4136.915689
3239.483525,-11843.295072,-1776.494261,1608.800546
3239.483862,-10140.821405,-148.041188,536.266849
3239.484200,-9474.636058,1554.432478,1455.581446
3239.484537,-10881.027347,1184.329507,1302.362347
3239.484874,-10807.006753,-666.185348,-842.705048
3239.485212,-8882.471304,0.000000,-2604.724693
3239.485549,-7920.203579,740.205942,-536.266849
3239.485886,-9770.718434,148.041188,1762.019645
3239.486224,-11399.171507,-1406.391290,1149.143247
3239.486561,-9918.759623,-1628.453072,-842.705048
3239.486899,-7846.182985,-222.061783,0.000000
3239.487236,-9252.574275,1110.308913,1762.019645
3239.487573,-10436.903782,74.020594,459.657299
3239.487911,-10436.903782,148.041188,-842.705048
3239.488248,-8512.368333,222.061783,0.000000
3239.488586,-8290.306550,666.185348,1915.238745
3239.488923,-10732.986159,962.267725,4136.915689
3239.489260,-12657.521608,-592.164754,2757.943793
3239.489598,-10362.883188,222.061783,-306.438199
3239.489935,-8956.491898,1850.514855,-459.657299
3239.490273,-10066.800811,1924.535449,1685.410096
3239.490610,-11325.150913,1184.329507,-536.266849
3239.490947,-10066.800811,148.041188,-2604.724693
3239.491285,-8586.388927,1110.308913,-2068.457845
3239.491622,-8512.368333,-592.164754,536.266849
3239.491960,-11399.171507,-1258.350101,1762.019645
3239.492297,-11399.171507,-2294.638420,-766.095498
3239.492634,-9548.656652,-1332.370696,-1302.362347
3239.492972,-9252.574275,74.020594,-1225.752797
3239.493309,-10140.821405,-592.164754,-1532.190996
3239.493647,-11103.089130,-2294.638420,-2221.676944
3239.493984,-9622.677246,-3034.844362,-2757.943793
3239.494321,-7920.203579,-2590.720797,-842.705048
3239.494659,-9400.615463,-2368.659014,2451.505594
3239.494996,-11843.295072,-3701.029710,2757.943793
3239.495334,-11325.150913,-3404.947333,76.609550
3239.495671,-9252.574275,-1628.453072,-459.657299
3239.496008,-9548.656652,74.020594,842.705048
3239.496346,-10955.047942,0.000000,1455.581446
3239.496683,-11325.150913,0.000000,306.438199
3239.497021,-9770.718434,370.102971,-153.219100
3239.497358,-8660.409521,666.185348,1991.848295
3239.497695,-10658.965565,592.164754,3524.039291
3239.498033,-12213.398043,0.000000,2911.162892
3239.498370,-10807.006753,814.226536,536.266849
3239.498708,-9030.512492,1628.453072,0.000000
3239.499045,-9178.553681,2294.638420,842.705048
3239.499382,-10066.800811,2072.576638,-459.657299
3239.499720,-10362.883188,1036.288319,-2374.896044
3239.500057,-8586.388927,1110.308913,-2068.457845
3239.500395,-7772.162391,1110.308913,536.266849
3239.500732,-10214.842000,74.020594,2911.162892
3239.501069,-11843.295072,-1850.514855,2068.457845
3239.501407,-9844.739029,0.000000,0.000000
3239.501744,-8882.471304,148.041188,459.657299
3239.502081,-9770.718434,740.205942,1225.752797
3239.502419,-10436.903782,-444.123565,0.000000
3239.502756,-10066.800811,-1110.308913,-1302.362347
3239.503094,-8142.265362,-74.020594,0.000000
3239.503431,-9030.512492,-148.041188,1915.238745
3239.503768,-11695.253884,-1184.329507,2298.286494
3239.504106,-11843.295072,-1110.308913,229.828649
3239.504443,-9918.759623,-962.267725,-612.876398
3239.504781,-9030.512492,888.247130,383.047749
3239.505118,-10436.903782,962.267725,612.876398
3239.505455,-11695.253884,0.000000,-1455.581446
3239.505793,-10066.800811,-1184.329507,-2528.115143
3239.506130,-8586.388927,-1036.288319,-766.095498
3239.506468,-9844.739029,-1332.370696,2145.067394
3239.506805,-11991.336260,-2368.659014,1685.410096
3239.507142,-11177.109724,-2368.659014,-1991.848295
3239.507480,-9104.533087,-1628.453072,-2604.724693
3239.507817,-9252.574275,-370.102971,-229.828649
3239.508155,-10658.965565,-888.247130,-612.876398
3239.508492,-10955.047942,-1406.391290,-1455.581446
3239.508829,-9104.533087,-740.205942,-2221.676944
3239.509167,-8808.450710,-592.164754,689.485948
3239.509504,-10584.944971,-1258.350101,3370.820191
3239.509842,-11769.274478,-1702.473667,2911.162892
3239.510179,-10436.903782,-666.185348,1532.190996
3239.510516,-9104.533087,1036.288319,995.924147
3239.510854,-9326.594869,1702.473667,2451.505594
3239.511191,-11177.109724,1628.453072,1225.752797
3239.511529,-10288.862594,1184.329507,0.000000
3239.511866,-8290.306550,1406.391290,-383.047749
3239.512203,-8142.265362,1998.556043,1455.581446
3239.512541,-10732.986159,1850.514855,2834.553343
3239.512878,-12213.398043,0.000000,842.705048
3239.513216,-8956.491898,370.102971,-1608.800546
3239.513553,-8438.347739,814.226536,-76.609550
3239.513890,-9918.759623,1406.391290,229.828649
3239.514228,-10584.944971,148.041188,-2451.505594
3239.514565,-9918.759623,-1110.308913,-3370.820191
3239.514903,-8216.285956,-1258.350101,-689.485948
3239.515240,-8808.450710,-1406.391290,1762.019645
3239.515577,-11843.295072,-1998.556043,2681.334243
3239.515915,-11843.295072,-2590.720797,0.000000
3239.516252,-9844.739029,-1480.411884,-995.924147
3239.516590,-9178.553681,0.000000,306.438199
3239.516927,-10362.883188,-740.205942,1072.533697
3239.517264,-11695.253884,-1406.391290,689.485948
3239.517602,-10214.842000,-1776.494261,-995.924147
3239.517939,-8956.491898,-592.164754,766.095498
3239.518276,-10140.821405,-1036.288319,3064.381992
3239.518614,-12139.377449,-1480.411884,2451.505594
3239.518951,-11177.109724,-2220.617826,229.828649
3239.519289,-8882.471304,0.000000,-612.876398
3239.519626,-8956.491898,1184.329507,766.095498
3239.519963,-11177.109724,296.082377,306.438199
3239.520301,-10881.027347,-296.082377,-2221.676944
3239.520638,-8734.430116,-296.082377,-3064.381992
3239.520976,-8290.306550,0.000000,-612.876398
3239.521313,-10066.800811,296.082377,766.095498
3239.521650,-11769.274478,-2146.597232,0.000000
3239.521988,-9696.697840,-1184.329507,-1149.143247
3239.522325,-8364.327145,0.000000,-536.266849
3239.522663,-9696.697840,1036.288319,1378.971896
3239.523000,-10955.047942,296.082377,0.000000
3239.523337,-10658.965565,74.020594,-689.485948
3239.523675,-8734.430116,518.144159,76.609550
3239.524012,-8660.409521,888.247130,2451.505594
3239.524350,-11621.233289,592.164754,4596.572988
3239.524687,-12213.398043,-444.123565,1991.848295
3239.525024,-10066.800811,888.247130,229.828649
3239.525362,-8882.471304,1850.514855,842.705048
3239.525699,-9992.780217,2072.576638,1225.752797
3239.526037,-10732.986159,962.267725,-306.438199
3239.526374,-9548.656652,0.000000,-2374.896044
3239.526711,-7550.100608,962.267725,-919.314598
3239.527049,-8734.430116,74.020594,919.314598
3239.527386,-11251.130318,-1258.350101,2528.115143
3239.527724,-11177.109724,-2146.597232,-459.657299
3239.528061,-9400.615463,0.000000,-1302.362347
3239.528398,-9252.574275,296.082377,-76.609550
3239.528736,-10658.965565,-592.164754,-1072.533697
3239.529073,-11177.109724,-2294.638420,-1455.581446
3239.529411,-9326.594869,-2294.638420,-1608.800546
3239.529748,-8290.306550,-1776.494261,229.828649
3239.530085,-10584.944971,-2220.617826,2451.505594
3239.530423,-12879.583391,-3034.844362,1991.848295
3239.530760,-10955.047942,-2960.823768,-383.047749
3239.531098,-9030.512492,-1332.370696,0.000000
3239.531435,-9770.718434,962.267725,2298.286494
3239.531772,-11991.336260,-148.041188,1838.629195
3239.532110,-11177.109724,0.000000,-689.485948
3239.532447,-9252.574275,814.226536,-153.219100
3239.532785,-9400.615463,1036.288319,2451.505594
3239.533122,-11029.068536,444.123565,3140.991542
3239.533459,-11843.295072,-518.144159,1532.190996
3239.533797,-10066.800811,814.226536,-383.047749
3239.534134,-7920.203579,1702.473667,-229.828649
3239.534472,-9030.512492,2146.597232,536.266849
3239.534809,-10510.924376,740.205942,-919.314598
3239.535146,-9696.697840,370.102971,-2911.162892
3239.535484,-7624.121203,814.226536,-2068.457845
3239.535821,-8142.265362,666.185348,842.705048
3239.536158,-10510.924376,-888.247130,2757.943793
3239.536496,-11177.109724,-2368.659014,459.657299
3239.536833,-8882.471304,-740.205942,-536.266849
3239.537171,-8882.471304,444.123565,76.609550
3239.537508,-10140.821405,0.000000,76.609550
3239.537845,-10881.027347,-518.144159,-995.924147
3239.538183,-9844.739029,-1110.308913,-1915.238745
3239.538520,-8068.244768,-296.082377,0.000000
3239.538858,-9474.636058,-666.185348,1762.019645
3239.539195,-11843.295072,-888.247130,2221.676944
3239.539532,-11621.233289,-1554.432478,-536.266849
3239.539870,-9400.615463,0.000000,-689.485948
3239.540207,-9474.636058,962.267725,1149.143247
3239.540545,-11769.274478,296.082377,766.095498
3239.540882,-11177.109724,-1110.308913,-1149.143247
3239.541219,-9918.759623,-962.267725,-2221.676944
3239.541557,-8808.450710,-370.102971,229.828649
3239.541894,-10955.047942,-1332.370696,1991.848295
3239.542232,-12583.501014,-2886.803174,1072.533697
3239.542569,-10362.883188,-1924.535449,-1838.629195
3239.542906,-8734.430116,-1406.391290,-1838.629195
3239.543244,-9326.594869,-666.185348,689.485948
3239.543581,-10214.842000,-1554.432478,-229.828649
3239.543919,-10436.903782,-1480.411884,-1378.971896
3239.544256,-8438.347739,-740.205942,-1455.581446
3239.544593,-8734.430116,-222.061783,1685.410096
3239.544931,-10807.006753,-814.226536,3983.696590
3239.545268,-11547.212695,-1776.494261,3064.381992
3239.545605,-9918.759623,370.102971,1608.800546
3239.545943,-8660.409521,1554.432478,1762.019645
3239.546280,-10140.821405,2368.659014,2987.772442
3239.546617,-10881.027347,1776.494261,842.705048
3239.546955,-9992.780217,1480.411884,-229.828649
3239.547292,-8438.347739,2294.638420,0.000000
3239.547629,-9178.553681,2368.659014,1532.190996
3239.547967,-11621.233289,1924.535449,2757.943793
3239.548304,-11547.212695,518.144159,-306.438199
3239.548641,-8808.450710,1036.288319,-1302.362347
3239.548979,-8734.430116,2146.597232,-612.876398
3239.549316,-10510.924376,1554.432478,-995.924147
3239.549653,-11325.150913,444.123565,-3064.381992
3239.549991,-9474.636058,-666.185348,-3600.648841
3239.550328,-7772.162391,-518.144159,-1225.752797
3239.550665,-8882.471304,-1702.473667,1838.629195
3239.551003,-11695.253884,-2294.638420,1991.848295
3239.551340,-11843.295072,-2146.597232,-536.266849
3239.551677,-9104.533087,-1258.350101,-1225.752797
3239.552015,-9548.656652,-740.205942,689.485948
3239.552352,-11399.171507,-1332.370696,1072.533697
3239.552689,-10881.027347,-1850.514855,0.000000
3239.553027,-9326.594869,-1776.494261,-689.485948
3239.553364,-9030.512492,-592.164754,1838.629195
3239.553701,-10288.862594,-592.164754,2834.553343
3239.554039,-12657.521608,-2072.576638,1532.190996
3239.554376,-11251.130318,-1258.350101,-689.485948
3239.554713,-9104.533087,0.000000,-766.095498
3239.555051,-9474.636058,1110.308913,1149.143247
3239.555388,-11103.089130,0.000000,-306.438199
3239.555725,-10510.924376,-296.082377,-2374.896044
3239.556063,-8734.430116,0.000000,-2834.553343
3239.556400,-8586.388927,222.061783,0.000000
3239.556738,-11695.253884,296.082377,1762.019645
3239.557075,-11843.295072,-2294.638420,0.000000
3239.557412,-9178.553681,-1110.308913,-1608.800546
3239.557750,-8068.244768,74.020594,0.000000
3239.558087,-9548.656652,888.247130,2221.676944
3239.558424,-11399.171507,-888.247130,229.828649
3239.558762,-9548.656652,-666.185348,-1532.190996
3239.559099,-8068.244768,222.061783,689.485948
3239.559436,-9326.594869,222.061783,2987.772442
3239.559774,-11547.212695,370.102971,3983.696590
3239.560111,-11769.274478,-814.226536,1378.971896
3239.560448,-9326.594869,814.226536,229.828649
3239.560786,-8290.306550,1184.329507,919.314598
3239.561123,-11177.109724,888.247130,1991.848295
3239.561460,-10732.986159,592.164754,-766.095498
3239.561798,-9252.574275,-296.082377,-2374.896044
3239.562135,-7550.100608,888.247130,-459.657299
3239.562472,-8882.471304,222.061783,1149.143247
3239.562810,-11621.233289,-1628.453072,1915.238745
3239.563147,-11399.171507,-1480.411884,-1378.971896
3239.563484,-8660.409521,-370.102971,-1838.629195
3239.563822,-9770.718434,592.164754,-153.219100
3239.564159,-11103.089130,-1184.329507,-919.314598
3239.564496,-11251.130318,-2146.597232,-1532.190996
3239.564834,-8956.491898,-2368.659014,-1532.190996
3239.565171,-8512.368333,-1554.432478,1378.971896
3239.565508,-11473.192101,-1924.535449,2911.162892
3239.565846,-12583.501014,-3108.864956,1225.752797
3239.566183,-10658.965565,-2220.617826,-1072.533697
3239.566520,-8808.450710,-962.267725,0.000000
3239.566858,-9548.656652,370.102971,2604.724693
3239.567195,-11251.130318,-444.123565,1149.143247
3239.567532,-11029.068536,-296.082377,-76.609550
3239.567870,-8586.388927,518.144159,-76.609550
3239.568207,-9178.553681,740.205942,2374.896044
3239.568544,-11399.171507,666.185348,2528.115143
3239.568882,-11695.253884,-518.144159,766.095498
3239.569219,-9400.615463,814.226536,-612.876398
3239.569557,-8290.306550,2220.617826,-306.438199
3239.569894,-9770.718434,2294.638420,842.705048
3239.570231,-10955.047942,592.164754,-1225.752797
3239.570569,-9400.615463,222.061783,-2834.553343
3239.570906,-7254.018232,962.267725,-1149.143247
3239.571243,-9178.553681,1332.370696,1762.019645
3239.571581,-11325.150913,-444.123565,2298.286494
3239.571918,-11991.336260,-1406.391290,0.000000
3239.572255,-8956.491898,-148.041188,-995.924147
3239.572593,-9178.553681,1110.308913,766.095498
3239.572930,-11103.089130,222.061783,1072.533697
3239.573267,-10881.027347,-888.247130,-919.314598
3239.573605,-9030.512492,-1110.308913,-1608.800546
3239.573942,-8290.306550,222.061783,536.266849
3239.574279,-9622.677246,-518.144159,2374.896044
3239.574617,-12361.439231,-888.247130,2068.457845
3239.574954,-10807.006753,-1258.350101,0.000000
3239.575291,-8882.471304,0.000000,-459.657299
3239.575629,-9696.697840,1258.350101,1378.971896
3239.575966,-10955.047942,-888.247130,383.047749
3239.576303,-10807.006753,-1258.350101,-1072.533697
3239.576641,-8808.450710,-1184.329507,-1762.019645
3239.576978,-8290.306550,-666.185348,842.705048
3239.577315,-10807.006753,-1480.411884,1225.752797
3239.577653,-12435.459826,-3108.864956,-153.219100
3239.577990,-9992.780217,-1702.473667,-2604.724693
3239.578327,-8660.409521,-1258.350101,-1302.362347
3239.578665,-9770.718434,-222.061783,536.266849
3239.579002,-11103.089130,-1850.514855,-766.095498
3239.579339,-10362.883188,-1332.370696,-1302.362347
3239.579677,-8734.430116,-962.267725,-1072.533697
3239.580014,-9252.574275,-518.144159,1838.629195
3239.580351,-11621.233289,-888.247130,3140.991542
3239.580689,-12139.377449,-1554.432478,2068.457845
3239.581026,-9770.718434,-74.020594,842.705048
3239.581363,-8512.368333,2146.597232,1149.143247
3239.581701,-10436.903782,1850.514855,2604.724693
3239.582038,-11251.130318,888.247130,1685.410096
3239.582375,-9474.636058,1110.308913,-306.438199
3239.582713,-8216.285956,1924.535449,1072.533697
3239.583050,-9548.656652,1924.535449,2451.505594
3239.583388,-11177.109724,814.226536,1838.629195
3239.583725,-11251.130318,0.000000,0.000000
3239.584062,-8142.265362,888.247130,-995.924147
3239.584400,-8660.409521,1406.391290,612.876398
3239.584737,-10658.965565,444.123565,-689.485948
3239.585074,-10214.842000,0.000000,-2757.943793
3239.585412,-8808.450710,-1184.329507,-2604.724693
3239.585749,-7476.080014,-962.267725,-383.047749
3239.586086,-9474.636058,-1850.514855,1532.190996
3239.586424,-12139.377449,-2812.782580,1455.581446
3239.586761,-10584.944971,-2220.617826,-689.485948
3239.587098,-9030.512492,-888.247130,-766.095498
3239.587436,-10288.862594,-74.020594,1149.143247
3239.587773,-11621.233289,-1184.329507,919.314598
3239.588110,-10955.047942,-1480.411884,-76.609550
3239.588448,-9474.636058,-1554.432478,0.000000
3239.588785,-9030.512492,-148.041188,1915.238745
3239.589122,-11399.171507,-1258.350101,2987.772442
3239.589460,-12805.562797,-1776.494261,2298.286494
3239.589797,-10955.047942,-814.226536,-919.314598
3239.590134,-9178.553681,740.205942,76.609550
3239.590472,-10658.965565,1776.494261,1378.971896
3239.590809,-11695.253884,370.102971,-229.828649
3239.591146,-9770.718434,0.000000,-3217.601092
3239.591484,-7846.182985,444.123565,-2145.067394
3239.591821,-9252.574275,-296.082377,689.485948
3239.592158,-11251.130318,-592.164754,1378.971896
3239.592496,-11177.109724,-1480.411884,-766.095498
3239.592833,-9030.512492,-296.082377,-766.095498
3239.593170,-7994.224174,296.082377,-536.266849
3239.593508,-9918.759623,444.123565,919.314598
3239.593845,-11029.068536,-148.041188,153.219100
3239.594182,-9474.636058,-444.123565,-612.876398
3239.594520,-8586.388927,1258.350101,1302.362347
3239.594857,-9474.636058,370.102971,3370.820191
3239.595194,-11547.212695,0.000000,3677.258390
3239.595532,-11325.150913,-222.061783,1302.362347
3239.595869,-9030.512492,1258.350101,-153.219100
3239.596206,-9104.533087,2072.576638,1608.800546
3239.596544,-10807.006753,1110.308913,459.657299
3239.596881,-10510.924376,740.205942,-1302.362347
3239.597219,-9252.574275,296.082377,-2528.115143
3239.597556,-7846.182985,296.082377,-459.657299
3239.597893,-9622.677246,-370.102971,919.314598
3239.598231,-11621.233289,-1628.453072,1532.190996
3239.598568,-11103.089130,-1554.432478,-689.485948
3239.598905,-9178.553681,74.020594,-995.924147
3239.599243,-9844.739029,592.164754,-383.047749
3239.599580,-11251.130318,-1258.350101,-995.924147
3239.599917,-10732.986159,-2368.659014,-1762.019645
3239.600255,-8364.327145,-2368.659014,-842.705048
3239.600592,-8734.430116,-1850.514855,1608.800546
3239.600929,-11621.233289,-2220.617826,2681.334243
3239.601267,-12879.583391,-2886.803174,612.876398
3239.601604,-10214.842000,-2220.617826,-919.314598
3239.601941,-8660.409521,-518.144159,1072.533697
3239.602279,-10066.800811,222.061783,3064.381992
3239.602616,-11843.295072,0.000000,766.095498
3239.602953,-10584.944971,-74.020594,-1072.533697
3239.603291,-8586.388927,666.185348,536.266849
3239.603628,-9252.574275,296.082377,3294.210641
3239.603965,-11177.109724,518.144159,2834.553343
3239.604303,-11695.253884,-740.205942,919.314598
3239.604640,-8808.450710,1184.329507,-689.485948
3239.604977,-8142.265362,2072.576638,306.438199
3239.605315,-9992.780217,1554.432478,459.657299
3239.605652,-10436.903782,444.123565,-1838.629195
3239.605989,-9252.574275,0.000000,-2298.286494
3239.606327,-7772.162391,1406.391290,-153.219100
3239.606664,-9030.512492,74.020594,2145.067394
3239.607001,-11621.233289,-888.247130,1838.629195
3239.607339,-10807.006753,-1702.473667,-766.095498
3239.607676,-9326.594869,74.020594,-459.657299
3239.608013,-9622.677246,1184.329507,536.266849
3239.608351,-11325.150913,0.000000,0.000000
3239.608688,-10732.986159,-444.123565,-1915.238745
3239.609025,-9326.594869,-1332.370696,-2374.896044
3239.609363,-8290.306550,222.061783,842.705048
3239.609700,-9844.739029,-814.226536,2374.896044
3239.610037,-12213.398043,-1480.411884,1608.800546
3239.610375,-11029.068536,-1554.432478,-383.047749
3239.610712,-8882.471304,222.061783,-383.047749
3239.611050,-9918.759623,370.102971,1455.581446
3239.611387,-11621.233289,0.000000,76.609550
3239.611724,-10510.924376,-1702.473667,-1225.752797
3239.612062,-7994.224174,-1628.453072,-1685.410096
3239.612399,-8068.244768,-962.267725,1608.800546
3239.612736,-11177.109724,-1924.535449,2374.896044
3239.613074,-12213.398043,-3330.926739,0.000000
3239.613411,-9400.615463,-1554.432478,-2298.286494
3239.613748,-8364.327145,-1184.329507,-306.438199
3239.614086,-9770.718434,-592.164754,1225.752797
3239.614423,-11029.068536,-1480.411884,-383.047749
3239.614760,-10214.842000,-962.267725,-1915.238745
3239.615098,-8882.471304,296.082377,-229.828649
3239.615435,-9992.780217,-444.123565,2528.115143
3239.615772,-11843.295072,-666.185348,4060.306139
3239.616110,-11843.295072,-1184.329507,1991.848295
3239.616447,-9400.615463,1110.308913,1072.533697
3239.616784,-8956.491898,2738.761985,1608.800546
3239.617122,-11325.150913,2368.659014,2451.505594
3239.617459,-11399.171507,1702.473667,0.000000
3239.617796,-9104.533087,2072.576638,-919.314598
3239.618134,-7846.182985,2294.638420,459.657299
3239.618471,-10066.800811,1702.473667,2221.676944
3239.618808,-11547.212695,1036.288319,1762.019645
3239.619146,-10214.842000,-370.102971,0.000000
3239.619483,-7994.224174,666.185348,-1072.533697
3239.619820,-8586.388927,1406.391290,-459.657299
3239.620158,-11473.192101,518.144159,-1225.752797
3239.620495,-10140.821405,-1036.288319,-3677.258390
3239.620832,-7550.100608,-1850.514855,-3830.477490
3239.621170,-7476.080014,-1184.329507,76.609550
3239.621507,-9548.656652,-2368.659014,1378.971896
3239.621844,-11769.274478,-3256.906145,612.876398
3239.622182,-10732.986159,-2368.659014,-1225.752797
3239.622519,-8956.491898,-444.123565,-383.047749
3239.622856,-10658.965565,-518.144159,1685.410096
3239.623194,-11843.295072,-1554.432478,459.657299
3239.623531,-10510.924376,-1850.514855,-689.485948
3239.623869,-9548.656652,-1110.308913,612.876398
3239.624206,-9474.636058,-962.267725,2911.162892
3239.624543,-11843.295072,-1258.350101,3907.087040
3239.624881,-13101.645173,-2146.597232,1991.848295
3239.625218,-10436.903782,-296.082377,-919.314598
3239.625555,-9474.636058,1110.308913,0.000000
3239.625893,-10807.006753,1036.288319,919.314598
3239.626230,-10807.006753,-296.082377,-1225.752797
3239.626567,-9474.636058,-148.041188,-3140.991542
3239.626905,-7920.203579,296.082377,-1455.581446
3239.627242,-9326.594869,-370.102971,919.314598
3239.627579,-11325.150913,-1110.308913,1302.362347
3239.627917,-10510.924376,-1924.535449,0.000000
3239.628254,-8512.368333,-296.082377,-306.438199
3239.628591,-8586.388927,296.082377,689.485948
3239.628929,-10140.821405,222.061783,1685.410096
3239.629266,-10362.883188,-222.061783,-306.438199
3239.629603,-8364.327145,-592.164754,-612.876398
3239.629941,-8660.409521,666.185348,1838.629195
3239.630278,-10066.800811,0.000000,4443.353888
3239.630615,-11843.295072,222.061783,3447.429741
3239.630953,-11029.068536,296.082377,1532.190996
3239.631290,-8882.471304,1924.535449,153.219100
3239.631627,-9474.636058,1702.473667,1532.190996
3239.631965,-11695.253884,1554.432478,459.657299
3239.632302,-10955.047942,962.267725,-1915.238745
3239.632639,-8734.430116,888.247130,-2604.724693
3239.632977,-8512.368333,518.144159,-383.047749
3239.633314,-9992.780217,-592.164754,612.876398
3239.633651,-11251.130318,-2072.576638,459.657299
3239.633989,-10510.924376,-1036.288319,-1225.752797
3239.634326,-8734.430116,0.000000,-1685.410096
3239.634663,-10436.903782,0.000000,-919.314598
3239.635001,-11621.233289,-1776.494261,-1685.410096
3239.635338,-10510.924376,-2368.659014,-2221.676944
3239.635675,-8512.368333,-1998.556043,-306.438199
3239.636013,-8808.450710,-2368.659014,1532.190996
3239.636350,-11547.212695,-2664.741391,2528.115143
3239.636687,-12213.398043,-3701.029710,842.705048
3239.637025,-9918.759623,-2072.576638,-536.266849
3239.637362,-9104.533087,-444.123565,1455.581446
3239.637700,-10658.965565,0.000000,1838.629195
3239.638037,-11177.109724,222.061783,-306.438199
3239.638374,-9770.718434,-148.041188,-689.485948
3239.638712,-7846.182985,0.000000,842.705048
3239.639049,-9474.636058,74.020594,2911.162892
3239.639386,-11843.295072,222.061783,2528.115143
3239.639724,-11029.068536,222.061783,153.219100
3239.640061,-9178.553681,1628.453072,-612.876398
3239.640398,-8438.347739,2516.700203,383.047749
3239.640736,-9992.780217,2072.576638,0.000000
3239.641073,-11177.109724,962.267725,-1378.971896
3239.641410,-8660.409521,1406.391290,-2681.334243
3239.641748,-8216.285956,1258.350101,153.219100
3239.642085,-9992.780217,148.041188,2987.772442
3239.642422,-11399.171507,-370.102971,1685.410096
3239.642760,-10955.047942,-962.267725,689.485948
3239.643097,-8956.491898,740.205942,0.000000
3239.643434,-9622.677246,888.247130,689.485948
3239.643772,-11769.274478,148.041188,0.000000
3239.644109,-10140.821405,-148.041188,-2068.457845
3239.644446,-8364.327145,-518.144159,-1072.533697
3239.644784,-8512.368333,-370.102971,1532.190996
3239.645121,-10584.944971,-740.205942,2604.724693
3239.645458,-12213.398043,-1998.556043,842.705048
3239.645796,-9844.739029,-1036.288319,-306.438199
3239.646133,-8882.471304,222.061783,76.609550
3239.646470,-10510.924376,518.144159,919.314598
3239.646808,-11621.233289,-740.205942,-766.095498
3239.647145,-10362.883188,-1480.411884,-1685.410096
3239.647482,-8290.306550,-1332.370696,-612.876398
3239.647820,-9252.574275,-1036.288319,2145.067394
3239.648157,-11103.089130,-2442.679609,1915.238745
3239.648494,-11917.315666,-2664.741391,-919.314598
3239.648832,-9400.615463,-2294.638420,-2221.676944
3239.649169,-8808.450710,-888.247130,-612.876398
3239.649506,-10436.903782,-740.205942,229.828649
3239.649844,-11103.089130,-1628.453072,-1225.752797
3239.650181,-9474.636058,-1332.370696,-2911.162892
3239.650518,-8438.347739,-296.082377,-383.047749
3239.650856,-9992.780217,-1258.350101,3217.601092
3239.651193,-11917.315666,-1184.329507,3830.477490
3239.651530,-11695.253884,-1850.514855,2068.457845
3239.651868,-9400.615463,1258.350101,459.657299
3239.652205,-9104.533087,2072.576638,2068.457845
3239.652542,-11325.150913,2072.576638,2221.676944
3239.652880,-10732.986159,1480.411884,536.266849
3239.653217,-8808.450710,1184.329507,-612.876398
3239.653555,-7772.162391,2294.638420,1455.581446
3239.653892,-10510.924376,2220.617826,2911.162892
3239.654229,-11473.192101,222.061783,1762.019645
3239.654567,-9770.718434,0.000000,-383.047749
3239.654904,-7772.162391,1628.453072,-612.876398
3239.655241,-9474.636058,1850.514855,0.000000
3239.655579,-11177.109724,444.123565,-1838.629195
3239.655916,-9844.739029,-962.267725,-3830.477490
3239.656253,-7846.182985,-1332.370696,-2374.896044
3239.656591,-7698.141797,-1258.350101,1072.533697
3239.656928,-10066.800811,-2590.720797,2374.896044
3239.657265,-11695.253884,-2960.823768,766.095498
3239.657603,-10214.842000,-2368.659014,-1378.971896
3239.657940,-8808.450710,-444.123565,-153.219100
3239.658277,-11251.130318,-444.123565,1608.800546
3239.658615,-12065.356855,-1554.432478,0.000000
3239.658952,-9992.780217,-1924.535449,-1072.533697
3239.659289,-8882.471304,-888.247130,766.095498
3239.659627,-9918.759623,-1184.329507,2834.553343
3239.659964,-11991.336260,-1554.432478,3294.210641
3239.660301,-12361.439231,-2146.597232,1072.533697
3239.660639,-10140.821405,-296.082377,-536.266849
3239.660976,-9326.594869,1110.308913,76.609550
3239.661313,-11325.150913,1406.391290,0.000000
3239.661651,-11325.150913,-518.144159,-1991.848295
3239.661988,-8882.471304,-74.020594,-3294.210641
3239.662325,-7846.182985,444.123565,-1149.143247
3239.662663,-10214.842000,0.000000,2145.067394
3239.663000,-11843.295072,-1184.329507,766.095498
3239.663337,-10288.862594,-1776.494261,-689.485948
3239.663675,-8586.388927,740.205942,-842.705048
3239.664012,-8734.430116,1406.391290,919.314598
3239.664349,-10732.986159,222.061783,1149.143247
3239.664687,-10140.821405,518.144159,-1149.143247
3239.665024,-8586.388927,814.226536,-153.219100
3239.665361,-8808.450710,1258.350101,2528.115143
3239.665699,-10584.944971,592.164754,4443.353888
3239.666036,-11991.336260,0.000000,3064.381992
3239.666373,-10140.821405,814.226536,995.924147
3239.666711,-8142.265362,2886.803174,766.095498
3239.667048,-10066.800811,2590.720797,2068.457845
3239.667385,-11769.274478,1406.391290,919.314598
3239.667723,-9992.780217,1110.308913,-2298.286494
3239.668060,-8290.306550,1702.473667,-1991.848295
3239.668397,-8734.430116,296.082377,459.657299
3239.668735,-9992.780217,-740.205942,1225.752797
3239.669072,-11473.192101,-1480.411884,-76.609550
3239.669409,-9548.656652,-1110.308913,-2145.067394
3239.669747,-8734.430116,370.102971,-2451.505594
3239.670084,-10362.883188,-74.020594,-1608.800546
3239.670421,-11695.253884,-2294.638420,-1455.581446
3239.670759,-9474.636058,-3034.844362,-2451.505594
3239.671096,-8290.306550,-2516.700203,536.266849
3239.671434,-9770.718434,-1850.514855,2298.286494
3239.671771,-12361.439231,-3552.988522,2451.505594
3239.672108,-11991.336260,-4145.153275,76.609550
3239.672446,-9548.656652,-1480.411884,-536.266849
3239.672783,-9474.636058,-666.185348,2068.457845
3239.673120,-11325.150913,-740.205942,1991.848295
3239.673458,-10955.047942,-814.226536,-1149.143247
3239.673795,-9474.636058,0.000000,-1072.533697
3239.674132,-7920.203579,666.185348,1149.143247
3239.674470,-10510.924376,0.000000,3907.087040
3239.674807,-11991.336260,-666.185348,2528.115143
3239.675144,-11103.089130,444.123565,459.657299
3239.675482,-8734.430116,1480.411884,-536.266849
3239.675819,-9030.512492,1776.494261,306.438199
3239.676156,-10436.903782,1184.329507,76.609550
3239.676494,-9918.759623,222.061783,-2374.896044
3239.676831,-7994.224174,888.247130,-1378.971896
3239.677168,-7772.162391,148.041188,0.000000
3239.677506,-9918.759623,-814.226536,2528.115143
3239.677843,-11769.274478,-1406.391290,1991.848295
3239.678180,-9548.656652,-962.267725,0.000000
3239.678518,-8290.306550,962.267725,229.828649
3239.678855,-10140.821405,666.185348,1302.362347
3239.679192,-11843.295072,-296.082377,0.000000
3239.679530,-9992.780217,0.000000,-1838.629195
3239.679867,-8068.244768,-740.205942,-766.095498
3239.680204,-9178.553681,-370.102971,2681.334243
3239.680542,-11473.192101,-1110.308913,2681.334243
3239.680879,-11547.212695,-1036.288319,1149.143247
3239.681216,-9844.739029,-592.164754,0.000000
3239.681554,-9326.594869,1110.308913,229.828649
3239.681891,-11399.171507,740.205942,612.876398
3239.682228,-12139.377449,-296.082377,-842.705048
3239.682566,-9622.677246,-1332.370696,-2451.505594
3239.682903,-8068.244768,-1036.288319,-766.095498
3239.683240,-9548.656652,-1480.411884,1532.190996
3239.683578,-11251.130318,-2368.659014,919.314598
3239.683915,-11547.212695,-2294.638420,-1685.410096
3239.684252,-9252.574275,-1110.308913,-2528.115143
3239.684590,-9400.615463,-740.205942,-229.828649
3239.684927,-10807.006753,-1480.411884,229.828649
3239.685264,-10732.986159,-1258.350101,-1991.848295
3239.685602,-8956.491898,-1036.288319,-2374.896044
3239.685939,-8512.368333,-740.205942,306.438199
3239.686276,-10066.800811,-1332.370696,3294.210641
3239.686614,-11695.253884,-1480.411884,2757.943793
3239.686951,-10881.027347,-444.123565,1225.752797
3239.687288,-9178.553681,1776.494261,229.828649
3239.687626,-9918.759623,2146.597232,1762.019645
3239.687963,-11399.171507,2294.638420,1302.362347
3239.688300,-10436.903782,1110.308913,153.219100
3239.688638,-8142.265362,2072.576638,0.000000
3239.688975,-8290.306550,2294.638420,1608.800546
3239.689312,-10658.965565,2072.576638,3217.601092
3239.689650,-11843.295072,592.164754,383.047749
3239.689987,-9918.759623,814.226536,-306.438199
3239.690325,-8660.409521,2072.576638,76.609550
3239.690662,-9474.636058,1924.535449,-153.219100
3239.690999,-11399.171507,296.082377,-1378.971896
3239.691337,-9770.718434,-370.102971,-3830.477490
3239.691674,-7698.141797,-962.267725,-1915.238745
3239.692011,-8216.285956,-1258.350101,1225.752797
3239.692349,-10732.986159,-2072.576638,2145.067394
3239.692686,-11695.253884,-2368.659014,842.705048
3239.693023,-10066.800811,-1702.473667,-1378.971896
3239.693361,-8808.450710,-444.123565,383.047749
3239.693698,-11029.068536,-814.226536,1838.629195
3239.694035,-11621.233289,-1998.556043,1149.143247
3239.694373,-9696.697840,-1850.514855,-306.438199
3239.694710,-8956.491898,-740.205942,1532.190996
3239.695047,-10362.883188,-740.205942,2834.553343
3239.695385,-12435.459826,-1924.535449,2068.457845
3239.695722,-12139.377449,-1332.370696,459.657299
3239.696059,-9252.574275,-148.041188,-842.705048
3239.696397,-9844.739029,1036.288319,459.657299
3239.696734,-11177.109724,444.123565,229.828649
3239.697071,-11029.068536,-666.185348,-2298.286494
3239.697409,-8882.471304,-370.102971,-2757.943793
3239.697746,-8586.388927,0.000000,-766.095498
3239.698083,-10140.821405,-592.164754,1225.752797
3239.698421,-11769.274478,-1924.535449,0.000000
3239.698758,-9770.718434,-1036.288319,-1608.800546
3239.699095,-8290.306550,-74.020594,-1149.143247
3239.699433,-9252.574275,296.082377,919.314598
3239.699770,-11103.089130,0.000000,229.828649
3239.700107,-10140.821405,-444.123565,-842.705048
3239.700445,-8142.265362,0.000000,-612.876398
3239.700782,-8364.327145,296.082377,2604.724693
3239.701119,-10881.027347,0.000000,4213.525239
3239.701457,-11769.274478,148.041188,2068.457845
3239.701794,-10584.944971,148.041188,0.000000
3239.702131,-8290.306550,2146.597232,766.095498
3239.702469,-10658.965565,2220.617826,2145.067394
3239.702806,-12065.356855,888.247130,153.219100
3239.703143,-9474.636058,518.144159,-3600.648841
3239.703481,-7846.182985,592.164754,-1532.190996
3239.703818,-9400.615463,222.061783,1225.752797
3239.704155,-10732.986159,-1554.432478,995.924147
3239.704493,-11177.109724,-1776.494261,-1072.533697
3239.704830,-9474.636058,-1110.308913,-1915.238745
3239.705167,-9474.636058,888.247130,-919.314598
3239.705505,-11251.130318,-962.267725,-459.657299
3239.705842,-11251.130318,-2812.782580,-1608.800546
3239.706179,-9104.533087,-2516.700203,-995.924147
3239.706517,-8734.430116,-2072.576638,1225.752797
3239.706854,-10140.821405,-2294.638420,3370.820191
3239.707191,-12287.418637,-3330.926739,1455.581446
3239.707529,-11325.150913,-3034.844362,229.828649
3239.707866,-9104.533087,-1332.370696,0.000000
3239.708203,-9474.636058,0.000000,2604.724693
3239.708541,-11547.212695,-370.102971,2068.457845
3239.708878,-10881.027347,-592.164754,-153.219100
3239.709216,-8882.471304,444.123565,-153.219100
3239.709553,-8512.368333,814.226536,2528.115143
3239.709890,-10955.047942,0.000000,3370.820191
3239.710228,-11843.295072,0.000000,1532.190996
3239.710565,-10140.821405,1258.350101,-536.266849
3239.710902,-8364.327145,2072.576638,-306.438199
3239.711240,-9400.615463,2146.597232,229.828649
3239.711577,-11029.068536,814.226536,229.828649
3239.711914,-10066.800811,296.082377,-2068.457845
3239.712252,-8068.244768,1480.411884,-1838.629195
3239.712589,-8660.409521,1036.288319,919.314598
3239.712926,-11251.130318,-592.164754,2068.457845
3239.713264,-10732.986159,-1110.308913,76.609550
3239.713601,-9326.594869,0.000000,-306.438199
3239.713938,-8882.471304,1406.391290,459.657299
3239.714276,-10510.924376,518.144159,766.095498
3239.714613,-11547.212695,-370.102971,-383.047749
3239.714950,-9252.574275,-518.144159,-2221.676944
3239.715288,-8586.388927,0.000000,229.828649
3239.715625,-9770.718434,-148.041188,2068.457845
3239.715962,-11399.171507,-1258.350101,1072.533697
3239.716300,-10732.986159,-1110.308913,-76.609550
3239.716637,-9030.512492,-222.061783,-995.924147
3239.716974,-8956.491898,1036.288319,536.266849
3239.717312,-11547.212695,518.144159,0.000000
3239.717649,-11621.233289,-1184.329507,-1378.971896
3239.717986,-9326.594869,-592.164754,-2221.676944
3239.718324,-8512.368333,-740.205942,306.438199
3239.718661,-10066.800811,-1480.411884,1762.019645
3239.718998,-11769.274478,-2886.803174,459.657299
3239.719336,-10955.047942,-2072.576638,-1608.800546
3239.719673,-8956.491898,-1332.370696,-2068.457845
3239.720010,-9548.656652,-518.144159,306.438199
3239.720348,-11547.212695,-1702.473667,229.828649
3239.720685,-11103.089130,-1628.453072,-1302.362347
3239.721022,-8882.471304,-1480.411884,-1378.971896
3239.721360,-8586.388927,0.000000,1302.362347
3239.721697,-11029.068536,-1850.514855,3677.258390
3239.722034,-11621.233289,-1776.494261,2528.115143
3239.722372,-9918.759623,-296.082377,1378.971896
3239.722709,-9104.533087,1554.432478,1532.190996
3239.723046,-10214.842000,1628.453072,2145.067394
3239.723384,-11547.212695,1406.391290,1608.800546
3239.723721,-10066.800811,1036.288319,-229.828649
3239.724058,-7698.141797,1776.494261,612.876398
3239.724396,-8808.450710,1554.432478,2068.457845
3239.724733,-11103.089130,962.267725,3064.381992
3239.725070,-11029.068536,592.164754,689.485948
3239.725408,-9104.533087,222.061783,0.000000
3239.725745,-8068.244768,2072.576638,-383.047749
3239.726082,-9548.656652,1110.308913,-459.657299
3239.726420,-11695.253884,444.123565,-2374.896044
3239.726757,-9178.553681,-666.185348,-3677.258390
3239.727095,-7550.100608,-740.205942,-1378.971896
3239.727432,-8734.430116,-1628.453072,1915.238745
3239.727769,-11029.068536,-2442.679609,1302.362347
3239.728107,-11547.212695,-1924.535449,-689.485948
3239.728444,-9696.697840,-1110.308913,-1532.190996
3239.728781,-9400.615463,-296.082377,689.485948
3239.729119,-11547.212695,-814.226536,1455.581446
3239.729456,-11695.253884,-1628.453072,459.657299
3239.729793,-9918.759623,-1332.370696,-1149.143247
3239.730131,-9030.512492,-518.144159,536.266849
3239.730468,-10436.903782,-740.205942,2528.115143
3239.730805,-12583.501014,-1628.453072,2068.457845
3239.731143,-11547.212695,-1184.329507,-76.609550
3239.731480,-9474.636058,-74.020594,-459.657299
3239.731817,-9770.718434,1184.329507,459.657299
3239.732155,-11473.192101,0.000000,-612.876398
3239.732492,-10881.027347,-444.123565,-2757.943793
3239.732829,-7846.182985,-666.185348,-2451.505594
3239.733167,-8290.306550,-296.082377,383.047749
3239.733504,-11029.068536,-592.164754,2145.067394
3239.733841,-11621.233289,-1480.411884,-459.657299
3239.734179,-9474.636058,-1480.411884,-1838.629195
3239.734516,-7994.224174,370.102971,-612.876398
3239.734853,-9622.677246,592.164754,1608.800546
3239.735191,-11177.109724,148.041188,689.485948
3239.735528,-9474.636058,-444.123565,-1455.581446
3239.735865,-8290.306550,0.000000,1149.143247
3239.736203,-9326.594869,666.185348,3983.696590
3239.736540,-11547.212695,74.020594,4136.915689
3239.736877,-11621.233289,0.000000,1762.019645
3239.737215,-9474.636058,814.226536,689.485948
3239.737552,-8734.430116,2590.720797,1532.190996
3239.737889,-10955.047942,1702.473667,1685.410096
3239.738227,-11547.212695,1406.391290,0.000000
3239.738564,-9326.594869,444.123565,-2604.724693
3239.738901,-8290.306550,888.247130,-612.876398
3239.739239,-9178.553681,296.082377,1838.629195
3239.739576,-10584.944971,-1554.432478,459.657299
3239.739913,-10584.944971,-1332.370696,-919.314598
3239.740251,-9104.533087,-740.205942,-1455.581446
3239.740588,-9104.533087,814.226536,-689.485948
3239.740925,-10881.027347,-962.267725,-1532.190996
3239.741263,-11547.212695,-1776.494261,-1915.238745
3239.741600,-8882.471304,-2590.720797,-1608.800546
3239.741937,-8068.244768,-1776.494261,842.705048
3239.742275,-10362.883188,-2442.679609,2681.334243
3239.742612,-12435.459826,-3404.947333,1532.190996
3239.742949,-10807.006753,-3034.844362,-306.438199
3239.743287,-9474.636058,-1184.329507,-229.828649
3239.743624,-10066.800811,296.082377,2757.943793
3239.743961,-11695.253884,0.000000,766.095498
3239.744299,-10881.027347,-962.267725,-1225.752797
3239.744636,-8660.409521,296.082377,-306.438199
3239.744973,-9104.533087,1036.288319,2757.943793
3239.745311,-11325.150913,148.041188,2681.334243
3239.745648,-11991.336260,-148.041188,536.266849
3239.745986,-9992.780217,592.164754,-766.095498
3239.746323,-8364.327145,1998.556043,-306.438199
3239.746660,-9622.677246,1850.514855,306.438199
3239.746998,-10658.965565,444.123565,-919.314598
3239.747335,-9474.636058,0.000000,-3294.210641
3239.747672,-8068.244768,814.226536,-1762.019645
3239.748010,-8734.430116,962.267725,995.924147
3239.748347,-11103.089130,-1480.411884,2451.505594
3239.748684,-10362.883188,-1258.350101,0.000000
3239.749022,-9030.512492,0.000000,-536.266849
3239.749359,-9474.636058,1110.308913,919.314598
3239.749696,-11177.109724,222.061783,306.438199
3239.750034,-11843.295072,-296.082377,-612.876398
3239.750371,-9548.656652,-1258.350101,-1455.581446
3239.750708,-7920.203579,0.000000,153.219100
3239.751046,-9918.759623,-592.164754,3217.601092
3239.751383,-12065.356855,-1036.288319,2068.457845
3239.751721,-11029.068536,-1184.329507,76.609550
3239.752058,-9770.718434,-74.020594,76.609550
3239.752395,-9844.739029,1702.473667,689.485948
3239.752733,-11843.295072,74.020594,536.266849
3239.753070,-11325.150913,-962.267725,-1532.190996
3239.753407,-8068.244768,-962.267725,-1838.629195
3239.753745,-8364.327145,-1110.308913,1378.971896
3239.754082,-10732.986159,-1702.473667,2834.553343
3239.754420,-11769.274478,-3108.864956,536.266849
3239.754757,-10362.883188,-1998.556043,-1302.362347
3239.755094,-8586.388927,-814.226536,-1991.848295
3239.755432,-9622.677246,-518.144159,689.485948
3239.755769,-11177.109724,-1628.453072,-229.828649
3239.756106,-9918.759623,-1332.370696,-1991.848295
3239.756444,-8142.265362,-592.164754,-1455.581446
3239.756781,-8956.491898,-592.164754,1838.629195
3239.757119,-11621.233289,-1628.453072,3524.039291
3239.757456,-11843.295072,-1850.514855,2374.896044
3239.757793,-9992.780217,370.102971,919.314598
3239.758131,-9030.512492,1850.514855,1532.190996
3239.758468,-10584.944971,1924.535449,2145.067394
3239.758805,-11695.253884,1702.473667,842.705048
3239.759143,-9992.780217,1110.308913,-1302.362347
3239.759480,-8142.265362,1998.556043,0.000000
3239.759818,-9326.594869,2294.638420,1991.848295
3239.760155,-11473.192101,518.144159,1762.019645
3239.760492,-10510.924376,0.000000,-536.266849
3239.760830,-8364.327145,1184.329507,-689.485948
3239.761167,-9400.615463,1998.556043,0.000000
3239.761504,-10140.821405,1406.391290,-766.095498
3239.761842,-11177.109724,296.082377,-2987.772442
3239.762179,-9474.636058,-814.226536,-3753.867940
3239.762517,-7624.121203,-814.226536,-1455.581446
3239.762854,-9400.615463,-1776.494261,2528.115143
3239.763191,-11399.171507,-3182.885551,1455.581446
3239.763529,-9844.739029,-2220.617826,-842.705048
3239.763866,-9622.677246,-666.185348,-459.657299
3239.764203,-10214.842000,222.061783,995.924147
3239.764541,-12287.418637,-1036.288319,612.876398
3239.764878,-11251.130318,-1776.494261,-229.828649
3239.765216,-8660.409521,-888.247130,-306.438199
3239.765553,-8956.491898,0.000000,2681.334243
3239.765890,-11843.295072,-1184.329507,3677.258390
3239.766228,-12213.398043,-2146.597232,1915.238745
3239.766565,-10732.986159,-888.247130,0.000000
3239.766902,-9030.512492,518.144159,76.609550
3239.767240,-9918.759623,1184.329507,689.485948
3239.767577,-11621.233289,-222.061783,-612.876398
3239.767915,-9992.780217,0.000000,-2911.162892
3239.768252,-8068.244768,370.102971,-2068.457845
3239.768589,-9474.636058,148.041188,766.095498
3239.768927,-11769.274478,-740.205942,2068.457845
3239.769264,-11399.171507,-1702.473667,229.828649
3239.769602,-8882.471304,-370.102971,-689.485948
3239.769939,-8364.327145,74.020594,766.095498
3239.770276,-10362.883188,814.226536,1378.971896
3239.770614,-11103.089130,444.123565,-536.266849
3239.770951,-9400.615463,-296.082377,-1532.190996
3239.771288,-7994.224174,1258.350101,459.657299
3239.771626,-9326.594869,0.000000,3907.087040
3239.771963,-11695.253884,0.000000,4366.744339
3239.772301,-10807.006753,148.041188,1149.143247
3239.772638,-9474.636058,888.247130,689.485948
3239.772975,-9178.553681,2442.679609,1302.362347
3239.773313,-10658.965565,1406.391290,1149.143247
3239.773650,-11325.150913,962.267725,-995.924147
3239.773987,-8660.409521,296.082377,-2834.553343
3239.774325,-7920.203579,592.164754,-153.219100
3239.774662,-9696.697840,-370.102971,2145.067394
3239.775000,-11029.068536,-2220.617826,689.485948
3239.775337,-10140.821405,-2294.638420,-1455.581446
3239.775674,-8808.450710,-962.267725,-1302.362347
3239.776012,-9326.594869,0.000000,-229.828649
3239.776349,-11547.212695,-1480.411884,-1532.190996
3239.776686,-10955.047942,-1998.556043,-2451.505594
3239.777024,-8438.347739,-2294.638420,-2145.067394
3239.777361,-8808.450710,-1924.535449,1532.190996
3239.777699,-11251.130318,-2516.700203,2757.943793
3239.778036,-12213.398043,-3182.885551,842.705048
3239.778373,-11103.089130,-2146.597232,-383.047749
3239.778711,-9326.594869,-740.205942,612.876398
3239.779048,-10732.986159,0.000000,1838.629195
3239.779385,-11843.295072,-296.082377,766.095498
3239.779723,-10362.883188,-222.061783,-842.705048
3239.780060,-8290.306550,518.144159,76.609550
3239.780398,-9178.553681,444.123565,2911.162892
3239.780735,-11473.192101,0.000000,3600.648841
3239.781072,-12065.356855,0.000000,766.095498
3239.781410,-9548.656652,1036.288319,0.000000
3239.781747,-9252.574275,2146.597232,229.828649
3239.782084,-9770.718434,1998.556043,76.609550
3239.782422,-10288.862594,888.247130,-1072.533697
3239.782759,-9178.553681,296.082377,-2911.162892
3239.783097,-7328.038826,1110.308913,-995.924147
3239.783434,-9252.574275,148.041188,1608.800546
3239.783771,-11399.171507,-814.226536,2298.286494
3239.784109,-10066.800811,-814.226536,153.219100
3239.784446,-8808.450710,296.082377,0.000000
3239.784783,-9178.553681,1776.494261,612.876398
3239.785121,-11103.089130,518.144159,689.485948
3239.785458,-11029.068536,296.082377,-383.047749
3239.785796,-8882.471304,0.000000,-1762.019645
3239.786133,-8364.327145,814.226536,1225.752797
3239.786470,-10955.047942,0.000000,2451.505594
3239.786808,-11843.295072,-1702.473667,1302.362347
3239.787145,-10436.903782,-1332.370696,-306.438199
3239.787482,-9326.594869,444.123565,306.438199
3239.787820,-9548.656652,2072.576638,612.876398
3239.788157,-12139.377449,296.082377,-306.438199
3239.788495,-11473.192101,-740.205942,-2451.505594
3239.788832,-8142.265362,-444.123565,-1838.629195
3239.789169,-8512.368333,-666.185348,1455.581446
3239.789507,-11177.109724,-2146.597232,2681.334243
3239.789844,-11621.233289,-3627.009116,-229.828649
3239.790181,-9992.780217,-1850.514855,-1838.629195
3239.790519,-8956.491898,-1036.288319,-919.314598
3239.790856,-10362.883188,-1184.329507,153.219100
3239.791194,-11769.274478,-1850.514855,-1378.971896
3239.791531,-9474.636058,-2146.597232,-2681.334243
3239.791868,-7624.121203,-962.267725,-919.314598
3239.792206,-8734.430116,-1776.494261,2451.505594
3239.792543,-11547.212695,-2368.659014,4060.306139
3239.792880,-11473.192101,-2146.597232,2221.676944
3239.793218,-9770.718434,0.000000,842.705048
3239.793555,-9622.677246,2146.597232,1915.238745
3239.793893,-11473.192101,1776.494261,2451.505594
3239.794230,-11029.068536,814.226536,536.266849
3239.794567,-9030.512492,1258.350101,-919.314598
3239.794905,-7920.203579,2146.597232,536.266849
3239.795242,-10066.800811,1702.473667,2911.162892
3239.795580,-12139.377449,740.205942,1915.238745
3239.795917,-10362.883188,148.041188,-459.657299
3239.796254,-8808.450710,1258.350101,-459.657299
3239.796592,-9252.574275,2072.576638,0.000000
3239.796929,-10732.986159,1036.288319,-919.314598
3239.797266,-10807.006753,0.000000,-2681.334243
3239.797604,-7994.224174,-962.267725,-2987.772442
3239.797941,-7846.182985,-518.144159,229.828649
3239.798279,-9992.780217,-2072.576638,2987.772442
3239.798616,-11251.130318,-3108.864956,919.314598
3239.798953,-9918.759623,-2368.659014,-842.705048
3239.799291,-8956.491898,-740.205942,306.438199
3239.799628,-9918.759623,-444.123565,1302.362347
3239.799965,-11621.233289,-814.226536,306.438199
3239.800303,-11251.130318,-1036.288319,-689.485948
3239.800640,-8734.430116,-370.102971,-766.095498
3239.800978,-9178.553681,-888.247130,2145.067394
3239.801315,-11325.150913,-1332.370696,3217.601092
3239.801652,-11917.315666,-2368.659014,1838.629195
3239.801990,-10140.821405,-296.082377,-229.828649
3239.802327,-9474.636058,814.226536,0.000000
3239.802664,-10807.006753,740.205942,919.314598
3239.803002,-11621.233289,-666.185348,-1149.143247
3239.803339,-9474.636058,-444.123565,-3140.991542
3239.803677,-7846.182985,370.102971,-1608.800546
3239.804014,-9474.636058,0.000000,1455.581446
3239.804351,-11473.192101,-2072.576638,1225.752797
3239.804689,-10881.027347,-2220.617826,-766.095498
3239.805026,-9252.574275,0.000000,-766.095498
3239.805363,-8660.409521,74.020594,76.609550
3239.805701,-10658.965565,518.144159,612.876398
3239.806038,-10510.924376,-222.061783,0.000000
3239.806376,-8882.471304,-444.123565,-766.095498
3239.806713,-7994.224174,814.226536,2451.505594
3239.807050,-10214.842000,0.000000,4903.011187
3239.807388,-11843.295072,-74.020594,3830.477490
3239.807725,-10584.944971,888.247130,842.705048
3239.808062,-8586.388927,2590.720797,766.095498
3239.808400,-9622.677246,2812.782580,2068.457845
3239.808737,-11399.171507,1628.453072,766.095498
3239.809075,-10658.965565,1924.535449,-1838.629195
3239.809412,-8438.347739,1258.350101,-2757.943793
3239.809749,-8438.347739,888.247130,0.000000
3239.810087,-10140.821405,0.000000,1532.190996
3239.810424,-11473.192101,-1332.370696,0.000000
3239.810761,-9770.718434,-814.226536,-1302.362347
3239.811099,-8882.471304,74.020594,-1072.533697
3239.811436,-10288.862594,814.226536,-153.219100
3239.811774,-11695.253884,-1184.329507,-1915.238745
3239.812111,-10510.924376,-1554.432478,-2145.067394
3239.812448,-8142.265362,-1924.535449,-1378.971896
3239.812786,-8956.491898,-2072.576638,1915.238745
3239.813123,-11473.192101,-2886.803174,2911.162892
3239.813460,-11251.130318,-3330.926739,0.000000
3239.813798,-9844.739029,-1850.514855,-995.924147
3239.814135,-9548.656652,-888.247130,536.266849
3239.814473,-10732.986159,0.000000,842.705048
3239.814810,-11621.233289,-962.267725,-153.219100
3239.815147,-9992.780217,-518.144159,-1608.800546
3239.815485,-8290.306550,74.020594,536.266849
3239.815822,-10140.821405,74.020594,3294.210641
3239.816159,-11843.295072,-222.061783,2604.724693
3239.816497,-11769.274478,-592.164754,0.000000
3239.816834,-9548.656652,1184.329507,-612.876398
3239.817172,-8660.409521,1184.329507,153.219100
3239.817509,-10214.842000,1184.329507,306.438199
3239.817846,-10584.944971,74.020594,-1991.848295
3239.818184,-8882.471304,0.000000,-2374.896044
3239.818521,-7920.203579,888.247130,-306.438199
3239.818858,-9992.780217,-296.082377,1915.238745
3239.819196,-11695.253884,-1110.308913,1991.848295
3239.819533,-9548.656652,-1258.350101,0.000000
3239.819871,-8216.285956,592.164754,536.266849
3239.820208,-9548.656652,592.164754,2298.286494
3239.820545,-11325.150913,592.164754,766.095498
3239.820883,-10510.924376,-740.205942,-689.485948
3239.821220,-8956.491898,-148.041188,-459.657299
3239.821558,-7846.182985,74.020594,2298.286494
3239.821895,-11325.150913,0.000000,3600.648841
3239.822232,-12065.356855,-1554.432478,1685.410096
3239.822570,-9622.677246,-444.123565,-306.438199
3239.822907,-8882.471304,592.164754,689.485948
3239.823244,-10436.903782,1776.494261,1072.533697
3239.823582,-11917.315666,74.020594,-306.438199
3239.823919,-10584.944971,-592.164754,-2298.286494
3239.824257,-7328.038826,-592.164754,-1685.410096
3239.824594,-9252.574275,-592.164754,1532.190996
3239.824931,-11917.315666,-1628.453072,2068.457845
3239.825269,-11695.253884,-2960.823768,-919.314598
3239.825606,-9474.636058,-1184.329507,-2374.896044
3239.825943,-8956.491898,-1036.288319,-995.924147
3239.826281,-10584.944971,-1184.329507,0.000000
3239.826618,-11177.109724,-2146.597232,-1532.190996
3239.826956,-9326.594869,-1332.370696,-2298.286494
3239.827293,-8068.244768,-666.185348,-766.095498
3239.827630,-9992.780217,-1332.370696,2681.334243
3239.827968,-12213.398043,-1406.391290,2757.943793
3239.828305,-11399.171507,-2368.659014,1072.533697
3239.828642,-8734.430116,592.164754,306.438199
3239.828980,-9548.656652,1554.432478,1991.848295
3239.829317,-11473.192101,1628.453072,1991.848295
3239.829655,-10732.986159,518.144159,-919.314598
3239.829992,-8808.450710,740.205942,-1072.533697
3239.830329,-8290.306550,1628.453072,919.314598
3239.830667,-10362.883188,1850.514855,2145.067394
3239.831004,-11917.315666,-518.144159,1685.410096
3239.831341,-9400.615463,962.267725,-1608.800546
3239.831679,-8364.327145,1184.329507,-76.609550
3239.832016,-9918.759623,2220.617826,612.876398
3239.832354,-10955.047942,1036.288319,-1302.362347
3239.832691,-10732.986159,0.000000,-2451.505594
3239.833028,-7920.203579,-370.102971,-2834.553343
3239.833366,-7698.141797,-666.185348,919.314598
3239.833703,-10881.027347,-1850.514855,2451.505594
3239.834040,-10955.047942,-2738.761985,612.876398
3239.834378,-9770.718434,-1036.288319,-612.876398
3239.834715,-9252.574275,222.061783,689.485948
3239.835053,-10732.986159,370.102971,1762.019645
3239.835390,-12435.459826,-1554.432478,919.314598
3239.835727,-10436.903782,-1110.308913,-306.438199
3239.836065,-7994.224174,-148.041188,612.876398
3239.836402,-9622.677246,-296.082377,2911.162892
3239.836739,-12065.356855,-962.267725,2911.162892
3239.837077,-11769.274478,-2146.597232,383.047749
3239.837414,-9622.677246,222.061783,-536.266849
3239.837752,-9252.574275,592.164754,689.485948
3239.838089,-11103.089130,518.144159,383.047749
3239.838426,-11177.109724,-1554.432478,-1302.362347
3239.838764,-8734.430116,-370.102971,-2298.286494
3239.839101,-7698.141797,0.000000,-1302.362347
3239.839438,-10214.842000,-666.185348,1762.019645
3239.839776,-11843.295072,-2294.638420,612.876398
3239.840113,-10436.903782,-2294.638420,-1149.143247
3239.840451,-8512.368333,-444.123565,-842.705048
3239.840788,-9104.533087,0.000000,1302.362347
3239.841125,-11843.295072,-444.123565,919.314598
3239.841463,-10510.924376,-962.267725,-1302.362347
3239.841800,-8364.327145,-740.205942,-383.047749
3239.842137,-8216.285956,74.020594,1991.848295
3239.842475,-10584.944971,-148.041188,3753.867940
3239.842812,-11843.295072,-962.267725,2451.505594
3239.843150,-9844.739029,592.164754,-229.828649
3239.843487,-8068.244768,2146.597232,0.000000
3239.843824,-10584.944971,2368.659014,1225.752797
3239.844162,-11177.109724,1110.308913,0.000000
3239.844499,-10584.944971,1184.329507,-2528.115143
3239.844837,-8438.347739,1110.308913,-2451.505594
