#time,accel_x,accel_y,accel_z
3391.115617,-10066.800811,740.205942,-612.876398
3391.115954,-9474.636058,222.061783,-459.657299
3391.116292,-8808.450710,74.020594,-1225.752797
3391.116629,-9474.636058,296.082377,-536.266849
3391.116967,-9400.615463,518.144159,-1302.362347
3391.117304,-9474.636058,-888.247130,-1762.019645
3391.117642,-10214.842000,-666.185348,-612.876398
3391.117979,-10288.862594,-1480.411884,-153.219100
3391.118317,-9918.759623,-1184.329507,0.000000
3391.118654,-9992.780217,-2516.700203,766.095498
3391.118992,-10288.862594,-1924.535449,1838.629195
3391.119329,-10140.821405,-1776.494261,1455.581446
3391.119667,-10140.821405,-888.247130,1072.533697
3391.120004,-10510.924376,-666.185348,1072.533697
3391.120342,-11843.295072,-1406.391290,1072.533697
3391.120679,-11103.089130,-444.123565,689.485948
3391.121017,-9918.759623,-296.082377,689.485948
3391.121354,-9400.615463,-222.061783,1378.971896
3391.121692,-10807.006753,-814.226536,1532.190996
3391.122029,-10658.965565,-888.247130,842.705048
3391.122367,-9844.739029,148.041188,689.485948
3391.122704,-9548.656652,0.000000,76.609550
3391.123042,-9844.739029,-444.123565,612.876398
3391.123379,-10436.903782,-1406.391290,766.095498
3391.123717,-10140.821405,-444.123565,459.657299
3391.124054,-9622.677246,-1184.329507,76.609550
3391.124392,-8734.430116,-814.226536,-76.609550
3391.124729,-9844.739029,-1480.411884,842.705048
3391.125067,-9918.759623,-2590.720797,1302.362347
3391.125404,-9622.677246,-1480.411884,689.485948
3391.125742,-9326.594869,-1258.350101,2068.457845
3391.126079,-9548.656652,-1036.288319,1685.410096
3391.126417,-9696.697840,-962.267725,2528.115143
3391.126754,-10658.965565,-1850.514855,2987.772442
3391.127092,-10066.800811,-740.205942,3370.820191
3391.127429,-9326.594869,-1036.288319,4290.134789
3391.127767,-10140.821405,-296.082377,5362.668486
3391.128104,-10881.027347,-740.205942,4749.792088
3391.128442,-11769.274478,-592.164754,3600.648841
3391.128779,-10881.027347,-1036.288319,3370.820191
3391.129117,-9400.615463,-1184.329507,3524.039291
3391.129454,-10436.903782,-296.082377,3294.210641
3391.129792,-9992.780217,-1406.391290,1455.581446
3391.130129,-9474.636058,-2072.576638,0.000000
3391.130467,-9622.677246,-3775.050304,229.828649
3391.130804,-9474.636058,-2960.823768,459.657299
3391.131142,-8882.471304,-3701.029710,1072.533697
3391.131479,-9696.697840,-3627.009116,459.657299
3391.131817,-9844.739029,-4219.173869,919.314598
3391.132154,-9918.759623,-4885.359217,1455.581446
3391.132492,-9548.656652,-4959.379811,2528.115143
3391.132829,-9844.739029,-4441.235652,4060.306139
3391.133167,-10436.903782,-4219.173869,3140.991542
3391.133504,-10732.986159,-3330.926739,2145.067394
3391.133842,-11103.089130,-3627.009116,2604.724693
3391.134179,-10510.924376,-3627.009116,1915.238745
3391.134517,-9548.656652,-4737.318029,2834.553343
3391.134854,-9696.697840,-3552.988522,4443.353888
3391.135192,-10140.821405,-2812.782580,3370.820191
3391.135529,-11769.274478,-1406.391290,4596.572988
3391.135867,-11917.315666,-666.185348,2298.286494
3391.136204,-9918.759623,-148.041188,1149.143247
3391.136542,-9992.780217,0.000000,919.314598
3391.136879,-9548.656652,-1480.411884,1225.752797
3391.137217,-9252.574275,-2072.576638,2145.067394
3391.137554,-9474.636058,-1998.556043,2681.334243
3391.137892,-9844.739029,-2072.576638,1762.019645
3391.138229,-10214.842000,-2146.597232,1532.190996
3391.138567,-9030.512492,-2960.823768,1762.019645
3391.138904,-8142.265362,-2812.782580,2451.505594
3391.139242,-9770.718434,-2220.617826,3677.258390
3391.139579,-10436.903782,-592.164754,3140.991542
3391.139917,-10214.842000,-74.020594,766.095498
3391.140254,-10732.986159,-592.164754,689.485948
3391.140592,-10732.986159,-2886.803174,1532.190996
3391.140929,-9104.533087,-2960.823768,2604.724693
3391.141267,-8142.265362,-2664.741391,3677.258390
3391.141604,-8438.347739,-2368.659014,4443.353888
3391.141942,-10436.903782,-2664.741391,4213.525239
3391.142279,-11399.171507,-2072.576638,4213.525239
3391.142617,-11029.068536,-518.144159,3524.039291
3391.142954,-11177.109724,888.247130,2145.067394
3391.143292,-11103.089130,888.247130,-229.828649
3391.143629,-10807.006753,-518.144159,-995.924147
3391.143967,-9474.636058,-3034.844362,0.000000
3391.144304,-7105.977043,-3701.029710,2451.505594
3391.144642,-10214.842000,-5181.441594,5439.278036
3391.144979,-11621.233289,-4663.297435,3907.087040
3391.145317,-11029.068536,-2738.761985,-153.219100
3391.145654,-9474.636058,-2960.823768,-229.828649
3391.145992,-8660.409521,-3404.947333,1608.800546
3391.146329,-10066.800811,-3701.029710,2298.286494
3391.146667,-10510.924376,-2368.659014,2068.457845
3391.147004,-10362.883188,-2220.617826,919.314598
3391.147342,-11991.336260,-2368.659014,1378.971896
3391.147679,-11325.150913,-3404.947333,1608.800546
3391.148017,-9030.512492,-3552.988522,2528.115143
3391.148354,-8808.450710,-4219.173869,3753.867940
3391.148692,-8586.388927,-3849.070898,3907.087040
3391.149029,-8808.450710,-1184.329507,5975.544884
3391.149367,-10658.965565,-592.164754,5822.325785
3391.149704,-12361.439231,444.123565,4136.915689
3391.150042,-12213.398043,1184.329507,2145.067394
3391.150379,-11325.150913,1480.411884,2757.943793
3391.150717,-9992.780217,740.205942,2834.553343
3391.151054,-9326.594869,-962.267725,2604.724693
3391.151392,-8290.306550,-518.144159,1532.190996
3391.151729,-8660.409521,-2294.638420,842.705048
3391.152067,-9992.780217,-2590.720797,1838.629195
3391.152404,-9252.574275,-3478.967927,2298.286494
3391.152742,-8290.306550,-3701.029710,3140.991542
3391.153079,-9030.512492,-1702.473667,3753.867940
3391.153417,-10510.924376,148.041188,1378.971896
3391.153754,-11621.233289,74.020594,-1608.800546
3391.154092,-11325.150913,-2072.576638,-1225.752797
3391.154429,-11325.150913,-3997.112087,2145.067394
3391.154767,-9474.636058,-3849.070898,2221.676944
3391.155104,-8068.244768,-4367.215058,3370.820191
3391.155442,-10140.821405,-4663.297435,4213.525239
3391.155779,-9400.615463,-6587.832884,4749.792088
3391.156117,-9918.759623,-5403.503377,4290.134789
3391.156454,-10955.047942,-2146.597232,4979.620737
3391.156792,-10955.047942,296.082377,2987.772442
3391.157129,-12805.562797,-148.041188,1149.143247
3391.157467,-12361.439231,-2220.617826,0.000000
3391.157804,-10288.862594,-2590.720797,1072.533697
3391.158142,-8660.409521,-1776.494261,2145.067394
3391.158479,-8142.265362,-2516.700203,1991.848295
3391.158817,-11547.212695,-4737.318029,1455.581446
3391.159154,-11029.068536,-5699.585753,1149.143247
3391.159492,-7698.141797,-4219.173869,842.705048
3391.159829,-7698.141797,-2738.761985,2987.772442
3391.160167,-10955.047942,-3775.050304,3677.258390
3391.160504,-12213.398043,-3775.050304,1915.238745
3391.160842,-9400.615463,-1184.329507,1532.190996
3391.161179,-8882.471304,-1406.391290,4290.134789
3391.161517,-11473.192101,-2072.576638,5515.887586
3391.161854,-12805.562797,-2886.803174,3064.381992
3391.162192,-9474.636058,-2368.659014,1532.190996
3391.162529,-7105.977043,-2294.638420,2987.772442
3391.162867,-8142.265362,-2812.782580,5592.497135
3391.163204,-10066.800811,-2738.761985,3677.258390
3391.163542,-7772.162391,-1258.350101,766.095498
3391.163879,-8734.430116,0.000000,3370.820191
3391.164217,-12139.377449,444.123565,4673.182538
3391.164554,-13175.665768,148.041188,2987.772442
3391.164892,-10807.006753,1850.514855,842.705048
3391.165229,-9548.656652,-666.185348,1149.143247
3391.165567,-10807.006753,-1554.432478,2451.505594
3391.165904,-9844.739029,-4293.194464,1762.019645
3391.166242,-6883.915261,-3923.091493,3677.258390
3391.166579,-8364.327145,-4737.318029,2987.772442
3391.166917,-11399.171507,-4441.235652,842.705048
3391.167254,-10584.944971,-3627.009116,-229.828649
3391.167592,-10066.800811,-3997.112087,1072.533697
3391.167929,-9622.677246,-2960.823768,995.924147
3391.168267,-10140.821405,-3552.988522,1762.019645
3391.168604,-10955.047942,-1850.514855,2757.943793
3391.168942,-10955.047942,-2590.720797,2451.505594
3391.169279,-11325.150913,-2738.761985,1991.848295
3391.169617,-10658.965565,-3552.988522,1838.629195
3391.169954,-10362.883188,-5403.503377,3064.381992
3391.170292,-9252.574275,-4737.318029,5286.058936
3391.170629,-8586.388927,-3256.906145,4979.620737
3391.170967,-9548.656652,-1850.514855,4443.353888
3391.171304,-11251.130318,-1554.432478,2298.286494
3391.171642,-11917.315666,0.000000,1991.848295
3391.171979,-12435.459826,592.164754,1608.800546
3391.172319,-10807.006753,148.041188,0.000000
3391.172656,-8216.285956,-370.102971,-383.047749
3391.172993,-8660.409521,-592.164754,1072.533697
3391.173330,-9326.594869,-1628.453072,0.000000
3391.173668,-8660.409521,-1776.494261,-1149.143247
3391.174005,-8882.471304,-1480.411884,1072.533697
3391.174342,-9400.615463,-2812.782580,1455.581446
3391.174679,-10288.862594,-3108.864956,2221.676944
3391.175017,-11177.109724,296.082377,3524.039291
3391.175354,-10066.800811,1850.514855,1685.410096
3391.175691,-10658.965565,1332.370696,0.000000
3391.176028,-10807.006753,1110.308913,-383.047749
3391.176365,-10436.903782,0.000000,1532.190996
3391.176703,-10362.883188,-592.164754,3524.039291
3391.177040,-9326.594869,-666.185348,3064.381992
3391.177377,-8660.409521,518.144159,1149.143247
3391.177714,-10807.006753,-962.267725,229.828649
3391.178052,-10658.965565,-74.020594,0.000000
3391.178389,-7772.162391,-666.185348,-1149.143247
3391.178726,-9844.739029,74.020594,1378.971896
3391.179063,-12213.398043,1036.288319,1149.143247
3391.179401,-10732.986159,814.226536,-2374.896044
3391.179738,-10436.903782,-296.082377,-1915.238745
3391.180075,-9104.533087,-3256.906145,-306.438199
3391.180412,-9992.780217,-2146.597232,1378.971896
3391.180750,-10732.986159,-2072.576638,0.000000
3391.181087,-10362.883188,-4071.132681,-2451.505594
3391.181424,-9178.553681,-4145.153275,-2528.115143
3391.181761,-8586.388927,-3404.947333,-995.924147
3391.182098,-8586.388927,-3108.864956,842.705048
3391.182436,-9474.636058,-2886.803174,536.266849
3391.182773,-11843.295072,-1036.288319,919.314598
3391.183110,-12509.480420,-444.123565,766.095498
3391.183447,-12435.459826,-1554.432478,1225.752797
3391.183785,-10214.842000,-2516.700203,2451.505594
3391.184122,-9474.636058,-2738.761985,3753.867940
3391.184459,-9030.512492,-1702.473667,4826.401637
3391.184796,-9474.636058,740.205942,3524.039291
3391.185134,-10362.883188,740.205942,1149.143247
3391.185471,-10140.821405,740.205942,-1685.410096
3391.185808,-10881.027347,0.000000,-1149.143247
3391.186145,-10732.986159,962.267725,612.876398
3391.186483,-9178.553681,1998.556043,1378.971896
3391.186820,-10140.821405,2886.803174,-306.438199
3391.187157,-10066.800811,1036.288319,-1838.629195
3391.187494,-9400.615463,370.102971,-1608.800546
3391.187831,-9474.636058,-1110.308913,612.876398
3391.188169,-8956.491898,-666.185348,1838.629195
3391.188506,-7846.182985,-444.123565,1762.019645
3391.188843,-9770.718434,-444.123565,1149.143247
3391.189180,-10584.944971,1184.329507,-229.828649
3391.189518,-11547.212695,-592.164754,-1838.629195
3391.189855,-11991.336260,-370.102971,153.219100
3391.190192,-9030.512492,296.082377,0.000000
3391.190529,-9992.780217,666.185348,153.219100
3391.190867,-10214.842000,0.000000,-76.609550
3391.191204,-8808.450710,-2960.823768,-995.924147
3391.191541,-9104.533087,-2220.617826,1072.533697
3391.191878,-9474.636058,-1258.350101,2834.553343
3391.192216,-10362.883188,1258.350101,1991.848295
3391.192553,-11917.315666,740.205942,-76.609550
3391.192890,-11399.171507,814.226536,-2298.286494
3391.193227,-9474.636058,-666.185348,-2987.772442
3391.193565,-10510.924376,-1702.473667,229.828649
3391.193902,-9030.512492,-2146.597232,1762.019645
3391.194239,-9400.615463,-814.226536,-383.047749
3391.194576,-10362.883188,-444.123565,-612.876398
3391.194913,-9696.697840,-1480.411884,-2221.676944
3391.195251,-10436.903782,-2590.720797,-1149.143247
3391.195588,-10732.986159,-2516.700203,229.828649
3391.195925,-9030.512492,-2368.659014,-1608.800546
3391.196262,-9104.533087,-592.164754,-153.219100
3391.196600,-8734.430116,-444.123565,0.000000
3391.196937,-9400.615463,-1702.473667,383.047749
3391.197274,-11695.253884,-1924.535449,2374.896044
3391.197611,-10732.986159,444.123565,2911.162892
3391.197949,-11621.233289,1702.473667,2528.115143
3391.198286,-12435.459826,1036.288319,2451.505594
3391.198623,-9400.615463,1184.329507,229.828649
3391.198960,-9326.594869,444.123565,306.438199
3391.199298,-9474.636058,444.123565,2757.943793
3391.199635,-8660.409521,888.247130,1838.629195
3391.199972,-10584.944971,2516.700203,2298.286494
3391.200309,-9844.739029,3627.009116,-1532.190996
3391.200646,-10288.862594,1628.453072,-1532.190996
3391.200984,-11769.274478,1110.308913,612.876398
3391.201321,-9252.574275,1332.370696,842.705048
3391.201658,-9474.636058,2294.638420,-229.828649
3391.201995,-11251.130318,888.247130,-2221.676944
3391.202333,-9104.533087,-1776.494261,-3600.648841
3391.202670,-8808.450710,-2516.700203,-459.657299
3391.203007,-8216.285956,-2220.617826,2221.676944
3391.203344,-8142.265362,-1036.288319,1378.971896
3391.203682,-11991.336260,-222.061783,153.219100
3391.204019,-11547.212695,148.041188,-2374.896044
3391.204356,-9474.636058,-1258.350101,-1838.629195
3391.204693,-11103.089130,-3330.926739,1838.629195
3391.205031,-9252.574275,-2294.638420,2757.943793
3391.205368,-10140.821405,-296.082377,1685.410096
3391.205705,-10807.006753,222.061783,1838.629195
3391.206042,-8586.388927,-740.205942,-919.314598
3391.206379,-11325.150913,-2146.597232,1608.800546
3391.206717,-12213.398043,-2294.638420,2145.067394
3391.207054,-8734.430116,-1036.288319,919.314598
3391.207391,-11103.089130,0.000000,1225.752797
3391.207728,-9548.656652,222.061783,-1149.143247
3391.208066,-8882.471304,-1480.411884,-1455.581446
3391.208403,-11177.109724,-3108.864956,1608.800546
3391.208740,-9178.553681,-2220.617826,1378.971896
3391.209077,-10732.986159,-370.102971,459.657299
3391.209415,-12213.398043,-592.164754,-612.876398
3391.209752,-8438.347739,-1776.494261,-2528.115143
3391.210089,-9622.677246,-2368.659014,-995.924147
3391.210426,-9696.697840,-1776.494261,1915.238745
3391.210764,-8438.347739,-1184.329507,842.705048
3391.211101,-10658.965565,-222.061783,995.924147
3391.211438,-9474.636058,1406.391290,-1225.752797
3391.211775,-10140.821405,296.082377,-1225.752797
3391.212113,-12509.480420,0.000000,1991.848295
3391.212450,-10214.842000,666.185348,1991.848295
3391.212787,-9548.656652,1924.535449,1225.752797
3391.213124,-9770.718434,2220.617826,1608.800546
3391.213461,-9548.656652,1924.535449,0.000000
3391.213799,-10881.027347,0.000000,76.609550
3391.214136,-11177.109724,814.226536,919.314598
3391.214473,-8364.327145,1776.494261,-1149.143247
3391.214810,-9474.636058,2368.659014,-2221.676944
3391.215148,-8364.327145,2368.659014,-3753.867940
3391.215485,-9104.533087,0.000000,-4903.011187
3391.215822,-10214.842000,-444.123565,-1378.971896
3391.216159,-8808.450710,-962.267725,76.609550
3391.216497,-10658.965565,74.020594,-229.828649
3391.216834,-10955.047942,222.061783,-459.657299
3391.217171,-8956.491898,-1480.411884,-2911.162892
3391.217508,-11399.171507,-2146.597232,1072.533697
3391.217846,-11621.233289,-2516.700203,2298.286494
3391.218183,-8882.471304,-2368.659014,1072.533697
3391.218520,-10807.006753,-1258.350101,1378.971896
3391.218857,-9770.718434,-444.123565,0.000000
3391.219194,-9474.636058,-1184.329507,766.095498
3391.219532,-12435.459826,-1776.494261,3294.210641
3391.219869,-10140.821405,-592.164754,2987.772442
3391.220206,-9918.759623,518.144159,2451.505594
3391.220543,-11843.295072,1406.391290,1991.848295
3391.220881,-10436.903782,888.247130,306.438199
3391.221218,-11029.068536,0.000000,1915.238745
3391.221555,-10362.883188,-444.123565,2528.115143
3391.221892,-9104.533087,-962.267725,1838.629195
3391.222230,-10214.842000,0.000000,1532.190996
3391.222567,-9622.677246,148.041188,-459.657299
3391.222904,-8882.471304,-962.267725,-306.438199
3391.223241,-10658.965565,-444.123565,612.876398
3391.223579,-8586.388927,-222.061783,689.485948
3391.223916,-9622.677246,-740.205942,1149.143247
3391.224253,-10658.965565,-518.144159,919.314598
3391.224590,-9104.533087,0.000000,-612.876398
3391.224927,-10288.862594,-962.267725,459.657299
3391.225265,-10732.986159,-962.267725,1225.752797
3391.225602,-8956.491898,-1554.432478,0.000000
3391.225939,-10584.944971,222.061783,612.876398
3391.226276,-9326.594869,1184.329507,0.000000
3391.226614,-8660.409521,0.000000,-689.485948
3391.226951,-11103.089130,-148.041188,1762.019645
3391.227288,-11251.130318,296.082377,995.924147
3391.227625,-9844.739029,1184.329507,76.609550
3391.227963,-11843.295072,1480.411884,229.828649
3391.228300,-10436.903782,1036.288319,-1149.143247
3391.228637,-10658.965565,222.061783,-1838.629195
3391.228974,-9992.780217,148.041188,-76.609550
3391.229312,-8660.409521,-148.041188,-842.705048
3391.229649,-11399.171507,444.123565,-1225.752797
3391.229986,-11399.171507,814.226536,-2604.724693
3391.230323,-9104.533087,-1406.391290,-3677.258390
3391.230661,-10214.842000,-2368.659014,-1149.143247
3391.230998,-8586.388927,-2368.659014,-229.828649
3391.231335,-8956.491898,-2812.782580,766.095498
3391.231672,-9696.697840,-666.185348,842.705048
3391.232009,-8956.491898,-1332.370696,153.219100
3391.232347,-10955.047942,-2220.617826,1225.752797
3391.232684,-11473.192101,-1554.432478,2068.457845
3391.233021,-9474.636058,-962.267725,1149.143247
3391.233358,-9696.697840,-592.164754,1149.143247
3391.233696,-9770.718434,222.061783,1149.143247
3391.234033,-8438.347739,74.020594,76.609550
3391.234370,-9400.615463,148.041188,2145.067394
3391.234707,-9770.718434,74.020594,3064.381992
3391.235045,-10066.800811,962.267725,2451.505594
3391.235382,-11473.192101,1628.453072,2221.676944
3391.235719,-10066.800811,2146.597232,229.828649
3391.236056,-10214.842000,222.061783,153.219100
3391.236394,-11177.109724,518.144159,1532.190996
3391.236731,-9474.636058,296.082377,306.438199
3391.237068,-9326.594869,1406.391290,306.438199
3391.237405,-10214.842000,1480.411884,0.000000
3391.237742,-9770.718434,-222.061783,-1915.238745
3391.238080,-11547.212695,-740.205942,612.876398
3391.238417,-9844.739029,-1406.391290,612.876398
3391.238754,-8660.409521,-592.164754,0.000000
3391.239091,-10955.047942,444.123565,153.219100
3391.239429,-9104.533087,444.123565,-919.314598
3391.239766,-10214.842000,-1332.370696,919.314598
3391.240103,-11621.233289,-888.247130,1991.848295
3391.240440,-8882.471304,148.041188,689.485948
3391.240778,-10807.006753,148.041188,1532.190996
3391.241115,-10955.047942,370.102971,1455.581446
3391.241452,-8512.368333,-222.061783,-1302.362347
3391.241789,-10288.862594,0.000000,1072.533697
3391.242127,-9400.615463,74.020594,1378.971896
3391.242464,-9252.574275,592.164754,0.000000
3391.242801,-11695.253884,1332.370696,-689.485948
3391.243138,-8882.471304,814.226536,-1455.581446
3391.243475,-8956.491898,370.102971,-536.266849
3391.243813,-10955.047942,-370.102971,842.705048
3391.244150,-10288.862594,444.123565,-995.924147
3391.244487,-10658.965565,740.205942,-1915.238745
3391.244824,-10362.883188,1184.329507,-1608.800546
3391.245162,-8512.368333,74.020594,-1991.848295
3391.245499,-10510.924376,-1776.494261,919.314598
3391.245836,-10510.924376,-1258.350101,1915.238745
3391.246173,-9474.636058,-1184.329507,0.000000
3391.246511,-11251.130318,0.000000,1302.362347
3391.246848,-10066.800811,0.000000,383.047749
3391.247185,-9178.553681,-1554.432478,76.609550
3391.247522,-10955.047942,666.185348,1608.800546
3391.247860,-9844.739029,0.000000,842.705048
3391.248197,-10584.944971,0.000000,919.314598
3391.248534,-10214.842000,222.061783,919.314598
3391.248871,-8290.306550,-370.102971,0.000000
3391.249208,-11029.068536,-1406.391290,1685.410096
3391.249546,-11251.130318,-592.164754,1225.752797
3391.249883,-9104.533087,0.000000,-536.266849
3391.250220,-10881.027347,666.185348,-612.876398
3391.250557,-8882.471304,592.164754,-1685.410096
3391.250895,-9178.553681,-1332.370696,-1455.581446
3391.251232,-11177.109724,-888.247130,1302.362347
3391.251569,-8882.471304,-740.205942,-995.924147
3391.251906,-10732.986159,-518.144159,-995.924147
3391.252244,-10732.986159,0.000000,-1378.971896
3391.252581,-8438.347739,-1406.391290,-2834.553343
3391.252918,-10732.986159,-1184.329507,76.609550
3391.253255,-10436.903782,-1036.288319,612.876398
3391.253593,-9400.615463,-296.082377,0.000000
3391.253930,-11325.150913,-1332.370696,1225.752797
3391.254267,-9400.615463,222.061783,1225.752797
3391.254604,-9252.574275,-370.102971,1762.019645
3391.254942,-12065.356855,0.000000,3677.258390
3391.255279,-9548.656652,1480.411884,1532.190996
3391.255616,-9992.780217,1776.494261,1455.581446
3391.255953,-10955.047942,1998.556043,1072.533697
3391.256290,-8142.265362,962.267725,-766.095498
3391.256628,-10732.986159,370.102971,2145.067394
3391.256965,-10288.862594,2220.617826,1608.800546
3391.257302,-8586.388927,1850.514855,-1072.533697
3391.257639,-10362.883188,1036.288319,-536.266849
3391.257977,-9104.533087,370.102971,-842.705048
3391.258314,-8512.368333,-1332.370696,-612.876398
3391.258651,-10214.842000,-1036.288319,1685.410096
3391.258988,-8364.327145,-1258.350101,766.095498
3391.259326,-9474.636058,-444.123565,612.876398
3391.259663,-11029.068536,-962.267725,1378.971896
3391.260000,-9104.533087,-814.226536,-612.876398
3391.260337,-11325.150913,-1702.473667,1455.581446
3391.260675,-10955.047942,-592.164754,1685.410096
3391.261012,-9474.636058,-1258.350101,-689.485948
3391.261349,-11843.295072,-444.123565,0.000000
3391.261686,-8660.409521,-74.020594,-1302.362347
3391.262023,-9030.512492,-1924.535449,383.047749
3391.262361,-11843.295072,-1776.494261,3064.381992
3391.262698,-10140.821405,-888.247130,1532.190996
3391.263035,-11177.109724,222.061783,536.266849
3391.263372,-11177.109724,592.164754,76.609550
3391.263710,-9548.656652,-1332.370696,229.828649
3391.264047,-11547.212695,-1258.350101,2451.505594
3391.264384,-10362.883188,-370.102971,1455.581446
3391.264721,-9252.574275,-74.020594,-995.924147
3391.265059,-10955.047942,74.020594,-995.924147
3391.265396,-9400.615463,-444.123565,-3140.991542
3391.265733,-9548.656652,-1776.494261,-2451.505594
3391.266070,-9326.594869,-1184.329507,-1915.238745
3391.266408,-7772.162391,0.000000,-1302.362347
3391.266745,-10362.883188,-444.123565,-1608.800546
3391.267082,-9770.718434,222.061783,-536.266849
3391.267419,-9770.718434,592.164754,-459.657299
3391.267756,-10658.965565,-222.061783,1762.019645
3391.268094,-10362.883188,592.164754,2451.505594
3391.268431,-9400.615463,444.123565,1532.190996
3391.268768,-10510.924376,1776.494261,1225.752797
3391.269105,-9992.780217,1628.453072,536.266849
3391.269443,-9992.780217,666.185348,766.095498
3391.269780,-10732.986159,592.164754,2145.067394
3391.270117,-9844.739029,2072.576638,1378.971896
3391.270454,-10510.924376,2664.741391,-1302.362347
3391.270792,-9178.553681,2294.638420,-2987.772442
3391.271129,-7846.182985,1184.329507,-2298.286494
3391.271466,-9844.739029,0.000000,-459.657299
3391.271803,-9252.574275,0.000000,76.609550
3391.272141,-8882.471304,0.000000,0.000000
3391.272478,-11769.274478,592.164754,766.095498
3391.272815,-11695.253884,-666.185348,-1225.752797
3391.273152,-9696.697840,-1554.432478,-1532.190996
3391.273490,-9104.533087,-3108.864956,1532.190996
3391.273827,-9252.574275,-3701.029710,3294.210641
3391.274164,-10066.800811,-1702.473667,689.485948
3391.274502,-11103.089130,-2072.576638,76.609550
3391.274839,-9548.656652,-1702.473667,-689.485948
3391.275177,-10510.924376,-2738.761985,612.876398
3391.275514,-10881.027347,-2368.659014,2298.286494
3391.275851,-8956.491898,-962.267725,689.485948
3391.276189,-10214.842000,0.000000,0.000000
3391.276526,-10140.821405,-296.082377,-229.828649
3391.276864,-9992.780217,-1628.453072,-76.609550
3391.277201,-11103.089130,-1628.453072,3064.381992
3391.277538,-10140.821405,-296.082377,3524.039291
3391.277876,-11251.130318,814.226536,2528.115143
3391.278213,-11325.150913,1554.432478,0.000000
3391.278551,-8438.347739,1110.308913,-689.485948
3391.278888,-10066.800811,296.082377,995.924147
3391.279225,-11399.171507,370.102971,1072.533697
3391.279563,-9252.574275,740.205942,-1225.752797
3391.279900,-9844.739029,1554.432478,-2145.067394
3391.280237,-8216.285956,1406.391290,-2451.505594
3391.280575,-8142.265362,-370.102971,-2451.505594
3391.280912,-10140.821405,-444.123565,1378.971896
3391.281250,-10066.800811,74.020594,1991.848295
3391.281587,-9918.759623,1480.411884,-383.047749
3391.281924,-10214.842000,1702.473667,-459.657299
3391.282262,-8734.430116,518.144159,0.000000
3391.282599,-9326.594869,-1184.329507,1685.410096
3391.282937,-9474.636058,-370.102971,3217.601092
3391.283274,-9474.636058,666.185348,1762.019645
3391.283611,-10584.944971,1628.453072,306.438199
3391.283949,-9992.780217,962.267725,-1302.362347
3391.284286,-9030.512492,0.000000,-1762.019645
3391.284624,-10807.006753,-2368.659014,536.266849
3391.284961,-8734.430116,-962.267725,0.000000
3391.285298,-8512.368333,296.082377,-1608.800546
3391.285636,-10658.965565,-518.144159,-1302.362347
3391.285973,-9400.615463,-1184.329507,-3294.210641
3391.286310,-11103.089130,-2960.823768,-766.095498
3391.286648,-12287.418637,-2886.803174,1762.019645
3391.286985,-10214.842000,-1702.473667,76.609550
3391.287323,-11251.130318,-444.123565,-1149.143247
3391.287660,-10140.821405,-1776.494261,-2451.505594
3391.287997,-9770.718434,-4145.153275,-1455.581446
3391.288335,-12509.480420,-4293.194464,1532.190996
3391.288672,-10584.944971,-2146.597232,1072.533697
3391.289010,-9992.780217,-1036.288319,76.609550
3391.289347,-11769.274478,-814.226536,0.000000
3391.289684,-8882.471304,518.144159,-1378.971896
3391.290022,-10510.924376,-962.267725,76.609550
3391.290359,-11695.253884,-592.164754,3677.258390
3391.290697,-8956.491898,518.144159,2987.772442
3391.291034,-9844.739029,1776.494261,3294.210641
3391.291371,-9918.759623,1702.473667,2528.115143
3391.291709,-8956.491898,1332.370696,612.876398
3391.292046,-11621.233289,1332.370696,2451.505594
3391.292383,-10066.800811,1850.514855,2221.676944
3391.292721,-7920.203579,2960.823768,-306.438199
3391.293058,-8660.409521,3404.947333,-306.438199
3391.293396,-8512.368333,2664.741391,-1762.019645
3391.293733,-9474.636058,148.041188,-1455.581446
3391.294070,-10214.842000,666.185348,536.266849
3391.294408,-8142.265362,518.144159,0.000000
3391.294745,-9548.656652,1850.514855,0.000000
3391.295083,-9548.656652,1480.411884,0.000000
3391.295420,-9326.594869,666.185348,-1149.143247
3391.295757,-12139.377449,-518.144159,1762.019645
3391.296095,-10658.965565,-666.185348,1762.019645
3391.296432,-9548.656652,-1332.370696,1378.971896
3391.296770,-11769.274478,-370.102971,1762.019645
3391.297107,-9474.636058,222.061783,-995.924147
3391.297444,-10140.821405,-1332.370696,-766.095498
3391.297782,-10066.800811,-2590.720797,1455.581446
3391.298119,-8364.327145,-2516.700203,612.876398
3391.298457,-10288.862594,-1036.288319,919.314598
3391.298794,-10732.986159,-1554.432478,-612.876398
3391.299131,-8808.450710,-2368.659014,-1762.019645
3391.299469,-11251.130318,-3034.844362,612.876398
3391.299806,-11325.150913,-2590.720797,1838.629195
3391.300143,-10066.800811,-1998.556043,-306.438199
3391.300481,-10955.047942,-1850.514855,-536.266849
3391.300818,-9400.615463,-1850.514855,-1991.848295
3391.301156,-10362.883188,-3627.009116,-689.485948
3391.301493,-12287.418637,-3627.009116,1072.533697
3391.301830,-9474.636058,-2812.782580,-459.657299
3391.302168,-10510.924376,-1406.391290,-612.876398
3391.302505,-9770.718434,-74.020594,-536.266849
3391.302843,-7624.121203,-888.247130,-1455.581446
3391.303180,-10362.883188,-1184.329507,536.266849
3391.303517,-10140.821405,-740.205942,459.657299
3391.303855,-11399.171507,0.000000,842.705048
3391.304192,-11991.336260,1406.391290,995.924147
3391.304530,-7994.224174,2590.720797,76.609550
3391.304867,-10362.883188,1332.370696,1685.410096
3391.305204,-11843.295072,1480.411884,3907.087040
3391.305542,-9178.553681,1850.514855,1532.190996
3391.305879,-10436.903782,3478.967927,1149.143247
3391.306216,-9400.615463,3775.050304,-1302.362347
3391.306554,-8216.285956,2294.638420,-2221.676944
3391.306891,-10881.027347,592.164754,229.828649
3391.307229,-8660.409521,1554.432478,0.000000
3391.307566,-8438.347739,1406.391290,-459.657299
3391.307903,-10955.047942,2146.597232,-842.705048
3391.308241,-8438.347739,962.267725,-3370.820191
3391.308578,-10658.965565,-962.267725,-2221.676944
3391.308916,-10362.883188,-1998.556043,-229.828649
3391.309253,-7031.956449,-2516.700203,0.000000
3391.309590,-9252.574275,-1776.494261,919.314598
3391.309928,-9326.594869,-1184.329507,-919.314598
3391.310265,-9104.533087,-1924.535449,-1225.752797
3391.310603,-13027.624579,-3849.070898,1762.019645
3391.310940,-11251.130318,-2516.700203,2911.162892
3391.311277,-11325.150913,-2368.659014,2374.896044
3391.311615,-11991.336260,-444.123565,612.876398
3391.311952,-8734.430116,-1258.350101,-1149.143247
3391.312289,-8956.491898,-3108.864956,383.047749
3391.312627,-11029.068536,-2516.700203,2528.115143
3391.312964,-11325.150913,-1776.494261,1991.848295
3391.313302,-11917.315666,444.123565,383.047749
3391.313639,-11177.109724,814.226536,-919.314598
3391.313976,-10510.924376,-296.082377,-1072.533697
3391.314314,-10807.006753,-518.144159,306.438199
3391.314651,-9992.780217,-1480.411884,2451.505594
3391.314989,-9104.533087,-1258.350101,2604.724693
3391.315326,-10658.965565,1480.411884,1532.190996
3391.315663,-9104.533087,592.164754,-1302.362347
3391.316001,-10362.883188,-592.164754,-1915.238745
3391.316338,-10732.986159,-1554.432478,383.047749
3391.316676,-8956.491898,0.000000,842.705048
3391.317013,-8142.265362,1406.391290,919.314598
3391.317350,-8882.471304,2368.659014,383.047749
3391.317688,-8660.409521,1258.350101,-536.266849
3391.318025,-10732.986159,0.000000,1302.362347
3391.318363,-10140.821405,592.164754,3600.648841
3391.318700,-9474.636058,814.226536,3600.648841
3391.319037,-10436.903782,2516.700203,2374.896044
3391.319375,-9400.615463,2072.576638,0.000000
3391.319712,-10362.883188,1258.350101,229.828649
3391.320049,-11177.109724,444.123565,459.657299
3391.320387,-9696.697840,814.226536,-1149.143247
3391.320724,-9844.739029,1184.329507,-2451.505594
3391.321062,-9030.512492,148.041188,-2451.505594
3391.321399,-7254.018232,-370.102971,-3677.258390
3391.321736,-9696.697840,-1998.556043,-1225.752797
3391.322074,-10955.047942,-2220.617826,-229.828649
3391.322411,-11029.068536,-1924.535449,-1378.971896
3391.322749,-11769.274478,-1554.432478,-1838.629195
3391.323086,-9326.594869,-1924.535449,-1991.848295
3391.323423,-9992.780217,-3108.864956,-689.485948
3391.323761,-10807.006753,-4219.173869,1608.800546
3391.324098,-10362.883188,-3478.967927,689.485948
3391.324436,-10288.862594,-2812.782580,0.000000
3391.324773,-11917.315666,-2072.576638,-306.438199
3391.325110,-9474.636058,-2220.617826,-1762.019645
3391.325448,-10881.027347,-2442.679609,536.266849
3391.325785,-10881.027347,-1702.473667,2145.067394
3391.326122,-9326.594869,-1406.391290,1149.143247
3391.326460,-10066.800811,148.041188,1991.848295
3391.326797,-9548.656652,0.000000,1149.143247
3391.327135,-10436.903782,0.000000,459.657299
3391.327472,-11843.295072,296.082377,2298.286494
3391.327809,-9918.759623,370.102971,1838.629195
3391.328147,-9474.636058,1332.370696,995.924147
3391.328484,-9548.656652,2368.659014,536.266849
3391.328822,-8438.347739,666.185348,-689.485948
3391.329159,-10362.883188,-370.102971,459.657299
3391.329496,-10066.800811,296.082377,1149.143247
3391.329834,-9178.553681,444.123565,-229.828649
3391.330171,-9844.739029,1628.453072,-153.219100
3391.330509,-8660.409521,1258.350101,-919.314598
3391.330846,-8512.368333,1184.329507,-995.924147
3391.331183,-10732.986159,296.082377,2451.505594
3391.331521,-10658.965565,518.144159,2528.115143
3391.331858,-11399.171507,-222.061783,1685.410096
3391.332195,-11251.130318,1332.370696,1915.238745
3391.332533,-8290.306550,296.082377,995.924147
3391.332870,-9918.759623,-666.185348,2145.067394
3391.333208,-9474.636058,-518.144159,1455.581446
3391.333545,-9474.636058,0.000000,229.828649
3391.333882,-11473.192101,518.144159,612.876398
3391.334220,-9770.718434,1480.411884,-1302.362347
3391.334557,-9474.636058,0.000000,-1532.190996
3391.334895,-11177.109724,-1258.350101,-306.438199
3391.335232,-9252.574275,-1332.370696,-229.828649
3391.335569,-9992.780217,-1332.370696,612.876398
3391.335907,-10510.924376,-1480.411884,-612.876398
3391.336244,-8586.388927,-2072.576638,-1838.629195
3391.336582,-11473.192101,-2368.659014,-153.219100
3391.336919,-11843.295072,-1628.453072,229.828649
3391.337256,-10658.965565,-2664.741391,-1225.752797
3391.337594,-9770.718434,-2368.659014,0.000000
3391.337931,-8216.285956,-1924.535449,-1149.143247
3391.338268,-8956.491898,-2516.700203,-842.705048
3391.338606,-11325.150913,-2516.700203,536.266849
3391.338943,-11399.171507,-1776.494261,1378.971896
3391.339281,-11547.212695,-1258.350101,0.000000
3391.339618,-8956.491898,-444.123565,229.828649
3391.339955,-6957.935855,222.061783,842.705048
3391.340293,-9696.697840,0.000000,2145.067394
3391.340630,-11029.068536,74.020594,2221.676944
3391.340968,-10214.842000,888.247130,1072.533697
3391.341305,-10955.047942,1184.329507,842.705048
3391.341642,-9844.739029,2886.803174,0.000000
3391.341980,-10140.821405,1924.535449,-995.924147
3391.342317,-10510.924376,1628.453072,1532.190996
3391.342655,-9918.759623,888.247130,0.000000
3391.342992,-10732.986159,1998.556043,0.000000
3391.343329,-10955.047942,2220.617826,-612.876398
3391.343667,-8660.409521,1776.494261,-3370.820191
3391.344004,-9992.780217,370.102971,-3753.867940
3391.344342,-9770.718434,370.102971,-3217.601092
3391.344679,-8364.327145,-1184.329507,-1378.971896
3391.345016,-9622.677246,-666.185348,842.705048
3391.345354,-9548.656652,0.000000,919.314598
3391.345691,-9844.739029,-1332.370696,0.000000
3391.346028,-12065.356855,-1998.556043,2681.334243
3391.346366,-9918.759623,-2294.638420,2757.943793
3391.346703,-9474.636058,-1554.432478,2068.457845
3391.347041,-9918.759623,-814.226536,2451.505594
3391.347378,-8586.388927,-1036.288319,842.705048
3391.347715,-9770.718434,-2442.679609,612.876398
3391.348053,-11177.109724,-1036.288319,2145.067394
3391.348390,-9696.697840,-592.164754,919.314598
3391.348728,-10140.821405,148.041188,306.438199
3391.349065,-9252.574275,222.061783,-612.876398
3391.349402,-8956.491898,-888.247130,-1225.752797
3391.349740,-11621.233289,-1184.329507,1455.581446
3391.350077,-11325.150913,-740.205942,1149.143247
3391.350415,-10510.924376,-148.041188,0.000000
3391.350752,-11399.171507,592.164754,0.000000
3391.351089,-9622.677246,0.000000,-612.876398
3391.351427,-11177.109724,-1776.494261,229.828649
3391.351764,-11103.089130,-1554.432478,1455.581446
3391.352101,-8882.471304,-1554.432478,766.095498
3391.352439,-10732.986159,-444.123565,2068.457845
3391.352776,-9696.697840,-148.041188,1149.143247
3391.353114,-9030.512492,-370.102971,536.266849
3391.353451,-10066.800811,-740.205942,766.095498
3391.353788,-9252.574275,296.082377,1608.800546
3391.354126,-10584.944971,666.185348,1838.629195
3391.354463,-10362.883188,814.226536,459.657299
3391.354801,-8364.327145,1258.350101,-459.657299
3391.355138,-9770.718434,1184.329507,689.485948
3391.355475,-11177.109724,1110.308913,1302.362347
3391.355813,-9696.697840,1036.288319,-1302.362347
3391.356150,-9474.636058,592.164754,-995.924147
3391.356488,-8808.450710,296.082377,-689.485948
3391.356825,-8660.409521,0.000000,-1685.410096
3391.357162,-10584.944971,-1628.453072,306.438199
3391.357500,-9622.677246,-1184.329507,0.000000
3391.357837,-9844.739029,0.000000,-1225.752797
3391.358174,-11473.192101,1110.308913,-1225.752797
3391.358512,-10140.821405,-592.164754,-2374.896044
3391.358849,-10066.800811,-2146.597232,-1072.533697
3391.359187,-10807.006753,-1850.514855,306.438199
3391.359524,-9326.594869,-1480.411884,0.000000
3391.359861,-11177.109724,-1480.411884,383.047749
3391.360199,-10510.924376,-1406.391290,0.000000
3391.360536,-9622.677246,-1184.329507,-229.828649
3391.360874,-11695.253884,-518.144159,1608.800546
3391.361211,-10658.965565,148.041188,2145.067394
3391.361548,-9178.553681,1110.308913,0.000000
3391.361886,-10807.006753,740.205942,306.438199
3391.362223,-9918.759623,148.041188,-306.438199
3391.362561,-8882.471304,-1332.370696,-153.219100
3391.362898,-10066.800811,-666.185348,2604.724693
3391.363235,-9030.512492,-370.102971,2068.457845
3391.363573,-9252.574275,1628.453072,1072.533697
3391.363910,-9326.594869,1480.411884,-383.047749
3391.364248,-9252.574275,592.164754,-1378.971896
3391.364585,-11251.130318,-296.082377,0.000000
3391.364922,-9548.656652,222.061783,0.000000
3391.365260,-8364.327145,0.000000,-383.047749
3391.365597,-9326.594869,592.164754,306.438199
3391.365934,-8808.450710,-296.082377,-229.828649
3391.366272,-10288.862594,-740.205942,612.876398
3391.366609,-11251.130318,-1036.288319,2374.896044
3391.366947,-9844.739029,148.041188,1762.019645
3391.367284,-11177.109724,-296.082377,1149.143247
3391.367621,-11029.068536,592.164754,1378.971896
3391.367959,-9474.636058,0.000000,1149.143247
3391.368296,-11177.109724,-962.267725,2834.553343
3391.368634,-10362.883188,0.000000,2987.772442
3391.368971,-10584.944971,148.041188,1915.238745
3391.369308,-11399.171507,888.247130,459.657299
3391.369646,-10140.821405,518.144159,-995.924147
3391.369983,-10214.842000,0.000000,-153.219100
3391.370321,-10288.862594,-888.247130,1072.533697
3391.370658,-9326.594869,-888.247130,689.485948
3391.370995,-9992.780217,0.000000,0.000000
3391.371333,-10436.903782,-444.123565,-1991.848295
3391.371670,-8808.450710,-1554.432478,-2221.676944
3391.372007,-10214.842000,-2220.617826,459.657299
3391.372345,-9548.656652,-1776.494261,1455.581446
3391.372682,-9474.636058,-1332.370696,-536.266849
3391.373020,-10584.944971,0.000000,-229.828649
3391.373357,-8808.450710,-1036.288319,-1225.752797
3391.373694,-9622.677246,-2072.576638,0.000000
3391.374032,-10955.047942,-1924.535449,1838.629195
3391.374369,-9622.677246,-148.041188,1762.019645
3391.374707,-11029.068536,-222.061783,995.924147
3391.375044,-10140.821405,666.185348,306.438199
3391.375382,-8068.244768,1406.391290,-229.828649
3391.375719,-11251.130318,518.144159,1838.629195
3391.376057,-11621.233289,518.144159,1455.581446
3391.376394,-10214.842000,1332.370696,0.000000
3391.376732,-10214.842000,2220.617826,229.828649
3391.377069,-7772.162391,888.247130,-612.876398
3391.377407,-8882.471304,592.164754,-76.609550
3391.377745,-10362.883188,-740.205942,919.314598
3391.378082,-9548.656652,0.000000,-383.047749
3391.378420,-10510.924376,148.041188,-919.314598
3391.378757,-9844.739029,222.061783,-2221.676944
3391.379095,-8438.347739,-962.267725,-3524.039291
3391.379432,-9844.739029,-1332.370696,-995.924147
3391.379770,-9770.718434,-1554.432478,459.657299
3391.380107,-9622.677246,-1332.370696,-306.438199
3391.380445,-9992.780217,-1184.329507,-536.266849
3391.380782,-10288.862594,-1480.411884,-153.219100
3391.381120,-10955.047942,-2146.597232,0.000000
3391.381457,-12139.377449,-2738.761985,1915.238745
3391.381795,-10658.965565,-1110.308913,3294.210641
3391.382132,-10362.883188,0.000000,2757.943793
3391.382470,-10658.965565,518.144159,2451.505594
3391.382808,-10214.842000,0.000000,842.705048
3391.383145,-11843.295072,-962.267725,2068.457845
3391.383483,-11473.192101,-1110.308913,2911.162892
3391.383820,-10214.842000,666.185348,2145.067394
3391.384158,-9622.677246,2590.720797,76.609550
3391.384495,-8882.471304,1776.494261,-2221.676944
3391.384833,-8734.430116,888.247130,-2298.286494
3391.385170,-9844.739029,74.020594,-536.266849
3391.385508,-9252.574275,148.041188,459.657299
3391.385845,-9770.718434,0.000000,1149.143247
3391.386183,-10510.924376,666.185348,1149.143247
3391.386520,-8364.327145,666.185348,-1149.143247
3391.386858,-9844.739029,-518.144159,689.485948
3391.387195,-9622.677246,-888.247130,2528.115143
3391.387533,-9030.512492,-1554.432478,2145.067394
3391.387870,-9548.656652,-222.061783,2221.676944
3391.388208,-9252.574275,1110.308913,1149.143247
3391.388546,-9992.780217,1702.473667,0.000000
3391.388883,-12435.459826,962.267725,459.657299
3391.389221,-11029.068536,1702.473667,-689.485948
3391.389558,-9548.656652,1776.494261,0.000000
3391.389896,-9400.615463,1998.556043,459.657299
3391.390233,-8364.327145,1036.288319,-995.924147
3391.390571,-10510.924376,-1036.288319,919.314598
3391.390908,-11177.109724,0.000000,1532.190996
3391.391246,-11251.130318,0.000000,766.095498
3391.391583,-12065.356855,296.082377,-842.705048
3391.391921,-9770.718434,518.144159,-2451.505594
3391.392258,-8068.244768,-1480.411884,-2834.553343
3391.392596,-10214.842000,-2812.782580,0.000000
3391.392933,-9622.677246,-2960.823768,689.485948
3391.393271,-9992.780217,-2072.576638,612.876398
3391.393609,-10584.944971,-1258.350101,-1378.971896
3391.393946,-9918.759623,-2960.823768,-3140.991542
3391.394284,-9918.759623,-3552.988522,-1302.362347
3391.394621,-9474.636058,-4589.276840,459.657299
3391.394959,-8660.409521,-2738.761985,1149.143247
3391.395296,-10362.883188,-444.123565,1915.238745
3391.395634,-11399.171507,-740.205942,536.266849
3391.395971,-10214.842000,-888.247130,-995.924147
3391.396309,-10436.903782,-1258.350101,842.705048
3391.396646,-10658.965565,-740.205942,2757.943793
3391.396984,-10214.842000,-370.102971,2068.457845
3391.397321,-10732.986159,1332.370696,1685.410096
3391.397659,-9622.677246,1480.411884,306.438199
3391.397996,-10362.883188,1110.308913,1149.143247
3391.398334,-11177.109724,1850.514855,2068.457845
3391.398672,-10436.903782,2368.659014,1302.362347
3391.399009,-11251.130318,2960.823768,536.266849
3391.399347,-9252.574275,2146.597232,-1762.019645
3391.399684,-7994.224174,1776.494261,-1991.848295
3391.400022,-10362.883188,888.247130,-153.219100
3391.400359,-9104.533087,1184.329507,-383.047749
3391.400697,-9104.533087,888.247130,-153.219100
3391.401034,-9696.697840,1110.308913,612.876398
3391.401372,-7920.203579,1036.288319,-612.876398
3391.401709,-9400.615463,0.000000,306.438199
3391.402047,-10955.047942,-370.102971,689.485948
3391.402384,-10066.800811,-1036.288319,229.828649
3391.402722,-10436.903782,0.000000,995.924147
3391.403059,-8660.409521,0.000000,1608.800546
3391.403397,-8290.306550,-1554.432478,0.000000
3391.403735,-10807.006753,-1924.535449,1608.800546
3391.404072,-9696.697840,-518.144159,1302.362347
3391.404410,-10436.903782,-1776.494261,2451.505594
3391.404747,-11917.315666,74.020594,1302.362347
3391.405085,-10140.821405,74.020594,-1532.190996
3391.405422,-11103.089130,-814.226536,-153.219100
3391.405760,-11473.192101,-2220.617826,766.095498
3391.406097,-8956.491898,-1332.370696,0.000000
3391.406435,-10140.821405,370.102971,306.438199
3391.406772,-10658.965565,-592.164754,-1762.019645
3391.407110,-10955.047942,-2294.638420,-3524.039291
3391.407447,-11621.233289,-2590.720797,-1225.752797
3391.407785,-9030.512492,-2442.679609,76.609550
3391.408122,-9844.739029,-1554.432478,1608.800546
3391.408460,-11473.192101,-444.123565,1149.143247
3391.408798,-9548.656652,-1554.432478,-1838.629195
3391.409135,-10584.944971,-1702.473667,153.219100
3391.409473,-9474.636058,-962.267725,2528.115143
3391.409810,-9326.594869,-370.102971,3294.210641
3391.410148,-11695.253884,814.226536,2451.505594
3391.410485,-9992.780217,592.164754,536.266849
3391.410823,-8808.450710,1776.494261,306.438199
3391.411160,-10288.862594,1184.329507,2145.067394
3391.411498,-9770.718434,1924.535449,1685.410096
3391.411835,-8956.491898,2442.679609,689.485948
3391.412173,-9548.656652,3404.947333,-153.219100
3391.412510,-8438.347739,2368.659014,-1302.362347
3391.412848,-9326.594869,888.247130,-383.047749
3391.413185,-9770.718434,1110.308913,842.705048
3391.413523,-9622.677246,1332.370696,76.609550
3391.413860,-10436.903782,2368.659014,536.266849
3391.414198,-9770.718434,2294.638420,-1991.848295
3391.414536,-8660.409521,0.000000,-3064.381992
3391.414873,-10510.924376,-888.247130,-2374.896044
3391.415211,-9918.759623,-1998.556043,-1225.752797
3391.415548,-9696.697840,-1998.556043,689.485948
3391.415886,-9696.697840,-1036.288319,919.314598
3391.416223,-9992.780217,-1110.308913,-1532.190996
3391.416561,-10881.027347,-1850.514855,-2604.724693
3391.416898,-10732.986159,-2368.659014,-919.314598
3391.417236,-9474.636058,-2664.741391,1532.190996
3391.417573,-10436.903782,-2368.659014,3064.381992
3391.417911,-9770.718434,-1554.432478,1455.581446
3391.418248,-9770.718434,-2738.761985,76.609550
3391.418586,-11991.336260,-3330.926739,1302.362347
3391.418923,-10807.006753,-2442.679609,1532.190996
3391.419261,-10584.944971,-1554.432478,1915.238745
3391.419599,-9992.780217,0.000000,1072.533697
3391.419936,-9474.636058,-962.267725,-1455.581446
3391.420274,-10214.842000,-740.205942,-842.705048
3391.420611,-10140.821405,-2516.700203,0.000000
3391.420949,-9622.677246,-1110.308913,1225.752797
3391.421286,-11177.109724,-222.061783,1072.533697
3391.421624,-10955.047942,1036.288319,-306.438199
3391.421961,-10066.800811,0.000000,-1378.971896
3391.422299,-10214.842000,-592.164754,995.924147
3391.422636,-9400.615463,0.000000,2145.067394
3391.422974,-11103.089130,0.000000,2374.896044
3391.423311,-11473.192101,740.205942,1991.848295
3391.423649,-8956.491898,1998.556043,306.438199
3391.423986,-9474.636058,222.061783,1149.143247
3391.424324,-10066.800811,1554.432478,2451.505594
3391.424662,-9548.656652,2294.638420,1685.410096
3391.424999,-10140.821405,3849.070898,1149.143247
3391.425337,-9844.739029,3182.885551,-1378.971896
3391.425674,-8512.368333,1702.473667,-1225.752797
3391.426012,-9030.512492,1036.288319,-306.438199
3391.426349,-9400.615463,74.020594,612.876398
3391.426687,-9178.553681,888.247130,459.657299
3391.427024,-8882.471304,518.144159,459.657299
3391.427362,-8290.306550,148.041188,-153.219100
3391.427699,-8142.265362,-1998.556043,-1302.362347
3391.428037,-11473.192101,-1628.453072,919.314598
3391.428374,-10584.944971,-1702.473667,-766.095498
3391.428712,-10584.944971,-1184.329507,-689.485948
3391.429049,-10510.924376,0.000000,-689.485948
3391.429387,-9104.533087,-2146.597232,-3217.601092
3391.429725,-10436.903782,-2886.803174,-612.876398
3391.430062,-11769.274478,-3404.947333,-612.876398
3391.430400,-10362.883188,-3256.906145,-306.438199
3391.430737,-11843.295072,-2442.679609,536.266849
3391.431075,-9992.780217,-2664.741391,-536.266849
3391.431412,-9400.615463,-3923.091493,0.000000
3391.431750,-11103.089130,-2442.679609,2451.505594
3391.432087,-10140.821405,-296.082377,2834.553343
3391.432425,-11399.171507,-518.144159,2451.505594
3391.432762,-12583.501014,0.000000,766.095498
3391.433100,-9992.780217,0.000000,-689.485948
3391.433437,-10510.924376,-370.102971,1149.143247
3391.433775,-9622.677246,1554.432478,1532.190996
3391.434112,-8586.388927,444.123565,153.219100
3391.434450,-9400.615463,592.164754,-383.047749
3391.434787,-8512.368333,444.123565,-1838.629195
3391.435125,-8512.368333,814.226536,-766.095498
3391.435463,-10658.965565,1110.308913,0.000000
3391.435800,-9918.759623,1628.453072,-995.924147
3391.436138,-9622.677246,2368.659014,-842.705048
3391.436475,-9696.697840,2294.638420,-153.219100
3391.436813,-9178.553681,1258.350101,-76.609550
3391.437150,-10510.924376,518.144159,689.485948
3391.437488,-9326.594869,1406.391290,383.047749
3391.437825,-9252.574275,740.205942,383.047749
3391.438163,-10436.903782,1184.329507,1149.143247
3391.438500,-10362.883188,518.144159,306.438199
3391.438838,-9474.636058,-370.102971,536.266849
3391.439175,-9992.780217,888.247130,2757.943793
3391.439513,-10510.924376,1184.329507,2145.067394
3391.439850,-11621.233289,1110.308913,2221.676944
3391.440188,-10955.047942,444.123565,0.000000
3391.440526,-9030.512492,-814.226536,0.000000
3391.440863,-10288.862594,-1702.473667,919.314598
3391.441201,-9918.759623,-1850.514855,536.266849
3391.441538,-9770.718434,-1702.473667,-306.438199
3391.441876,-11103.089130,-2368.659014,-383.047749
3391.442213,-9104.533087,-1480.411884,-1762.019645
3391.442551,-8364.327145,-2368.659014,-2528.115143
3391.442888,-9992.780217,-2590.720797,306.438199
3391.443226,-9252.574275,-3552.988522,-383.047749
3391.443563,-10140.821405,-3701.029710,-459.657299
3391.443901,-10807.006753,-3108.864956,842.705048
3391.444238,-9770.718434,-2590.720797,0.000000
3391.444576,-10732.986159,-2442.679609,1378.971896
3391.444913,-11473.192101,-1332.370696,2374.896044
3391.445251,-10807.006753,-296.082377,1225.752797
3391.445589,-12213.398043,296.082377,2451.505594
3391.445926,-11473.192101,0.000000,766.095498
3391.446264,-10732.986159,74.020594,459.657299
3391.446601,-11695.253884,74.020594,2068.457845
3391.446939,-9844.739029,1702.473667,1455.581446
3391.447276,-9622.677246,1406.391290,766.095498
3391.447614,-8808.450710,3034.844362,-919.314598
3391.447951,-7994.224174,3330.926739,-1378.971896
3391.448289,-10362.883188,1406.391290,0.000000
3391.448626,-10807.006753,1776.494261,612.876398
3391.448964,-9474.636058,222.061783,-306.438199
3391.449301,-10955.047942,1554.432478,612.876398
3391.449639,-7920.203579,1406.391290,-1608.800546
3391.449976,-6957.935855,-592.164754,-2528.115143
3391.450314,-9030.512492,-962.267725,459.657299
3391.450652,-8290.306550,-888.247130,0.000000
3391.450989,-9548.656652,444.123565,0.000000
3391.451327,-11325.150913,-962.267725,-995.924147
3391.451664,-8882.471304,-74.020594,-1915.238745
3391.452002,-11177.109724,-962.267725,-229.828649
3391.452339,-11399.171507,-888.247130,1225.752797
3391.452677,-9400.615463,-296.082377,-229.828649
3391.453014,-10658.965565,0.000000,306.438199
3391.453352,-10214.842000,-370.102971,0.000000
3391.453689,-10214.842000,-1776.494261,383.047749
3391.454027,-12361.439231,-1924.535449,2911.162892
3391.454364,-10807.006753,-370.102971,1532.190996
3391.454702,-11103.089130,-1480.411884,383.047749
3391.455039,-10362.883188,222.061783,-1378.971896
3391.455377,-8660.409521,-1184.329507,-1762.019645
3391.455715,-10807.006753,-2886.803174,1455.581446
3391.456052,-10510.924376,-2146.597232,612.876398
3391.456390,-9178.553681,-592.164754,-306.438199
3391.456727,-10436.903782,296.082377,-1072.533697
3391.457065,-9474.636058,-1554.432478,-3140.991542
3391.457402,-9474.636058,-2442.679609,-1608.800546
3391.457740,-10066.800811,-3330.926739,1762.019645
3391.458077,-9030.512492,-1184.329507,2374.896044
3391.458415,-10436.903782,-296.082377,1915.238745
3391.458752,-10436.903782,444.123565,306.438199
3391.459090,-9104.533087,74.020594,-306.438199
3391.459427,-10214.842000,-888.247130,1532.190996
3391.459765,-9696.697840,-518.144159,2987.772442
3391.460102,-9474.636058,444.123565,2681.334243
3391.460440,-10066.800811,2738.761985,2068.457845
3391.460777,-10362.883188,3034.844362,612.876398
3391.461115,-10066.800811,2072.576638,-383.047749
3391.461453,-11399.171507,1776.494261,1532.190996
3391.461790,-10288.862594,2146.597232,1302.362347
3391.462128,-9770.718434,2146.597232,306.438199
3391.462465,-9696.697840,592.164754,-153.219100
3391.462803,-8660.409521,148.041188,-766.095498
3391.463140,-8734.430116,-740.205942,383.047749
3391.463478,-10288.862594,666.185348,1225.752797
3391.463815,-10732.986159,148.041188,-612.876398
3391.464153,-11103.089130,1184.329507,-995.924147
3391.464490,-9548.656652,0.000000,-1915.238745
3391.464828,-9770.718434,-2072.576638,-1378.971896
3391.465165,-10658.965565,-2590.720797,689.485948
3391.465503,-9178.553681,-1998.556043,229.828649
3391.465840,-8808.450710,-2220.617826,-842.705048
3391.466178,-9474.636058,-1776.494261,-1838.629195
3391.466516,-9474.636058,-2294.638420,-383.047749
3391.466853,-10436.903782,-2442.679609,459.657299
3391.467191,-10732.986159,-3108.864956,2528.115143
3391.467528,-10658.965565,-1332.370696,2681.334243
3391.467866,-10658.965565,-1110.308913,1532.190996
3391.468203,-10140.821405,-1184.329507,1378.971896
3391.468541,-8290.306550,-1406.391290,689.485948
3391.468878,-9474.636058,-814.226536,1915.238745
3391.469216,-11621.233289,1184.329507,1685.410096
3391.469553,-12657.521608,1184.329507,-2068.457845
3391.469891,-11621.233289,962.267725,-3524.039291
3391.470228,-9252.574275,0.000000,-3140.991542
3391.470566,-7550.100608,-592.164754,-536.266849
3391.470903,-8882.471304,-518.144159,1608.800546
3391.471241,-10214.842000,0.000000,0.000000
3391.471579,-10584.944971,666.185348,-1991.848295
3391.471916,-10436.903782,592.164754,-2451.505594
3391.472254,-10066.800811,518.144159,-536.266849
3391.472591,-10584.944971,-666.185348,1991.848295
3391.472929,-10436.903782,592.164754,1838.629195
3391.473266,-9252.574275,0.000000,153.219100
3391.473604,-10214.842000,1480.411884,842.705048
3391.473941,-9548.656652,222.061783,-459.657299
3391.474279,-8882.471304,-962.267725,383.047749
3391.474616,-9622.677246,-1406.391290,2298.286494
3391.474954,-8956.491898,888.247130,766.095498
3391.475291,-9622.677246,1554.432478,689.485948
3391.475629,-10510.924376,1702.473667,459.657299
3391.475966,-9104.533087,444.123565,-689.485948
3391.476304,-11325.150913,148.041188,1762.019645
3391.476641,-11621.233289,222.061783,2298.286494
3391.476979,-9696.697840,-222.061783,1378.971896
3391.477316,-10140.821405,-296.082377,306.438199
3391.477653,-9030.512492,-592.164754,-1685.410096
3391.477991,-8660.409521,-1850.514855,-1532.190996
3391.478328,-10140.821405,-2664.741391,153.219100
3391.478666,-9548.656652,-2072.576638,-306.438199
3391.479003,-10807.006753,-1406.391290,229.828649
3391.479340,-11695.253884,-222.061783,766.095498
3391.479678,-9548.656652,-1554.432478,-919.314598
3391.480015,-9918.759623,-1850.514855,1532.190996
3391.480353,-10658.965565,-1258.350101,3370.820191
3391.480690,-11103.089130,-2368.659014,2681.334243
3391.481028,-11251.130318,-814.226536,2145.067394
3391.481365,-9548.656652,0.000000,995.924147
3391.481702,-9400.615463,-296.082377,842.705048
3391.482040,-10140.821405,0.000000,1685.410096
3391.482377,-10066.800811,888.247130,1455.581446
3391.482715,-11325.150913,1110.308913,0.000000
3391.483052,-9844.739029,2442.679609,-1532.190996
3391.483389,-8808.450710,1480.411884,-2221.676944
3391.483727,-9252.574275,-296.082377,229.828649
3391.484064,-9326.594869,74.020594,689.485948
3391.484402,-9770.718434,74.020594,76.609550
3391.484739,-9770.718434,1702.473667,-766.095498
3391.485076,-9326.594869,814.226536,-2374.896044
3391.485414,-9844.739029,-1258.350101,-2221.676944
3391.485751,-10140.821405,-1554.432478,689.485948
3391.486089,-10658.965565,-1184.329507,1149.143247
3391.486426,-10881.027347,-74.020594,-842.705048
3391.486764,-9252.574275,444.123565,-2451.505594
3391.487101,-7402.059420,-1184.329507,-2757.943793
3391.487438,-9622.677246,-1850.514855,-229.828649
3391.487776,-10066.800811,-444.123565,995.924147
3391.488113,-11621.233289,-74.020594,1149.143247
3391.488451,-11843.295072,370.102971,0.000000
3391.488788,-9696.697840,444.123565,-995.924147
3391.489125,-9696.697840,-666.185348,459.657299
3391.489463,-11325.150913,-1554.432478,3447.429741
3391.489800,-10732.986159,-814.226536,3140.991542
3391.490138,-10658.965565,0.000000,1302.362347
3391.490475,-9548.656652,740.205942,-1225.752797
3391.490813,-8660.409521,-518.144159,-2068.457845
3391.491150,-9474.636058,-1332.370696,536.266849
3391.491487,-9918.759623,-814.226536,0.000000
3391.491825,-9696.697840,0.000000,0.000000
3391.492162,-10288.862594,222.061783,-919.314598
3391.492500,-10066.800811,-148.041188,-2604.724693
3391.492837,-9696.697840,-1628.453072,-1455.581446
3391.493174,-10362.883188,-2146.597232,2451.505594
3391.493512,-9326.594869,-888.247130,2681.334243
3391.493849,-9474.636058,-1110.308913,2068.457845
3391.494187,-11103.089130,296.082377,919.314598
3391.494524,-9622.677246,-962.267725,76.609550
3391.494861,-10732.986159,-740.205942,2451.505594
3391.495199,-11103.089130,1184.329507,2834.553343
3391.495536,-9992.780217,1480.411884,766.095498
3391.495874,-9696.697840,1850.514855,0.000000
3391.496211,-9622.677246,1628.453072,-1072.533697
3391.496549,-9696.697840,814.226536,0.000000
3391.496886,-10807.006753,222.061783,1455.581446
3391.497223,-10362.883188,296.082377,919.314598
3391.497561,-9474.636058,1776.494261,-383.047749
3391.497898,-9992.780217,1406.391290,-1762.019645
3391.498236,-8068.244768,0.000000,-2145.067394
3391.498573,-9770.718434,-1110.308913,536.266849
3391.498910,-11399.171507,-444.123565,842.705048
3391.499248,-10807.006753,-444.123565,-842.705048
3391.499585,-10658.965565,296.082377,-1532.190996
3391.499923,-8956.491898,370.102971,-2068.457845
3391.500260,-8882.471304,-2368.659014,-1915.238745
3391.500598,-9844.739029,-3108.864956,842.705048
3391.500935,-9474.636058,-1406.391290,995.924147
3391.501272,-11177.109724,-1184.329507,1455.581446
3391.501610,-11695.253884,-592.164754,229.828649
3391.501947,-10881.027347,-1258.350101,-689.485948
3391.502285,-9918.759623,-1850.514855,383.047749
3391.502622,-9696.697840,-1406.391290,2145.067394
3391.502959,-9992.780217,-592.164754,2911.162892
3391.503297,-10658.965565,74.020594,3447.429741
3391.503634,-9918.759623,814.226536,1838.629195
3391.503972,-10881.027347,-370.102971,1149.143247
3391.504309,-11843.295072,222.061783,2604.724693
3391.504646,-11177.109724,148.041188,2298.286494
3391.504984,-10362.883188,1332.370696,1455.581446
3391.505321,-9104.533087,2072.576638,-1532.190996
3391.505659,-8512.368333,74.020594,-1991.848295
3391.505996,-8660.409521,-370.102971,-1915.238745
3391.506334,-8956.491898,814.226536,-1455.581446
3391.506671,-9918.759623,0.000000,-1225.752797
3391.507008,-10214.842000,-222.061783,-612.876398
3391.507346,-9252.574275,-592.164754,-1225.752797
3391.507683,-8142.265362,-740.205942,0.000000
3391.508021,-9474.636058,-1924.535449,2911.162892
3391.508358,-9548.656652,-666.185348,2221.676944
3391.508695,-10955.047942,0.000000,612.876398
3391.509033,-10807.006753,1184.329507,76.609550
3391.509370,-9178.553681,518.144159,-995.924147
3391.509708,-10214.842000,-962.267725,383.047749
3391.510045,-10362.883188,-814.226536,459.657299
3391.510383,-9696.697840,0.000000,306.438199
3391.510720,-10436.903782,1184.329507,1149.143247
3391.511057,-9696.697840,1332.370696,-1225.752797
3391.511395,-10214.842000,592.164754,-1532.190996
3391.511732,-11695.253884,74.020594,-306.438199
3391.512070,-11177.109724,-666.185348,-1608.800546
3391.512407,-9474.636058,-222.061783,-995.924147
3391.512744,-9474.636058,-444.123565,-536.266849
3391.513082,-9622.677246,-666.185348,-689.485948
3391.513419,-10584.944971,-1924.535449,-1378.971896
3391.513757,-11399.171507,-1776.494261,-76.609550
3391.514094,-10732.986159,-1850.514855,-459.657299
3391.514431,-9548.656652,-1406.391290,-612.876398
3391.514769,-8586.388927,-1184.329507,-459.657299
3391.515106,-8882.471304,-2294.638420,76.609550
3391.515444,-10066.800811,-2220.617826,1685.410096
3391.515781,-9474.636058,-1406.391290,2374.896044
3391.516119,-10140.821405,-1036.288319,2911.162892
3391.516456,-11103.089130,1480.411884,2757.943793
3391.516793,-10066.800811,1258.350101,1378.971896
3391.517131,-10214.842000,518.144159,1225.752797
3391.517468,-10510.924376,148.041188,3753.867940
3391.517806,-9844.739029,592.164754,3753.867940
3391.518143,-9770.718434,1776.494261,1762.019645
3391.518480,-9178.553681,1480.411884,76.609550
3391.518818,-8808.450710,1776.494261,-1302.362347
3391.519155,-9770.718434,1110.308913,842.705048
3391.519493,-10288.862594,1554.432478,612.876398
3391.519830,-10584.944971,2072.576638,229.828649
3391.520168,-11325.150913,1924.535449,-536.266849
3391.520505,-10140.821405,888.247130,-1225.752797
3391.520842,-10140.821405,-518.144159,-995.924147
3391.521180,-8808.450710,-1628.453072,1225.752797
3391.521517,-9326.594869,-1776.494261,1915.238745
3391.521855,-9548.656652,-1332.370696,1302.362347
3391.522192,-9400.615463,-1036.288319,-2068.457845
3391.522529,-9696.697840,-1036.288319,-2221.676944
3391.522867,-10658.965565,-1998.556043,76.609550
3391.523204,-10140.821405,-1406.391290,306.438199
3391.523542,-9622.677246,-1036.288319,229.828649
3391.523879,-9992.780217,-592.164754,1149.143247
3391.524216,-9104.533087,-444.123565,-76.609550
3391.524554,-9918.759623,-1998.556043,0.000000
3391.524891,-11547.212695,-1184.329507,689.485948
3391.525229,-9992.780217,-592.164754,0.000000
3391.525566,-10955.047942,-592.164754,1608.800546
3391.525904,-10288.862594,296.082377,306.438199
3391.526241,-9474.636058,-370.102971,-2145.067394
3391.526578,-11325.150913,-740.205942,-995.924147
3391.526916,-10584.944971,-1036.288319,-919.314598
3391.527253,-9622.677246,-1332.370696,-1225.752797
3391.527591,-10066.800811,592.164754,-842.705048
3391.527928,-9178.553681,222.061783,-2298.286494
3391.528265,-10436.903782,-1036.288319,-1608.800546
3391.528603,-11029.068536,-814.226536,76.609550
3391.528940,-8882.471304,-814.226536,-153.219100
3391.529278,-10140.821405,-592.164754,1608.800546
3391.529615,-9844.739029,148.041188,1915.238745
3391.529953,-9770.718434,-1036.288319,919.314598
3391.530290,-11399.171507,-444.123565,2911.162892
3391.530627,-9622.677246,1036.288319,2911.162892
3391.530965,-9252.574275,1406.391290,1838.629195
3391.531302,-9992.780217,1480.411884,1302.362347
3391.531640,-8808.450710,2368.659014,306.438199
3391.531977,-9400.615463,1184.329507,536.266849
3391.532314,-10362.883188,1628.453072,1072.533697
3391.532652,-10066.800811,1776.494261,0.000000
3391.532989,-11177.109724,1110.308913,842.705048
3391.533327,-9844.739029,1554.432478,-842.705048
3391.533664,-7254.018232,0.000000,-1378.971896
3391.534001,-8882.471304,-1036.288319,919.314598
3391.534339,-9400.615463,-740.205942,1455.581446
3391.534676,-11695.253884,-1184.329507,0.000000
3391.535014,-11621.233289,-74.020594,-689.485948
3391.535351,-9992.780217,74.020594,-1532.190996
3391.535689,-10436.903782,-2368.659014,0.000000
3391.536026,-11103.089130,-2072.576638,1072.533697
3391.536363,-9326.594869,-1554.432478,459.657299
3391.536701,-10658.965565,-1628.453072,1149.143247
3391.537038,-10140.821405,-1110.308913,0.000000
3391.537376,-10807.006753,-2072.576638,-383.047749
3391.537713,-11547.212695,-1480.411884,766.095498
3391.538050,-9844.739029,-814.226536,1149.143247
3391.538388,-10807.006753,-1184.329507,2068.457845
3391.538725,-11621.233289,-296.082377,2834.553343
3391.539063,-9696.697840,1332.370696,842.705048
3391.539400,-10584.944971,222.061783,306.438199
3391.539738,-11251.130318,518.144159,1378.971896
3391.540075,-10140.821405,444.123565,0.000000
3391.540412,-10066.800811,-148.041188,306.438199
3391.540750,-8290.306550,518.144159,-995.924147
3391.541087,-8142.265362,-740.205942,-1072.533697
3391.541425,-9696.697840,-222.061783,0.000000
3391.541762,-9030.512492,74.020594,-842.705048
3391.542099,-9474.636058,592.164754,-306.438199
3391.542437,-10881.027347,444.123565,383.047749
3391.542774,-9030.512492,-740.205942,-766.095498
3391.543112,-8438.347739,-814.226536,459.657299
3391.543449,-9400.615463,-592.164754,2298.286494
3391.543786,-9918.759623,-444.123565,1455.581446
3391.544124,-11695.253884,0.000000,995.924147
3391.544461,-11473.192101,518.144159,306.438199
3391.544799,-9844.739029,370.102971,-459.657299
3391.545136,-9474.636058,-296.082377,1455.581446
3391.545474,-10584.944971,222.061783,1991.848295
3391.545811,-10732.986159,222.061783,919.314598
3391.546148,-10510.924376,1184.329507,-612.876398
3391.546486,-10288.862594,888.247130,-689.485948
3391.546823,-10510.924376,-370.102971,-1072.533697
3391.547161,-10658.965565,-962.267725,-689.485948
3391.547498,-9474.636058,-740.205942,-1302.362347
3391.547835,-8586.388927,-1184.329507,-1455.581446
3391.548173,-8734.430116,-1184.329507,-1225.752797
3391.548510,-8808.450710,-2294.638420,-1685.410096
3391.548848,-10066.800811,-2664.741391,76.609550
3391.549185,-11843.295072,-2072.576638,1149.143247
3391.549523,-11103.089130,-2146.597232,-1149.143247
3391.549860,-9548.656652,-1850.514855,-1532.190996
3391.550197,-7920.203579,-2368.659014,-1302.362347
3391.550535,-8438.347739,-2664.741391,0.000000
3391.550872,-10214.842000,-2294.638420,2834.553343
3391.551210,-10955.047942,-1480.411884,2374.896044
3391.551547,-11843.295072,-592.164754,2221.676944
3391.551884,-10658.965565,222.061783,1302.362347
3391.552222,-10362.883188,1110.308913,1608.800546
3391.552559,-11695.253884,296.082377,2681.334243
3391.552897,-10955.047942,1628.453072,3064.381992
3391.553234,-10658.965565,1776.494261,2298.286494
3391.553571,-11473.192101,2960.823768,1072.533697
3391.553909,-9770.718434,2516.700203,0.000000
3391.554246,-9474.636058,1332.370696,76.609550
3391.554584,-10140.821405,1258.350101,2604.724693
3391.554921,-9400.615463,1776.494261,0.000000
3391.555259,-9104.533087,740.205942,-689.485948
3391.555596,-9326.594869,1776.494261,-1685.410096
3391.555933,-9030.512492,222.061783,-2757.943793
3391.556271,-9178.553681,-592.164754,-919.314598
3391.556608,-9030.512492,-592.164754,76.609550
3391.556946,-9474.636058,-740.205942,1991.848295
3391.557283,-10436.903782,-1332.370696,1608.800546
3391.557620,-8734.430116,-1332.370696,-383.047749
3391.557958,-8586.388927,-2146.597232,459.657299
3391.558295,-11029.068536,-2812.782580,2451.505594
3391.558633,-10436.903782,-1184.329507,1608.800546
3391.558970,-10066.800811,-592.164754,-306.438199
3391.559308,-10140.821405,296.082377,0.000000
3391.559645,-9918.759623,-296.082377,-383.047749
3391.559982,-10955.047942,-888.247130,459.657299
3391.560320,-11325.150913,0.000000,1378.971896
3391.560657,-11473.192101,148.041188,383.047749
3391.560995,-11769.274478,518.144159,229.828649
3391.561332,-10658.965565,-740.205942,-1302.362347
3391.561669,-8956.491898,-1628.453072,-612.876398
3391.562007,-10288.862594,-1702.473667,1685.410096
3391.562344,-11251.130318,-666.185348,76.609550
3391.562682,-10436.903782,-296.082377,-2145.067394
3391.563019,-9474.636058,-74.020594,-2528.115143
3391.563356,-9178.553681,-1702.473667,-3217.601092
3391.563694,-9844.739029,-3182.885551,-689.485948
3391.564031,-9918.759623,-2368.659014,536.266849
3391.564369,-9400.615463,-1628.453072,1072.533697
3391.564706,-9548.656652,-962.267725,1608.800546
3391.565044,-10140.821405,0.000000,306.438199
3391.565381,-9326.594869,-1036.288319,-995.924147
3391.565718,-9770.718434,-1924.535449,1991.848295
3391.566056,-11103.089130,74.020594,4213.525239
3391.566393,-9696.697840,148.041188,2604.724693
3391.566731,-9474.636058,666.185348,459.657299
3391.567068,-9548.656652,222.061783,0.000000
3391.567405,-10066.800811,1554.432478,459.657299
3391.567743,-9992.780217,1850.514855,1762.019645
3391.568080,-10658.965565,2146.597232,689.485948
3391.568418,-10732.986159,1406.391290,-536.266849
3391.568755,-10658.965565,1332.370696,-2451.505594
3391.569093,-8512.368333,-222.061783,-2145.067394
3391.569430,-9474.636058,-666.185348,919.314598
3391.569767,-10140.821405,666.185348,919.314598
3391.570105,-10955.047942,-740.205942,-1149.143247
3391.570442,-11399.171507,-444.123565,-1149.143247
3391.570780,-9474.636058,-592.164754,-995.924147
3391.571117,-9252.574275,-1258.350101,1302.362347
3391.571454,-11251.130318,-1406.391290,1532.190996
3391.571792,-10288.862594,-1184.329507,-306.438199
3391.572129,-10658.965565,-1628.453072,-229.828649
3391.572467,-9474.636058,-1110.308913,-536.266849
3391.572804,-7994.224174,-1924.535449,-153.219100
3391.573141,-9844.739029,-2442.679609,3140.991542
3391.573479,-11029.068536,-74.020594,2451.505594
3391.573816,-10881.027347,-888.247130,536.266849
3391.574154,-10881.027347,222.061783,1225.752797
3391.574491,-8586.388927,-666.185348,306.438199
3391.574829,-9104.533087,-740.205942,1225.752797
3391.575166,-11325.150913,0.000000,2374.896044
3391.575503,-10881.027347,444.123565,153.219100
3391.575841,-10807.006753,222.061783,-153.219100
3391.576178,-9548.656652,666.185348,-1838.629195
3391.576516,-8734.430116,-148.041188,-1225.752797
3391.576853,-9622.677246,-814.226536,842.705048
3391.577190,-9474.636058,-592.164754,383.047749
3391.577528,-10066.800811,-518.144159,-689.485948
3391.577865,-11177.109724,592.164754,-229.828649
3391.578203,-9992.780217,296.082377,-1072.533697
3391.578540,-9548.656652,-1036.288319,536.266849
3391.578877,-10955.047942,-592.164754,2681.334243
3391.579215,-10066.800811,814.226536,2681.334243
3391.579552,-11695.253884,0.000000,1685.410096
3391.579890,-10584.944971,518.144159,536.266849
3391.580227,-8290.306550,-740.205942,-459.657299
3391.580564,-10214.842000,-444.123565,2604.724693
3391.580902,-10140.821405,518.144159,2221.676944
3391.581239,-10066.800811,0.000000,536.266849
3391.581577,-10955.047942,1332.370696,-153.219100
3391.581914,-9844.739029,962.267725,-1608.800546
3391.582251,-9178.553681,518.144159,-995.924147
3391.582589,-9770.718434,-370.102971,229.828649
3391.582926,-10214.842000,-148.041188,0.000000
3391.583264,-10362.883188,-518.144159,-766.095498
3391.583601,-9474.636058,296.082377,-2757.943793
3391.583938,-8364.327145,-2294.638420,-3370.820191
3391.584276,-9474.636058,-1850.514855,-612.876398
3391.584613,-10066.800811,-1184.329507,842.705048
3391.584951,-11621.233289,-740.205942,76.609550
3391.585288,-11695.253884,666.185348,-919.314598
3391.585626,-10214.842000,-1110.308913,-2451.505594
3391.585963,-8956.491898,-2516.700203,-842.705048
3391.586300,-8512.368333,-1776.494261,1455.581446
3391.586638,-9252.574275,-1480.411884,2451.505594
3391.586975,-10732.986159,-148.041188,1302.362347
3391.587313,-10436.903782,-222.061783,-383.047749
3391.587650,-10584.944971,-370.102971,76.609550
3391.587987,-10214.842000,-74.020594,1225.752797
3391.588325,-9992.780217,0.000000,3217.601092
3391.588662,-10955.047942,-74.020594,3830.477490
3391.589000,-10436.903782,962.267725,2451.505594
3391.589337,-10584.944971,2368.659014,536.266849
3391.589674,-10066.800811,1628.453072,0.000000
3391.590012,-9918.759623,0.000000,612.876398
3391.590349,-10732.986159,222.061783,306.438199
3391.590687,-9326.594869,518.144159,-536.266849
3391.591024,-8142.265362,888.247130,-842.705048
3391.591361,-9326.594869,-1332.370696,-1225.752797
3391.591699,-9104.533087,-1332.370696,-306.438199
3391.592036,-10436.903782,-1554.432478,612.876398
3391.592374,-11177.109724,-1036.288319,1685.410096
3391.592711,-10288.862594,-666.185348,1455.581446
3391.593048,-9400.615463,-666.185348,0.000000
3391.593386,-8956.491898,-1628.453072,383.047749
3391.593723,-9844.739029,-2442.679609,3140.991542
3391.594061,-10881.027347,-1184.329507,2911.162892
3391.594398,-11251.130318,222.061783,2221.676944
3391.594735,-11843.295072,814.226536,689.485948
3391.595073,-10140.821405,-592.164754,-1608.800546
3391.595410,-9252.574275,-296.082377,-689.485948
3391.595748,-10140.821405,0.000000,1302.362347
3391.596085,-10732.986159,0.000000,306.438199
3391.596422,-10955.047942,1036.288319,-1378.971896
3391.596760,-10288.862594,592.164754,-2681.334243
3391.597097,-8956.491898,-1036.288319,-1225.752797
3391.597435,-10066.800811,-1628.453072,1838.629195
3391.597772,-10288.862594,-444.123565,842.705048
3391.598109,-10658.965565,296.082377,-459.657299
3391.598447,-10584.944971,-222.061783,-1225.752797
3391.598784,-9104.533087,-1184.329507,-2068.457845
3391.599122,-8438.347739,-2072.576638,-842.705048
3391.599459,-9992.780217,-1776.494261,842.705048
3391.599796,-9770.718434,-666.185348,459.657299
3391.600134,-9770.718434,148.041188,0.000000
3391.600471,-9622.677246,222.061783,-1455.581446
3391.600809,-9252.574275,-740.205942,-1072.533697
3391.601146,-10140.821405,-370.102971,1455.581446
3391.601483,-10584.944971,222.061783,1302.362347
3391.601821,-9918.759623,814.226536,2068.457845
3391.602158,-9474.636058,1702.473667,919.314598
3391.602496,-9474.636058,1036.288319,995.924147
3391.602833,-11103.089130,0.000000,459.657299
3391.603170,-10881.027347,1110.308913,459.657299
3391.603508,-10140.821405,2442.679609,0.000000
3391.603845,-10362.883188,518.144159,-459.657299
3391.604183,-9992.780217,444.123565,-2298.286494
3391.604520,-8660.409521,-962.267725,-1608.800546
3391.604857,-8882.471304,-296.082377,689.485948
3391.605195,-9844.739029,0.000000,536.266849
3391.605532,-12065.356855,-592.164754,-689.485948
3391.605870,-10658.965565,0.000000,-1149.143247
3391.606207,-9696.697840,-962.267725,-1838.629195
3391.606544,-9844.739029,-1258.350101,995.924147
3391.606882,-9548.656652,-1184.329507,1378.971896
3391.607219,-9918.759623,-2294.638420,995.924147
3391.607557,-10955.047942,-1702.473667,1455.581446
3391.607894,-10066.800811,-592.164754,0.000000
3391.608232,-9992.780217,-1406.391290,1149.143247
3391.608569,-10732.986159,-1406.391290,2068.457845
3391.608906,-10362.883188,-74.020594,1378.971896
3391.609244,-10214.842000,296.082377,1608.800546
3391.609581,-10807.006753,1184.329507,1455.581446
3391.609919,-10066.800811,814.226536,995.924147
3391.610256,-10658.965565,-148.041188,612.876398
3391.610593,-11991.336260,222.061783,1991.848295
3391.610931,-10436.903782,444.123565,383.047749
3391.611268,-9474.636058,0.000000,306.438199
3391.611606,-10214.842000,0.000000,0.000000
3391.611943,-9326.594869,74.020594,-1915.238745
3391.612280,-9548.656652,-740.205942,-766.095498
3391.612618,-10214.842000,-1406.391290,-383.047749
3391.612955,-8438.347739,-1184.329507,-612.876398
3391.613293,-8586.388927,-296.082377,-536.266849
3391.613630,-8438.347739,-740.205942,-612.876398
3391.613967,-9548.656652,-1480.411884,1149.143247
3391.614305,-11621.233289,-592.164754,1915.238745
3391.614642,-11029.068536,-222.061783,612.876398
3391.614980,-10140.821405,74.020594,2451.505594
3391.615317,-11103.089130,1702.473667,1991.848295
3391.615654,-9992.780217,-222.061783,-153.219100
3391.615992,-10066.800811,-740.205942,536.266849
3391.616329,-10066.800811,0.000000,1149.143247
3391.616667,-9992.780217,-296.082377,229.828649
3391.617004,-10584.944971,518.144159,-153.219100
3391.617341,-9770.718434,518.144159,-1225.752797
3391.617679,-8808.450710,666.185348,-306.438199
3391.618016,-10658.965565,222.061783,229.828649
3391.618354,-10510.924376,-666.185348,-153.219100
3391.618691,-11029.068536,-666.185348,0.000000
3391.619028,-10140.821405,0.000000,-536.266849
3391.619366,-9474.636058,-1332.370696,-1608.800546
3391.619703,-10140.821405,-1924.535449,-383.047749
3391.620041,-9770.718434,-1406.391290,-995.924147
3391.620378,-9104.533087,-2294.638420,-1608.800546
3391.620715,-9844.739029,-518.144159,0.000000
3391.621053,-8882.471304,-888.247130,-689.485948
3391.621390,-9770.718434,-2442.679609,0.000000
3391.621728,-10955.047942,-962.267725,2068.457845
3391.622065,-10658.965565,-962.267725,1378.971896
3391.622402,-11029.068536,592.164754,3294.210641
3391.622740,-10807.006753,1036.288319,1838.629195
3391.623077,-9918.759623,888.247130,842.705048
3391.623415,-10510.924376,-222.061783,1532.190996
3391.623752,-9696.697840,148.041188,2068.457845
3391.624089,-10066.800811,518.144159,1991.848295
3391.624427,-9548.656652,1036.288319,306.438199
3391.624764,-9104.533087,1184.329507,-1915.238745
3391.625102,-9548.656652,1184.329507,-1302.362347
3391.625439,-11029.068536,1850.514855,383.047749
3391.625776,-10658.965565,1850.514855,-689.485948
3391.626114,-11177.109724,1628.453072,-229.828649
3391.626451,-9992.780217,2072.576638,-1378.971896
3391.626789,-9622.677246,-296.082377,-612.876398
3391.627126,-9844.739029,-1110.308913,1991.848295
3391.627463,-9548.656652,-1628.453072,1302.362347
3391.627801,-9844.739029,-1702.473667,1608.800546
3391.628138,-10436.903782,-592.164754,612.876398
3391.628476,-9252.574275,-962.267725,-1455.581446
3391.628813,-7920.203579,-2072.576638,-995.924147
3391.629150,-9474.636058,-1332.370696,1225.752797
3391.629488,-9844.739029,0.000000,153.219100
3391.629825,-11325.150913,1110.308913,76.609550
3391.630163,-11103.089130,1184.329507,-1608.800546
3391.630500,-9548.656652,-592.164754,-1378.971896
3391.630837,-10214.842000,-1036.288319,2068.457845
3391.631175,-10214.842000,-814.226536,2834.553343
3391.631512,-10066.800811,-962.267725,1532.190996
3391.631850,-10881.027347,0.000000,536.266849
3391.632187,-10658.965565,-74.020594,-1762.019645
3391.632525,-9622.677246,-888.247130,-919.314598
3391.632862,-10288.862594,-1332.370696,459.657299
3391.633199,-11399.171507,-888.247130,-306.438199
3391.633537,-10510.924376,370.102971,-1455.581446
3391.633874,-9474.636058,0.000000,-2221.676944
3391.634212,-9622.677246,-1702.473667,-229.828649
3391.634549,-10584.944971,-2220.617826,2068.457845
3391.634886,-11103.089130,-444.123565,1991.848295
3391.635224,-9918.759623,-592.164754,995.924147
3391.635561,-10214.842000,-1110.308913,1838.629195
3391.635899,-9474.636058,-666.185348,1149.143247
3391.636236,-9770.718434,-1332.370696,1225.752797
3391.636573,-9326.594869,666.185348,2451.505594
3391.636911,-10140.821405,1184.329507,612.876398
3391.637248,-9474.636058,1480.411884,306.438199
3391.637586,-8660.409521,2220.617826,-306.438199
3391.637923,-8586.388927,0.000000,76.609550
3391.638260,-8586.388927,0.000000,1149.143247
3391.638598,-9622.677246,666.185348,919.314598
3391.638935,-10362.883188,740.205942,536.266849
3391.639273,-10214.842000,962.267725,-766.095498
3391.639610,-10214.842000,592.164754,-1532.190996
3391.639947,-10732.986159,-370.102971,-383.047749
3391.640285,-10658.965565,-740.205942,0.000000
3391.640622,-9252.574275,0.000000,-1302.362347
3391.640960,-9622.677246,-444.123565,-1378.971896
3391.641297,-10214.842000,-444.123565,-995.924147
3391.641634,-9918.759623,-1850.514855,-1225.752797
3391.641972,-11621.233289,-1258.350101,1072.533697
3391.642309,-11473.192101,-370.102971,-306.438199
3391.642647,-10362.883188,-592.164754,-842.705048
3391.642984,-11251.130318,-666.185348,919.314598
3391.643321,-9770.718434,-1776.494261,536.266849
3391.643659,-9696.697840,-1332.370696,1685.410096
3391.643996,-10362.883188,-1332.370696,2374.896044
3391.644334,-9918.759623,0.000000,1225.752797
3391.644671,-10658.965565,-370.102971,0.000000
3391.645008,-10066.800811,296.082377,-229.828649
3391.645346,-8290.306550,0.000000,0.000000
3391.645683,-9400.615463,-592.164754,2604.724693
3391.646021,-10214.842000,740.205942,2298.286494
3391.646358,-9992.780217,740.205942,-612.876398
3391.646695,-10807.006753,740.205942,-153.219100
3391.647033,-10066.800811,962.267725,-995.924147
3391.647370,-8956.491898,-1258.350101,-766.095498
3391.647708,-9622.677246,-148.041188,1225.752797
3391.648045,-9622.677246,222.061783,-229.828649
3391.648382,-9622.677246,666.185348,-1149.143247
3391.648720,-9918.759623,518.144159,-2145.067394
3391.649057,-8956.491898,-74.020594,-1455.581446
3391.649395,-10732.986159,0.000000,1991.848295
3391.649732,-12287.418637,0.000000,2145.067394
3391.650069,-11029.068536,444.123565,919.314598
3391.650407,-11177.109724,296.082377,1608.800546
3391.650744,-10807.006753,666.185348,1072.533697
3391.651082,-8882.471304,-1258.350101,995.924147
3391.651419,-10066.800811,-1406.391290,3370.820191
3391.651756,-9548.656652,-148.041188,2987.772442
3391.652094,-10807.006753,370.102971,1072.533697
3391.652431,-10658.965565,1184.329507,-1225.752797
3391.652769,-9474.636058,-444.123565,-1608.800546
3391.653106,-9252.574275,-1110.308913,612.876398
3391.653443,-9770.718434,-370.102971,383.047749
3391.653781,-9104.533087,296.082377,-383.047749
3391.654118,-9400.615463,0.000000,-1302.362347
3391.654456,-9770.718434,-1332.370696,-2604.724693
3391.654793,-9400.615463,-2664.741391,-1608.800546
3391.655130,-9992.780217,-2812.782580,766.095498
3391.655468,-9992.780217,-2072.576638,1149.143247
3391.655805,-10066.800811,-1406.391290,229.828649
3391.656143,-9770.718434,-740.205942,-1225.752797
3391.656480,-9918.759623,-962.267725,-842.705048
3391.656818,-10732.986159,-1776.494261,229.828649
3391.657155,-10955.047942,-1184.329507,1762.019645
3391.657492,-11621.233289,-444.123565,1685.410096
3391.657830,-9474.636058,740.205942,842.705048
3391.658167,-9400.615463,1776.494261,-153.219100
3391.658505,-11103.089130,-296.082377,689.485948
3391.658842,-10732.986159,0.000000,1455.581446
3391.659179,-10732.986159,1406.391290,1532.190996
3391.659517,-10288.862594,2442.679609,995.924147
3391.659854,-9992.780217,1702.473667,-536.266849
3391.660192,-10288.862594,1702.473667,-1685.410096
3391.660529,-9030.512492,888.247130,-459.657299
3391.660866,-10140.821405,666.185348,612.876398
3391.661204,-9622.677246,666.185348,-306.438199
3391.661541,-8956.491898,1628.453072,-2221.676944
3391.661879,-9252.574275,1110.308913,-2145.067394
3391.662216,-9474.636058,-1110.308913,-1149.143247
3391.662553,-9844.739029,-1554.432478,459.657299
3391.662891,-10140.821405,-666.185348,229.828649
3391.663228,-8956.491898,-148.041188,0.000000
3391.663566,-9326.594869,-222.061783,-612.876398
3391.663903,-8660.409521,-1554.432478,-536.266849
3391.664240,-9326.594869,-1924.535449,1915.238745
3391.664578,-11621.233289,-2368.659014,3983.696590
3391.664915,-10362.883188,444.123565,1532.190996
3391.665253,-11029.068536,1258.350101,153.219100
3391.665590,-11325.150913,444.123565,76.609550
3391.665927,-9474.636058,-666.185348,689.485948
3391.666265,-10288.862594,0.000000,2298.286494
3391.666602,-11769.274478,666.185348,1915.238745
3391.666940,-11325.150913,296.082377,-383.047749
3391.667277,-10658.965565,518.144159,-995.924147
3391.667614,-9400.615463,-740.205942,-689.485948
3391.667952,-9548.656652,-1850.514855,2298.286494
3391.668289,-11399.171507,-1776.494261,2374.896044
3391.668627,-9992.780217,-1480.411884,0.000000
3391.668964,-9178.553681,-962.267725,-842.705048
3391.669301,-8808.450710,-2072.576638,-1149.143247
3391.669639,-7846.182985,-2812.782580,766.095498
3391.669976,-10214.842000,-1776.494261,3217.601092
3391.670314,-12435.459826,-962.267725,2911.162892
3391.670651,-11399.171507,518.144159,0.000000
3391.670988,-9918.759623,814.226536,-842.705048
3391.671326,-9770.718434,-1184.329507,612.876398
3391.671663,-8438.347739,-2738.761985,1838.629195
3391.672001,-8586.388927,-1110.308913,3600.648841
3391.672338,-9992.780217,1184.329507,2068.457845
3391.672675,-9844.739029,1850.514855,-766.095498
3391.673013,-10362.883188,2886.803174,-3064.381992
3391.673350,-10362.883188,1110.308913,-2145.067394
3391.673688,-10436.903782,0.000000,842.705048
3391.674025,-10881.027347,592.164754,919.314598
3391.674362,-9622.677246,2442.679609,536.266849
3391.674700,-9030.512492,888.247130,0.000000
3391.675037,-9104.533087,222.061783,-2298.286494
3391.675375,-9178.553681,-962.267725,-995.924147
3391.675712,-10732.986159,-1406.391290,153.219100
3391.676049,-9992.780217,-888.247130,-1225.752797
3391.676387,-9992.780217,-444.123565,-1608.800546
3391.676724,-9770.718434,518.144159,-2528.115143
3391.677062,-9030.512492,-2146.597232,-2834.553343
3391.677399,-9844.739029,-2590.720797,536.266849
3391.677736,-9992.780217,-962.267725,689.485948
3391.678074,-10732.986159,-1258.350101,229.828649
3391.678411,-10510.924376,-1702.473667,-612.876398
3391.678749,-9326.594869,-1924.535449,-842.705048
3391.679086,-10214.842000,-2368.659014,2374.896044
3391.679424,-10807.006753,-1480.411884,3064.381992
3391.679761,-9992.780217,74.020594,2451.505594
3391.680099,-10732.986159,518.144159,995.924147
3391.680436,-10658.965565,1110.308913,-1149.143247
3391.680774,-10436.903782,222.061783,-1455.581446
3391.681111,-10140.821405,74.020594,612.876398
3391.681449,-10658.965565,296.082377,766.095498
3391.681786,-10140.821405,666.185348,1149.143247
3391.682124,-10288.862594,1776.494261,842.705048
3391.682461,-10362.883188,518.144159,-842.705048
3391.682799,-9992.780217,-296.082377,-919.314598
3391.683136,-10362.883188,-888.247130,1302.362347
3391.683474,-10066.800811,-592.164754,919.314598
3391.683811,-8956.491898,-222.061783,919.314598
3391.684149,-9992.780217,814.226536,-383.047749
3391.684486,-8808.450710,-444.123565,-229.828649
3391.684823,-9770.718434,-222.061783,1072.533697
3391.685161,-10362.883188,-296.082377,842.705048
3391.685498,-8882.471304,888.247130,919.314598
3391.685836,-9474.636058,740.205942,1149.143247
3391.686173,-10881.027347,1332.370696,0.000000
3391.686511,-10214.842000,0.000000,536.266849
3391.686848,-11029.068536,222.061783,1915.238745
3391.687186,-10436.903782,74.020594,2068.457845
3391.687523,-10436.903782,740.205942,2068.457845
3391.687861,-10214.842000,1332.370696,689.485948
3391.688198,-9770.718434,0.000000,-1225.752797
3391.688536,-9178.553681,-444.123565,-919.314598
3391.688873,-9622.677246,-518.144159,-459.657299
3391.689211,-10658.965565,-592.164754,0.000000
3391.689548,-10658.965565,518.144159,-1302.362347
3391.689886,-9992.780217,74.020594,-2068.457845
3391.690223,-9326.594869,-962.267725,-1608.800546
3391.690561,-9548.656652,-1924.535449,-153.219100
3391.690898,-11103.089130,-2294.638420,459.657299
3391.691236,-10066.800811,-2368.659014,536.266849
3391.691573,-9992.780217,-1480.411884,-612.876398
3391.691911,-9474.636058,-2146.597232,-229.828649
3391.692248,-9030.512492,-2220.617826,1685.410096
3391.692586,-10732.986159,-1110.308913,2374.896044
3391.692923,-10807.006753,-666.185348,536.266849
3391.693261,-9992.780217,0.000000,1225.752797
3391.693598,-10807.006753,444.123565,1455.581446
3391.693935,-10510.924376,0.000000,2145.067394
3391.694273,-9474.636058,-296.082377,1072.533697
3391.694610,-9400.615463,0.000000,689.485948
3391.694948,-10510.924376,888.247130,612.876398
3391.695285,-9770.718434,2220.617826,76.609550
3391.695623,-8956.491898,518.144159,-919.314598
3391.695960,-9696.697840,370.102971,306.438199
3391.696298,-10881.027347,296.082377,229.828649
3391.696635,-10510.924376,1480.411884,0.000000
3391.696973,-9622.677246,740.205942,-1302.362347
3391.697310,-8956.491898,740.205942,-2528.115143
3391.697648,-8808.450710,-1184.329507,-1302.362347
3391.697985,-9992.780217,-444.123565,766.095498
3391.698323,-10362.883188,-370.102971,536.266849
3391.698660,-10732.986159,0.000000,459.657299
3391.698998,-10584.944971,592.164754,-383.047749
3391.699335,-9992.780217,-1702.473667,-306.438199
3391.699673,-9844.739029,-1480.411884,1762.019645
3391.700010,-9696.697840,-1480.411884,2681.334243
3391.700348,-10066.800811,-740.205942,1838.629195
3391.700685,-10510.924376,518.144159,1302.362347
3391.701023,-10288.862594,1480.411884,76.609550
3391.701360,-9918.759623,-1110.308913,612.876398
3391.701698,-10140.821405,-740.205942,1915.238745
3391.702035,-9252.574275,148.041188,1685.410096
3391.702372,-10658.965565,-666.185348,919.314598
3391.702710,-10658.965565,-444.123565,-383.047749
3391.703047,-8882.471304,-592.164754,-689.485948
3391.703385,-9178.553681,-296.082377,459.657299
3391.703722,-10066.800811,74.020594,76.609550
3391.704060,-10362.883188,-814.226536,-1915.238745
3391.704397,-10066.800811,0.000000,-1915.238745
3391.704735,-9696.697840,-1258.350101,-1378.971896
3391.705072,-8882.471304,-2220.617826,229.828649
3391.705410,-9992.780217,-1628.453072,1991.848295
3391.705747,-11769.274478,-1628.453072,1838.629195
3391.706085,-10510.924376,-592.164754,842.705048
3391.706422,-8956.491898,0.000000,1225.752797
3391.706760,-9770.718434,0.000000,459.657299
3391.707097,-9992.780217,-592.164754,1608.800546
3391.707435,-11843.295072,592.164754,1378.971896
3391.707772,-11325.150913,444.123565,612.876398
3391.708110,-10214.842000,444.123565,1072.533697
3391.708447,-9178.553681,1110.308913,76.609550
3391.708785,-9030.512492,-444.123565,689.485948
3391.709122,-9178.553681,1036.288319,1991.848295
3391.709460,-10140.821405,444.123565,229.828649
3391.709797,-10955.047942,444.123565,229.828649
3391.710135,-10510.924376,888.247130,0.000000
3391.710472,-10955.047942,296.082377,-536.266849
3391.710809,-10881.027347,-592.164754,766.095498
3391.711147,-9178.553681,-962.267725,0.000000
3391.711484,-8364.327145,-1110.308913,-919.314598
3391.711822,-9326.594869,-1850.514855,-536.266849
3391.712159,-8512.368333,-962.267725,-2374.896044
3391.712497,-8734.430116,-1184.329507,-2834.553343
3391.712834,-11177.109724,-222.061783,-995.924147
3391.713172,-10881.027347,-1110.308913,-1915.238745
3391.713509,-10658.965565,-1258.350101,-1455.581446
3391.713847,-10288.862594,-1184.329507,536.266849
3391.714184,-9474.636058,-666.185348,612.876398
3391.714522,-9104.533087,-2146.597232,3294.210641
3391.714859,-11621.233289,-518.144159,3907.087040
3391.715197,-11547.212695,-296.082377,1608.800546
3391.715534,-10807.006753,444.123565,1149.143247
3391.715872,-10732.986159,1406.391290,0.000000
3391.716209,-10214.842000,0.000000,-1072.533697
3391.716547,-10214.842000,222.061783,153.219100
3391.716884,-8882.471304,740.205942,-1225.752797
3391.717222,-8512.368333,148.041188,-612.876398
3391.717559,-9918.759623,1036.288319,0.000000
3391.717897,-9548.656652,0.000000,-1608.800546
3391.718234,-10214.842000,-1332.370696,153.219100
3391.718572,-10584.944971,-444.123565,1685.410096
3391.718909,-9548.656652,-888.247130,229.828649
3391.719246,-9918.759623,0.000000,1532.190996
3391.719584,-9474.636058,-444.123565,229.828649
3391.719921,-8364.327145,-1036.288319,0.000000
3391.720259,-9918.759623,-296.082377,2374.896044
3391.720596,-9622.677246,0.000000,1149.143247
3391.720934,-10362.883188,814.226536,-612.876398
3391.721271,-11325.150913,370.102971,-536.266849
3391.721609,-9844.739029,370.102971,-306.438199
3391.721946,-9104.533087,-740.205942,1991.848295
3391.722284,-11029.068536,148.041188,3447.429741
3391.722621,-10732.986159,1110.308913,1685.410096
3391.722959,-10955.047942,962.267725,459.657299
3391.723296,-10214.842000,296.082377,306.438199
3391.723634,-9548.656652,-1184.329507,689.485948
3391.723971,-9918.759623,-592.164754,1608.800546
3391.724309,-10066.800811,0.000000,0.000000
3391.724646,-11177.109724,-888.247130,-383.047749
3391.724984,-10066.800811,-148.041188,-1378.971896
3391.725321,-9252.574275,-1110.308913,-2911.162892
3391.725659,-9178.553681,-2664.741391,-766.095498
3391.725996,-8882.471304,-1628.453072,306.438199
3391.726334,-10436.903782,-740.205942,-1532.190996
3391.726671,-10807.006753,-1480.411884,-1608.800546
3391.727009,-9326.594869,-962.267725,-1149.143247
3391.727346,-9252.574275,-2368.659014,842.705048
3391.727684,-10436.903782,-2294.638420,3370.820191
3391.728021,-10436.903782,-1110.308913,3600.648841
3391.728358,-11029.068536,-296.082377,1915.238745
3391.728696,-11103.089130,814.226536,689.485948
3391.729033,-9992.780217,-222.061783,-229.828649
3391.729371,-9474.636058,-222.061783,2298.286494
3391.729708,-9992.780217,592.164754,1685.410096
3391.730046,-10732.986159,1702.473667,76.609550
3391.730383,-9770.718434,2738.761985,-995.924147
3391.730721,-9548.656652,2220.617826,-1762.019645
3391.731058,-9992.780217,296.082377,-1685.410096
3391.731396,-9474.636058,0.000000,842.705048
3391.731733,-10066.800811,592.164754,1072.533697
3391.732071,-10066.800811,-148.041188,153.219100
3391.732408,-9178.553681,370.102971,-383.047749
3391.732746,-9548.656652,-888.247130,-1302.362347
3391.733083,-10214.842000,-1924.535449,383.047749
3391.733421,-10140.821405,-592.164754,766.095498
3391.733758,-9474.636058,0.000000,-1149.143247
3391.734096,-8956.491898,-962.267725,-995.924147
3391.734433,-9474.636058,-1258.350101,-1455.581446
3391.734771,-9622.677246,-2146.597232,-766.095498
3391.735108,-9696.697840,-1850.514855,2298.286494
3391.735446,-11399.171507,-666.185348,3217.601092
3391.735783,-10732.986159,74.020594,2068.457845
3391.736121,-10955.047942,518.144159,1072.533697
3391.736458,-10510.924376,0.000000,919.314598
3391.736795,-11695.253884,-740.205942,1838.629195
3391.737133,-11695.253884,0.000000,1225.752797
3391.737470,-10584.944971,74.020594,-383.047749
3391.737808,-8882.471304,518.144159,-995.924147
3391.738145,-9696.697840,592.164754,-995.924147
3391.738483,-9474.636058,-1036.288319,-1378.971896
3391.738820,-10214.842000,-1702.473667,229.828649
3391.739158,-10140.821405,-592.164754,459.657299
3391.739495,-9696.697840,-740.205942,-229.828649
3391.739833,-9918.759623,-1258.350101,536.266849
3391.740170,-10066.800811,-2072.576638,383.047749
3391.740508,-9030.512492,-2442.679609,1608.800546
3391.740845,-9844.739029,-814.226536,2298.286494
3391.741183,-10584.944971,0.000000,1149.143247
3391.741520,-9844.739029,148.041188,-1072.533697
3391.741858,-9622.677246,370.102971,-1225.752797
3391.742195,-8364.327145,-444.123565,-383.047749
3391.742533,-8956.491898,-370.102971,2298.286494
3391.742870,-11029.068536,222.061783,2528.115143
3391.743208,-10807.006753,1110.308913,919.314598
3391.743545,-10214.842000,1480.411884,76.609550
3391.743883,-9918.759623,2294.638420,536.266849
3391.744220,-10288.862594,1628.453072,2451.505594
3391.744558,-11325.150913,1554.432478,1685.410096
3391.744895,-11621.233289,1554.432478,-306.438199
3391.745232,-10955.047942,740.205942,-766.095498
3391.745570,-9770.718434,1036.288319,-1685.410096
3391.745907,-8068.244768,-592.164754,-1455.581446
3391.746245,-8512.368333,-1998.556043,306.438199
3391.746582,-10436.903782,-1036.288319,-383.047749
3391.746920,-10658.965565,-1702.473667,-1762.019645
3391.747257,-10955.047942,-2072.576638,-1149.143247
3391.747595,-9992.780217,-1554.432478,-995.924147
3391.747932,-9400.615463,-1924.535449,306.438199
3391.748270,-11029.068536,-1850.514855,1225.752797
3391.748607,-9770.718434,-2146.597232,536.266849
3391.748945,-9030.512492,-2072.576638,306.438199
3391.749282,-9548.656652,-1998.556043,1072.533697
3391.749620,-10214.842000,-2590.720797,0.000000
3391.749957,-10510.924376,-2294.638420,1608.800546
3391.750295,-10807.006753,-370.102971,1762.019645
3391.750632,-10510.924376,370.102971,919.314598
3391.750970,-10584.944971,1036.288319,536.266849
3391.751307,-9844.739029,1110.308913,-536.266849
3391.751645,-8956.491898,-370.102971,0.000000
3391.751982,-11399.171507,-518.144159,2451.505594
3391.752320,-11695.253884,888.247130,1072.533697
3391.752657,-9104.533087,1258.350101,-1532.190996
3391.752995,-10066.800811,1850.514855,-1225.752797
3391.753332,-9474.636058,-444.123565,-1838.629195
3391.753669,-8734.430116,-740.205942,0.000000
3391.754007,-10214.842000,-814.226536,842.705048
3391.754344,-9918.759623,370.102971,229.828649
3391.754682,-10436.903782,370.102971,0.000000
3391.755019,-10288.862594,148.041188,0.000000
3391.755357,-8586.388927,0.000000,1072.533697
3391.755694,-10066.800811,-148.041188,2911.162892
3391.756032,-10732.986159,-148.041188,1915.238745
3391.756369,-9918.759623,962.267725,306.438199
3391.756707,-9844.739029,1036.288319,-459.657299
3391.757044,-9548.656652,-296.082377,0.000000
3391.757382,-9104.533087,-666.185348,1072.533697
3391.757719,-9548.656652,888.247130,1838.629195
3391.758057,-9844.739029,666.185348,995.924147
3391.758394,-11029.068536,814.226536,0.000000
3391.758732,-10955.047942,962.267725,-1225.752797
3391.759069,-9918.759623,-592.164754,229.828649
3391.759407,-9992.780217,-666.185348,1685.410096
3391.759744,-10214.842000,-370.102971,919.314598
3391.760082,-9844.739029,-1110.308913,-306.438199
3391.760419,-9918.759623,-740.205942,-1072.533697
3391.760757,-10140.821405,-1332.370696,-1838.629195
3391.761094,-9770.718434,-2664.741391,-1225.752797
3391.761432,-10881.027347,-2368.659014,76.609550
3391.761769,-10214.842000,-1554.432478,-842.705048
3391.762106,-9252.574275,-1776.494261,0.000000
3391.762444,-9622.677246,-1184.329507,0.000000
3391.762781,-9104.533087,-2664.741391,383.047749
3391.763119,-11029.068536,-2368.659014,3983.696590
3391.763456,-11917.315666,-1332.370696,2681.334243
3391.763794,-10807.006753,-814.226536,1838.629195
3391.764131,-11103.089130,666.185348,2528.115143
3391.764469,-9918.759623,518.144159,1302.362347
3391.764806,-9474.636058,74.020594,3140.991542
3391.765144,-10881.027347,1332.370696,2221.676944
3391.765481,-10066.800811,1702.473667,0.000000
3391.765819,-10510.924376,2294.638420,-995.924147
3391.766156,-10510.924376,2368.659014,-2911.162892
3391.766494,-7772.162391,888.247130,-2374.896044
3391.766831,-9104.533087,1184.329507,306.438199
3391.767169,-9548.656652,592.164754,0.000000
3391.767506,-9326.594869,592.164754,153.219100
3391.767844,-9548.656652,592.164754,459.657299
3391.768181,-9548.656652,0.000000,-459.657299
3391.768519,-10066.800811,-1480.411884,1072.533697
3391.768856,-10658.965565,-814.226536,766.095498
3391.769194,-9474.636058,-1850.514855,-1149.143247
3391.769531,-9474.636058,-444.123565,-766.095498
3391.769869,-8290.306550,-74.020594,-1762.019645
3391.770206,-8734.430116,-1480.411884,-1225.752797
3391.770544,-10066.800811,-740.205942,766.095498
3391.770881,-11621.233289,-592.164754,0.000000
3391.771218,-10807.006753,74.020594,-306.438199
3391.771556,-10584.944971,148.041188,-383.047749
3391.771893,-10436.903782,-888.247130,766.095498
3391.772231,-11029.068536,-2146.597232,1915.238745
3391.772568,-11399.171507,-666.185348,2298.286494
3391.772906,-11251.130318,74.020594,766.095498
3391.773243,-10955.047942,-444.123565,-459.657299
3391.773581,-10584.944971,148.041188,-2451.505594
3391.773918,-10140.821405,-2294.638420,-1532.190996
3391.774256,-10214.842000,-1776.494261,0.000000
3391.774593,-9992.780217,-1850.514855,-766.095498
3391.774931,-9030.512492,-888.247130,-842.705048
3391.775268,-9474.636058,-666.185348,-689.485948
3391.775606,-10584.944971,-2368.659014,153.219100
3391.775943,-9622.677246,-2664.741391,2757.943793
3391.776281,-9770.718434,-666.185348,3217.601092
3391.776618,-10066.800811,0.000000,2757.943793
3391.776956,-10288.862594,1036.288319,536.266849
3391.777293,-9548.656652,592.164754,-1455.581446
3391.777631,-9252.574275,-148.041188,-306.438199
3391.777968,-9030.512492,592.164754,2374.896044
3391.778306,-10510.924376,2294.638420,1838.629195
3391.778643,-9844.739029,2886.803174,995.924147
3391.778981,-10066.800811,3034.844362,0.000000
3391.779318,-9770.718434,3701.029710,-612.876398
3391.779655,-9474.636058,2812.782580,459.657299
3391.779993,-10881.027347,3034.844362,842.705048
3391.780330,-11399.171507,1480.411884,-306.438199
3391.780668,-11029.068536,1924.535449,-1302.362347
3391.781005,-9474.636058,2812.782580,-1991.848295
3391.781343,-9104.533087,1998.556043,-1149.143247
3391.781680,-8364.327145,1184.329507,-1762.019645
3391.782017,-10584.944971,-814.226536,-2528.115143
3391.782355,-10288.862594,-592.164754,-2374.896044
3391.782692,-9474.636058,1036.288319,-2604.724693
3391.783030,-10066.800811,1258.350101,-2834.553343
3391.783367,-9474.636058,-592.164754,-2987.772442
3391.783705,-9770.718434,-962.267725,-1378.971896
3391.784042,-11399.171507,-1702.473667,153.219100
3391.784380,-9474.636058,0.000000,0.000000
3391.784717,-10214.842000,-740.205942,-76.609550
3391.785054,-11251.130318,-740.205942,-919.314598
3391.785392,-9622.677246,222.061783,-1608.800546
3391.785729,-11029.068536,-296.082377,0.000000
3391.786067,-10807.006753,592.164754,766.095498
3391.786404,-8808.450710,1184.329507,-1225.752797
3391.786742,-10732.986159,1776.494261,-2451.505594
3391.787079,-11547.212695,1110.308913,-2834.553343
3391.787416,-10140.821405,444.123565,-2757.943793
3391.787754,-10658.965565,1184.329507,-1838.629195
3391.788091,-9770.718434,1554.432478,-1991.848295
3391.788429,-9400.615463,1406.391290,-2757.943793
3391.788766,-10288.862594,1924.535449,-2681.334243
3391.789104,-10066.800811,2072.576638,-2911.162892
3391.789441,-9548.656652,1110.308913,-3064.381992
3391.789778,-10140.821405,1702.473667,-1838.629195
3391.790116,-9770.718434,1332.370696,-1072.533697
3391.790453,-9326.594869,1776.494261,-1302.362347
3391.790791,-8734.430116,2738.761985,-1302.362347
3391.791128,-9918.759623,1998.556043,-459.657299
3391.791466,-10658.965565,2886.803174,-1149.143247
3391.791803,-9548.656652,1776.494261,-1991.848295
3391.792141,-9770.718434,2368.659014,612.876398
3391.792478,-9770.718434,2812.782580,229.828649
3391.792815,-10140.821405,2812.782580,-995.924147
3391.793153,-10584.944971,3701.029710,-1532.190996
3391.793490,-10288.862594,2886.803174,-1225.752797
3391.793828,-9770.718434,2590.720797,-2221.676944
3391.794165,-9030.512492,3478.967927,-2604.724693
3391.794503,-9548.656652,592.164754,-1149.143247
3391.794840,-11029.068536,1628.453072,-1532.190996
3391.795177,-10436.903782,1628.453072,-3294.210641
3391.795515,-9326.594869,1924.535449,-2681.334243
3391.795852,-9548.656652,1036.288319,-2068.457845
3391.796190,-11177.109724,444.123565,-2757.943793
3391.796527,-9548.656652,444.123565,-3983.696590
3391.796865,-8956.491898,0.000000,-2221.676944
3391.797202,-10955.047942,-888.247130,-306.438199
3391.797540,-11547.212695,-740.205942,-1302.362347
3391.797877,-8956.491898,962.267725,-2604.724693
3391.798214,-9400.615463,0.000000,-459.657299
3391.798552,-11177.109724,74.020594,0.000000
3391.798889,-10510.924376,814.226536,-1532.190996
3391.799227,-10066.800811,1628.453072,-1608.800546
3391.799564,-10362.883188,1628.453072,-459.657299
3391.799902,-11399.171507,1554.432478,0.000000
3391.800239,-11843.295072,3182.885551,-459.657299
3391.800576,-9548.656652,3182.885551,-1991.848295
3391.800914,-10066.800811,3775.050304,-919.314598
3391.801251,-11473.192101,3478.967927,-1149.143247
3391.801589,-10140.821405,2442.679609,-4366.744339
3391.801926,-7994.224174,2368.659014,-3600.648841
3391.802264,-8068.244768,2072.576638,-2221.676944
3391.802601,-10066.800811,1332.370696,-1302.362347
3391.802938,-11621.233289,2146.597232,-2528.115143
3391.803276,-8586.388927,3256.906145,-3830.477490
3391.803613,-8956.491898,3404.947333,-3524.039291
3391.803951,-10584.944971,1998.556043,-3217.601092
3391.804288,-11177.109724,1110.308913,-2757.943793
3391.804626,-8290.306550,888.247130,-2681.334243
3391.804963,-7550.100608,1554.432478,-1149.143247
3391.805301,-9474.636058,888.247130,-995.924147
3391.805638,-12435.459826,-296.082377,0.000000
3391.805975,-10362.883188,1036.288319,-306.438199
3391.806313,-9178.553681,1628.453072,0.000000
3391.806650,-11621.233289,3849.070898,-153.219100
3391.806988,-13101.645173,3182.885551,-2987.772442
3391.807325,-11325.150913,1480.411884,-3677.258390
3391.807663,-9178.553681,1258.350101,-1455.581446
3391.808000,-8734.430116,2664.741391,76.609550
3391.808337,-10214.842000,2886.803174,-919.314598
3391.808675,-11251.130318,2368.659014,-3830.477490
3391.809012,-9178.553681,222.061783,-4060.306139
3391.809350,-9252.574275,-1332.370696,-766.095498
3391.809687,-10066.800811,740.205942,1378.971896
3391.810025,-11325.150913,1332.370696,-766.095498
3391.810362,-11917.315666,1850.514855,-4136.915689
3391.810699,-9252.574275,148.041188,-5286.058936
3391.811037,-7698.141797,-296.082377,-1455.581446
3391.811374,-8068.244768,0.000000,1762.019645
3391.811712,-9770.718434,814.226536,-1072.533697
3391.812049,-11251.130318,1850.514855,-4749.792088
3391.812387,-10362.883188,1332.370696,-4903.011187
3391.812724,-8882.471304,1110.308913,-1685.410096
3391.813062,-8586.388927,814.226536,689.485948
3391.813399,-9770.718434,1924.535449,1532.190996
3391.813736,-11177.109724,2738.761985,842.705048
3391.814074,-11251.130318,3627.009116,-306.438199
3391.814411,-10288.862594,5033.400406,-842.705048
3391.814749,-10658.965565,4367.215058,-1608.800546
3391.815086,-10214.842000,3478.967927,-2374.896044
3391.815424,-10214.842000,3627.009116,-3677.258390
3391.815761,-8734.430116,1776.494261,-2987.772442
3391.816098,-8290.306550,1332.370696,-1378.971896
3391.816436,-9770.718434,1628.453072,-2374.896044
3391.816773,-11695.253884,2886.803174,-3064.381992
3391.817111,-11029.068536,3182.885551,-4596.572988
3391.817448,-10214.842000,2368.659014,-5286.058936
3391.817786,-8586.388927,814.226536,-3524.039291
3391.818123,-8438.347739,518.144159,-2298.286494
3391.818461,-7920.203579,814.226536,-842.705048
3391.818798,-9844.739029,222.061783,-459.657299
3391.819135,-12139.377449,-74.020594,0.000000
3391.819473,-11399.171507,-518.144159,-1378.971896
3391.819810,-10510.924376,1406.391290,-1149.143247
3391.820148,-10140.821405,1332.370696,-1685.410096
3391.820485,-10658.965565,1110.308913,-2757.943793
3391.820823,-10066.800811,1924.535449,-3600.648841
3391.821160,-8364.327145,1406.391290,-2911.162892
3391.821497,-9030.512492,3034.844362,-1532.190996
3391.821835,-10955.047942,2590.720797,-2221.676944
3391.822172,-11473.192101,1628.453072,-2528.115143
3391.822510,-9770.718434,1258.350101,-689.485948
3391.822847,-9622.677246,1332.370696,1455.581446
3391.823185,-11769.274478,2294.638420,2298.286494
3391.823522,-11843.295072,2960.823768,-1455.581446
3391.823859,-10955.047942,3627.009116,-4213.525239
3391.824197,-9474.636058,2146.597232,-4749.792088
3391.824534,-8290.306550,1184.329507,-3983.696590
3391.824872,-8290.306550,740.205942,-3140.991542
3391.825209,-8512.368333,888.247130,-3447.429741
3391.825547,-8364.327145,1628.453072,-3370.820191
3391.825884,-10510.924376,1924.535449,-1838.629195
3391.826222,-11177.109724,1554.432478,0.000000
3391.826559,-10436.903782,2368.659014,306.438199
3391.826896,-10658.965565,2738.761985,766.095498
3391.827234,-10362.883188,3552.988522,536.266849
3391.827571,-9992.780217,2442.679609,536.266849
3391.827909,-9030.512492,1998.556043,919.314598
3391.828246,-9474.636058,1554.432478,-306.438199
3391.828584,-10881.027347,2146.597232,-1072.533697
3391.828921,-11029.068536,1776.494261,-2757.943793
3391.829258,-9474.636058,1924.535449,-2911.162892
3391.829596,-9178.553681,2146.597232,-2911.162892
3391.829933,-10214.842000,2294.638420,-2451.505594
3391.830271,-10436.903782,2960.823768,-3524.039291
3391.830608,-10658.965565,2146.597232,-3524.039291
3391.830946,-10214.842000,1924.535449,-3447.429741
3391.831283,-9474.636058,296.082377,-2681.334243
3391.831620,-9252.574275,-444.123565,-2145.067394
3391.831958,-8956.491898,-1406.391290,-1838.629195
3391.832295,-9622.677246,-1184.329507,-1991.848295
3391.832633,-10140.821405,-74.020594,-2451.505594
3391.832970,-11473.192101,296.082377,-1378.971896
3391.833308,-11177.109724,814.226536,-1915.238745
3391.833645,-10807.006753,888.247130,-2374.896044
3391.833983,-10807.006753,1036.288319,-1149.143247
3391.834320,-9400.615463,1480.411884,-229.828649
3391.834657,-9326.594869,888.247130,1608.800546
3391.834995,-9696.697840,1184.329507,1685.410096
3391.835332,-10584.944971,2590.720797,612.876398
3391.835670,-11695.253884,2442.679609,1455.581446
3391.836007,-11547.212695,2516.700203,0.000000
3391.836345,-10140.821405,2220.617826,-919.314598
3391.836682,-9918.759623,2590.720797,-612.876398
3391.837019,-9622.677246,2812.782580,-1838.629195
3391.837357,-9326.594869,2664.741391,-2911.162892
3391.837694,-9474.636058,2220.617826,-3217.601092
3391.838032,-9104.533087,1998.556043,-3447.429741
3391.838369,-9030.512492,1480.411884,-3677.258390
3391.838707,-9696.697840,1628.453072,-2834.553343
3391.839044,-9178.553681,1184.329507,-3294.210641
3391.839382,-9844.739029,592.164754,-2834.553343
3391.839719,-9918.759623,1776.494261,-2451.505594
3391.840056,-10288.862594,1480.411884,-3830.477490
3391.840394,-9992.780217,1554.432478,-4060.306139
3391.840731,-9548.656652,814.226536,-3753.867940
3391.841069,-9104.533087,888.247130,-2757.943793
3391.841406,-9474.636058,1184.329507,-1915.238745
3391.841744,-10066.800811,2072.576638,-1225.752797
3391.842081,-11103.089130,2590.720797,-1532.190996
3391.842418,-11103.089130,2960.823768,-1302.362347
3391.842756,-11399.171507,3478.967927,-1915.238745
3391.843093,-11251.130318,2886.803174,-2068.457845
3391.843431,-10436.903782,2886.803174,-3064.381992
3391.843768,-9918.759623,2146.597232,-2911.162892
3391.844106,-10362.883188,1554.432478,-2681.334243
3391.844443,-9918.759623,1702.473667,-2681.334243
3391.844780,-11177.109724,1480.411884,-2604.724693
3391.845118,-9548.656652,2590.720797,-3753.867940
3391.845455,-10140.821405,3478.967927,-4596.572988
3391.845793,-9844.739029,2072.576638,-3524.039291
3391.846130,-8956.491898,888.247130,-2221.676944
3391.846468,-8808.450710,740.205942,536.266849
3391.846805,-10288.862594,2220.617826,1225.752797
3391.847143,-10658.965565,2368.659014,229.828649
3391.847480,-10732.986159,2664.741391,-689.485948
3391.847817,-9474.636058,1184.329507,-383.047749
3391.848155,-9326.594869,1702.473667,1378.971896
3391.848492,-10214.842000,3034.844362,1072.533697
3391.848830,-10362.883188,4071.132681,-2068.457845
3391.849167,-9326.594869,4737.318029,-3064.381992
3391.849505,-9474.636058,3627.009116,-1302.362347
3391.849842,-9770.718434,2960.823768,612.876398
3391.850179,-10288.862594,3775.050304,383.047749
3391.850517,-10510.924376,4145.153275,229.828649
3391.850854,-11251.130318,4885.359217,-459.657299
3391.851192,-11621.233289,2368.659014,-1149.143247
3391.851529,-10807.006753,3182.885551,-2528.115143
3391.851867,-8956.491898,2368.659014,-3753.867940
3391.852204,-9474.636058,2146.597232,-3753.867940
3391.852541,-9696.697840,148.041188,-3677.258390
3391.852879,-8290.306550,-1110.308913,-4596.572988
3391.853216,-7994.224174,-444.123565,-1991.848295
3391.853554,-10807.006753,1036.288319,-383.047749
3391.853891,-12953.603985,1702.473667,-2681.334243
3391.854229,-11843.295072,1998.556043,-5975.544884
3391.854566,-8660.409521,518.144159,-3677.258390
3391.854904,-8142.265362,-814.226536,-766.095498
3391.855241,-9622.677246,-1332.370696,383.047749
3391.855578,-10436.903782,74.020594,-1072.533697
3391.855916,-10436.903782,1036.288319,-2451.505594
3391.856253,-10362.883188,740.205942,-2911.162892
3391.856591,-10362.883188,74.020594,-2451.505594
3391.856928,-9770.718434,888.247130,-1762.019645
3391.857266,-9548.656652,1110.308913,-995.924147
3391.857603,-10214.842000,1850.514855,-1072.533697
3391.857940,-10658.965565,3182.885551,-1915.238745
3391.858278,-11029.068536,3182.885551,-3140.991542
3391.858615,-10140.821405,3256.906145,-3294.210641
3391.858953,-10140.821405,1924.535449,-2911.162892
3391.859290,-9474.636058,1110.308913,-1378.971896
3391.859628,-9474.636058,666.185348,-1685.410096
3391.859965,-9770.718434,1332.370696,-1838.629195
3391.860303,-9548.656652,1998.556043,-2757.943793
3391.860640,-11325.150913,1110.308913,-2068.457845
3391.860977,-11547.212695,2220.617826,-1072.533697
3391.861315,-9844.739029,2072.576638,-229.828649
3391.861652,-9030.512492,3627.009116,-995.924147
3391.861990,-9474.636058,3478.967927,-2604.724693
3391.862327,-9770.718434,2886.803174,-2298.286494
3391.862665,-8734.430116,1628.453072,-2068.457845
3391.863002,-9548.656652,888.247130,383.047749
3391.863339,-10732.986159,1924.535449,1225.752797
3391.863677,-9918.759623,3108.864956,-689.485948
3391.864014,-10436.903782,1998.556043,-842.705048
3391.864352,-9844.739029,2294.638420,-1455.581446
3391.864689,-10066.800811,1998.556043,-383.047749
3391.865027,-10584.944971,3997.112087,-919.314598
3391.865364,-9770.718434,3552.988522,-2757.943793
3391.865701,-10807.006753,2738.761985,-3983.696590
3391.866039,-8882.471304,0.000000,-4673.182538
3391.866376,-7624.121203,-222.061783,-2528.115143
3391.866714,-8364.327145,370.102971,-612.876398
3391.867051,-11399.171507,222.061783,-689.485948
3391.867389,-12879.583391,-222.061783,-2834.553343
3391.867726,-11621.233289,296.082377,-2911.162892
3391.868064,-9252.574275,2368.659014,-1762.019645
3391.868401,-10510.924376,2220.617826,-1072.533697
3391.868738,-11917.315666,1628.453072,-1838.629195
3391.869076,-10658.965565,0.000000,-3524.039291
3391.869413,-7846.182985,592.164754,-1838.629195
3391.869751,-7402.059420,1702.473667,1225.752797
3391.870088,-12879.583391,1776.494261,1608.800546
3391.870426,-13027.624579,2220.617826,-2757.943793
3391.870763,-9474.636058,2812.782580,-4366.744339
3391.871100,-7994.224174,4293.194464,-1072.533697
3391.871438,-10362.883188,3256.906145,459.657299
3391.871775,-11769.274478,3775.050304,-2145.067394
3391.872113,-9770.718434,3552.988522,-4596.572988
3391.872450,-8438.347739,3182.885551,-2604.724693
3391.872788,-9474.636058,2886.803174,-689.485948
3391.873125,-9696.697840,2516.700203,-2681.334243
3391.873462,-8586.388927,2146.597232,-3907.087040
3391.873800,-8142.265362,1480.411884,-3217.601092
3391.874137,-9548.656652,1406.391290,-2528.115143
3391.874475,-10140.821405,1554.432478,-2757.943793
3391.874812,-9696.697840,1776.494261,-1608.800546
3391.875150,-11029.068536,2442.679609,-2451.505594
3391.875487,-10881.027347,2738.761985,-3677.258390
3391.875825,-9918.759623,1998.556043,-3064.381992
3391.876162,-8660.409521,814.226536,0.000000
3391.876499,-9104.533087,74.020594,76.609550
3391.876837,-10288.862594,1332.370696,-459.657299
3391.877174,-11843.295072,1110.308913,0.000000
3391.877512,-11029.068536,1406.391290,-1915.238745
3391.877849,-10214.842000,814.226536,-2451.505594
3391.878186,-10436.903782,1702.473667,-1225.752797
3391.878524,-11251.130318,1998.556043,-306.438199
3391.878861,-10807.006753,1850.514855,-766.095498
3391.879198,-10066.800811,740.205942,-1072.533697
3391.879536,-11029.068536,444.123565,-1915.238745
3391.879873,-9622.677246,592.164754,-1838.629195
3391.880210,-9030.512492,222.061783,-1225.752797
3391.880548,-9474.636058,0.000000,-1455.581446
3391.880885,-9696.697840,-1258.350101,-3370.820191
3391.881222,-9696.697840,-1776.494261,-1149.143247
3391.881560,-9548.656652,-222.061783,-612.876398
3391.881897,-9474.636058,370.102971,-995.924147
3391.882234,-10584.944971,740.205942,-1225.752797
3391.882572,-9992.780217,666.185348,-1685.410096
3391.882909,-9696.697840,888.247130,-612.876398
3391.883247,-8956.491898,592.164754,306.438199
3391.883584,-9400.615463,1628.453072,919.314598
3391.883921,-10732.986159,740.205942,1072.533697
3391.884259,-11695.253884,1036.288319,459.657299
3391.884596,-9770.718434,1258.350101,1072.533697
3391.884933,-9474.636058,2146.597232,1532.190996
3391.885271,-11251.130318,1998.556043,612.876398
3391.885608,-11547.212695,2886.803174,-2298.286494
3391.885945,-10066.800811,3627.009116,-3294.210641
3391.886283,-10066.800811,3108.864956,-2451.505594
3391.886620,-9400.615463,962.267725,-306.438199
3391.886957,-9992.780217,518.144159,306.438199
3391.887295,-10436.903782,296.082377,-612.876398
3391.887632,-10288.862594,222.061783,-1378.971896
3391.887969,-8290.306550,-74.020594,-1838.629195
3391.888307,-9400.615463,-962.267725,-1378.971896
3391.888644,-9326.594869,-1554.432478,-995.924147
3391.888981,-9696.697840,-1406.391290,-536.266849
3391.889319,-10066.800811,-222.061783,-1149.143247
3391.889656,-9252.574275,-222.061783,-2451.505594
3391.889993,-9104.533087,-296.082377,-995.924147
3391.890331,-10362.883188,-1110.308913,306.438199
3391.890668,-10807.006753,-2220.617826,2145.067394
3391.891006,-11177.109724,-1184.329507,3294.210641
3391.891343,-10807.006753,-1406.391290,2987.772442
3391.891680,-9844.739029,0.000000,1608.800546
3391.892018,-10066.800811,0.000000,306.438199
3391.892355,-10510.924376,74.020594,76.609550
3391.892692,-10214.842000,74.020594,0.000000
3391.893030,-12361.439231,888.247130,0.000000
3391.893367,-11621.233289,592.164754,-1838.629195
3391.893704,-8808.450710,296.082377,-2221.676944
3391.894042,-9178.553681,-1110.308913,1302.362347
3391.894379,-8660.409521,740.205942,1762.019645
3391.894716,-10214.842000,518.144159,2068.457845
3391.895054,-12139.377449,74.020594,153.219100
3391.895391,-10732.986159,-370.102971,-1455.581446
3391.895728,-9474.636058,-296.082377,-383.047749
3391.896066,-8512.368333,-1184.329507,1302.362347
3391.896403,-8956.491898,-1702.473667,2145.067394
3391.896740,-10214.842000,-814.226536,689.485948
3391.897078,-10658.965565,-148.041188,-1302.362347
3391.897415,-9178.553681,0.000000,-459.657299
3391.897752,-9178.553681,592.164754,1608.800546
3391.898090,-9030.512492,1184.329507,1685.410096
3391.898427,-10955.047942,222.061783,2068.457845
3391.898765,-12509.480420,1702.473667,1302.362347
3391.899102,-10658.965565,0.000000,229.828649
3391.899439,-9992.780217,-666.185348,1225.752797
3391.899777,-9474.636058,-666.185348,1838.629195
3391.900114,-8660.409521,-962.267725,766.095498
3391.900451,-9918.759623,-740.205942,-689.485948
3391.900789,-9548.656652,0.000000,-2374.896044
3391.901126,-8808.450710,222.061783,-3140.991542
3391.901463,-10510.924376,0.000000,-2451.505594
3391.901801,-10732.986159,-296.082377,-1685.410096
3391.902138,-10955.047942,-1258.350101,-766.095498
3391.902475,-10732.986159,-1110.308913,-612.876398
3391.902813,-8882.471304,-1924.535449,-1302.362347
3391.903150,-8660.409521,-2072.576638,0.000000
3391.903487,-9474.636058,-2738.761985,76.609550
3391.903825,-9474.636058,-3034.844362,1532.190996
3391.904162,-10140.821405,-814.226536,1225.752797
3391.904499,-11325.150913,-370.102971,536.266849
3391.904837,-12435.459826,-370.102971,-76.609550
3391.905174,-10066.800811,0.000000,-612.876398
3391.905511,-8956.491898,296.082377,1149.143247
3391.905849,-10214.842000,296.082377,3753.867940
3391.906186,-10362.883188,1480.411884,1608.800546
3391.906524,-9992.780217,888.247130,153.219100
3391.906861,-10288.862594,444.123565,383.047749
3391.907198,-10140.821405,1036.288319,766.095498
3391.907536,-11029.068536,962.267725,2681.334243
3391.907873,-10140.821405,666.185348,1991.848295
3391.908210,-9918.759623,888.247130,-76.609550
3391.908548,-9474.636058,1406.391290,-612.876398
3391.908885,-8734.430116,518.144159,-1455.581446
3391.909222,-8882.471304,-148.041188,0.000000
3391.909560,-9696.697840,-1110.308913,1762.019645
3391.909897,-11177.109724,592.164754,-229.828649
3391.910234,-9992.780217,0.000000,-1915.238745
3391.910572,-8438.347739,-148.041188,-766.095498
3391.910909,-8808.450710,-1184.329507,153.219100
3391.911246,-9770.718434,-1850.514855,2604.724693
3391.911584,-10214.842000,-888.247130,2528.115143
3391.911921,-11251.130318,-370.102971,1915.238745
3391.912258,-10436.903782,-444.123565,995.924147
3391.912596,-11029.068536,-296.082377,612.876398
3391.912933,-10732.986159,-1036.288319,306.438199
3391.913270,-8956.491898,-1998.556043,1685.410096
3391.913608,-10140.821405,0.000000,1532.190996
3391.913945,-9548.656652,-444.123565,-459.657299
3391.914283,-9400.615463,222.061783,-1915.238745
3391.914620,-11251.130318,-1110.308913,-612.876398
3391.914957,-12435.459826,-1776.494261,383.047749
3391.915295,-10807.006753,0.000000,-153.219100
3391.915632,-10362.883188,-1480.411884,-536.266849
3391.915969,-8882.471304,-2220.617826,-1225.752797
3391.916307,-8956.491898,-2368.659014,-2681.334243
3391.916644,-8364.327145,-3034.844362,-766.095498
3391.916981,-8660.409521,-2442.679609,1455.581446
3391.917319,-10658.965565,-370.102971,612.876398
3391.917656,-11843.295072,0.000000,-1838.629195
3391.917993,-10881.027347,222.061783,-1685.410096
3391.918331,-10362.883188,-1184.329507,-612.876398
3391.918668,-9104.533087,-1110.308913,1685.410096
3391.919005,-9326.594869,0.000000,3524.039291
3391.919343,-11029.068536,-444.123565,3294.210641
3391.919680,-9918.759623,592.164754,1302.362347
3391.920017,-8438.347739,1258.350101,-153.219100
3391.920355,-10658.965565,666.185348,2145.067394
3391.920692,-10658.965565,1110.308913,2451.505594
3391.921029,-10214.842000,1628.453072,229.828649
3391.921367,-11547.212695,1924.535449,-306.438199
3391.921704,-10288.862594,1554.432478,-1455.581446
3391.922042,-9696.697840,740.205942,-1685.410096
3391.922379,-9326.594869,-814.226536,-306.438199
3391.922716,-8956.491898,-370.102971,1149.143247
3391.923054,-9178.553681,0.000000,0.000000
3391.923391,-9326.594869,-296.082377,-1225.752797
3391.923728,-9918.759623,-1110.308913,-1608.800546
3391.924066,-11029.068536,-1776.494261,-536.266849
3391.924403,-10214.842000,-1036.288319,1225.752797
3391.924740,-9548.656652,370.102971,919.314598
3391.925078,-10288.862594,-888.247130,0.000000
3391.925415,-9622.677246,-1110.308913,-689.485948
3391.925752,-9474.636058,-1628.453072,-1072.533697
3391.926090,-9918.759623,-1554.432478,2221.676944
3391.926427,-10658.965565,-1258.350101,3753.867940
3391.926764,-11547.212695,-666.185348,2681.334243
3391.927102,-9400.615463,0.000000,1838.629195
3391.927439,-10066.800811,222.061783,1225.752797
3391.927776,-10140.821405,0.000000,536.266849
3391.928114,-10436.903782,-666.185348,459.657299
3391.928451,-11325.150913,592.164754,76.609550
3391.928788,-10362.883188,-222.061783,-459.657299
3391.929126,-8882.471304,-296.082377,-536.266849
3391.929463,-8512.368333,222.061783,-1378.971896
3391.929800,-8956.491898,-1258.350101,-919.314598
3391.930138,-10658.965565,-740.205942,612.876398
3391.930475,-10288.862594,-1184.329507,-1072.533697
3391.930813,-9104.533087,-74.020594,-383.047749
3391.931150,-9474.636058,0.000000,536.266849
3391.931487,-10510.924376,-1258.350101,0.000000
3391.931825,-9474.636058,-740.205942,1072.533697
3391.932162,-9770.718434,-962.267725,1991.848295
3391.932499,-10066.800811,-370.102971,1838.629195
3391.932837,-9474.636058,148.041188,306.438199
3391.933174,-10288.862594,1406.391290,-153.219100
3391.933511,-10214.842000,222.061783,-76.609550
3391.933849,-10288.862594,814.226536,2068.457845
3391.934186,-11843.295072,1480.411884,1608.800546
3391.934523,-10658.965565,148.041188,76.609550
3391.934861,-10066.800811,666.185348,0.000000
3391.935198,-9474.636058,-518.144159,459.657299
3391.935535,-9474.636058,-666.185348,2298.286494
3391.935873,-10732.986159,-74.020594,383.047749
3391.936210,-10955.047942,-962.267725,-995.924147
3391.936547,-9400.615463,-888.247130,-1532.190996
3391.936885,-9474.636058,-1332.370696,-1378.971896
3391.937222,-8734.430116,-2146.597232,-459.657299
3391.937559,-9104.533087,-1258.350101,-459.657299
3391.937897,-10658.965565,-1776.494261,-995.924147
3391.938234,-9622.677246,-1924.535449,-1072.533697
