#time,accel_x,accel_y,accel_z
3242.466917,-10658.965565,-3404.947333,2374.896044
3242.467255,-9696.697840,-3330.926739,2374.896044
3242.467593,-10362.883188,-2664.741391,4366.744339
3242.467931,-10658.965565,-1998.556043,4903.011187
3242.468269,-10955.047942,-1406.391290,3600.648841
3242.468606,-11399.171507,-666.185348,3677.258390
3242.468944,-9474.636058,0.000000,2374.896044
3242.469282,-9400.615463,0.000000,1685.410096
3242.469620,-9770.718434,518.144159,1532.190996
3242.469958,-9474.636058,444.123565,383.047749
3242.470296,-9400.615463,888.247130,306.438199
3242.470634,-8734.430116,222.061783,383.047749
3242.470972,-9104.533087,370.102971,1685.410096
3242.471310,-9844.739029,-1110.308913,1915.238745
3242.471647,-9474.636058,0.000000,995.924147
3242.471985,-9770.718434,0.000000,1072.533697
3242.472323,-9622.677246,296.082377,1149.143247
3242.472661,-10214.842000,148.041188,1149.143247
3242.472999,-11621.233289,-962.267725,1225.752797
3242.473337,-10362.883188,-962.267725,1302.362347
3242.473675,-10436.903782,-2072.576638,1991.848295
3242.474013,-10362.883188,-2516.700203,2834.553343
3242.474351,-9622.677246,-2590.720797,2374.896044
3242.474688,-10066.800811,-3108.864956,2911.162892
3242.475026,-9918.759623,-2812.782580,3217.601092
3242.475364,-9770.718434,-2368.659014,3370.820191
3242.475702,-10584.944971,-2738.761985,5286.058936
3242.476040,-11325.150913,-2664.741391,5209.449386
3242.476378,-11325.150913,-2664.741391,5209.449386
3242.476716,-11695.253884,-2368.659014,4826.401637
3242.477054,-9770.718434,-2146.597232,3294.210641
3242.477392,-9992.780217,-2368.659014,2298.286494
3242.477729,-9474.636058,-3627.009116,1685.410096
3242.478067,-8512.368333,-4811.338623,1915.238745
3242.478405,-8290.306550,-4663.297435,2451.505594
3242.478743,-9104.533087,-4219.173869,2604.724693
3242.479081,-9992.780217,-4737.318029,1455.581446
3242.479419,-10658.965565,-4663.297435,842.705048
3242.479757,-9992.780217,-4293.194464,1532.190996
3242.480095,-9252.574275,-2886.803174,1915.238745
3242.480433,-9252.574275,-2738.761985,2681.334243
3242.480771,-10288.862594,-4219.173869,3217.601092
3242.481108,-11177.109724,-5773.606348,4366.744339
3242.481446,-11103.089130,-3849.070898,4443.353888
3242.481784,-10807.006753,-3256.906145,4519.963438
3242.482122,-10584.944971,-2516.700203,2374.896044
3242.482460,-10214.842000,-3775.050304,919.314598
3242.482798,-9918.759623,-2368.659014,1149.143247
3242.483136,-8660.409521,-1776.494261,842.705048
3242.483474,-9178.553681,-148.041188,2068.457845
3242.483812,-10881.027347,-666.185348,612.876398
3242.484149,-11473.192101,-1184.329507,-612.876398
3242.484487,-9918.759623,-1110.308913,536.266849
3242.484825,-9474.636058,-1850.514855,2451.505594
3242.485163,-9474.636058,-1702.473667,2528.115143
3242.485501,-10288.862594,-1924.535449,0.000000
3242.485839,-10362.883188,-1332.370696,-2298.286494
3242.486177,-10140.821405,-2812.782580,-2911.162892
3242.486515,-9548.656652,-3478.967927,-2451.505594
3242.486853,-8438.347739,-2960.823768,-1915.238745
3242.487190,-8290.306550,-2072.576638,-1991.848295
3242.487528,-9474.636058,-1554.432478,-1072.533697
3242.487866,-10066.800811,-2960.823768,-459.657299
3242.488204,-10510.924376,-1850.514855,1455.581446
3242.488542,-11251.130318,-666.185348,2068.457845
3242.488880,-11991.336260,814.226536,383.047749
3242.489218,-11843.295072,592.164754,0.000000
3242.489555,-10732.986159,-1258.350101,1149.143247
3242.489893,-9252.574275,-740.205942,2068.457845
3242.490231,-8290.306550,1036.288319,2374.896044
3242.490569,-10584.944971,2368.659014,2834.553343
3242.490906,-13101.645173,1628.453072,1608.800546
3242.491244,-12139.377449,1332.370696,995.924147
3242.491582,-10140.821405,2886.803174,1302.362347
3242.491920,-9178.553681,4219.173869,1838.629195
3242.492257,-9770.718434,4811.338623,306.438199
3242.492595,-10510.924376,3552.988522,-2374.896044
3242.492933,-9918.759623,2516.700203,-2451.505594
3242.493270,-7550.100608,1480.411884,-689.485948
3242.493608,-8290.306550,0.000000,2987.772442
3242.493946,-10214.842000,-1258.350101,4596.572988
3242.494284,-10362.883188,-370.102971,2757.943793
3242.494621,-9178.553681,1702.473667,1302.362347
3242.494959,-8956.491898,3256.906145,842.705048
3242.495297,-10362.883188,2960.823768,842.705048
3242.495635,-11325.150913,1924.535449,0.000000
3242.495972,-9030.512492,1702.473667,-536.266849
3242.496310,-7698.141797,740.205942,1608.800546
3242.496648,-10436.903782,-962.267725,5286.058936
3242.496986,-11251.130318,-370.102971,4290.134789
3242.497323,-10510.924376,-222.061783,1072.533697
3242.497661,-9696.697840,1184.329507,459.657299
3242.497999,-10362.883188,740.205942,-612.876398
3242.498336,-11177.109724,1406.391290,-612.876398
3242.498674,-10658.965565,222.061783,-2681.334243
3242.499012,-8142.265362,222.061783,-4060.306139
3242.499350,-9474.636058,-888.247130,-1685.410096
3242.499687,-11843.295072,-2516.700203,229.828649
3242.500025,-11029.068536,-1998.556043,-995.924147
3242.500363,-9474.636058,-1850.514855,-2451.505594
3242.500701,-9992.780217,-2146.597232,-1915.238745
3242.501038,-11399.171507,-3849.070898,-2757.943793
3242.501376,-10732.986159,-5181.441594,-2221.676944
3242.501714,-7698.141797,-3404.947333,-842.705048
3242.502052,-7994.224174,-3627.009116,1302.362347
3242.502389,-11695.253884,-3849.070898,2987.772442
3242.502727,-12731.542202,-3256.906145,459.657299
3242.503065,-10510.924376,-2294.638420,0.000000
3242.503402,-9178.553681,-1184.329507,459.657299
3242.503740,-10732.986159,-1332.370696,1838.629195
3242.504078,-11473.192101,-1628.453072,842.705048
3242.504416,-9326.594869,-1480.411884,-1225.752797
3242.504753,-7031.956449,-1850.514855,459.657299
3242.505091,-9030.512492,-1702.473667,4290.134789
3242.505429,-12139.377449,-1406.391290,4673.182538
3242.505767,-11547.212695,296.082377,306.438199
3242.506104,-9030.512492,1480.411884,-2374.896044
3242.506442,-9474.636058,2146.597232,-383.047749
3242.506780,-11473.192101,962.267725,0.000000
3242.507117,-9992.780217,1332.370696,0.000000
3242.507455,-7846.182985,-592.164754,-1378.971896
3242.507793,-7402.059420,-1480.411884,1915.238745
3242.508131,-9918.759623,-1776.494261,4213.525239
3242.508468,-11177.109724,-2812.782580,2987.772442
3242.508806,-10436.903782,-1184.329507,229.828649
3242.509144,-9474.636058,-518.144159,-919.314598
3242.509482,-10881.027347,74.020594,229.828649
3242.509819,-10510.924376,-518.144159,-153.219100
3242.510157,-8956.491898,-1036.288319,-1762.019645
3242.510495,-7624.121203,-814.226536,76.609550
3242.510833,-9770.718434,-2294.638420,2681.334243
3242.511170,-12139.377449,-1554.432478,3753.867940
3242.511508,-10658.965565,-1406.391290,1608.800546
3242.511846,-8364.327145,296.082377,-153.219100
3242.512183,-9622.677246,0.000000,0.000000
3242.512521,-11621.233289,0.000000,229.828649
3242.512859,-9622.677246,148.041188,-995.924147
3242.513197,-8586.388927,592.164754,-995.924147
3242.513534,-10066.800811,962.267725,842.705048
3242.513872,-12509.480420,148.041188,1225.752797
3242.514210,-12805.562797,444.123565,-842.705048
3242.514548,-9918.759623,1332.370696,-2911.162892
3242.514885,-8882.471304,1184.329507,-2681.334243
3242.515223,-10881.027347,0.000000,-1455.581446
3242.515561,-10732.986159,-666.185348,-2221.676944
3242.515899,-8290.306550,444.123565,-1455.581446
3242.516236,-8438.347739,296.082377,842.705048
3242.516574,-11325.150913,0.000000,3064.381992
3242.516912,-12435.459826,518.144159,2298.286494
3242.517249,-10584.944971,1924.535449,536.266849
3242.517587,-8734.430116,3108.864956,-153.219100
3242.517925,-10362.883188,2294.638420,1378.971896
3242.518263,-11177.109724,2146.597232,1532.190996
3242.518600,-8956.491898,888.247130,689.485948
3242.518938,-7031.956449,592.164754,1378.971896
3242.519276,-8660.409521,444.123565,4213.525239
3242.519614,-10881.027347,148.041188,3677.258390
3242.519951,-10288.862594,1184.329507,-383.047749
3242.520289,-8882.471304,2664.741391,-1991.848295
3242.520627,-10214.842000,2442.679609,-1838.629195
3242.520965,-11251.130318,1110.308913,-2221.676944
3242.521302,-9622.677246,74.020594,-2757.943793
3242.521640,-7772.162391,-444.123565,-2374.896044
3242.521978,-8956.491898,-2812.782580,306.438199
3242.522315,-11695.253884,-3701.029710,2528.115143
3242.522653,-11547.212695,-4071.132681,919.314598
3242.522991,-9474.636058,-1998.556043,-1302.362347
3242.523329,-9918.759623,-1924.535449,-1838.629195
3242.523666,-11769.274478,-1998.556043,-459.657299
3242.524004,-11695.253884,-2960.823768,383.047749
3242.524342,-9548.656652,-2664.741391,153.219100
3242.524680,-8660.409521,-2368.659014,1532.190996
3242.525017,-12509.480420,-2664.741391,4213.525239
3242.525355,-13323.706956,-2664.741391,3907.087040
3242.525693,-10807.006753,-2368.659014,459.657299
3242.526031,-8808.450710,-592.164754,-229.828649
3242.526368,-10066.800811,-1184.329507,0.000000
3242.526706,-10732.986159,-1406.391290,0.000000
3242.527044,-8808.450710,-1554.432478,-1608.800546
3242.527381,-6735.874072,-962.267725,-1915.238745
3242.527719,-8438.347739,-1184.329507,689.485948
3242.528057,-11695.253884,-2072.576638,1532.190996
3242.528395,-10881.027347,-666.185348,-153.219100
3242.528732,-8808.450710,-296.082377,-2528.115143
3242.529070,-8734.430116,592.164754,-1532.190996
3242.529408,-10732.986159,-1332.370696,612.876398
3242.529746,-10066.800811,-1924.535449,995.924147
3242.530083,-7105.977043,-1480.411884,0.000000
3242.530421,-7846.182985,-1406.391290,2451.505594
3242.530759,-10658.965565,-1332.370696,3830.477490
3242.531096,-11843.295072,-1258.350101,2068.457845
3242.531434,-11029.068536,444.123565,229.828649
3242.531772,-9178.553681,2812.782580,-842.705048
3242.532110,-11769.274478,1924.535449,842.705048
3242.532447,-11251.130318,1406.391290,766.095498
3242.532785,-9178.553681,740.205942,-919.314598
3242.533123,-8438.347739,370.102971,919.314598
3242.533461,-9992.780217,-370.102971,2221.676944
3242.533798,-12213.398043,-888.247130,2757.943793
3242.534136,-11769.274478,444.123565,0.000000
3242.534474,-8956.491898,1036.288319,-2298.286494
3242.534812,-9548.656652,1036.288319,-1225.752797
3242.535149,-11547.212695,-962.267725,0.000000
3242.535487,-9770.718434,-444.123565,-1915.238745
3242.535825,-8068.244768,-592.164754,-1225.752797
3242.536162,-9252.574275,-1258.350101,689.485948
3242.536500,-11547.212695,-2442.679609,1608.800546
3242.536838,-11917.315666,-2442.679609,229.828649
3242.537176,-9252.574275,-888.247130,-1455.581446
3242.537513,-9252.574275,-740.205942,-995.924147
3242.537851,-10955.047942,-814.226536,0.000000
3242.538189,-10881.027347,-1554.432478,-153.219100
3242.538527,-8142.265362,-74.020594,-842.705048
3242.538864,-8216.285956,0.000000,1455.581446
3242.539202,-11621.233289,-74.020594,2987.772442
3242.539540,-11991.336260,592.164754,2987.772442
3242.539878,-10436.903782,2220.617826,383.047749
3242.540215,-8734.430116,3256.906145,0.000000
3242.540553,-10362.883188,2442.679609,76.609550
3242.540891,-11769.274478,2220.617826,459.657299
3242.541228,-9326.594869,1554.432478,0.000000
3242.541566,-7920.203579,2368.659014,-383.047749
3242.541904,-9252.574275,1628.453072,1378.971896
3242.542242,-12435.459826,888.247130,1455.581446
3242.542579,-10584.944971,888.247130,-1072.533697
3242.542917,-8438.347739,2072.576638,-2528.115143
3242.543255,-9474.636058,2294.638420,-1225.752797
3242.543593,-10807.006753,518.144159,-1532.190996
3242.543930,-9770.718434,-518.144159,-1455.581446
3242.544268,-7402.059420,0.000000,-1532.190996
3242.544606,-7772.162391,-1258.350101,766.095498
3242.544944,-11325.150913,-1850.514855,2987.772442
3242.545281,-11251.130318,-2294.638420,1072.533697
3242.545619,-9548.656652,-592.164754,-306.438199
3242.545957,-9178.553681,592.164754,-919.314598
3242.546294,-10066.800811,-962.267725,0.000000
3242.546632,-10955.047942,-1406.391290,766.095498
3242.546970,-9400.615463,-1776.494261,919.314598
3242.547308,-7994.224174,-1332.370696,1149.143247
3242.547645,-10955.047942,-2072.576638,3217.601092
3242.547983,-12509.480420,-2738.761985,3140.991542
3242.548321,-11399.171507,-1776.494261,0.000000
3242.548659,-10140.821405,-592.164754,-459.657299
3242.548996,-9918.759623,-592.164754,-842.705048
3242.549334,-11621.233289,-2442.679609,-689.485948
3242.549672,-10658.965565,-1924.535449,-1455.581446
3242.550010,-8364.327145,-2220.617826,-2068.457845
3242.550347,-9474.636058,-2664.741391,306.438199
3242.550685,-11843.295072,-3330.926739,2221.676944
3242.551023,-11843.295072,-2220.617826,1455.581446
3242.551360,-9474.636058,-1406.391290,0.000000
3242.551698,-8808.450710,-222.061783,-229.828649
3242.552036,-10807.006753,-1554.432478,1532.190996
3242.552374,-10955.047942,-1924.535449,1915.238745
3242.552711,-8364.327145,-666.185348,1225.752797
3242.553049,-8882.471304,-148.041188,3140.991542
3242.553387,-10807.006753,0.000000,4519.963438
3242.553725,-11769.274478,370.102971,3140.991542
3242.554062,-10140.821405,1406.391290,842.705048
3242.554400,-8068.244768,2442.679609,0.000000
3242.554738,-9548.656652,2072.576638,612.876398
3242.555076,-10510.924376,1702.473667,229.828649
3242.555413,-8512.368333,1554.432478,-1455.581446
3242.555751,-7105.977043,1036.288319,-306.438199
3242.556089,-9030.512492,1406.391290,383.047749
3242.556426,-11547.212695,518.144159,766.095498
3242.556764,-11251.130318,1110.308913,-1608.800546
3242.557102,-9326.594869,1776.494261,-3600.648841
3242.557440,-9696.697840,1184.329507,-2681.334243
3242.557777,-11325.150913,-740.205942,-1072.533697
3242.558115,-10288.862594,-1480.411884,-1302.362347
3242.558453,-7772.162391,-1184.329507,-995.924147
3242.558791,-8956.491898,-1110.308913,766.095498
3242.559128,-11917.315666,-1850.514855,2145.067394
3242.559466,-12583.501014,-1480.411884,689.485948
3242.559804,-10362.883188,-370.102971,-842.705048
3242.560141,-9178.553681,296.082377,-229.828649
3242.560479,-10732.986159,-296.082377,766.095498
3242.560817,-11547.212695,-888.247130,306.438199
3242.561155,-8956.491898,-814.226536,-306.438199
3242.561492,-8438.347739,0.000000,612.876398
3242.561830,-10732.986159,-1036.288319,3064.381992
3242.562168,-12435.459826,-444.123565,1455.581446
3242.562506,-10362.883188,222.061783,-229.828649
3242.562843,-8882.471304,1480.411884,-689.485948
3242.563181,-9474.636058,1184.329507,0.000000
3242.563519,-10955.047942,74.020594,229.828649
3242.563857,-9770.718434,222.061783,0.000000
3242.564194,-8142.265362,592.164754,-306.438199
3242.564532,-9696.697840,518.144159,1455.581446
3242.564870,-12065.356855,-296.082377,1762.019645
3242.565207,-10658.965565,-148.041188,689.485948
3242.565545,-8808.450710,1110.308913,0.000000
3242.565883,-9622.677246,1776.494261,383.047749
3242.566221,-10955.047942,222.061783,383.047749
3242.566558,-10510.924376,296.082377,306.438199
3242.566896,-7994.224174,814.226536,612.876398
3242.567234,-7328.038826,888.247130,1915.238745
3242.567572,-11473.192101,962.267725,3447.429741
3242.567909,-12139.377449,444.123565,1991.848295
3242.568247,-9844.739029,2368.659014,383.047749
3242.568585,-9400.615463,2590.720797,536.266849
3242.568923,-10807.006753,666.185348,-153.219100
3242.569260,-10214.842000,-148.041188,-306.438199
3242.569598,-8586.388927,-518.144159,0.000000
3242.569936,-7550.100608,-888.247130,-153.219100
3242.570273,-9030.512492,-1776.494261,842.705048
3242.570611,-11843.295072,-2220.617826,1072.533697
3242.570949,-11695.253884,-1850.514855,-842.705048
3242.571287,-9030.512492,-666.185348,-2757.943793
3242.571624,-9548.656652,-962.267725,-2451.505594
3242.571962,-11103.089130,-2738.761985,-995.924147
3242.572300,-10584.944971,-3108.864956,-1302.362347
3242.572638,-8068.244768,-2516.700203,-1991.848295
3242.572975,-9474.636058,-2738.761985,689.485948
3242.573313,-11991.336260,-3330.926739,1072.533697
3242.573651,-12509.480420,-3034.844362,306.438199
3242.573989,-9918.759623,-962.267725,-995.924147
3242.574326,-9326.594869,-592.164754,76.609550
3242.574664,-11251.130318,-888.247130,995.924147
3242.575002,-11177.109724,-814.226536,1608.800546
3242.575339,-9400.615463,-370.102971,1762.019645
3242.575677,-9178.553681,0.000000,2757.943793
3242.576015,-10955.047942,222.061783,3907.087040
3242.576353,-12805.562797,222.061783,2528.115143
3242.576690,-10955.047942,962.267725,459.657299
3242.577028,-8364.327145,1776.494261,-1378.971896
3242.577366,-8956.491898,1258.350101,0.000000
3242.577704,-10362.883188,592.164754,536.266849
3242.578041,-8660.409521,-296.082377,-1532.190996
3242.578379,-7476.080014,1480.411884,-1302.362347
3242.578717,-9104.533087,518.144159,306.438199
3242.579055,-10881.027347,-740.205942,1072.533697
3242.579392,-10510.924376,0.000000,459.657299
3242.579730,-8512.368333,1776.494261,-306.438199
3242.580068,-8660.409521,1554.432478,-306.438199
3242.580405,-11029.068536,74.020594,306.438199
3242.580743,-11103.089130,-666.185348,919.314598
3242.581081,-8364.327145,-370.102971,536.266849
3242.581419,-8586.388927,-222.061783,1838.629195
3242.581756,-11769.274478,296.082377,2834.553343
3242.582094,-12435.459826,-518.144159,1685.410096
3242.582432,-9770.718434,592.164754,-766.095498
3242.582770,-9030.512492,1702.473667,-1072.533697
3242.583107,-11177.109724,888.247130,536.266849
3242.583445,-12139.377449,74.020594,0.000000
3242.583783,-9474.636058,0.000000,-1915.238745
3242.584120,-8068.244768,0.000000,-689.485948
3242.584458,-10362.883188,-814.226536,842.705048
3242.584796,-12435.459826,-1924.535449,536.266849
3242.585134,-10658.965565,-1110.308913,-1302.362347
3242.585471,-8882.471304,148.041188,-2221.676944
3242.585809,-9474.636058,-592.164754,-1915.238745
3242.586147,-11325.150913,-1924.535449,-689.485948
3242.586485,-9548.656652,-2220.617826,-536.266849
3242.586822,-7624.121203,-1480.411884,-459.657299
3242.587160,-8956.491898,-444.123565,1915.238745
3242.587497,-11769.274478,-1628.453072,2604.724693
3242.587834,-11177.109724,-1110.308913,1991.848295
3242.588172,-9178.553681,296.082377,229.828649
3242.588509,-9400.615463,1184.329507,1302.362347
3242.588846,-11399.171507,1110.308913,1838.629195
3242.589184,-10732.986159,444.123565,1225.752797
3242.589521,-8142.265362,1184.329507,153.219100
3242.589858,-7698.141797,1258.350101,1072.533697
3242.590196,-11177.109724,888.247130,2374.896044
3242.590533,-12509.480420,1924.535449,1608.800546
3242.590870,-9844.739029,1850.514855,-1225.752797
3242.591208,-8438.347739,2960.823768,-1685.410096
3242.591545,-10436.903782,2220.617826,-76.609550
3242.591882,-11325.150913,888.247130,-459.657299
3242.592220,-9918.759623,-148.041188,-1302.362347
3242.592557,-8660.409521,296.082377,-459.657299
3242.592895,-9622.677246,-592.164754,766.095498
3242.593232,-11843.295072,-2294.638420,1072.533697
3242.593569,-10955.047942,-2368.659014,153.219100
3242.593907,-8734.430116,-814.226536,-1149.143247
3242.594244,-9252.574275,-814.226536,-229.828649
3242.594581,-11103.089130,-2516.700203,0.000000
3242.594919,-10066.800811,-2516.700203,-842.705048
3242.595256,-8438.347739,-2072.576638,-383.047749
3242.595593,-8882.471304,-1776.494261,1149.143247
3242.595931,-11103.089130,-2590.720797,2298.286494
3242.596268,-11843.295072,-2368.659014,1685.410096
3242.596605,-9474.636058,-1258.350101,76.609550
3242.596943,-9030.512492,-148.041188,-612.876398
3242.597280,-10510.924376,-888.247130,536.266849
3242.597617,-11325.150913,-1702.473667,0.000000
3242.597955,-9326.594869,-740.205942,-306.438199
3242.598292,-8586.388927,0.000000,306.438199
3242.598629,-9918.759623,-370.102971,1991.848295
3242.598967,-12509.480420,-740.205942,1072.533697
3242.599304,-11251.130318,-370.102971,-995.924147
3242.599641,-9178.553681,1110.308913,-2145.067394
3242.599979,-9696.697840,444.123565,-1302.362347
3242.600316,-11547.212695,-444.123565,-383.047749
3242.600653,-9918.759623,-814.226536,-1762.019645
3242.600991,-7476.080014,370.102971,-1225.752797
3242.601328,-9252.574275,0.000000,1532.190996
3242.601665,-11917.315666,-962.267725,2604.724693
3242.602003,-11251.130318,0.000000,1762.019645
3242.602340,-8956.491898,1258.350101,76.609550
3242.602677,-8512.368333,1776.494261,842.705048
3242.603015,-10658.965565,1406.391290,1685.410096
3242.603352,-10807.006753,370.102971,1762.019645
3242.603689,-7920.203579,1258.350101,689.485948
3242.604027,-7920.203579,1110.308913,2374.896044
3242.604364,-10955.047942,740.205942,2987.772442
3242.604702,-11399.171507,-296.082377,459.657299
3242.605039,-9918.759623,666.185348,-766.095498
3242.605376,-7846.182985,1258.350101,-1302.362347
3242.605714,-9252.574275,444.123565,-1225.752797
3242.606051,-11325.150913,0.000000,-1072.533697
3242.606388,-9696.697840,-592.164754,-2528.115143
3242.606726,-8290.306550,74.020594,-1685.410096
3242.607063,-10436.903782,-1110.308913,0.000000
3242.607400,-13027.624579,-1924.535449,919.314598
3242.607738,-11769.274478,-1184.329507,-306.438199
3242.608075,-9548.656652,-296.082377,-1225.752797
3242.608412,-10436.903782,296.082377,-459.657299
3242.608750,-12065.356855,-1850.514855,0.000000
3242.609087,-11177.109724,-1258.350101,0.000000
3242.609424,-9178.553681,-1554.432478,383.047749
3242.609762,-9474.636058,-444.123565,2451.505594
3242.610099,-11843.295072,-1184.329507,2987.772442
3242.610436,-12583.501014,-296.082377,2374.896044
3242.610774,-9696.697840,740.205942,229.828649
3242.611111,-8734.430116,1406.391290,76.609550
3242.611448,-11029.068536,592.164754,995.924147
3242.611786,-10140.821405,666.185348,-536.266849
3242.612123,-8364.327145,74.020594,-766.095498
3242.612460,-7179.997637,592.164754,-536.266849
3242.612798,-8956.491898,0.000000,919.314598
3242.613135,-11695.253884,-296.082377,1532.190996
3242.613472,-9548.656652,74.020594,-1762.019645
3242.613810,-7402.059420,1258.350101,-2374.896044
3242.614147,-9622.677246,518.144159,-1455.581446
3242.614484,-10362.883188,-296.082377,-536.266849
3242.614822,-9104.533087,-962.267725,-689.485948
3242.615159,-8068.244768,-592.164754,153.219100
3242.615496,-9326.594869,222.061783,1302.362347
3242.615834,-12435.459826,-1628.453072,2604.724693
3242.616171,-12657.521608,-370.102971,1685.410096
3242.616508,-9474.636058,-222.061783,0.000000
3242.616846,-9770.718434,592.164754,229.828649
3242.617183,-11769.274478,-148.041188,995.924147
3242.617521,-10732.986159,-1110.308913,-766.095498
3242.617858,-8364.327145,-666.185348,-612.876398
3242.618195,-8808.450710,-962.267725,689.485948
3242.618533,-11325.150913,-888.247130,2451.505594
3242.618870,-13027.624579,-1850.514855,1685.410096
3242.619207,-10584.944971,-370.102971,-383.047749
3242.619545,-8808.450710,0.000000,-1838.629195
3242.619882,-10066.800811,-444.123565,-919.314598
3242.620219,-11029.068536,-2294.638420,-612.876398
3242.620557,-9030.512492,-2664.741391,-1072.533697
3242.620894,-7476.080014,-2072.576638,-689.485948
3242.621231,-9770.718434,-2738.761985,1378.971896
3242.621569,-12139.377449,-2516.700203,1302.362347
3242.621906,-10214.842000,-2664.741391,-306.438199
3242.622243,-9252.574275,-814.226536,76.609550
3242.622581,-9326.594869,-666.185348,0.000000
3242.622918,-11103.089130,-888.247130,229.828649
3242.623255,-9992.780217,-1702.473667,995.924147
3242.623593,-8068.244768,-1036.288319,612.876398
3242.623930,-8438.347739,0.000000,2987.772442
3242.624267,-12065.356855,0.000000,3907.087040
3242.624605,-11695.253884,518.144159,2451.505594
3242.624942,-10066.800811,2368.659014,612.876398
3242.625279,-8882.471304,2738.761985,0.000000
3242.625617,-10732.986159,1998.556043,536.266849
3242.625954,-11251.130318,1776.494261,536.266849
3242.626291,-9030.512492,1628.453072,-842.705048
3242.626629,-7846.182985,2294.638420,76.609550
3242.626966,-10955.047942,962.267725,1532.190996
3242.627303,-12139.377449,444.123565,919.314598
3242.627641,-10658.965565,444.123565,-1225.752797
3242.627978,-8808.450710,1628.453072,-2068.457845
3242.628315,-9622.677246,592.164754,-2528.115143
3242.628653,-10807.006753,-814.226536,-1225.752797
3242.628990,-9104.533087,-1554.432478,-2528.115143
3242.629328,-6661.853478,-1628.453072,-919.314598
3242.629665,-9252.574275,-1036.288319,1302.362347
3242.630002,-11991.336260,-2294.638420,1915.238745
3242.630340,-11843.295072,-1776.494261,612.876398
3242.630677,-9326.594869,-888.247130,-76.609550
3242.631014,-9548.656652,370.102971,306.438199
3242.631352,-10955.047942,-1406.391290,1149.143247
3242.631689,-10436.903782,-1258.350101,153.219100
3242.632026,-8068.244768,-1628.453072,766.095498
3242.632364,-8808.450710,-962.267725,1762.019645
3242.632701,-11473.192101,-592.164754,2681.334243
3242.633038,-13471.748144,-1036.288319,1378.971896
3242.633376,-10288.862594,370.102971,-766.095498
3242.633713,-8882.471304,740.205942,-1915.238745
3242.634050,-10658.965565,74.020594,0.000000
3242.634388,-11103.089130,-296.082377,-842.705048
3242.634725,-9178.553681,-592.164754,-1532.190996
3242.635062,-8364.327145,0.000000,-1072.533697
3242.635400,-10658.965565,-666.185348,842.705048
3242.635737,-13101.645173,-1406.391290,1685.410096
3242.636074,-10658.965565,-1110.308913,-306.438199
3242.636412,-8142.265362,370.102971,-766.095498
3242.636749,-9326.594869,518.144159,229.828649
3242.637086,-10658.965565,-592.164754,0.000000
3242.637424,-9252.574275,-1110.308913,306.438199
3242.637761,-7846.182985,-962.267725,1072.533697
3242.638098,-8882.471304,518.144159,3600.648841
3242.638436,-11695.253884,-148.041188,4213.525239
3242.638773,-12139.377449,222.061783,2834.553343
3242.639110,-8882.471304,1480.411884,153.219100
3242.639448,-8808.450710,1776.494261,536.266849
3242.639785,-11103.089130,740.205942,1378.971896
3242.640122,-10510.924376,-592.164754,-383.047749
3242.640460,-8512.368333,0.000000,-995.924147
3242.640797,-8068.244768,-370.102971,76.609550
3242.641135,-10807.006753,-1406.391290,1838.629195
3242.641472,-11843.295072,-1258.350101,383.047749
3242.641809,-10066.800811,-666.185348,-1532.190996
3242.642147,-8956.491898,740.205942,-2911.162892
3242.642484,-10214.842000,-518.144159,-1302.362347
3242.642821,-12065.356855,-1554.432478,-612.876398
3242.643159,-9844.739029,-2812.782580,-919.314598
3242.643496,-8216.285956,-2146.597232,0.000000
3242.643833,-10584.944971,-1776.494261,2681.334243
3242.644171,-12953.603985,-2590.720797,2374.896044
3242.644508,-11547.212695,-2146.597232,153.219100
3242.644845,-9548.656652,-1184.329507,-306.438199
3242.645183,-9030.512492,0.000000,229.828649
3242.645520,-11325.150913,-740.205942,536.266849
3242.645857,-10436.903782,-370.102971,0.000000
3242.646195,-7624.121203,-370.102971,0.000000
3242.646532,-9104.533087,-148.041188,2604.724693
3242.646869,-11695.253884,0.000000,3294.210641
3242.647207,-11917.315666,148.041188,1072.533697
3242.647544,-10214.842000,1406.391290,-689.485948
3242.647881,-8734.430116,1406.391290,-1532.190996
3242.648219,-9770.718434,1406.391290,-306.438199
3242.648556,-10510.924376,74.020594,-919.314598
3242.648893,-8438.347739,-296.082377,-2145.067394
3242.649231,-7624.121203,592.164754,-1072.533697
3242.649568,-10881.027347,74.020594,229.828649
3242.649905,-12139.377449,-296.082377,842.705048
3242.650243,-9844.739029,-148.041188,-1225.752797
3242.650580,-8586.388927,1924.535449,-842.705048
3242.650917,-9770.718434,1258.350101,0.000000
3242.651255,-10732.986159,-222.061783,0.000000
3242.651592,-9844.739029,-518.144159,-689.485948
3242.651929,-8068.244768,-592.164754,612.876398
3242.652267,-9696.697840,-518.144159,2068.457845
3242.652604,-12213.398043,-1406.391290,2374.896044
3242.652941,-11473.192101,-370.102971,919.314598
3242.653279,-8808.450710,814.226536,-842.705048
3242.653616,-8660.409521,518.144159,-842.705048
3242.653954,-10732.986159,444.123565,0.000000
3242.654291,-11325.150913,-666.185348,-76.609550
3242.654628,-8808.450710,-666.185348,-229.828649
3242.654966,-8364.327145,-518.144159,229.828649
3242.655303,-10955.047942,-1258.350101,2298.286494
3242.655640,-12583.501014,-1702.473667,1072.533697
3242.655978,-10288.862594,-1184.329507,-1378.971896
3242.656315,-8808.450710,-592.164754,-2068.457845
3242.656652,-10288.862594,-1258.350101,0.000000
3242.656990,-11103.089130,-2072.576638,-383.047749
3242.657327,-9178.553681,-2146.597232,-689.485948
3242.657664,-8290.306550,-1184.329507,229.828649
3242.658002,-9844.739029,-2072.576638,1915.238745
3242.658339,-12805.562797,-1924.535449,2834.553343
3242.658676,-11325.150913,-1480.411884,1991.848295
3242.659014,-8808.450710,0.000000,76.609550
3242.659351,-9474.636058,1332.370696,1302.362347
3242.659688,-12065.356855,666.185348,2221.676944
3242.660026,-10214.842000,0.000000,1225.752797
3242.660363,-7772.162391,0.000000,1302.362347
3242.660700,-9030.512492,592.164754,2834.553343
3242.661038,-11325.150913,592.164754,3600.648841
3242.661375,-11621.233289,0.000000,919.314598
3242.661712,-9104.533087,1998.556043,-1302.362347
3242.662050,-8216.285956,1628.453072,-995.924147
3242.662387,-10066.800811,1184.329507,-689.485948
3242.662724,-10658.965565,518.144159,-1608.800546
3242.663062,-8290.306550,296.082377,-2451.505594
3242.663399,-7624.121203,0.000000,-1225.752797
3242.663736,-10288.862594,-1776.494261,229.828649
3242.664074,-11917.315666,-1554.432478,1072.533697
3242.664411,-10140.821405,-1184.329507,-1225.752797
3242.664748,-8290.306550,-296.082377,-2298.286494
3242.665086,-9696.697840,0.000000,-1455.581446
3242.665423,-11695.253884,-1554.432478,0.000000
3242.665761,-10066.800811,-2368.659014,-612.876398
3242.666098,-8364.327145,-1850.514855,842.705048
3242.666435,-10140.821405,-962.267725,2834.553343
3242.666773,-12805.562797,-1776.494261,2757.943793
3242.667110,-12065.356855,-518.144159,612.876398
3242.667447,-9178.553681,0.000000,-689.485948
3242.667785,-9474.636058,74.020594,0.000000
3242.668122,-11399.171507,-222.061783,306.438199
3242.668459,-11325.150913,-592.164754,-229.828649
3242.668797,-8290.306550,0.000000,-1532.190996
3242.669134,-8586.388927,-592.164754,0.000000
3242.669471,-11177.109724,-888.247130,1991.848295
3242.669809,-11917.315666,-888.247130,919.314598
3242.670146,-9992.780217,148.041188,-1302.362347
3242.670483,-8364.327145,888.247130,-1762.019645
3242.670821,-10066.800811,0.000000,-459.657299
3242.671158,-10807.006753,-592.164754,766.095498
3242.671495,-9104.533087,-1184.329507,459.657299
3242.671833,-7846.182985,-592.164754,1225.752797
3242.672170,-10066.800811,-222.061783,3217.601092
3242.672507,-11917.315666,-370.102971,3370.820191
3242.672845,-10436.903782,-370.102971,1302.362347
3242.673182,-8364.327145,1036.288319,612.876398
3242.673519,-9400.615463,2220.617826,1915.238745
3242.673857,-10881.027347,962.267725,1762.019645
3242.674194,-9548.656652,1184.329507,842.705048
3242.674531,-7624.121203,1480.411884,536.266849
3242.674869,-9474.636058,1554.432478,1608.800546
3242.675206,-12287.418637,444.123565,2145.067394
3242.675543,-11917.315666,296.082377,536.266849
3242.675881,-9400.615463,1554.432478,-1685.410096
3242.676218,-8364.327145,1406.391290,-2298.286494
3242.676555,-9844.739029,74.020594,-1685.410096
3242.676893,-10732.986159,-1110.308913,-1378.971896
3242.677230,-9252.574275,-1184.329507,-1149.143247
3242.677567,-8216.285956,-1554.432478,-689.485948
3242.677905,-10732.986159,-2072.576638,919.314598
3242.678242,-12953.603985,-2072.576638,536.266849
3242.678580,-10807.006753,-2294.638420,-1608.800546
3242.678917,-8808.450710,-1332.370696,-1991.848295
3242.679254,-9622.677246,-1554.432478,-612.876398
3242.679592,-10881.027347,-2590.720797,-306.438199
3242.679929,-9548.656652,-2812.782580,-1225.752797
3242.680266,-8438.347739,-1776.494261,76.609550
3242.680604,-9844.739029,-1924.535449,2221.676944
3242.680941,-12583.501014,-1628.453072,2451.505594
3242.681278,-11029.068536,-1184.329507,842.705048
3242.681616,-9104.533087,518.144159,0.000000
3242.681953,-8586.388927,666.185348,612.876398
3242.682290,-11621.233289,740.205942,1072.533697
3242.682628,-10881.027347,-370.102971,459.657299
3242.682965,-8808.450710,444.123565,0.000000
3242.683302,-8882.471304,666.185348,1532.190996
3242.683640,-11769.274478,814.226536,1685.410096
3242.683977,-12287.418637,148.041188,76.609550
3242.684314,-9548.656652,962.267725,-1685.410096
3242.684652,-7624.121203,814.226536,-2145.067394
3242.684989,-9992.780217,740.205942,0.000000
3242.685326,-10362.883188,0.000000,76.609550
3242.685664,-8586.388927,-518.144159,-1225.752797
3242.686001,-8216.285956,740.205942,536.266849
3242.686338,-10288.862594,-592.164754,2451.505594
3242.686676,-12435.459826,-518.144159,2681.334243
3242.687013,-10955.047942,-296.082377,995.924147
3242.687350,-7994.224174,370.102971,536.266849
3242.687688,-9104.533087,518.144159,995.924147
3242.688025,-11251.130318,-962.267725,919.314598
3242.688362,-9548.656652,-814.226536,229.828649
3242.688700,-7624.121203,-962.267725,1378.971896
3242.689037,-8438.347739,-296.082377,2298.286494
3242.689375,-11695.253884,-1110.308913,3140.991542
3242.689712,-12065.356855,-370.102971,229.828649
3242.690049,-9030.512492,222.061783,-2298.286494
3242.690387,-9178.553681,1110.308913,-1302.362347
3242.690724,-10955.047942,-518.144159,0.000000
3242.691061,-10732.986159,-1258.350101,-1225.752797
3242.691399,-8586.388927,-1628.453072,-1762.019645
3242.691736,-8068.244768,-1110.308913,-1532.190996
3242.692074,-11769.274478,-2294.638420,689.485948
3242.692411,-12805.562797,-1924.535449,0.000000
3242.692748,-9918.759623,-962.267725,-1532.190996
3242.693086,-9104.533087,-148.041188,-689.485948
3242.693423,-10140.821405,-592.164754,-383.047749
3242.693760,-11473.192101,-888.247130,-76.609550
3242.694098,-10140.821405,-1110.308913,536.266849
3242.694435,-8216.285956,-962.267725,1225.752797
3242.694773,-10362.883188,0.000000,3600.648841
3242.695110,-12879.583391,0.000000,4673.182538
3242.695447,-11029.068536,740.205942,995.924147
3242.695785,-8512.368333,1258.350101,76.609550
3242.696122,-9030.512492,1998.556043,1149.143247
3242.696459,-10584.944971,962.267725,536.266849
3242.696797,-9770.718434,814.226536,-459.657299
3242.697134,-7254.018232,1184.329507,-995.924147
3242.697472,-8216.285956,740.205942,229.828649
3242.697809,-11399.171507,592.164754,1685.410096
3242.698146,-11177.109724,370.102971,612.876398
3242.698484,-8734.430116,1850.514855,-2221.676944
3242.698821,-8438.347739,592.164754,-2145.067394
3242.699158,-10288.862594,296.082377,-1225.752797
3242.699496,-10584.944971,-1554.432478,-612.876398
3242.699833,-9104.533087,-1776.494261,-229.828649
3242.700171,-8290.306550,-1258.350101,1225.752797
3242.700508,-10881.027347,-1776.494261,2604.724693
3242.700845,-12879.583391,-1258.350101,1685.410096
3242.701183,-10807.006753,-1480.411884,0.000000
3242.701520,-9474.636058,-814.226536,0.000000
3242.701857,-10658.965565,148.041188,1072.533697
3242.702195,-12287.418637,-518.144159,1608.800546
3242.702532,-10140.821405,-1184.329507,0.000000
3242.702870,-7772.162391,-370.102971,0.000000
3242.703207,-9696.697840,-1036.288319,2451.505594
3242.703544,-12509.480420,-1184.329507,1991.848295
3242.703882,-11695.253884,-518.144159,0.000000
3242.704219,-9474.636058,296.082377,-1378.971896
3242.704556,-8364.327145,444.123565,-919.314598
3242.704894,-10658.965565,-740.205942,536.266849
3242.705231,-10362.883188,-1184.329507,76.609550
3242.705569,-7920.203579,-888.247130,-995.924147
3242.705906,-8956.491898,-370.102971,612.876398
3242.706243,-11251.130318,-1184.329507,1762.019645
3242.706581,-11251.130318,-1036.288319,612.876398
3242.706918,-9474.636058,-592.164754,-536.266849
3242.707255,-7698.141797,74.020594,-995.924147
3242.707593,-9844.739029,0.000000,766.095498
3242.707930,-10436.903782,0.000000,306.438199
3242.708268,-8956.491898,0.000000,-612.876398
3242.708605,-8142.265362,296.082377,1685.410096
3242.708942,-10214.842000,888.247130,2681.334243
3242.709280,-11917.315666,518.144159,2987.772442
3242.709617,-10658.965565,1998.556043,766.095498
3242.709954,-8290.306550,2590.720797,-383.047749
3242.710292,-9400.615463,1998.556043,689.485948
3242.710629,-11695.253884,1258.350101,766.095498
3242.710967,-10732.986159,962.267725,0.000000
3242.711304,-8586.388927,296.082377,-689.485948
3242.711641,-9178.553681,518.144159,0.000000
3242.711979,-11325.150913,-1110.308913,1302.362347
3242.712316,-11251.130318,-962.267725,-1225.752797
3242.712653,-8290.306550,-444.123565,-3064.381992
3242.712991,-8956.491898,-592.164754,-1532.190996
3242.713328,-10584.944971,-1332.370696,-1532.190996
3242.713666,-10955.047942,-2294.638420,-1685.410096
3242.714003,-9104.533087,-1998.556043,-1072.533697
3242.714340,-8660.409521,-2294.638420,536.266849
3242.714678,-11399.171507,-2516.700203,2681.334243
3242.715015,-12213.398043,-2294.638420,1455.581446
3242.715352,-9992.780217,-1628.453072,-229.828649
3242.715690,-9104.533087,-1258.350101,76.609550
3242.716027,-10436.903782,-518.144159,1608.800546
3242.716365,-11325.150913,-962.267725,1225.752797
3242.716702,-10066.800811,-1110.308913,1072.533697
3242.717039,-8586.388927,74.020594,2451.505594
3242.717377,-9992.780217,370.102971,4213.525239
3242.717714,-13027.624579,518.144159,2681.334243
3242.718051,-11547.212695,888.247130,0.000000
3242.718389,-9178.553681,1850.514855,-1149.143247
3242.718726,-9770.718434,2368.659014,-76.609550
3242.719064,-10658.965565,888.247130,-689.485948
3242.719401,-9770.718434,666.185348,-1608.800546
3242.719738,-8068.244768,888.247130,-1838.629195
3242.720076,-8438.347739,370.102971,-306.438199
3242.720413,-11251.130318,-518.144159,1608.800546
3242.720750,-11399.171507,-370.102971,612.876398
3242.721088,-8512.368333,888.247130,-459.657299
3242.721425,-8216.285956,592.164754,-229.828649
3242.721763,-10066.800811,518.144159,1225.752797
3242.722100,-10955.047942,-444.123565,842.705048
3242.722437,-8808.450710,-518.144159,919.314598
3242.722775,-8290.306550,0.000000,1838.629195
3242.723112,-10881.027347,-814.226536,3294.210641
3242.723449,-12139.377449,-74.020594,2145.067394
3242.723787,-10140.821405,0.000000,-306.438199
3242.724124,-8438.347739,444.123565,-1072.533697
3242.724462,-9326.594869,296.082377,-459.657299
3242.724799,-11621.233289,-296.082377,0.000000
3242.725136,-10436.903782,0.000000,-1378.971896
3242.725474,-8660.409521,0.000000,-842.705048
3242.725811,-10288.862594,-666.185348,1072.533697
3242.726148,-12213.398043,-1924.535449,766.095498
3242.726486,-11991.336260,-962.267725,153.219100
3242.726823,-9696.697840,-888.247130,-2221.676944
3242.727161,-8808.450710,-888.247130,-1762.019645
3242.727498,-11399.171507,-1776.494261,-842.705048
3242.727835,-11399.171507,-2516.700203,-76.609550
3242.728173,-8364.327145,-1924.535449,-766.095498
3242.728510,-8882.471304,-2368.659014,919.314598
3242.728847,-11695.253884,-1850.514855,2604.724693
3242.729185,-11473.192101,-1628.453072,1072.533697
3242.729522,-9992.780217,-962.267725,306.438199
3242.729860,-8290.306550,-444.123565,995.924147
3242.730197,-9548.656652,-444.123565,2068.457845
3242.730534,-11325.150913,222.061783,2451.505594
3242.730872,-9622.677246,222.061783,766.095498
3242.731209,-7698.141797,222.061783,1149.143247
3242.731546,-10140.821405,222.061783,2834.553343
3242.731884,-11917.315666,592.164754,3064.381992
3242.732221,-10807.006753,2146.597232,383.047749
3242.732559,-8068.244768,1998.556043,-1532.190996
3242.732896,-8586.388927,2146.597232,-919.314598
3242.733233,-10732.986159,1184.329507,0.000000
3242.733571,-10436.903782,666.185348,-919.314598
3242.733908,-8882.471304,888.247130,-1225.752797
3242.734245,-9696.697840,666.185348,153.219100
3242.734583,-11843.295072,-370.102971,1149.143247
3242.734920,-11843.295072,-888.247130,-689.485948
3242.735258,-9030.512492,-592.164754,-1378.971896
3242.735595,-9030.512492,-592.164754,-1532.190996
3242.735932,-10658.965565,-1184.329507,-689.485948
3242.736270,-10584.944971,-1480.411884,-1455.581446
3242.736607,-8512.368333,-1628.453072,-459.657299
3242.736944,-8216.285956,-1480.411884,0.000000
3242.737282,-10955.047942,-2072.576638,1532.190996
3242.737619,-12435.459826,-1110.308913,1378.971896
3242.737957,-9844.739029,-1332.370696,-459.657299
3242.738294,-8364.327145,-370.102971,229.828649
3242.738631,-9844.739029,-814.226536,1378.971896
3242.738969,-11325.150913,-1036.288319,919.314598
3242.739306,-10066.800811,-1184.329507,0.000000
3242.739643,-8586.388927,-666.185348,229.828649
3242.739981,-9474.636058,-888.247130,1762.019645
3242.740318,-12435.459826,-1406.391290,1685.410096
3242.740655,-11177.109724,-370.102971,229.828649
3242.740993,-8808.450710,370.102971,-1608.800546
3242.741330,-8882.471304,148.041188,-1532.190996
3242.741668,-11325.150913,222.061783,-766.095498
3242.742005,-10658.965565,-518.144159,-1532.190996
3242.742342,-8512.368333,222.061783,-1685.410096
3242.742680,-9326.594869,-444.123565,919.314598
3242.743017,-11399.171507,-370.102971,3370.820191
3242.743354,-11621.233289,-444.123565,2068.457845
3242.743692,-9844.739029,740.205942,842.705048
3242.744029,-8660.409521,1776.494261,1225.752797
3242.744367,-10732.986159,1406.391290,2298.286494
3242.744704,-10955.047942,740.205942,1991.848295
3242.745041,-8660.409521,1110.308913,919.314598
3242.745379,-7772.162391,1406.391290,1838.629195
3242.745716,-9992.780217,0.000000,2987.772442
3242.746053,-11843.295072,1332.370696,2298.286494
3242.746391,-10214.842000,666.185348,153.219100
3242.746728,-8438.347739,1184.329507,-1532.190996
3242.747066,-8512.368333,666.185348,-1608.800546
3242.747403,-10362.883188,-148.041188,-1225.752797
3242.747740,-9252.574275,-888.247130,-1915.238745
3242.748078,-7402.059420,-1702.473667,-2068.457845
3242.748415,-9252.574275,-2072.576638,536.266849
3242.748752,-11917.315666,-2146.597232,459.657299
3242.749090,-11991.336260,-1998.556043,0.000000
3242.749427,-10288.862594,-740.205942,-1455.581446
3242.749765,-9474.636058,-1184.329507,-1455.581446
3242.750102,-11399.171507,-1406.391290,153.219100
3242.750439,-12139.377449,-1998.556043,0.000000
3242.750777,-9696.697840,-2072.576638,-459.657299
3242.751114,-9622.677246,-1776.494261,1072.533697
3242.751451,-12435.459826,-1628.453072,2987.772442
3242.751789,-12805.562797,-1184.329507,1915.238745
3242.752126,-10584.944971,-592.164754,-383.047749
3242.752464,-8956.491898,444.123565,0.000000
3242.752801,-9992.780217,0.000000,766.095498
3242.753138,-10955.047942,0.000000,0.000000
3242.753476,-9252.574275,0.000000,-919.314598
3242.753813,-7476.080014,-370.102971,-383.047749
3242.754150,-8882.471304,0.000000,1072.533697
3242.754488,-11399.171507,-962.267725,1685.410096
3242.754825,-10288.862594,370.102971,-766.095498
3242.755163,-7476.080014,592.164754,-2298.286494
3242.755500,-7994.224174,1110.308913,-1302.362347
3242.755837,-10288.862594,-444.123565,-919.314598
3242.756175,-9918.759623,-444.123565,0.000000
3242.756512,-7846.182985,370.102971,0.000000
3242.756849,-8956.491898,0.000000,2145.067394
3242.757187,-12361.439231,740.205942,3600.648841
3242.757524,-12509.480420,222.061783,1608.800546
3242.757862,-10288.862594,1480.411884,0.000000
3242.758199,-9770.718434,1184.329507,459.657299
3242.758536,-11473.192101,592.164754,1455.581446
3242.758874,-10807.006753,592.164754,306.438199
3242.759211,-8660.409521,148.041188,-1072.533697
3242.759548,-8364.327145,222.061783,1532.190996
3242.759886,-11399.171507,-814.226536,2298.286494
3242.760223,-12213.398043,0.000000,2298.286494
3242.760561,-10881.027347,222.061783,0.000000
3242.760898,-8734.430116,1036.288319,-1225.752797
3242.761235,-9400.615463,0.000000,-842.705048
3242.761573,-11621.233289,-962.267725,0.000000
3242.761910,-8956.491898,-1998.556043,-689.485948
3242.762247,-7550.100608,-2072.576638,-76.609550
3242.762585,-10066.800811,-1998.556043,1072.533697
3242.762922,-11843.295072,-2738.761985,689.485948
3242.763260,-11547.212695,-2590.720797,-459.657299
3242.763597,-8660.409521,-740.205942,-1608.800546
3242.763934,-8438.347739,-1184.329507,-612.876398
3242.764272,-11177.109724,-740.205942,-383.047749
3242.764609,-9696.697840,-1628.453072,-1532.190996
3242.764946,-8956.491898,-666.185348,0.000000
3242.765284,-9474.636058,-1110.308913,2987.772442
3242.765621,-11547.212695,-814.226536,3600.648841
3242.765959,-12435.459826,814.226536,2604.724693
3242.766296,-11103.089130,1628.453072,229.828649
3242.766633,-8808.450710,2590.720797,-536.266849
3242.766971,-10214.842000,1480.411884,229.828649
3242.767308,-10881.027347,1554.432478,536.266849
3242.767645,-9104.533087,1702.473667,-459.657299
3242.767983,-7920.203579,1702.473667,0.000000
3242.768320,-9992.780217,1036.288319,1838.629195
3242.768658,-11843.295072,222.061783,1378.971896
3242.768995,-10436.903782,1184.329507,-689.485948
3242.769332,-8512.368333,1110.308913,-1378.971896
3242.769670,-9622.677246,1110.308913,-766.095498
3242.770007,-10436.903782,-814.226536,-2145.067394
3242.770344,-9474.636058,-1036.288319,-1915.238745
3242.770682,-7179.997637,-1702.473667,-995.924147
3242.771019,-8290.306550,-2146.597232,1072.533697
3242.771357,-11473.192101,-2738.761985,2374.896044
3242.771694,-11177.109724,-1480.411884,0.000000
3242.772031,-9104.533087,-1110.308913,-766.095498
3242.772369,-9400.615463,-1110.308913,-306.438199
3242.772706,-10288.862594,-1036.288319,842.705048
3242.773043,-11103.089130,-1406.391290,1532.190996
3242.773381,-9326.594869,-1554.432478,1762.019645
3242.773718,-9030.512492,-1258.350101,1685.410096
3242.774056,-11991.336260,-1776.494261,3294.210641
3242.774393,-12953.603985,-1480.411884,1762.019645
3242.774730,-10955.047942,-518.144159,-459.657299
3242.775068,-9548.656652,148.041188,-919.314598
3242.775405,-9844.739029,-222.061783,-766.095498
3242.775742,-10955.047942,-1258.350101,-1149.143247
3242.776080,-9400.615463,-444.123565,-1608.800546
3242.776417,-8068.244768,-888.247130,-1532.190996
3242.776755,-10214.842000,-888.247130,842.705048
3242.777092,-12435.459826,-1554.432478,1302.362347
3242.777429,-11251.130318,-1036.288319,0.000000
3242.777767,-8882.471304,222.061783,-459.657299
3242.778104,-8956.491898,0.000000,306.438199
3242.778441,-10436.903782,148.041188,536.266849
3242.778779,-10214.842000,-666.185348,0.000000
3242.779116,-8142.265362,444.123565,1225.752797
3242.779454,-9178.553681,-370.102971,2834.553343
3242.779791,-11769.274478,0.000000,4443.353888
3242.780128,-11695.253884,1184.329507,2145.067394
3242.780466,-9474.636058,1702.473667,-536.266849
3242.780803,-8512.368333,2590.720797,229.828649
3242.781140,-10140.821405,1554.432478,766.095498
3242.781478,-11177.109724,1924.535449,-153.219100
3242.781815,-8808.450710,2146.597232,-1302.362347
3242.782153,-8734.430116,962.267725,-612.876398
3242.782490,-10436.903782,-444.123565,1225.752797
3242.782827,-11399.171507,-518.144159,1072.533697
3242.783165,-10140.821405,0.000000,0.000000
3242.783502,-8438.347739,518.144159,-2451.505594
3242.783839,-9178.553681,222.061783,-2145.067394
3242.784177,-11991.336260,-1702.473667,-1149.143247
3242.784514,-9992.780217,-2072.576638,-1072.533697
3242.784852,-8586.388927,-1628.453072,306.438199
3242.785189,-10288.862594,-1998.556043,1991.848295
3242.785526,-11917.315666,-2220.617826,1915.238745
3242.785864,-11991.336260,-2146.597232,0.000000
3242.786201,-10140.821405,-1258.350101,-842.705048
3242.786538,-9400.615463,-1184.329507,153.219100
3242.786876,-11029.068536,-1480.411884,766.095498
3242.787213,-10732.986159,-888.247130,-612.876398
3242.787551,-8290.306550,0.000000,-1072.533697
3242.787888,-9030.512492,-592.164754,1762.019645
3242.788225,-11399.171507,-1258.350101,3140.991542
3242.788563,-11843.295072,-222.061783,2298.286494
3242.788900,-10362.883188,1110.308913,0.000000
3242.789237,-9030.512492,1332.370696,-1149.143247
3242.789575,-9844.739029,666.185348,-306.438199
3242.789912,-10732.986159,444.123565,-383.047749
3242.790249,-8512.368333,0.000000,-842.705048
3242.790586,-7698.141797,74.020594,-689.485948
3242.790924,-9992.780217,74.020594,919.314598
3242.791261,-11843.295072,-1332.370696,1608.800546
3242.791598,-10288.862594,0.000000,-612.876398
3242.791935,-8068.244768,592.164754,-383.047749
3242.792273,-9326.594869,888.247130,76.609550
3242.792610,-10658.965565,518.144159,76.609550
3242.792947,-9992.780217,74.020594,0.000000
3242.793284,-8734.430116,740.205942,459.657299
3242.793621,-9696.697840,-370.102971,2374.896044
3242.793959,-12065.356855,-370.102971,3524.039291
3242.794296,-11547.212695,0.000000,1685.410096
3242.794633,-9178.553681,814.226536,76.609550
3242.794970,-8512.368333,962.267725,-229.828649
3242.795308,-9918.759623,148.041188,76.609550
3242.795645,-10732.986159,-148.041188,306.438199
3242.795982,-9548.656652,-148.041188,0.000000
3242.796319,-8586.388927,-592.164754,842.705048
3242.796657,-10807.006753,-1480.411884,2451.505594
3242.796994,-11917.315666,-1702.473667,612.876398
3242.797331,-10214.842000,-1184.329507,-1455.581446
3242.797668,-9474.636058,-962.267725,-1915.238745
3242.798006,-9844.739029,-1258.350101,-1378.971896
3242.798343,-10732.986159,-2664.741391,-1608.800546
3242.798680,-9696.697840,-2516.700203,-1532.190996
3242.799017,-7846.182985,-2220.617826,-842.705048
3242.799355,-10510.924376,-2368.659014,1838.629195
3242.799692,-12583.501014,-2368.659014,1991.848295
3242.800029,-11399.171507,-1628.453072,153.219100
3242.800366,-9548.656652,0.000000,229.828649
3242.800704,-9844.739029,148.041188,306.438199
3242.801041,-11029.068536,-740.205942,1149.143247
3242.801378,-10732.986159,-296.082377,842.705048
3242.801715,-8364.327145,518.144159,1915.238745
3242.802052,-9400.615463,740.205942,2834.553343
3242.802390,-11029.068536,222.061783,2834.553343
3242.802727,-11917.315666,1110.308913,1072.533697
3242.803064,-10584.944971,1998.556043,-842.705048
3242.803401,-8216.285956,2516.700203,-1302.362347
3242.803739,-9030.512492,1480.411884,-842.705048
3242.804076,-9474.636058,666.185348,-1455.581446
3242.804413,-7698.141797,1258.350101,-2145.067394
3242.804750,-7698.141797,518.144159,-1302.362347
3242.805088,-10288.862594,0.000000,459.657299
3242.805425,-11991.336260,-666.185348,229.828649
3242.805762,-10807.006753,0.000000,-766.095498
3242.806099,-7772.162391,0.000000,-1685.410096
3242.806437,-9474.636058,0.000000,-153.219100
3242.806774,-11029.068536,-1184.329507,612.876398
3242.807111,-9474.636058,-1924.535449,229.828649
3242.807448,-8290.306550,-888.247130,1378.971896
3242.807786,-10066.800811,-1036.288319,3447.429741
3242.808123,-12139.377449,-962.267725,2757.943793
3242.808460,-12509.480420,-740.205942,1455.581446
3242.808797,-10362.883188,222.061783,153.219100
3242.809134,-9104.533087,666.185348,229.828649
3242.809472,-11251.130318,-592.164754,536.266849
3242.809809,-10807.006753,-222.061783,-459.657299
3242.810146,-7994.224174,-370.102971,-1532.190996
3242.810483,-8586.388927,-296.082377,0.000000
3242.810821,-11251.130318,-1480.411884,1455.581446
3242.811158,-11473.192101,-1702.473667,-153.219100
3242.811495,-9992.780217,74.020594,-1378.971896
3242.811832,-8586.388927,888.247130,-1915.238745
3242.812170,-10140.821405,-592.164754,-842.705048
3242.812507,-10807.006753,-1924.535449,0.000000
3242.812844,-9030.512492,-1184.329507,-229.828649
3242.813181,-7994.224174,-518.144159,842.705048
3242.813519,-10140.821405,-962.267725,2451.505594
3242.813856,-12287.418637,-1332.370696,2528.115143
3242.814193,-11251.130318,-222.061783,689.485948
3242.814530,-8512.368333,444.123565,229.828649
3242.814868,-9400.615463,1110.308913,766.095498
3242.815205,-10732.986159,1332.370696,766.095498
3242.815542,-9844.739029,1332.370696,76.609550
3242.815879,-8290.306550,1480.411884,-153.219100
3242.816216,-8808.450710,1480.411884,1838.629195
3242.816554,-11917.315666,148.041188,2987.772442
3242.816891,-11621.233289,1110.308913,995.924147
3242.817228,-9252.574275,2072.576638,-459.657299
3242.817565,-8882.471304,2294.638420,-766.095498
3242.817903,-10214.842000,296.082377,-995.924147
3242.818240,-10288.862594,0.000000,-842.705048
3242.818577,-9178.553681,-740.205942,-919.314598
3242.818914,-7772.162391,-1110.308913,-383.047749
3242.819252,-10066.800811,-1332.370696,919.314598
3242.819589,-12065.356855,-1702.473667,383.047749
3242.819926,-10436.903782,-2146.597232,-1838.629195
3242.820263,-8808.450710,-1184.329507,-2068.457845
3242.820601,-10362.883188,-1258.350101,0.000000
3242.820938,-11621.233289,-2072.576638,-306.438199
3242.821275,-9030.512492,-2516.700203,-995.924147
3242.821612,-8438.347739,-1628.453072,229.828649
3242.821950,-10510.924376,-2368.659014,2528.115143
3242.822287,-12583.501014,-1850.514855,2145.067394
3242.822624,-11843.295072,-1332.370696,995.924147
3242.822961,-9178.553681,222.061783,153.219100
3242.823298,-9474.636058,148.041188,459.657299
3242.823636,-11177.109724,-592.164754,842.705048
3242.823973,-10288.862594,-222.061783,383.047749
3242.824310,-8660.409521,222.061783,1072.533697
3242.824647,-8882.471304,-370.102971,1302.362347
3242.824985,-11103.089130,0.000000,1991.848295
3242.825322,-12361.439231,0.000000,612.876398
3242.825659,-9844.739029,370.102971,-1302.362347
3242.825996,-8364.327145,1184.329507,-1302.362347
3242.826334,-9770.718434,296.082377,-459.657299
3242.826671,-10362.883188,-148.041188,-1378.971896
3242.827008,-8290.306550,-370.102971,-2145.067394
3242.827345,-8216.285956,0.000000,-383.047749
3242.827683,-10214.842000,-370.102971,2451.505594
3242.828020,-11843.295072,-962.267725,2068.457845
3242.828357,-10732.986159,666.185348,995.924147
3242.828694,-8734.430116,1480.411884,-383.047749
3242.829032,-9474.636058,1480.411884,995.924147
3242.829369,-11029.068536,296.082377,1762.019645
3242.829706,-10584.944971,222.061783,919.314598
3242.830043,-8216.285956,370.102971,1072.533697
3242.830381,-9622.677246,592.164754,2221.676944
3242.830718,-11843.295072,-518.144159,2451.505594
3242.831055,-11103.089130,0.000000,306.438199
3242.831392,-9326.594869,962.267725,-1149.143247
3242.831729,-9030.512492,444.123565,-919.314598
3242.832067,-10658.965565,0.000000,-689.485948
3242.832404,-10807.006753,-444.123565,-1455.581446
3242.832741,-8438.347739,-296.082377,-2221.676944
3242.833078,-8438.347739,-1184.329507,-689.485948
3242.833416,-10807.006753,-2146.597232,536.266849
3242.833753,-12139.377449,-2294.638420,0.000000
3242.834090,-10214.842000,-1406.391290,-1838.629195
3242.834427,-8956.491898,-666.185348,-1149.143247
3242.834765,-9992.780217,-1110.308913,-612.876398
3242.835102,-11325.150913,-1776.494261,459.657299
3242.835439,-9696.697840,-1480.411884,459.657299
3242.835776,-8216.285956,-962.267725,1225.752797
3242.836114,-10584.944971,-222.061783,4366.744339
3242.836451,-12879.583391,-740.205942,4060.306139
3242.836788,-11473.192101,296.082377,1455.581446
3242.837125,-9770.718434,2368.659014,0.000000
3242.837463,-9918.759623,1776.494261,842.705048
3242.837800,-11177.109724,1702.473667,766.095498
3242.838137,-9918.759623,1258.350101,-459.657299
3242.838474,-7550.100608,1998.556043,-383.047749
3242.838811,-8882.471304,518.144159,612.876398
3242.839149,-11177.109724,0.000000,1455.581446
3242.839486,-11103.089130,666.185348,383.047749
3242.839823,-8882.471304,1258.350101,-1302.362347
3242.840160,-7920.203579,1702.473667,-1991.848295
3242.840498,-10140.821405,148.041188,-1072.533697
3242.840835,-10732.986159,-740.205942,-306.438199
3242.841172,-8438.347739,-1554.432478,-919.314598
3242.841509,-8364.327145,-666.185348,766.095498
3242.841847,-10066.800811,-1628.453072,1915.238745
3242.842184,-11843.295072,-1998.556043,1225.752797
3242.842521,-10214.842000,-1850.514855,76.609550
3242.842858,-8808.450710,-444.123565,-689.485948
3242.843196,-10140.821405,-888.247130,919.314598
3242.843533,-11769.274478,-1184.329507,76.609550
3242.843870,-9622.677246,-740.205942,536.266849
3242.844207,-9104.533087,0.000000,1149.143247
3242.844545,-9992.780217,-1036.288319,1762.019645
3242.844882,-12509.480420,-1258.350101,1991.848295
3242.845219,-11917.315666,-666.185348,153.219100
3242.845556,-9400.615463,444.123565,-1532.190996
3242.845893,-9252.574275,74.020594,-1455.581446
3242.846231,-11029.068536,-1110.308913,-459.657299
3242.846568,-10288.862594,-1776.494261,-1149.143247
3242.846905,-8364.327145,-1480.411884,-995.924147
3242.847242,-8586.388927,-888.247130,459.657299
3242.847580,-11251.130318,-1406.391290,1225.752797
3242.847917,-12287.418637,-1776.494261,536.266849
3242.848254,-10140.821405,-592.164754,-919.314598
3242.848591,-8808.450710,-370.102971,153.219100
3242.848929,-10214.842000,-370.102971,536.266849
3242.849266,-10436.903782,-1258.350101,612.876398
3242.849603,-8660.409521,-592.164754,0.000000
3242.849940,-7920.203579,-518.144159,1378.971896
3242.850278,-10362.883188,-74.020594,3907.087040
3242.850615,-11843.295072,-296.082377,2911.162892
3242.850952,-10362.883188,1184.329507,689.485948
3242.851289,-8364.327145,2442.679609,306.438199
3242.851627,-9326.594869,2368.659014,1149.143247
3242.851964,-11029.068536,1480.411884,1838.629195
3242.852301,-10362.883188,1702.473667,153.219100
3242.852638,-8068.244768,2516.700203,-306.438199
3242.852976,-9844.739029,1628.453072,919.314598
3242.853313,-12139.377449,0.000000,1225.752797
3242.853650,-11251.130318,-222.061783,-689.485948
3242.853987,-9548.656652,592.164754,-1378.971896
3242.854324,-8808.450710,1036.288319,-1608.800546
3242.854662,-10288.862594,-592.164754,-1762.019645
3242.854999,-11103.089130,-888.247130,-1608.800546
3242.855336,-8808.450710,-1554.432478,-2145.067394
3242.855673,-8438.347739,-1628.453072,0.000000
3242.856011,-11621.233289,-2072.576638,2374.896044
3242.856348,-12139.377449,-2368.659014,919.314598
3242.856685,-10140.821405,-1258.350101,-612.876398
3242.857022,-8660.409521,-888.247130,-1072.533697
3242.857360,-10066.800811,-1184.329507,459.657299
3242.857697,-11251.130318,-2146.597232,76.609550
3242.858034,-9992.780217,-1258.350101,306.438199
3242.858371,-8068.244768,-740.205942,766.095498
3242.858709,-10066.800811,-1184.329507,2834.553343
3242.859046,-11621.233289,-1110.308913,2298.286494
3242.859383,-11103.089130,-222.061783,0.000000
3242.859720,-9104.533087,1110.308913,0.000000
3242.860058,-9474.636058,592.164754,-459.657299
3242.860395,-11103.089130,74.020594,0.000000
3242.860732,-9844.739029,0.000000,-1532.190996
3242.861069,-8290.306550,888.247130,-689.485948
3242.861406,-9770.718434,-74.020594,0.000000
3242.861744,-11473.192101,222.061783,766.095498
3242.862081,-11251.130318,-370.102971,383.047749
3242.862418,-9326.594869,-148.041188,-536.266849
3242.862755,-8882.471304,1184.329507,-229.828649
3242.863093,-10807.006753,740.205942,1072.533697
3242.863430,-11621.233289,0.000000,842.705048
3242.863767,-8734.430116,148.041188,383.047749
3242.864104,-8882.471304,444.123565,2374.896044
3242.864442,-10881.027347,962.267725,3830.477490
3242.864779,-12805.562797,-74.020594,2451.505594
3242.865116,-11103.089130,74.020594,766.095498
3242.865453,-8068.244768,1406.391290,0.000000
3242.865791,-9548.656652,222.061783,1149.143247
3242.866128,-10584.944971,-370.102971,0.000000
3242.866465,-8808.450710,-296.082377,-1762.019645
3242.866802,-7476.080014,222.061783,-1072.533697
3242.867140,-9252.574275,-592.164754,536.266849
3242.867477,-11103.089130,-1332.370696,1149.143247
3242.867814,-11325.150913,-1110.308913,-306.438199
3242.868151,-9400.615463,74.020594,-2298.286494
3242.868488,-8956.491898,0.000000,-2145.067394
3242.868826,-10955.047942,-1850.514855,-1378.971896
3242.869163,-10658.965565,-2664.741391,-229.828649
3242.869500,-9030.512492,-2368.659014,-306.438199
3242.869837,-9326.594869,-1554.432478,1455.581446
3242.870175,-11917.315666,-2368.659014,2451.505594
3242.870512,-12805.562797,-2072.576638,1378.971896
3242.870849,-10807.006753,-666.185348,0.000000
3242.871186,-9326.594869,-296.082377,76.609550
3242.871524,-10584.944971,592.164754,2298.286494
3242.871861,-11547.212695,-814.226536,1225.752797
3242.872198,-9696.697840,0.000000,306.438199
3242.872535,-8438.347739,370.102971,1149.143247
3242.872873,-10066.800811,74.020594,2987.772442
3242.873210,-12509.480420,370.102971,2681.334243
3242.873547,-10881.027347,518.144159,0.000000
3242.873884,-8290.306550,2368.659014,-383.047749
3242.874222,-8660.409521,1850.514855,-919.314598
3242.874559,-9770.718434,814.226536,0.000000
3242.874896,-9548.656652,296.082377,-919.314598
3242.875233,-7254.018232,296.082377,-1302.362347
3242.875570,-8438.347739,1036.288319,229.828649
3242.875908,-11177.109724,-740.205942,1302.362347
3242.876245,-10955.047942,-740.205942,-229.828649
3242.876582,-9326.594869,-518.144159,-689.485948
3242.876919,-9030.512492,444.123565,-689.485948
3242.877257,-10510.924376,-740.205942,-459.657299
3242.877594,-11325.150913,-888.247130,-919.314598
3242.877931,-8734.430116,-1110.308913,-1378.971896
3242.878268,-8438.347739,-1480.411884,383.047749
3242.878606,-11547.212695,-1258.350101,2451.505594
3242.878943,-12953.603985,-1110.308913,1532.190996
3242.879280,-10955.047942,74.020594,0.000000
3242.879617,-9178.553681,1110.308913,-1072.533697
3242.879955,-10658.965565,666.185348,153.219100
3242.880292,-11769.274478,-592.164754,229.828649
3242.880629,-9992.780217,-1110.308913,-612.876398
3242.880966,-8364.327145,-148.041188,153.219100
3242.881304,-9474.636058,-1110.308913,1455.581446
3242.881641,-11547.212695,-1480.411884,1762.019645
3242.881978,-11621.233289,-1702.473667,-153.219100
3242.882315,-8734.430116,-74.020594,-1608.800546
3242.882653,-9030.512492,74.020594,-995.924147
3242.882990,-10584.944971,-1628.453072,-306.438199
3242.883327,-9548.656652,-1850.514855,-1225.752797
3242.883664,-7476.080014,-1776.494261,-689.485948
3242.884001,-8660.409521,-1036.288319,1762.019645
3242.884339,-10658.965565,-1332.370696,2604.724693
3242.884676,-12139.377449,-1258.350101,2145.067394
3242.885013,-9400.615463,-370.102971,153.219100
3242.885350,-8660.409521,888.247130,842.705048
3242.885688,-10584.944971,740.205942,2374.896044
3242.886025,-11399.171507,222.061783,1455.581446
3242.886362,-9548.656652,1480.411884,1378.971896
3242.886699,-8364.327145,1258.350101,2068.457845
3242.887037,-10436.903782,1628.453072,3064.381992
3242.887374,-12583.501014,1406.391290,2681.334243
3242.887711,-11103.089130,1406.391290,1149.143247
3242.888048,-9030.512492,3034.844362,-536.266849
3242.888386,-9918.759623,1776.494261,0.000000
3242.888723,-11621.233289,888.247130,-1072.533697
3242.889060,-9326.594869,0.000000,-3217.601092
3242.889397,-7994.224174,-222.061783,-2451.505594
3242.889735,-8586.388927,-962.267725,153.219100
3242.890072,-10510.924376,-2590.720797,-153.219100
3242.890409,-10436.903782,-1850.514855,-919.314598
3242.890746,-9474.636058,-962.267725,-1915.238745
3242.891084,-8882.471304,-1258.350101,-1378.971896
3242.891421,-11177.109724,-2220.617826,-153.219100
3242.891758,-10510.924376,-1924.535449,-229.828649
3242.892096,-8734.430116,-2590.720797,-612.876398
3242.892433,-8808.450710,-2294.638420,1455.581446
3242.892770,-11325.150913,-1924.535449,3064.381992
3242.893108,-12361.439231,-2220.617826,2068.457845
3242.893445,-10362.883188,-1110.308913,-1072.533697
3242.893782,-9030.512492,0.000000,-612.876398
3242.894120,-10732.986159,666.185348,919.314598
3242.894457,-11547.212695,-296.082377,229.828649
3242.894794,-9770.718434,0.000000,-1072.533697
3242.895132,-8364.327145,444.123565,-76.609550
3242.895469,-10362.883188,222.061783,1762.019645
3242.895806,-12583.501014,148.041188,1455.581446
3242.896144,-11103.089130,518.144159,-766.095498
3242.896481,-9030.512492,1406.391290,-1378.971896
3242.896818,-8956.491898,518.144159,-1455.581446
3242.897156,-10066.800811,0.000000,-1149.143247
3242.897493,-9548.656652,-296.082377,0.000000
3242.897830,-7920.203579,-1110.308913,229.828649
3242.898168,-8512.368333,-148.041188,2145.067394
3242.898505,-11621.233289,-962.267725,2987.772442
3242.898842,-11325.150913,-814.226536,1685.410096
3242.899180,-8956.491898,0.000000,153.219100
3242.899517,-8512.368333,1036.288319,1608.800546
3242.899854,-10214.842000,370.102971,1685.410096
3242.900192,-10807.006753,666.185348,689.485948
3242.900529,-9104.533087,740.205942,76.609550
3242.900866,-8808.450710,740.205942,1149.143247
3242.901204,-9992.780217,-518.144159,2145.067394
3242.901541,-11917.315666,-296.082377,1225.752797
3242.901878,-10140.821405,-296.082377,-153.219100
3242.902216,-8882.471304,814.226536,-919.314598
3242.902553,-10140.821405,0.000000,-536.266849
3242.902891,-11325.150913,0.000000,-536.266849
3242.903228,-10732.986159,-1110.308913,-1149.143247
3242.903565,-9030.512492,-814.226536,-229.828649
3242.903903,-9622.677246,-1184.329507,1455.581446
3242.904240,-12361.439231,-2146.597232,1915.238745
3242.904577,-11547.212695,-3034.844362,-612.876398
3242.904915,-9252.574275,-1850.514855,-1762.019645
3242.905252,-9474.636058,-740.205942,-536.266849
3242.905589,-10955.047942,-1924.535449,-306.438199
3242.905927,-10288.862594,-1480.411884,-1225.752797
3242.906264,-8364.327145,-1628.453072,-766.095498
3242.906601,-8882.471304,-1480.411884,2145.067394
3242.906939,-11029.068536,-1554.432478,3600.648841
3242.907276,-12509.480420,-592.164754,2911.162892
3242.907613,-9992.780217,1184.329507,536.266849
3242.907951,-8438.347739,1480.411884,-153.219100
3242.908288,-10214.842000,1628.453072,1532.190996
3242.908625,-10881.027347,444.123565,919.314598
3242.908963,-8956.491898,962.267725,0.000000
3242.909300,-7772.162391,1406.391290,306.438199
3242.909637,-10214.842000,1702.473667,1455.581446
3242.909975,-11621.233289,740.205942,919.314598
3242.910312,-10214.842000,74.020594,-842.705048
3242.910649,-8216.285956,1628.453072,-1608.800546
3242.910987,-8808.450710,1776.494261,-1225.752797
3242.911324,-10732.986159,444.123565,-1838.629195
3242.911661,-10584.944971,-370.102971,-2068.457845
3242.911999,-8216.285956,-148.041188,-995.924147
3242.912336,-9474.636058,0.000000,1685.410096
3242.912673,-12287.418637,-1628.453072,2298.286494
3242.913011,-11843.295072,-1258.350101,76.609550
3242.913348,-9474.636058,-740.205942,-689.485948
3242.913685,-8882.471304,-444.123565,-153.219100
3242.914023,-10658.965565,-666.185348,689.485948
3242.914360,-11325.150913,-1480.411884,689.485948
3242.914697,-9178.553681,-740.205942,0.000000
3242.915035,-9104.533087,-592.164754,1532.190996
3242.915372,-11177.109724,-814.226536,2987.772442
3242.915709,-12139.377449,-1480.411884,1915.238745
3242.916047,-10436.903782,-1036.288319,0.000000
3242.916384,-9030.512492,74.020594,-689.485948
3242.916721,-9474.636058,-518.144159,-842.705048
3242.917059,-10807.006753,-1184.329507,-842.705048
3242.917396,-9400.615463,-1850.514855,-1532.190996
3242.917733,-7550.100608,-1184.329507,-995.924147
3242.918071,-9696.697840,-1184.329507,919.314598
3242.918408,-12361.439231,-1332.370696,1149.143247
3242.918745,-11251.130318,-1924.535449,-383.047749
3242.919083,-8882.471304,0.000000,-689.485948
3242.919420,-9474.636058,592.164754,229.828649
3242.919757,-11251.130318,-518.144159,689.485948
3242.920095,-10510.924376,-518.144159,76.609550
3242.920432,-9252.574275,-296.082377,1762.019645
3242.920769,-9400.615463,222.061783,3370.820191
3242.921107,-11695.253884,-222.061783,3600.648841
3242.921444,-12805.562797,296.082377,2834.553343
3242.921781,-10140.821405,1480.411884,1072.533697
3242.922119,-9030.512492,1628.453072,919.314598
3242.922456,-10066.800811,2368.659014,995.924147
3242.922793,-10214.842000,1998.556043,-459.657299
3242.923131,-8808.450710,962.267725,-995.924147
3242.923468,-7994.224174,1406.391290,-689.485948
3242.923805,-9252.574275,592.164754,842.705048
3242.924143,-11621.233289,-296.082377,1225.752797
3242.924480,-9992.780217,-592.164754,-1838.629195
3242.924817,-7698.141797,666.185348,-2528.115143
3242.925155,-9178.553681,0.000000,-1838.629195
3242.925492,-10658.965565,-1258.350101,-1608.800546
3242.925830,-9104.533087,-1998.556043,-1685.410096
3242.926167,-7920.203579,-2368.659014,0.000000
3242.926504,-9474.636058,-1998.556043,1685.410096
3242.926842,-12509.480420,-2664.741391,2068.457845
3242.927179,-12435.459826,-1850.514855,689.485948
3242.927516,-9622.677246,-1258.350101,-1149.143247
3242.927854,-9548.656652,-888.247130,0.000000
3242.928191,-11547.212695,-370.102971,153.219100
3242.928528,-11547.212695,-1184.329507,-612.876398
3242.928866,-9252.574275,-370.102971,-1455.581446
3242.929203,-9474.636058,-666.185348,2068.457845
3242.929540,-11621.233289,-444.123565,2911.162892
3242.929878,-12583.501014,-370.102971,1685.410096
3242.930215,-10584.944971,296.082377,0.000000
3242.930552,-8734.430116,1036.288319,-306.438199
3242.930890,-9770.718434,1628.453072,229.828649
3242.931227,-10510.924376,74.020594,153.219100
3242.931564,-9252.574275,222.061783,-612.876398
3242.931902,-7846.182985,-148.041188,0.000000
3242.932239,-9992.780217,0.000000,1378.971896
3242.932576,-11473.192101,-962.267725,1072.533697
3242.932914,-10140.821405,-740.205942,-383.047749
3242.933251,-8068.244768,0.000000,-689.485948
3242.933588,-8512.368333,1036.288319,-76.609550
3242.933926,-10362.883188,370.102971,536.266849
3242.934263,-9918.759623,0.000000,-612.876398
3242.934600,-7920.203579,-370.102971,0.000000
3242.934938,-9178.553681,666.185348,2681.334243
3242.935275,-11621.233289,0.000000,4060.306139
3242.935612,-11917.315666,592.164754,2298.286494
3242.935950,-10362.883188,1628.453072,536.266849
3242.936287,-9400.615463,1480.411884,-383.047749
3242.936624,-10658.965565,1406.391290,612.876398
3242.936962,-10881.027347,0.000000,-153.219100
3242.937299,-9030.512492,-518.144159,-766.095498
3242.937636,-8142.265362,0.000000,153.219100
3242.937974,-10732.986159,-1036.288319,1608.800546
3242.938311,-11917.315666,-1480.411884,842.705048
3242.938648,-11103.089130,-1184.329507,-995.924147
3242.938986,-8734.430116,0.000000,-2145.067394
3242.939323,-9770.718434,-592.164754,-2298.286494
3242.939660,-11325.150913,-1776.494261,-1378.971896
3242.939998,-9474.636058,-2812.782580,-2604.724693
3242.940335,-8068.244768,-2738.761985,-1149.143247
3242.940672,-9252.574275,-3034.844362,1532.190996
3242.941010,-12213.398043,-2812.782580,2374.896044
3242.941347,-12213.398043,-2738.761985,76.609550
3242.941684,-8808.450710,-962.267725,-1149.143247
3242.942022,-9030.512492,-814.226536,-536.266849
3242.942359,-10658.965565,-666.185348,1225.752797
3242.942696,-10066.800811,-814.226536,612.876398
3242.943034,-9400.615463,-74.020594,2374.896044
3242.943371,-8808.450710,0.000000,3370.820191
3242.943708,-10881.027347,592.164754,3677.258390
3242.944046,-13101.645173,740.205942,2451.505594
3242.944383,-10140.821405,1776.494261,-153.219100
3242.944720,-8512.368333,1628.453072,-536.266849
3242.945058,-9474.636058,1850.514855,-76.609550
3242.945395,-9622.677246,1702.473667,-1915.238745
3242.945732,-8956.491898,740.205942,-2145.067394
3242.946070,-7846.182985,1184.329507,-1149.143247
3242.946407,-9474.636058,592.164754,1149.143247
3242.946744,-11991.336260,0.000000,1149.143247
3242.947082,-10881.027347,-296.082377,-459.657299
3242.947419,-8660.409521,888.247130,-1608.800546
3242.947756,-9400.615463,740.205942,-459.657299
3242.948094,-10732.986159,74.020594,0.000000
3242.948431,-9622.677246,-962.267725,-536.266849
3242.948769,-8734.430116,-1554.432478,383.047749
3242.949106,-8956.491898,-1258.350101,2451.505594
3242.949443,-11695.253884,-1332.370696,2451.505594
3242.949781,-12213.398043,-1110.308913,919.314598
3242.950118,-9770.718434,-296.082377,-766.095498
3242.950455,-8956.491898,518.144159,383.047749
3242.950793,-11103.089130,222.061783,612.876398
3242.951130,-11251.130318,-814.226536,0.000000
3242.951467,-9252.574275,-592.164754,-1225.752797
3242.951805,-8660.409521,-740.205942,229.828649
3242.952142,-11473.192101,-1332.370696,1915.238745
3242.952479,-11917.315666,-1628.453072,459.657299
3242.952817,-10510.924376,-1258.350101,-1072.533697
3242.953154,-9030.512492,-74.020594,-1762.019645
3242.953491,-9474.636058,-148.041188,-1225.752797
3242.953829,-10658.965565,-1702.473667,-995.924147
3242.954166,-9918.759623,-1776.494261,-612.876398
3242.954503,-7846.182985,-1554.432478,536.266849
3242.954841,-10436.903782,-444.123565,2681.334243
3242.955178,-12583.501014,-1332.370696,2528.115143
3242.955515,-11251.130318,-592.164754,153.219100
3242.955853,-9326.594869,370.102971,0.000000
3242.956190,-9474.636058,444.123565,459.657299
3242.956527,-11103.089130,740.205942,1378.971896
3242.956865,-10362.883188,888.247130,306.438199
3242.957202,-8438.347739,814.226536,153.219100
3242.957539,-8882.471304,1628.453072,2451.505594
3242.957877,-11103.089130,1036.288319,3294.210641
3242.958214,-11769.274478,1110.308913,1608.800546
3242.958551,-9548.656652,1998.556043,0.000000
3242.958889,-8216.285956,2812.782580,-536.266849
3242.959226,-9844.739029,1480.411884,0.000000
3242.959563,-10214.842000,740.205942,-1378.971896
3242.959901,-8734.430116,222.061783,-1532.190996
3242.960238,-8290.306550,-444.123565,0.000000
3242.960575,-9844.739029,-962.267725,1378.971896
3242.960913,-11843.295072,-1850.514855,0.000000
3242.961250,-10288.862594,-2220.617826,-1532.190996
3242.961587,-8364.327145,-592.164754,-1532.190996
3242.961925,-9992.780217,-1554.432478,76.609550
3242.962262,-10807.006753,-1258.350101,-612.876398
3242.962599,-10288.862594,-1702.473667,-1915.238745
3242.962937,-9326.594869,-1850.514855,0.000000
3242.963274,-9548.656652,-2146.597232,2068.457845
3242.963611,-12435.459826,-1998.556043,2987.772442
3242.963949,-12435.459826,-1554.432478,995.924147
3242.964286,-9326.594869,-296.082377,-995.924147
3242.964623,-9474.636058,0.000000,306.438199
3242.964961,-10732.986159,-444.123565,306.438199
3242.965298,-10955.047942,-148.041188,0.000000
3242.965635,-9178.553681,-740.205942,-995.924147
3242.965973,-8438.347739,-296.082377,842.705048
3242.966310,-10955.047942,-148.041188,2604.724693
3242.966647,-12435.459826,-74.020594,995.924147
3242.966985,-9770.718434,296.082377,-1302.362347
3242.967322,-8364.327145,518.144159,-2068.457845
3242.967659,-9696.697840,444.123565,-153.219100
3242.967997,-10436.903782,-370.102971,-1685.410096
3242.968334,-8734.430116,-222.061783,-1685.410096
3242.968671,-7920.203579,-592.164754,229.828649
3242.969009,-9326.594869,-518.144159,1685.410096
3242.969346,-12065.356855,-296.082377,2451.505594
3242.969683,-10732.986159,0.000000,1225.752797
3242.970021,-8586.388927,1110.308913,0.000000
3242.970358,-9326.594869,1554.432478,1608.800546
3242.970695,-11325.150913,1036.288319,1915.238745
3242.971033,-10510.924376,444.123565,612.876398
3242.971370,-8882.471304,592.164754,612.876398
3242.971707,-9400.615463,1480.411884,2528.115143
3242.972045,-11917.315666,0.000000,2757.943793
3242.972382,-11547.212695,0.000000,1149.143247
3242.972720,-8734.430116,592.164754,-689.485948
3242.973057,-8660.409521,370.102971,-76.609550
3242.973394,-9918.759623,222.061783,-1455.581446
3242.973732,-10510.924376,-444.123565,-2068.457845
3242.974069,-9326.594869,-370.102971,-1915.238745
3242.974406,-8438.347739,-1258.350101,0.000000
3242.974744,-10732.986159,-2220.617826,1608.800546
3242.975081,-11843.295072,-2738.761985,229.828649
3242.975418,-10658.965565,-1628.453072,-1072.533697
3242.975756,-9178.553681,-1776.494261,-1378.971896
3242.976093,-9548.656652,-1702.473667,-229.828649
3242.976430,-11177.109724,-1776.494261,306.438199
3242.976768,-10140.821405,-2664.741391,-842.705048
3242.977105,-8586.388927,-1258.350101,383.047749
3242.977442,-9844.739029,-1776.494261,3140.991542
3242.977780,-12139.377449,-1406.391290,3600.648841
3242.978117,-11473.192101,-296.082377,1991.848295
3242.978454,-9696.697840,666.185348,842.705048
3242.978792,-9622.677246,1480.411884,995.924147
3242.979129,-10732.986159,814.226536,919.314598
3242.979466,-11029.068536,1554.432478,0.000000
3242.979804,-8660.409521,740.205942,-995.924147
3242.980141,-7920.203579,1184.329507,0.000000
3242.980478,-10436.903782,740.205942,1302.362347
3242.980816,-11325.150913,592.164754,306.438199
3242.981153,-8882.471304,1258.350101,-1991.848295
3242.981490,-8216.285956,1702.473667,-2374.896044
3242.981828,-9474.636058,1110.308913,-1302.362347
3242.982165,-10436.903782,444.123565,-1302.362347
3242.982502,-9400.615463,-444.123565,-1149.143247
3242.982840,-7994.224174,296.082377,76.609550
3242.983177,-10066.800811,-888.247130,2451.505594
3242.983514,-12509.480420,-740.205942,1685.410096
3242.983852,-10658.965565,-1036.288319,-459.657299
3242.984189,-9474.636058,222.061783,0.000000
3242.984526,-9474.636058,-444.123565,536.266849
3242.984864,-10732.986159,-814.226536,153.219100
3242.985201,-9844.739029,-518.144159,-459.657299
3242.985538,-8438.347739,-592.164754,306.438199
3242.985876,-9252.574275,-370.102971,1532.190996
3242.986213,-11843.295072,-1258.350101,2068.457845
3242.986550,-11917.315666,-444.123565,1378.971896
3242.986888,-9474.636058,-518.144159,-842.705048
3242.987225,-9030.512492,0.000000,0.000000
3242.987562,-10584.944971,-740.205942,383.047749
3242.987900,-10510.924376,-1702.473667,-995.924147
3242.988237,-9178.553681,-1036.288319,-842.705048
3242.988574,-8734.430116,-1702.473667,383.047749
3242.988912,-10658.965565,-1258.350101,1685.410096
3242.989249,-12435.459826,-2146.597232,229.828649
3242.989586,-10362.883188,-1184.329507,-1149.143247
3242.989924,-8216.285956,-666.185348,-766.095498
3242.990261,-9770.718434,-740.205942,995.924147
3242.990598,-11029.068536,-444.123565,459.657299
3242.990936,-9548.656652,-592.164754,-842.705048
3242.991273,-8660.409521,0.000000,1072.533697
3242.991610,-10658.965565,-740.205942,3524.039291
3242.991948,-11991.336260,296.082377,4136.915689
3242.992285,-11399.171507,814.226536,1762.019645
3242.992622,-9400.615463,2072.576638,536.266849
3242.992960,-8882.471304,1776.494261,766.095498
3242.993297,-10732.986159,1258.350101,1302.362347
3242.993634,-10066.800811,1036.288319,612.876398
3242.993972,-7476.080014,1554.432478,-153.219100
3242.994309,-8364.327145,1110.308913,1149.143247
3242.994646,-10658.965565,888.247130,1072.533697
3242.994984,-11621.233289,370.102971,-229.828649
3242.995321,-9548.656652,1036.288319,-1302.362347
3242.995658,-8364.327145,444.123565,-2374.896044
3242.995995,-9770.718434,74.020594,-1225.752797
3242.996333,-10510.924376,-1110.308913,-2145.067394
3242.996670,-8438.347739,-2072.576638,-2068.457845
3242.997008,-7772.162391,-1776.494261,0.000000
3242.997345,-11103.089130,-2368.659014,1915.238745
3242.997683,-12731.542202,-1480.411884,919.314598
3242.998020,-11103.089130,-1480.411884,-919.314598
3242.998358,-9622.677246,0.000000,-536.266849
3242.998695,-10288.862594,-1332.370696,0.000000
3242.999033,-11843.295072,-814.226536,689.485948
3242.999370,-10807.006753,-1332.370696,76.609550
3242.999707,-9252.574275,-1036.288319,1149.143247
3243.000045,-9770.718434,-962.267725,2068.457845
3243.000382,-12435.459826,-962.267725,2451.505594
3243.000720,-11843.295072,-518.144159,229.828649
3243.001057,-9030.512492,370.102971,-1532.190996
3243.001395,-9326.594869,740.205942,-459.657299
3243.001732,-10214.842000,222.061783,-229.828649
3243.002070,-10214.842000,0.000000,-1685.410096
3243.002407,-7994.224174,74.020594,-2068.457845
3243.002744,-7698.141797,0.000000,-306.438199
3243.003082,-10510.924376,-518.144159,1072.533697
3243.003419,-11621.233289,-740.205942,0.000000
3243.003757,-8956.491898,74.020594,-689.485948
3243.004094,-8586.388927,296.082377,-612.876398
3243.004432,-9548.656652,0.000000,766.095498
3243.004769,-10658.965565,0.000000,306.438199
3243.005107,-9696.697840,-148.041188,229.828649
3243.005444,-8142.265362,740.205942,1838.629195
3243.005782,-10066.800811,370.102971,3217.601092
3243.006119,-12583.501014,222.061783,3370.820191
3243.006456,-11251.130318,1406.391290,1455.581446
3243.006794,-9326.594869,1406.391290,-153.219100
3243.007131,-9622.677246,1998.556043,919.314598
3243.007469,-11399.171507,222.061783,0.000000
3243.007806,-9918.759623,814.226536,-536.266849
3243.008144,-8438.347739,592.164754,-1072.533697
3243.008481,-8882.471304,-592.164754,1149.143247
3243.008819,-10807.006753,-1258.350101,919.314598
3243.009156,-11695.253884,-740.205942,229.828649
3243.009493,-9770.718434,0.000000,-1685.410096
3243.009831,-8734.430116,-592.164754,-2068.457845
3243.010168,-10214.842000,-1036.288319,-766.095498
3243.010506,-10658.965565,-2590.720797,-766.095498
3243.010843,-8808.450710,-2146.597232,-995.924147
3243.011181,-7920.203579,-2886.803174,612.876398
3243.011518,-11177.109724,-2960.823768,2604.724693
3243.011856,-12213.398043,-2886.803174,1302.362347
3243.012193,-11103.089130,-1998.556043,-383.047749
3243.012531,-8660.409521,-666.185348,-689.485948
3243.012868,-9992.780217,-1184.329507,995.924147
3243.013205,-11695.253884,-888.247130,1225.752797
3243.013543,-10066.800811,-222.061783,-153.219100
3243.013880,-8956.491898,0.000000,1762.019645
3243.014218,-10510.924376,296.082377,2987.772442
3243.014555,-11843.295072,-444.123565,2145.067394
3243.014893,-11769.274478,1628.453072,842.705048
3243.015230,-9622.677246,1332.370696,-612.876398
3243.015568,-8512.368333,1258.350101,-536.266849
3243.015905,-9844.739029,814.226536,0.000000
3243.016243,-9770.718434,740.205942,-842.705048
3243.016580,-8364.327145,666.185348,-1149.143247
3243.016917,-8364.327145,0.000000,0.000000
3243.017255,-10584.944971,370.102971,1532.190996
3243.017592,-11103.089130,-370.102971,0.000000
3243.017930,-9252.574275,-148.041188,-1072.533697
3243.018267,-8290.306550,0.000000,-1072.533697
3243.018605,-9770.718434,0.000000,153.219100
3243.018942,-10584.944971,-370.102971,-459.657299
3243.019280,-8956.491898,-888.247130,-1685.410096
3243.019617,-8068.244768,-518.144159,153.219100
3243.019954,-10214.842000,-1924.535449,1838.629195
3243.020292,-12065.356855,-1184.329507,1838.629195
3243.020629,-10510.924376,-444.123565,383.047749
3243.020967,-9252.574275,666.185348,-383.047749
3243.021304,-9770.718434,0.000000,459.657299
3243.021642,-10955.047942,370.102971,153.219100
3243.021979,-10807.006753,-222.061783,306.438199
3243.022317,-9474.636058,148.041188,76.609550
3243.022654,-9992.780217,-74.020594,995.924147
3243.022992,-12065.356855,-1258.350101,1608.800546
3243.023329,-11695.253884,-1110.308913,0.000000
3243.023666,-8882.471304,0.000000,-2145.067394
3243.024004,-9326.594869,-1036.288319,-995.924147
3243.024341,-10807.006753,-740.205942,-1225.752797
3243.024679,-10510.924376,-1406.391290,-1915.238745
3243.025016,-8808.450710,-1184.329507,-1532.190996
3243.025354,-8438.347739,-1110.308913,536.266849
3243.025691,-11251.130318,-1554.432478,2374.896044
3243.026029,-12139.377449,-1036.288319,2145.067394
3243.026366,-9770.718434,-148.041188,459.657299
3243.026704,-9030.512492,888.247130,1149.143247
3243.027041,-10066.800811,0.000000,2528.115143
3243.027378,-10881.027347,296.082377,2068.457845
3243.027716,-9696.697840,592.164754,1762.019645
3243.028053,-8364.327145,1332.370696,2374.896044
3243.028391,-9548.656652,1110.308913,3294.210641
3243.028728,-12065.356855,444.123565,2681.334243
3243.029066,-10658.965565,2220.617826,995.924147
3243.029403,-8290.306550,2146.597232,-1072.533697
3243.029741,-8882.471304,2442.679609,229.828649
3243.030078,-10436.903782,1036.288319,-459.657299
3243.030415,-10066.800811,814.226536,-1991.848295
3243.030753,-8142.265362,592.164754,-2528.115143
3243.031090,-8882.471304,-592.164754,-229.828649
3243.031428,-11251.130318,-1258.350101,919.314598
3243.031765,-11695.253884,-1258.350101,-1378.971896
3243.032103,-10066.800811,-1184.329507,-1838.629195
3243.032440,-8512.368333,-1332.370696,-1991.848295
3243.032778,-10066.800811,-1850.514855,-229.828649
3243.033115,-11621.233289,-1924.535449,0.000000
3243.033453,-9474.636058,-2368.659014,-919.314598
3243.033790,-8882.471304,-2516.700203,1378.971896
3243.034127,-11399.171507,-2294.638420,2604.724693
3243.034465,-12361.439231,-2442.679609,2221.676944
3243.034802,-10955.047942,-1406.391290,612.876398
3243.035140,-9400.615463,-814.226536,-459.657299
3243.035477,-9992.780217,-592.164754,383.047749
3243.035815,-11547.212695,-1480.411884,229.828649
3243.036152,-9548.656652,-962.267725,-2145.067394
3243.036490,-7846.182985,-666.185348,-612.876398
3243.036827,-9178.553681,-888.247130,1149.143247
3243.037165,-11103.089130,-1258.350101,766.095498
3243.037502,-11103.089130,-518.144159,-229.828649
3243.037839,-9178.553681,666.185348,-1072.533697
3243.038177,-9104.533087,814.226536,-919.314598
3243.038514,-10510.924376,-518.144159,0.000000
3243.038852,-10510.924376,-666.185348,-612.876398
3243.039189,-8438.347739,-666.185348,76.609550
3243.039527,-8438.347739,0.000000,1838.629195
3243.039864,-11251.130318,-296.082377,2834.553343
3243.040202,-12065.356855,74.020594,2145.067394
3243.040539,-10066.800811,666.185348,0.000000
3243.040876,-8956.491898,1850.514855,842.705048
3243.041214,-10288.862594,1110.308913,1608.800546
3243.041551,-10732.986159,1480.411884,536.266849
3243.041889,-9770.718434,1110.308913,612.876398
3243.042226,-8216.285956,2220.617826,1149.143247
3243.042564,-10066.800811,666.185348,2451.505594
3243.042901,-12213.398043,74.020594,2757.943793
3243.043239,-10140.821405,444.123565,689.485948
3243.043576,-8586.388927,1184.329507,-919.314598
3243.043914,-8660.409521,962.267725,-383.047749
3243.044251,-9992.780217,-666.185348,-919.314598
3243.044588,-9918.759623,-962.267725,-766.095498
3243.044926,-8438.347739,-444.123565,-1072.533697
3243.045263,-9030.512492,-962.267725,383.047749
3243.045601,-11843.295072,-2146.597232,842.705048
3243.045938,-11843.295072,-2146.597232,-536.266849
3243.046276,-9696.697840,-1480.411884,-1608.800546
3243.046613,-9326.594869,-1480.411884,-842.705048
3243.046951,-10732.986159,-1850.514855,-383.047749
3243.047288,-11177.109724,-1628.453072,-1455.581446
3243.047626,-9770.718434,-1258.350101,-1915.238745
3243.047963,-9104.533087,-1924.535449,76.609550
3243.048300,-11547.212695,-1702.473667,2987.772442
3243.048638,-12731.542202,-962.267725,3294.210641
3243.048975,-10807.006753,222.061783,306.438199
3243.049313,-9474.636058,1554.432478,0.000000
3243.049650,-10510.924376,1776.494261,1149.143247
3243.049988,-11251.130318,74.020594,766.095498
3243.050325,-9696.697840,740.205942,383.047749
3243.050663,-8290.306550,1406.391290,1149.143247
3243.051000,-9252.574275,592.164754,1532.190996
3243.051337,-11843.295072,148.041188,1302.362347
3243.051675,-10436.903782,666.185348,-153.219100
3243.052012,-8808.450710,1110.308913,-995.924147
3243.052350,-7550.100608,962.267725,-1455.581446
3243.052687,-9400.615463,296.082377,-1225.752797
3243.053025,-9770.718434,74.020594,-1302.362347
3243.053362,-7254.018232,370.102971,-1378.971896
3243.053700,-7698.141797,-888.247130,1225.752797
3243.054037,-11399.171507,-666.185348,2528.115143
3243.054375,-11991.336260,-592.164754,1915.238745
3243.054712,-10362.883188,296.082377,0.000000
3243.055049,-9178.553681,444.123565,-306.438199
3243.055387,-10362.883188,-592.164754,1149.143247
3243.055724,-11399.171507,-962.267725,842.705048
3243.056062,-9770.718434,-296.082377,459.657299
3243.056399,-8956.491898,0.000000,1762.019645
3243.056737,-11547.212695,-888.247130,2987.772442
3243.057074,-12583.501014,-888.247130,1762.019645
3243.057412,-11621.233289,-370.102971,0.000000
3243.057749,-9622.677246,444.123565,-995.924147
3243.058087,-9622.677246,-296.082377,-766.095498
3243.058424,-10955.047942,-1036.288319,-1225.752797
3243.058761,-9770.718434,-1924.535449,-1915.238745
3243.059099,-8068.244768,-1924.535449,-1915.238745
3243.059436,-9178.553681,-1998.556043,76.609550
3243.059774,-11843.295072,-3108.864956,689.485948
3243.060111,-10658.965565,-2664.741391,-766.095498
3243.060449,-8586.388927,-1776.494261,-1302.362347
3243.060786,-8808.450710,-1258.350101,0.000000
3243.061124,-9992.780217,-2220.617826,459.657299
3243.061461,-10732.986159,-1554.432478,76.609550
3243.061798,-8882.471304,-962.267725,766.095498
3243.062136,-9326.594869,-148.041188,2987.772442
3243.062473,-11399.171507,-1036.288319,5132.839837
3243.062811,-12435.459826,518.144159,2911.162892
3243.063148,-11103.089130,1258.350101,1072.533697
3243.063486,-9326.594869,2220.617826,306.438199
3243.063823,-9770.718434,1998.556043,1149.143247
3243.064161,-10881.027347,1628.453072,459.657299
3243.064498,-8882.471304,2294.638420,-1302.362347
3243.064836,-8364.327145,2072.576638,-689.485948
3243.065173,-10140.821405,1480.411884,1149.143247
3243.065510,-11769.274478,518.144159,2068.457845
3243.065848,-10732.986159,1332.370696,0.000000
3243.066185,-8660.409521,1850.514855,-1762.019645
3243.066523,-9030.512492,1554.432478,-1762.019645
3243.066860,-10436.903782,-888.247130,-2145.067394
3243.067198,-9548.656652,-1332.370696,-1302.362347
3243.067535,-7846.182985,-1480.411884,-153.219100
3243.067873,-8290.306550,-2294.638420,1455.581446
3243.068210,-11843.295072,-1924.535449,2145.067394
3243.068548,-11991.336260,-2072.576638,229.828649
3243.068885,-9400.615463,-1036.288319,-995.924147
3243.069222,-9104.533087,-1332.370696,76.609550
3243.069560,-10807.006753,-1480.411884,612.876398
3243.069897,-10436.903782,-1184.329507,-229.828649
3243.070235,-9548.656652,-592.164754,-1149.143247
3243.070572,-9252.574275,-740.205942,612.876398
3243.070910,-10658.965565,-1110.308913,1915.238745
3243.071247,-12805.562797,-962.267725,1378.971896
3243.071585,-11621.233289,0.000000,0.000000
3243.071922,-9474.636058,1480.411884,-919.314598
3243.072259,-9918.759623,518.144159,-689.485948
3243.072597,-11029.068536,-370.102971,-229.828649
3243.072934,-9770.718434,-296.082377,-1072.533697
3243.073272,-8586.388927,444.123565,-76.609550
3243.073609,-9696.697840,74.020594,1149.143247
3243.073947,-11917.315666,-740.205942,1072.533697
3243.074284,-11547.212695,-962.267725,0.000000
3243.074622,-8660.409521,74.020594,-1225.752797
3243.074959,-8512.368333,592.164754,306.438199
3243.075297,-10214.842000,-148.041188,459.657299
3243.075634,-9844.739029,0.000000,-536.266849
3243.075971,-7476.080014,370.102971,-536.266849
3243.076309,-8364.327145,-296.082377,2528.115143
3243.076646,-11029.068536,-370.102971,3830.477490
3243.076984,-11843.295072,740.205942,3447.429741
3243.077321,-9992.780217,1702.473667,1302.362347
3243.077659,-8364.327145,2590.720797,383.047749
3243.077996,-9770.718434,1036.288319,1532.190996
3243.078334,-11399.171507,1406.391290,919.314598
3243.078671,-9696.697840,296.082377,-76.609550
3243.079009,-7994.224174,1184.329507,306.438199
3243.079346,-10214.842000,0.000000,2068.457845
3243.079683,-11991.336260,-1258.350101,1608.800546
3243.080021,-10436.903782,-666.185348,-1302.362347
3243.080358,-9474.636058,0.000000,-1532.190996
3243.080696,-10140.821405,-148.041188,-1302.362347
3243.081033,-11103.089130,-1480.411884,-2145.067394
3243.081371,-10510.924376,-1998.556043,-2298.286494
3243.081708,-8068.244768,-1924.535449,-1915.238745
3243.082046,-9326.594869,-2960.823768,612.876398
3243.082383,-11621.233289,-3627.009116,1991.848295
3243.082720,-11769.274478,-2516.700203,383.047749
3243.083058,-9844.739029,-1406.391290,-306.438199
3243.083395,-9992.780217,-1480.411884,-612.876398
3243.083733,-9992.780217,-1702.473667,153.219100
3243.084070,-10955.047942,-1998.556043,1302.362347
3243.084408,-9030.512492,-1406.391290,1685.410096
3243.084745,-7846.182985,-592.164754,2757.943793
3243.085083,-10658.965565,-296.082377,4290.134789
3243.085420,-13101.645173,-370.102971,2681.334243
3243.085758,-10955.047942,444.123565,0.000000
3243.086095,-9622.677246,2146.597232,0.000000
3243.086432,-9474.636058,1480.411884,0.000000
3243.086770,-10214.842000,740.205942,-919.314598
3243.087107,-8808.450710,1110.308913,-2221.676944
3243.087445,-7402.059420,1036.288319,-2451.505594
3243.087782,-9474.636058,740.205942,612.876398
3243.088120,-11399.171507,-296.082377,1072.533697
3243.088457,-11177.109724,74.020594,229.828649
3243.088795,-8660.409521,962.267725,-1302.362347
3243.089132,-7994.224174,1702.473667,-995.924147
3243.089469,-10955.047942,0.000000,689.485948
3243.089807,-10510.924376,-666.185348,153.219100
3243.090144,-7624.121203,444.123565,919.314598
3243.090482,-9326.594869,-592.164754,2757.943793
3243.090819,-11917.315666,-444.123565,3217.601092
3243.091157,-12139.377449,-1036.288319,1608.800546
3243.091494,-10066.800811,518.144159,0.000000
3243.091832,-7994.224174,592.164754,-306.438199
3243.092169,-10436.903782,148.041188,689.485948
3243.092507,-11177.109724,296.082377,-766.095498
3243.092844,-9770.718434,296.082377,-1225.752797
3243.093181,-9178.553681,148.041188,0.000000
3243.093519,-11029.068536,-666.185348,536.266849
3243.093856,-11991.336260,-1258.350101,1072.533697
3243.094194,-10807.006753,-370.102971,-229.828649
3243.094531,-7994.224174,0.000000,-1915.238745
3243.094868,-9918.759623,74.020594,-1455.581446
3243.095206,-11547.212695,-2072.576638,-842.705048
3243.095543,-9844.739029,-2072.576638,-1225.752797
3243.095881,-8290.306550,-1480.411884,-612.876398
3243.096218,-9252.574275,-1850.514855,1991.848295
3243.096556,-11769.274478,-1998.556043,2451.505594
3243.096893,-11769.274478,-1406.391290,919.314598
3243.097230,-9326.594869,-74.020594,0.000000
3243.097568,-9252.574275,222.061783,229.828649
3243.097905,-10881.027347,0.000000,1455.581446
3243.098243,-9992.780217,74.020594,-612.876398
3243.098580,-8438.347739,1036.288319,766.095498
3243.098917,-8068.244768,592.164754,1302.362347
3243.099255,-10807.006753,0.000000,2757.943793
3243.099592,-11473.192101,740.205942,1838.629195
3243.099930,-9918.759623,1776.494261,76.609550
3243.100267,-8216.285956,2368.659014,-536.266849
3243.100605,-9474.636058,1924.535449,0.000000
3243.100942,-9992.780217,962.267725,-612.876398
3243.101279,-9548.656652,-296.082377,-612.876398
3243.101617,-8068.244768,740.205942,0.000000
3243.101954,-10288.862594,-444.123565,1532.190996
3243.102292,-12287.418637,-1406.391290,919.314598
3243.102629,-10658.965565,-1850.514855,-1608.800546
3243.102966,-8660.409521,-962.267725,-1915.238745
3243.103304,-8882.471304,-1110.308913,-153.219100
3243.103641,-10436.903782,-1850.514855,-919.314598
3243.103979,-10807.006753,-2072.576638,-1302.362347
3243.104316,-8734.430116,-1036.288319,-1532.190996
3243.104653,-9548.656652,-1924.535449,1149.143247
3243.104991,-12435.459826,-2294.638420,3370.820191
3243.105328,-11843.295072,-1850.514855,1915.238745
3243.105666,-9770.718434,-962.267725,0.000000
3243.106003,-9030.512492,-296.082377,0.000000
3243.106341,-10140.821405,-740.205942,1225.752797
3243.106678,-11547.212695,-814.226536,536.266849
3243.107015,-9474.636058,-962.267725,0.000000
3243.107353,-8290.306550,-370.102971,995.924147
3243.107690,-10436.903782,-444.123565,1915.238745
3243.108028,-12213.398043,-518.144159,1608.800546
3243.108365,-10288.862594,0.000000,-842.705048
3243.108702,-8956.491898,1110.308913,-1302.362347
3243.109040,-9622.677246,1110.308913,-995.924147
3243.109377,-11177.109724,-740.205942,-1608.800546
3243.109715,-9474.636058,74.020594,-1915.238745
3243.110052,-7179.997637,-370.102971,-1225.752797
3243.110390,-9326.594869,0.000000,1685.410096
3243.110727,-12065.356855,-666.185348,2451.505594
3243.111064,-11843.295072,0.000000,842.705048
3243.111402,-8808.450710,1406.391290,-153.219100
3243.111739,-8808.450710,1850.514855,612.876398
3243.112077,-11103.089130,666.185348,2068.457845
3243.112414,-10140.821405,518.144159,1072.533697
3243.112751,-8142.265362,1554.432478,1149.143247
3243.113089,-9178.553681,1258.350101,2834.553343
3243.113426,-11251.130318,888.247130,2834.553343
3243.113764,-12731.542202,1036.288319,1915.238745
3243.114101,-10288.862594,1036.288319,-383.047749
3243.114438,-7846.182985,1924.535449,-1378.971896
3243.114776,-9622.677246,1110.308913,-1302.362347
3243.115113,-10362.883188,-592.164754,-1532.190996
3243.115451,-8660.409521,-518.144159,-2145.067394
3243.115788,-7772.162391,-1036.288319,-536.266849
3243.116126,-9844.739029,-1036.288319,229.828649
3243.116463,-12213.398043,-2220.617826,153.219100
3243.116800,-11251.130318,-1480.411884,-1149.143247
3243.117138,-8734.430116,-1110.308913,-2681.334243
3243.117475,-9474.636058,-1110.308913,-229.828649
3243.117813,-11473.192101,-2368.659014,536.266849
3243.118150,-10436.903782,-2738.761985,-306.438199
3243.118487,-9252.574275,-1998.556043,153.219100
3243.118825,-9918.759623,-1702.473667,2145.067394
3243.119162,-11917.315666,-2220.617826,3217.601092
3243.119500,-11917.315666,-1480.411884,1915.238745
3243.119837,-9696.697840,148.041188,536.266849
3243.120175,-8956.491898,444.123565,536.266849
3243.120512,-11251.130318,444.123565,1302.362347
3243.120849,-11177.109724,296.082377,153.219100
3243.121187,-8660.409521,444.123565,-766.095498
3243.121524,-7920.203579,1110.308913,383.047749
3243.121862,-10732.986159,-444.123565,1838.629195
3243.122199,-11547.212695,370.102971,766.095498
3243.122536,-9844.739029,666.185348,-1532.190996
3243.122874,-8364.327145,1776.494261,-1915.238745
3243.123211,-9030.512492,814.226536,-1762.019645
3243.123549,-10436.903782,-444.123565,-995.924147
3243.123886,-9252.574275,-222.061783,-1378.971896
3243.124223,-7105.977043,296.082377,0.000000
3243.124561,-9474.636058,-296.082377,2604.724693
3243.124898,-12139.377449,-1184.329507,2221.676944
3243.125236,-11251.130318,-444.123565,459.657299
3243.125573,-9326.594869,592.164754,0.000000
3243.125911,-9548.656652,222.061783,689.485948
3243.126248,-11177.109724,-518.144159,1072.533697
3243.126585,-10807.006753,-1110.308913,0.000000
3243.126923,-8142.265362,-296.082377,0.000000
3243.127260,-8882.471304,-444.123565,1455.581446
3243.127598,-11695.253884,-962.267725,3064.381992
3243.127935,-11991.336260,-666.185348,995.924147
3243.128272,-10140.821405,296.082377,-612.876398
3243.128610,-9622.677246,592.164754,0.000000
3243.128947,-10140.821405,-518.144159,-766.095498
3243.129285,-10658.965565,-1628.453072,76.609550
3243.129622,-9252.574275,-1702.473667,-383.047749
3243.129959,-7624.121203,-1554.432478,-383.047749
3243.130297,-10436.903782,-1406.391290,1072.533697
3243.130634,-12583.501014,-2368.659014,919.314598
3243.130972,-10807.006753,-1850.514855,-1455.581446
3243.131309,-8586.388927,-1480.411884,-1532.190996
3243.131647,-9474.636058,-666.185348,306.438199
3243.131984,-11251.130318,-1628.453072,153.219100
3243.132321,-9992.780217,-962.267725,-536.266849
3243.132659,-8290.306550,-222.061783,0.000000
3243.132996,-9918.759623,-444.123565,2757.943793
3243.133334,-11917.315666,0.000000,2757.943793
3243.133671,-11917.315666,148.041188,1762.019645
3243.134008,-9474.636058,2294.638420,0.000000
3243.134346,-9030.512492,2368.659014,0.000000
3243.134683,-10658.965565,1702.473667,1072.533697
3243.135021,-10362.883188,2294.638420,1072.533697
3243.135358,-8586.388927,1924.535449,-76.609550
3243.135696,-8438.347739,2146.597232,536.266849
3243.136033,-10732.986159,1480.411884,1532.190996
3243.136370,-11621.233289,814.226536,995.924147
3243.136708,-9474.636058,740.205942,-1302.362347
3243.137045,-7698.141797,1924.535449,-1072.533697
3243.137383,-9696.697840,888.247130,-689.485948
3243.137720,-11177.109724,-296.082377,-1991.848295
3243.138057,-9104.533087,-740.205942,-2681.334243
3243.138395,-7402.059420,-1110.308913,-1455.581446
3243.138732,-9474.636058,-2368.659014,1532.190996
3243.139070,-11177.109724,-2442.679609,919.314598
3243.139407,-11103.089130,-1480.411884,-306.438199
3243.139744,-9474.636058,-814.226536,-766.095498
3243.140082,-9548.656652,-740.205942,0.000000
3243.140419,-11917.315666,-1332.370696,1838.629195
3243.140757,-11103.089130,-1554.432478,1225.752797
3243.141094,-8734.430116,-1184.329507,842.705048
3243.141432,-9844.739029,-888.247130,2145.067394
3243.141769,-12435.459826,-962.267725,2681.334243
3243.142106,-12509.480420,-1184.329507,766.095498
3243.142444,-10140.821405,-444.123565,-612.876398
3243.142781,-9178.553681,1110.308913,-383.047749
3243.143119,-11251.130318,-222.061783,153.219100
3243.143456,-11399.171507,-222.061783,-995.924147
3243.143793,-8660.409521,-444.123565,-2221.676944
3243.144131,-8438.347739,-222.061783,-306.438199
3243.144468,-10288.862594,-1184.329507,842.705048
3243.144806,-11843.295072,-1332.370696,459.657299
3243.145143,-10214.842000,-222.061783,-995.924147
3243.145481,-7772.162391,-222.061783,-1072.533697
3243.145818,-9326.594869,-148.041188,306.438199
3243.146155,-10807.006753,-1258.350101,536.266849
3243.146493,-9400.615463,-666.185348,612.876398
3243.146830,-7179.997637,-1036.288319,995.924147
3243.147168,-9178.553681,0.000000,3140.991542
3243.147505,-11695.253884,0.000000,3600.648841
3243.147842,-11325.150913,0.000000,1608.800546
3243.148180,-8660.409521,1776.494261,919.314598
3243.148517,-9030.512492,1628.453072,1225.752797
3243.148855,-11473.192101,1628.453072,1378.971896
3243.149192,-11103.089130,962.267725,-536.266849
3243.149529,-8808.450710,1036.288319,-1532.190996
3243.149867,-8364.327145,1036.288319,306.438199
3243.150204,-11325.150913,-666.185348,1149.143247
3243.150542,-11695.253884,-1036.288319,76.609550
3243.150879,-9252.574275,-296.082377,-2374.896044
3243.151217,-8586.388927,296.082377,-1991.848295
3243.151554,-10658.965565,-222.061783,-1072.533697
3243.151891,-11547.212695,-1554.432478,-1378.971896
3243.152229,-9844.739029,-1924.535449,-1532.190996
3243.152566,-8438.347739,-2368.659014,0.000000
3243.152904,-10140.821405,-2294.638420,2451.505594
3243.153241,-12731.542202,-2738.761985,1915.238745
3243.153578,-11399.171507,-2294.638420,-536.266849
3243.153916,-8956.491898,-1184.329507,-1302.362347
3243.154253,-10066.800811,-1332.370696,919.314598
3243.154591,-10955.047942,-1258.350101,153.219100
3243.154928,-10066.800811,-1480.411884,-536.266849
3243.155266,-8586.388927,-222.061783,1072.533697
3243.155603,-8734.430116,-296.082377,2528.115143
3243.155940,-11843.295072,-222.061783,2987.772442
3243.156278,-11843.295072,0.000000,1149.143247
3243.156615,-9326.594869,1554.432478,-306.438199
3243.156953,-9474.636058,2590.720797,76.609550
3243.157290,-10584.944971,962.267725,306.438199
3243.157627,-10214.842000,1036.288319,-612.876398
3243.157965,-8660.409521,592.164754,-1532.190996
3243.158302,-8290.306550,1702.473667,76.609550
3243.158640,-10955.047942,518.144159,1378.971896
3243.158977,-12065.356855,296.082377,76.609550
3243.159314,-9770.718434,740.205942,-1302.362347
3243.159652,-8364.327145,1036.288319,-766.095498
3243.159989,-9844.739029,1480.411884,536.266849
3243.160327,-11399.171507,444.123565,229.828649
3243.160664,-10214.842000,444.123565,0.000000
3243.161002,-8142.265362,74.020594,0.000000
3243.161339,-10362.883188,-666.185348,2451.505594
3243.161676,-11917.315666,-370.102971,2451.505594
3243.162014,-11177.109724,-740.205942,1072.533697
3243.162351,-8438.347739,666.185348,0.000000
3243.162689,-8734.430116,666.185348,-842.705048
3243.163026,-10732.986159,-592.164754,459.657299
3243.163363,-10510.924376,-666.185348,-306.438199
3243.163701,-8068.244768,-592.164754,-229.828649
3243.164038,-8808.450710,-592.164754,1225.752797
3243.164376,-10955.047942,-1480.411884,1302.362347
3243.164713,-11621.233289,-1702.473667,612.876398
3243.165050,-9918.759623,-1184.329507,-919.314598
3243.165388,-8660.409521,-666.185348,-1225.752797
3243.165725,-10807.006753,-1406.391290,-1149.143247
3243.166063,-11695.253884,-2220.617826,-1378.971896
3243.166400,-9252.574275,-1480.411884,-1685.410096
3243.166738,-8290.306550,-2146.597232,-995.924147
3243.167075,-10436.903782,-1924.535449,1838.629195
3243.167412,-12509.480420,-2368.659014,995.924147
3243.167750,-11177.109724,-666.185348,-459.657299
3243.168087,-9400.615463,222.061783,-306.438199
3243.168425,-10066.800811,0.000000,995.924147
3243.168762,-11843.295072,-222.061783,1378.971896
3243.169099,-10658.965565,-222.061783,1685.410096
3243.169437,-8586.388927,444.123565,2451.505594
3243.169774,-9326.594869,962.267725,3524.039291
3243.170112,-11769.274478,666.185348,3370.820191
3243.170449,-11695.253884,1480.411884,1225.752797
3243.170787,-8882.471304,1850.514855,-383.047749
3243.171124,-7698.141797,1776.494261,0.000000
3243.171461,-9992.780217,1480.411884,459.657299
3243.171799,-9178.553681,1110.308913,-919.314598
3243.172136,-8216.285956,0.000000,-1608.800546
3243.172474,-7550.100608,74.020594,0.000000
3243.172811,-10362.883188,74.020594,1149.143247
3243.173148,-11991.336260,-1184.329507,0.000000
3243.173486,-9326.594869,-592.164754,-2374.896044
3243.173823,-8216.285956,-888.247130,-1532.190996
3243.174161,-10140.821405,-814.226536,306.438199
3243.174498,-10584.944971,-1702.473667,-306.438199
3243.174835,-10066.800811,-1406.391290,-383.047749
3243.175173,-8956.491898,-1184.329507,383.047749
3243.175510,-10807.006753,-814.226536,2528.115143
3243.175848,-13767.830521,-962.267725,3064.381992
3243.176185,-11917.315666,-1258.350101,612.876398
3243.176523,-9548.656652,0.000000,766.095498
3243.176860,-10214.842000,148.041188,1072.533697
3243.177197,-11621.233289,0.000000,459.657299
3243.177535,-11103.089130,-222.061783,-1302.362347
3243.177872,-8586.388927,-444.123565,-1072.533697
3243.178210,-9400.615463,-148.041188,306.438199
3243.178547,-11473.192101,-1258.350101,1225.752797
3243.178884,-10955.047942,-444.123565,0.000000
3243.179222,-8956.491898,-222.061783,-1762.019645
3243.179559,-8364.327145,666.185348,-1378.971896
3243.179897,-9770.718434,-518.144159,-842.705048
3243.180234,-9844.739029,-1110.308913,-1378.971896
3243.180572,-8364.327145,-1332.370696,-995.924147
3243.180909,-8068.244768,-888.247130,842.705048
3243.181246,-10066.800811,-1036.288319,2987.772442
3243.181584,-11843.295072,-592.164754,1838.629195
3243.181921,-10658.965565,-222.061783,459.657299
3243.182259,-8734.430116,444.123565,-153.219100
3243.182596,-9844.739029,592.164754,689.485948
3243.182933,-11325.150913,1036.288319,1685.410096
3243.183271,-10362.883188,814.226536,306.438199
3243.183608,-8068.244768,1628.453072,306.438199
3243.183946,-10140.821405,1332.370696,1991.848295
3243.184283,-12509.480420,1480.411884,2528.115143
3243.184620,-11695.253884,814.226536,842.705048
3243.184958,-10066.800811,1554.432478,-612.876398
3243.185295,-9178.553681,2072.576638,0.000000
3243.185633,-10732.986159,370.102971,-612.876398
3243.185970,-10436.903782,74.020594,-1072.533697
3243.186308,-8364.327145,-1036.288319,-1302.362347
3243.186645,-8438.347739,-1332.370696,1455.581446
3243.186982,-11177.109724,-1702.473667,1762.019645
3243.187320,-11769.274478,-2220.617826,459.657299
3243.187657,-9992.780217,-1184.329507,-995.924147
3243.187995,-8956.491898,-1628.453072,-919.314598
3243.188332,-9992.780217,-1184.329507,0.000000
3243.188669,-11177.109724,-2738.761985,-536.266849
3243.189007,-8438.347739,-2368.659014,-1532.190996
3243.189344,-7846.182985,-2960.823768,0.000000
3243.189682,-10362.883188,-2368.659014,2681.334243
3243.190019,-12509.480420,-2368.659014,2221.676944
3243.190357,-11251.130318,-740.205942,842.705048
3243.190694,-9178.553681,518.144159,0.000000
3243.191031,-9622.677246,592.164754,995.924147
3243.191369,-11547.212695,74.020594,1302.362347
3243.191706,-10510.924376,592.164754,306.438199
3243.192044,-9178.553681,444.123565,459.657299
3243.192381,-9030.512492,666.185348,1608.800546
3243.192718,-12139.377449,592.164754,1991.848295
3243.193056,-11917.315666,666.185348,842.705048
3243.193393,-9104.533087,962.267725,-1302.362347
3243.193731,-8364.327145,1110.308913,-1072.533697
3243.194068,-10066.800811,518.144159,-1608.800546
3243.194405,-10066.800811,740.205942,-2374.896044
3243.194743,-7698.141797,0.000000,-1838.629195
3243.195080,-7402.059420,-740.205942,0.000000
3243.195418,-10288.862594,-74.020594,2451.505594
3243.195755,-11991.336260,-1110.308913,1838.629195
3243.196092,-9844.739029,222.061783,-76.609550
3243.196430,-8438.347739,74.020594,0.000000
3243.196767,-10066.800811,0.000000,842.705048
3243.197104,-10066.800811,-592.164754,766.095498
3243.197442,-9622.677246,-962.267725,306.438199
3243.197779,-8438.347739,-296.082377,1378.971896
3243.198117,-9770.718434,-518.144159,1991.848295
3243.198454,-12435.459826,-666.185348,2681.334243
3243.198791,-11843.295072,-148.041188,1072.533697
3243.199129,-9400.615463,296.082377,-536.266849
3243.199466,-9548.656652,740.205942,0.000000
3243.199803,-11325.150913,0.000000,-459.657299
3243.200141,-10658.965565,-666.185348,-1455.581446
3243.200478,-8660.409521,-1332.370696,-1378.971896
3243.200816,-9030.512492,-1554.432478,0.000000
3243.201153,-11399.171507,-1850.514855,995.924147
3243.201490,-11843.295072,-1998.556043,-229.828649
3243.201828,-9844.739029,-1702.473667,-2145.067394
3243.202165,-8734.430116,-962.267725,-1608.800546
3243.202502,-10436.903782,-962.267725,306.438199
3243.202840,-10955.047942,-888.247130,229.828649
3243.203177,-9326.594869,-740.205942,-459.657299
3243.203515,-8364.327145,-1184.329507,1762.019645
3243.203852,-10807.006753,-814.226536,4366.744339
3243.204189,-12139.377449,222.061783,3370.820191
3243.204527,-11695.253884,814.226536,1378.971896
3243.204864,-8956.491898,2294.638420,0.000000
3243.205202,-9548.656652,1850.514855,919.314598
3243.205539,-11103.089130,1702.473667,1378.971896
3243.205876,-9326.594869,1406.391290,-459.657299
3243.206214,-7550.100608,1628.453072,-306.438199
3243.206551,-9326.594869,1850.514855,1302.362347
3243.206888,-11769.274478,444.123565,1455.581446
3243.207226,-11325.150913,888.247130,459.657299
3243.207563,-9178.553681,1110.308913,-459.657299
3243.207901,-8438.347739,1628.453072,-995.924147
3243.208238,-10214.842000,666.185348,-1378.971896
3243.208575,-10732.986159,-444.123565,-1532.190996
3243.208913,-8142.265362,-1184.329507,-1685.410096
3243.209250,-8364.327145,-2146.597232,536.266849
3243.209587,-10436.903782,-1924.535449,2451.505594
3243.209925,-11621.233289,-2516.700203,383.047749
3243.210262,-10140.821405,-1184.329507,-689.485948
3243.210600,-9178.553681,-1258.350101,-76.609550
3243.210937,-10140.821405,-962.267725,689.485948
3243.211274,-11473.192101,-1554.432478,766.095498
3243.211612,-10140.821405,-666.185348,229.828649
3243.211949,-8734.430116,-1258.350101,459.657299
3243.212286,-10288.862594,-1258.350101,1991.848295
3243.212624,-12213.398043,-1776.494261,2221.676944
3243.212961,-11399.171507,-962.267725,842.705048
3243.213299,-9326.594869,0.000000,-383.047749
3243.213636,-9844.739029,148.041188,-1149.143247
3243.213973,-10881.027347,-370.102971,-842.705048
3243.214311,-10066.800811,-296.082377,-1455.581446
3243.214648,-7994.224174,-1258.350101,-1378.971896
3243.214985,-8808.450710,-1110.308913,1072.533697
3243.215323,-11695.253884,-740.205942,2528.115143
3243.215660,-12139.377449,-1258.350101,766.095498
3243.215998,-9770.718434,0.000000,-536.266849
3243.216335,-9252.574275,74.020594,76.609550
3243.216672,-10584.944971,74.020594,383.047749
3243.217010,-10214.842000,-444.123565,-612.876398
3243.217347,-8290.306550,0.000000,-153.219100
3243.217684,-7920.203579,-296.082377,1302.362347
3243.218022,-10214.842000,0.000000,3447.429741
3243.218359,-11917.315666,518.144159,2451.505594
3243.218697,-10658.965565,814.226536,766.095498
3243.219034,-8438.347739,2812.782580,0.000000
3243.219371,-9474.636058,2368.659014,1072.533697
3243.219709,-10955.047942,1406.391290,1455.581446
3243.220046,-9178.553681,1036.288319,-995.924147
3243.220384,-8586.388927,1184.329507,0.000000
3243.220721,-9992.780217,814.226536,1685.410096
3243.221058,-11029.068536,-888.247130,1608.800546
3243.221396,-11103.089130,-592.164754,-306.438199
3243.221733,-8364.327145,222.061783,-2068.457845
3243.222070,-8512.368333,0.000000,-1762.019645
3243.222408,-10584.944971,-814.226536,-1302.362347
3243.222745,-10362.883188,-296.082377,-2528.115143
3243.223083,-8882.471304,-1332.370696,-1225.752797
3243.223420,-9178.553681,-2220.617826,0.000000
3243.223757,-10881.027347,-2442.679609,1608.800546
3243.224095,-12805.562797,-1628.453072,1532.190996
3243.224432,-10214.842000,-1554.432478,-459.657299
3243.224769,-9252.574275,-1184.329507,-459.657299
3243.225107,-10584.944971,-1110.308913,1149.143247
3243.225444,-11325.150913,-1332.370696,459.657299
3243.225782,-9770.718434,-1184.329507,0.000000
3243.226119,-8512.368333,-962.267725,1072.533697
3243.226456,-10214.842000,-592.164754,3830.477490
3243.226794,-12213.398043,-518.144159,2987.772442
3243.227131,-11399.171507,296.082377,766.095498
3243.227468,-9104.533087,1554.432478,-766.095498
3243.227806,-9770.718434,1702.473667,0.000000
3243.228143,-11251.130318,1110.308913,-306.438199
3243.228481,-9548.656652,222.061783,-2068.457845
3243.228818,-7476.080014,0.000000,-1838.629195
3243.229155,-8808.450710,74.020594,383.047749
3243.229493,-11103.089130,-444.123565,919.314598
3243.229830,-10807.006753,0.000000,229.828649
3243.230167,-8882.471304,518.144159,-1532.190996
3243.230505,-8290.306550,148.041188,-689.485948
3243.230842,-9918.759623,444.123565,76.609550
3243.231180,-9770.718434,-296.082377,0.000000
3243.231517,-8660.409521,-444.123565,-229.828649
3243.231854,-8438.347739,-814.226536,1532.190996
3243.232192,-11843.295072,-666.185348,3907.087040
3243.232529,-12731.542202,-666.185348,2374.896044
3243.232866,-9992.780217,148.041188,536.266849
3243.233204,-8734.430116,814.226536,0.000000
3243.233541,-10066.800811,222.061783,536.266849
3243.233879,-10658.965565,0.000000,-1072.533697
3243.234216,-10140.821405,0.000000,-1149.143247
3243.234553,-8068.244768,0.000000,-766.095498
3243.234891,-10288.862594,-592.164754,1225.752797
3243.235228,-12583.501014,-1258.350101,1378.971896
3243.235566,-10807.006753,-666.185348,-459.657299
3243.235903,-9474.636058,0.000000,-995.924147
3243.236240,-9474.636058,-814.226536,-1532.190996
3243.236578,-10807.006753,-1776.494261,-995.924147
3243.236915,-10510.924376,-2072.576638,-689.485948
3243.237252,-8142.265362,-2146.597232,-842.705048
3243.237590,-8364.327145,-2146.597232,1149.143247
3243.237927,-11843.295072,-2294.638420,2681.334243
3243.238265,-11991.336260,-888.247130,1149.143247
3243.238602,-9992.780217,-592.164754,-459.657299
3243.238939,-8882.471304,222.061783,0.000000
3243.239277,-9992.780217,-740.205942,1532.190996
3243.239614,-10807.006753,-148.041188,1838.629195
3243.239951,-8956.491898,444.123565,919.314598
3243.240289,-8586.388927,74.020594,1685.410096
3243.240626,-10140.821405,518.144159,3217.601092
3243.240964,-12361.439231,888.247130,2528.115143
3243.241301,-11473.192101,1332.370696,919.314598
3243.241638,-8142.265362,2886.803174,-1302.362347
3243.241976,-9326.594869,1924.535449,0.000000
3243.242313,-10362.883188,1110.308913,-766.095498
3243.242650,-8734.430116,1258.350101,-2068.457845
3243.242988,-7846.182985,814.226536,-383.047749
3243.243325,-9252.574275,814.226536,229.828649
3243.243663,-11473.192101,-444.123565,612.876398
3243.244000,-11695.253884,-518.144159,-766.095498
3243.244337,-8808.450710,0.000000,-2451.505594
3243.244675,-8660.409521,-740.205942,-995.924147
3243.245012,-10362.883188,-1036.288319,-995.924147
3243.245349,-9992.780217,-1406.391290,-1225.752797
3243.245687,-8438.347739,-1554.432478,-1762.019645
3243.246024,-9030.512492,-1628.453072,1072.533697
3243.246362,-11251.130318,-1702.473667,2374.896044
3243.246699,-13101.645173,-1184.329507,1838.629195
3243.247036,-11029.068536,518.144159,536.266849
3243.247374,-9252.574275,0.000000,-229.828649
3243.247711,-10436.903782,0.000000,1072.533697
3243.248048,-10955.047942,-370.102971,459.657299
3243.248386,-9548.656652,-370.102971,0.000000
3243.248723,-8882.471304,-740.205942,689.485948
3243.249061,-10066.800811,-888.247130,2451.505594
3243.249398,-12287.418637,-962.267725,1685.410096
3243.249735,-10807.006753,-962.267725,0.000000
3243.250073,-8586.388927,592.164754,-995.924147
3243.250410,-9474.636058,0.000000,0.000000
3243.250748,-10732.986159,-814.226536,0.000000
3243.251085,-9474.636058,-1332.370696,-1455.581446
3243.251422,-8068.244768,-518.144159,-842.705048
3243.251760,-8734.430116,-814.226536,1685.410096
3243.252097,-12065.356855,-1406.391290,2757.943793
3243.252434,-11177.109724,-888.247130,1608.800546
3243.252772,-9252.574275,666.185348,0.000000
3243.253109,-9030.512492,74.020594,842.705048
3243.253447,-9844.739029,0.000000,1455.581446
3243.253784,-10436.903782,518.144159,2145.067394
3243.254121,-9030.512492,740.205942,1072.533697
3243.254459,-8586.388927,1258.350101,1762.019645
3243.254796,-11547.212695,1110.308913,3600.648841
3243.255133,-12065.356855,1258.350101,2145.067394
3243.255471,-10140.821405,1480.411884,-459.657299
3243.255808,-8956.491898,1850.514855,-766.095498
3243.256146,-9844.739029,444.123565,-842.705048
3243.256483,-11103.089130,296.082377,-766.095498
3243.256820,-9252.574275,-740.205942,-2451.505594
3243.257158,-7624.121203,-740.205942,-1455.581446
3243.257495,-9326.594869,-1110.308913,0.000000
3243.257832,-11917.315666,-2368.659014,459.657299
3243.258170,-10881.027347,-1036.288319,-1378.971896
3243.258507,-9326.594869,-1406.391290,-1685.410096
3243.258845,-9252.574275,-1036.288319,-995.924147
3243.259182,-10436.903782,-2442.679609,-383.047749
3243.259519,-10436.903782,-2146.597232,-153.219100
3243.259857,-8660.409521,-2368.659014,-919.314598
3243.260194,-9104.533087,-2442.679609,919.314598
3243.260531,-11695.253884,-2146.597232,2757.943793
3243.260869,-11991.336260,-1480.411884,1838.629195
3243.261206,-9992.780217,-370.102971,0.000000
3243.261544,-9400.615463,148.041188,0.000000
3243.261881,-10658.965565,-74.020594,1915.238745
3243.262218,-11325.150913,-222.061783,766.095498
3243.262556,-9326.594869,296.082377,0.000000
3243.262893,-8808.450710,518.144159,919.314598
3243.263230,-11029.068536,592.164754,2298.286494
3243.263568,-12213.398043,74.020594,1608.800546
3243.263905,-10955.047942,296.082377,0.000000
3243.264243,-8290.306550,1702.473667,-919.314598
3243.264580,-9326.594869,518.144159,-612.876398
3243.264917,-10658.965565,0.000000,-459.657299
3243.265255,-9104.533087,-518.144159,-995.924147
3243.265592,-7846.182985,-592.164754,-459.657299
3243.265929,-9030.512492,0.000000,1608.800546
3243.266267,-11695.253884,-592.164754,1762.019645
3243.266604,-11399.171507,0.000000,1072.533697
3243.266942,-8364.327145,962.267725,-766.095498
3243.267279,-8882.471304,592.164754,689.485948
3243.267616,-11251.130318,296.082377,2068.457845
3243.267954,-11251.130318,-148.041188,0.000000
3243.268291,-8734.430116,1258.350101,0.000000
3243.268629,-8882.471304,222.061783,842.705048
3243.268966,-10510.924376,-592.164754,2068.457845
3243.269303,-11621.233289,-518.144159,842.705048
3243.269641,-10140.821405,740.205942,0.000000
3243.269978,-8734.430116,518.144159,-1532.190996
3243.270315,-10288.862594,444.123565,-612.876398
3243.270653,-11547.212695,-370.102971,0.000000
3243.270990,-9770.718434,-370.102971,-689.485948
3243.271328,-8216.285956,-1258.350101,-689.485948
3243.271665,-9844.739029,-814.226536,1072.533697
3243.272002,-12509.480420,-2294.638420,1455.581446
3243.272340,-10881.027347,-1554.432478,-1302.362347
3243.272677,-9178.553681,-1184.329507,-1915.238745
3243.273014,-9474.636058,-888.247130,-536.266849
3243.273352,-11177.109724,-2072.576638,0.000000
3243.273689,-9992.780217,-1184.329507,-689.485948
3243.274027,-8142.265362,-814.226536,-842.705048
3243.274364,-9104.533087,-814.226536,1225.752797
3243.274701,-11769.274478,-1776.494261,3294.210641
3243.275039,-12065.356855,-814.226536,2145.067394
3243.275376,-9844.739029,1258.350101,842.705048
3243.275713,-9104.533087,814.226536,153.219100
3243.276051,-10140.821405,1110.308913,1225.752797
3243.276388,-11103.089130,888.247130,995.924147
3243.276726,-9400.615463,1110.308913,0.000000
3243.277063,-8438.347739,1480.411884,229.828649
3243.277400,-11029.068536,1110.308913,1455.581446
3243.277738,-11769.274478,444.123565,1072.533697
3243.278075,-9400.615463,740.205942,-1225.752797
3243.278412,-8142.265362,1850.514855,-919.314598
3243.278750,-9548.656652,888.247130,-1149.143247
3243.279087,-10955.047942,-148.041188,-995.924147
3243.279425,-9992.780217,-444.123565,-1608.800546
3243.279762,-7698.141797,-888.247130,-919.314598
3243.280099,-9178.553681,-1258.350101,1455.581446
3243.280437,-11325.150913,-2368.659014,2374.896044
3243.280774,-10807.006753,-1776.494261,612.876398
3243.281111,-8364.327145,-296.082377,-689.485948
3243.281449,-9178.553681,-518.144159,229.828649
3243.281786,-11325.150913,-1036.288319,842.705048
3243.282124,-10807.006753,-1036.288319,536.266849
3243.282461,-8660.409521,-518.144159,842.705048
3243.282798,-9326.594869,-740.205942,2068.457845
3243.283136,-11547.212695,-962.267725,2987.772442
3243.283473,-12139.377449,-1184.329507,1455.581446
3243.283811,-9844.739029,0.000000,-536.266849
3243.284148,-9400.615463,740.205942,-612.876398
3243.284485,-11029.068536,-444.123565,0.000000
3243.284823,-10732.986159,-518.144159,-612.876398
3243.285160,-8882.471304,-888.247130,-1838.629195
3243.285497,-8068.244768,-370.102971,-995.924147
3243.285835,-10288.862594,-1480.411884,612.876398
3243.286172,-12435.459826,-1480.411884,1302.362347
3243.286510,-10732.986159,-1036.288319,-689.485948
3243.286847,-8586.388927,-444.123565,-1532.190996
3243.287184,-9326.594869,-518.144159,76.609550
3243.287522,-10807.006753,-1998.556043,612.876398
3243.287859,-9326.594869,-814.226536,383.047749
3243.288196,-8068.244768,-296.082377,383.047749
3243.288534,-9400.615463,-592.164754,2911.162892
3243.288871,-11843.295072,0.000000,3064.381992
3243.289209,-11177.109724,370.102971,1838.629195
3243.289546,-9030.512492,1628.453072,459.657299
3243.289883,-8438.347739,1480.411884,306.438199
3243.290221,-10436.903782,1406.391290,919.314598
3243.290558,-11103.089130,888.247130,383.047749
3243.290895,-8882.471304,1924.535449,-995.924147
3243.291233,-8438.347739,1110.308913,76.609550
3243.291570,-11251.130318,518.144159,842.705048
3243.291908,-11695.253884,-74.020594,536.266849
3243.292245,-9844.739029,148.041188,-1378.971896
3243.292582,-8216.285956,296.082377,-1608.800546
