#time,accel_x,accel_y,accel_z
2762.962819,-10140.821405,-296.082377,-1378.971896
2762.963157,-10510.924376,-740.205942,-536.266849
2762.963494,-9474.636058,-1628.453072,-689.485948
2762.963831,-9474.636058,-2072.576638,-1685.410096
2762.964169,-9548.656652,-2368.659014,-1378.971896
2762.964506,-9622.677246,-3108.864956,-1532.190996
2762.964843,-9770.718434,-3330.926739,-1225.752797
2762.965181,-9030.512492,-3404.947333,-1378.971896
2762.965518,-9622.677246,-2664.741391,-1225.752797
2762.965855,-10288.862594,-2516.700203,-689.485948
2762.966193,-10658.965565,-2664.741391,536.266849
2762.966530,-10214.842000,-1998.556043,1455.581446
2762.966867,-10214.842000,-814.226536,1915.238745
2762.967205,-11917.315666,0.000000,1225.752797
2762.967542,-12583.501014,-222.061783,1072.533697
2762.967879,-11843.295072,-1110.308913,-536.266849
2762.968217,-9326.594869,-1406.391290,306.438199
2762.968554,-8808.450710,-1480.411884,2374.896044
2762.968891,-9030.512492,-814.226536,1455.581446
2762.969229,-9548.656652,1628.453072,-153.219100
2762.969566,-10362.883188,2072.576638,-1302.362347
2762.969903,-10140.821405,1628.453072,-76.609550
2762.970241,-10510.924376,1850.514855,76.609550
2762.970578,-11695.253884,2442.679609,-76.609550
2762.970915,-10288.862594,1258.350101,-1915.238745
2762.971253,-8808.450710,-296.082377,-2068.457845
2762.971590,-9178.553681,-1258.350101,-459.657299
2762.971927,-8216.285956,-1924.535449,-306.438199
2762.972265,-8808.450710,-1850.514855,306.438199
2762.972602,-8438.347739,-1258.350101,76.609550
2762.972939,-8882.471304,-148.041188,0.000000
2762.973277,-9918.759623,1110.308913,153.219100
2762.973614,-11251.130318,592.164754,0.000000
2762.973951,-10881.027347,1258.350101,0.000000
2762.974289,-11029.068536,1184.329507,229.828649
2762.974626,-10807.006753,518.144159,0.000000
2762.974963,-10436.903782,-370.102971,-459.657299
2762.975301,-9770.718434,-1480.411884,-306.438199
2762.975638,-9548.656652,-1554.432478,536.266849
2762.975975,-9696.697840,-962.267725,766.095498
2762.976313,-9696.697840,-592.164754,1072.533697
2762.976650,-10807.006753,-518.144159,0.000000
2762.976987,-11473.192101,518.144159,-842.705048
2762.977325,-11547.212695,370.102971,-1302.362347
2762.977662,-11177.109724,0.000000,-1532.190996
2762.977999,-10140.821405,-1184.329507,-1608.800546
2762.978337,-9696.697840,-2368.659014,-1762.019645
2762.978674,-8956.491898,-4219.173869,-612.876398
2762.979011,-8956.491898,-4293.194464,612.876398
2762.979349,-9252.574275,-3775.050304,1915.238745
2762.979686,-10140.821405,-3404.947333,1532.190996
2762.980023,-9844.739029,-2072.576638,919.314598
2762.980361,-10066.800811,-1110.308913,919.314598
2762.980698,-10584.944971,-74.020594,1762.019645
2762.981035,-10140.821405,-370.102971,612.876398
2762.981373,-9770.718434,-962.267725,1378.971896
2762.981710,-9770.718434,0.000000,1915.238745
2762.982047,-9474.636058,-296.082377,2298.286494
2762.982385,-10362.883188,-222.061783,2528.115143
2762.982722,-9770.718434,0.000000,1685.410096
2762.983059,-10214.842000,518.144159,1608.800546
2762.983397,-10362.883188,1184.329507,1072.533697
2762.983734,-10362.883188,1480.411884,-919.314598
2762.984071,-10214.842000,1776.494261,-1149.143247
2762.984409,-9770.718434,1702.473667,-2145.067394
2762.984746,-9474.636058,1110.308913,-2451.505594
2762.985084,-9696.697840,222.061783,-2068.457845
2762.985421,-9400.615463,-1332.370696,-766.095498
2762.985759,-9326.594869,-1628.453072,-842.705048
2762.986096,-9696.697840,-2220.617826,459.657299
2762.986434,-9918.759623,-2590.720797,842.705048
2762.986771,-10066.800811,-2368.659014,766.095498
2762.987109,-10066.800811,-1554.432478,0.000000
2762.987446,-9548.656652,-1406.391290,-842.705048
2762.987784,-9474.636058,-1332.370696,-766.095498
2762.988121,-9696.697840,-1036.288319,0.000000
2762.988459,-9622.677246,-1184.329507,153.219100
2762.988796,-10362.883188,-814.226536,1225.752797
2762.989134,-10807.006753,-740.205942,766.095498
2762.989471,-10807.006753,-1036.288319,1225.752797
2762.989809,-10658.965565,-740.205942,1685.410096
2762.990146,-10955.047942,0.000000,1532.190996
2762.990484,-10881.027347,666.185348,995.924147
2762.990821,-10436.903782,296.082377,0.000000
2762.991159,-10288.862594,888.247130,-766.095498
2762.991496,-10436.903782,444.123565,-919.314598
2762.991834,-10066.800811,1406.391290,-1149.143247
2762.992171,-10140.821405,518.144159,-842.705048
2762.992509,-10214.842000,74.020594,0.000000
2762.992846,-9548.656652,0.000000,-536.266849
2762.993184,-9992.780217,-444.123565,612.876398
2762.993521,-9844.739029,-444.123565,1072.533697
2762.993859,-9696.697840,74.020594,842.705048
2762.994197,-9770.718434,444.123565,995.924147
2762.994534,-9178.553681,1036.288319,306.438199
2762.994872,-9474.636058,592.164754,689.485948
2762.995209,-9474.636058,1184.329507,842.705048
2762.995547,-9622.677246,1406.391290,842.705048
2762.995884,-9844.739029,2072.576638,1685.410096
2762.996222,-9992.780217,1998.556043,1225.752797
2762.996559,-9474.636058,1628.453072,536.266849
2762.996897,-10140.821405,1184.329507,1072.533697
2762.997234,-10066.800811,740.205942,842.705048
2762.997572,-9400.615463,1554.432478,0.000000
2762.997909,-9400.615463,814.226536,-383.047749
2762.998247,-9548.656652,814.226536,-536.266849
2762.998584,-10362.883188,0.000000,-1225.752797
2762.998922,-10732.986159,222.061783,-1532.190996
2762.999259,-9770.718434,-518.144159,-1455.581446
2762.999597,-9844.739029,-1702.473667,-995.924147
2762.999934,-10584.944971,-2146.597232,229.828649
2763.000272,-10881.027347,-2442.679609,536.266849
2763.000609,-10510.924376,-2442.679609,536.266849
2763.000947,-10066.800811,-2886.803174,0.000000
2763.001284,-10436.903782,-2738.761985,766.095498
2763.001622,-10584.944971,-2738.761985,766.095498
2763.001959,-10658.965565,-1702.473667,306.438199
2763.002297,-11029.068536,-1628.453072,383.047749
2763.002634,-10288.862594,-1110.308913,766.095498
2763.002972,-10658.965565,-1036.288319,919.314598
2763.003309,-10658.965565,-1110.308913,1532.190996
2763.003647,-9844.739029,-1406.391290,1762.019645
2763.003984,-9696.697840,-1258.350101,2528.115143
2763.004322,-9844.739029,-148.041188,2374.896044
2763.004659,-9918.759623,370.102971,766.095498
2763.004997,-10436.903782,962.267725,0.000000
2763.005334,-9770.718434,740.205942,-1225.752797
2763.005672,-9548.656652,1110.308913,-919.314598
2763.006009,-9918.759623,1184.329507,-383.047749
2763.006347,-9474.636058,296.082377,-1685.410096
2763.006684,-9474.636058,0.000000,-1302.362347
2763.007022,-9474.636058,-518.144159,-995.924147
2763.007360,-9178.553681,-1036.288319,-536.266849
2763.007697,-9770.718434,-1258.350101,612.876398
2763.008035,-9770.718434,-1554.432478,229.828649
2763.008372,-9474.636058,-222.061783,459.657299
2763.008710,-9770.718434,-370.102971,766.095498
2763.009047,-10140.821405,0.000000,536.266849
2763.009385,-10066.800811,296.082377,536.266849
2763.009722,-10436.903782,0.000000,306.438199
2763.010060,-10362.883188,370.102971,536.266849
2763.010397,-10510.924376,-148.041188,229.828649
2763.010735,-9548.656652,-888.247130,536.266849
2763.011072,-9918.759623,-1332.370696,383.047749
2763.011410,-9844.739029,-1184.329507,766.095498
2763.011747,-9844.739029,-666.185348,229.828649
2763.012085,-10584.944971,-1258.350101,766.095498
2763.012422,-9622.677246,-740.205942,-536.266849
2763.012760,-10066.800811,-518.144159,-842.705048
2763.013097,-10807.006753,-740.205942,-612.876398
2763.013435,-10288.862594,-1258.350101,-995.924147
2763.013772,-10140.821405,-1702.473667,-919.314598
2763.014110,-10214.842000,-1850.514855,-612.876398
2763.014447,-9548.656652,-2072.576638,0.000000
2763.014785,-10732.986159,-1850.514855,766.095498
2763.015122,-10510.924376,-1924.535449,612.876398
2763.015460,-9770.718434,-888.247130,842.705048
2763.015797,-9992.780217,-888.247130,919.314598
2763.016135,-10214.842000,148.041188,1378.971896
2763.016472,-10066.800811,444.123565,2068.457845
2763.016810,-10436.903782,666.185348,1838.629195
2763.017147,-10214.842000,1702.473667,1838.629195
2763.017485,-10584.944971,2146.597232,1762.019645
2763.017822,-10732.986159,1998.556043,1838.629195
2763.018160,-9844.739029,2220.617826,1149.143247
2763.018497,-9918.759623,2294.638420,229.828649
2763.018835,-9992.780217,1924.535449,766.095498
2763.019172,-9474.636058,1554.432478,-842.705048
2763.019510,-9030.512492,1554.432478,-383.047749
2763.019847,-9326.594869,1036.288319,-459.657299
2763.020185,-8808.450710,1258.350101,-1685.410096
2763.020523,-9548.656652,1036.288319,-1455.581446
2763.020860,-10066.800811,0.000000,-1532.190996
2763.021198,-9548.656652,-814.226536,-383.047749
2763.021535,-9696.697840,-1184.329507,0.000000
2763.021873,-9474.636058,-666.185348,766.095498
2763.022210,-10288.862594,-2442.679609,842.705048
2763.022548,-9696.697840,-2146.597232,0.000000
2763.022885,-9474.636058,-1628.453072,306.438199
2763.023223,-10140.821405,-2072.576638,919.314598
2763.023560,-10436.903782,-1406.391290,842.705048
2763.023898,-10807.006753,-1702.473667,842.705048
2763.024235,-10807.006753,-518.144159,1149.143247
2763.024573,-10510.924376,-962.267725,612.876398
2763.024910,-11103.089130,-1258.350101,536.266849
2763.025248,-10732.986159,-1554.432478,919.314598
2763.025585,-10807.006753,-666.185348,1455.581446
2763.025923,-10881.027347,-518.144159,612.876398
2763.026260,-10214.842000,-814.226536,229.828649
2763.026598,-10658.965565,-888.247130,0.000000
2763.026935,-10140.821405,-1332.370696,-995.924147
2763.027273,-9696.697840,-296.082377,-536.266849
2763.027610,-9770.718434,-666.185348,-919.314598
2763.027948,-9548.656652,-1184.329507,-842.705048
2763.028285,-9770.718434,-888.247130,-306.438199
2763.028623,-9474.636058,-962.267725,0.000000
2763.028960,-9474.636058,-666.185348,612.876398
2763.029298,-9474.636058,-592.164754,842.705048
2763.029635,-9918.759623,-148.041188,1072.533697
2763.029973,-9844.739029,-518.144159,689.485948
2763.030310,-9770.718434,148.041188,842.705048
2763.030648,-9770.718434,740.205942,1608.800546
2763.030985,-9622.677246,888.247130,1455.581446
2763.031323,-9400.615463,1110.308913,383.047749
2763.031660,-9548.656652,1628.453072,306.438199
2763.031998,-9474.636058,666.185348,536.266849
2763.032335,-9992.780217,1332.370696,153.219100
2763.032673,-10362.883188,1110.308913,229.828649
2763.033010,-9992.780217,1998.556043,-995.924147
2763.033348,-10288.862594,740.205942,-766.095498
2763.033686,-10362.883188,296.082377,-919.314598
2763.034023,-9696.697840,-592.164754,-1532.190996
2763.034361,-9992.780217,-518.144159,-919.314598
2763.034698,-9844.739029,-1850.514855,-1608.800546
2763.035036,-9548.656652,-1998.556043,-1072.533697
2763.035373,-9696.697840,-2368.659014,-459.657299
2763.035711,-9918.759623,-3182.885551,0.000000
2763.036048,-10214.842000,-1776.494261,459.657299
2763.036386,-10362.883188,-2738.761985,0.000000
2763.036723,-10436.903782,-2146.597232,0.000000
2763.037061,-10214.842000,-2072.576638,76.609550
2763.037398,-10510.924376,-1480.411884,995.924147
2763.037736,-10214.842000,-1480.411884,1225.752797
2763.038073,-10658.965565,-1554.432478,1608.800546
2763.038411,-10436.903782,-148.041188,2068.457845
2763.038748,-10732.986159,0.000000,1762.019645
2763.039086,-10436.903782,0.000000,1685.410096
2763.039423,-10732.986159,740.205942,1838.629195
2763.039761,-10362.883188,1036.288319,1302.362347
2763.040098,-10362.883188,1702.473667,1072.533697
2763.040436,-10288.862594,2072.576638,76.609550
2763.040773,-9844.739029,1924.535449,-306.438199
2763.041111,-9770.718434,1850.514855,-459.657299
2763.041448,-10140.821405,1702.473667,-306.438199
2763.041786,-9844.739029,1258.350101,-919.314598
2763.042123,-9252.574275,888.247130,-1302.362347
2763.042461,-9178.553681,222.061783,-76.609550
2763.042798,-9030.512492,0.000000,536.266849
2763.043136,-9178.553681,-74.020594,842.705048
2763.043473,-9474.636058,148.041188,536.266849
2763.043811,-9474.636058,444.123565,0.000000
2763.044148,-9548.656652,0.000000,76.609550
2763.044486,-10066.800811,-148.041188,766.095498
2763.044823,-9400.615463,518.144159,459.657299
2763.045161,-9770.718434,222.061783,842.705048
2763.045498,-9770.718434,666.185348,1072.533697
2763.045836,-10436.903782,74.020594,306.438199
2763.046173,-10807.006753,0.000000,689.485948
2763.046511,-10214.842000,-740.205942,536.266849
2763.046849,-9918.759623,-740.205942,229.828649
2763.047186,-10436.903782,-518.144159,306.438199
2763.047524,-10658.965565,-1406.391290,76.609550
2763.047861,-9844.739029,-814.226536,-459.657299
2763.048199,-10288.862594,-962.267725,-689.485948
2763.048536,-11029.068536,-888.247130,-459.657299
2763.048874,-10807.006753,-1998.556043,-842.705048
2763.049211,-10436.903782,-1480.411884,-995.924147
2763.049549,-10214.842000,-2368.659014,-842.705048
2763.049886,-10140.821405,-2886.803174,0.000000
2763.050224,-10362.883188,-1924.535449,0.000000
2763.050561,-10807.006753,-2294.638420,459.657299
2763.050899,-10066.800811,-1554.432478,766.095498
2763.051236,-9548.656652,-1924.535449,1072.533697
2763.051574,-10510.924376,-1036.288319,2834.553343
2763.051911,-9474.636058,0.000000,1685.410096
2763.052249,-9844.739029,0.000000,1608.800546
2763.052586,-9844.739029,814.226536,1991.848295
2763.052924,-9548.656652,1628.453072,1608.800546
2763.053261,-10436.903782,1406.391290,1915.238745
2763.053599,-9844.739029,1850.514855,306.438199
2763.053936,-9400.615463,1998.556043,229.828649
2763.054274,-10214.842000,2294.638420,0.000000
2763.054611,-9178.553681,1406.391290,-383.047749
2763.054949,-8956.491898,962.267725,-459.657299
2763.055286,-9400.615463,518.144159,-689.485948
2763.055624,-9474.636058,1332.370696,-766.095498
2763.055961,-9770.718434,666.185348,-1608.800546
2763.056299,-9844.739029,74.020594,-1685.410096
2763.056636,-9474.636058,222.061783,-1072.533697
2763.056974,-10362.883188,-888.247130,-153.219100
2763.057311,-9918.759623,-814.226536,306.438199
2763.057649,-9622.677246,-1850.514855,0.000000
2763.057986,-9992.780217,-1850.514855,0.000000
2763.058324,-10066.800811,-1850.514855,0.000000
2763.058661,-9918.759623,-2368.659014,536.266849
2763.058999,-10362.883188,-1628.453072,612.876398
2763.059336,-10362.883188,-1480.411884,1532.190996
2763.059674,-10510.924376,-518.144159,1762.019645
2763.060011,-10658.965565,-592.164754,766.095498
2763.060349,-11325.150913,-444.123565,1072.533697
2763.060687,-10955.047942,-592.164754,919.314598
2763.061024,-10510.924376,-370.102971,612.876398
2763.061362,-10214.842000,-518.144159,612.876398
2763.061699,-10584.944971,74.020594,536.266849
2763.062037,-9622.677246,-1036.288319,-306.438199
2763.062374,-10881.027347,-296.082377,-612.876398
2763.062712,-9918.759623,0.000000,-842.705048
2763.063049,-10362.883188,0.000000,-536.266849
2763.063387,-10066.800811,0.000000,-459.657299
2763.063724,-9548.656652,-370.102971,-766.095498
2763.064062,-9844.739029,-370.102971,459.657299
2763.064399,-9770.718434,148.041188,919.314598
2763.064737,-9770.718434,0.000000,919.314598
2763.065074,-9918.759623,444.123565,1302.362347
2763.065412,-9474.636058,370.102971,612.876398
2763.065749,-9696.697840,592.164754,919.314598
2763.066087,-9696.697840,1110.308913,1455.581446
2763.066424,-9474.636058,814.226536,995.924147
2763.066762,-9622.677246,2220.617826,1455.581446
2763.067099,-9696.697840,2368.659014,383.047749
2763.067437,-9622.677246,1998.556043,383.047749
2763.067774,-9918.759623,1628.453072,153.219100
2763.068112,-9844.739029,370.102971,459.657299
2763.068449,-9696.697840,1776.494261,-153.219100
2763.068787,-9622.677246,296.082377,-306.438199
2763.069124,-9770.718434,666.185348,-383.047749
2763.069462,-9844.739029,-1110.308913,-1149.143247
2763.069799,-9918.759623,-518.144159,-689.485948
2763.070137,-9696.697840,-1332.370696,-1532.190996
2763.070474,-9400.615463,-1998.556043,-1225.752797
2763.070812,-10066.800811,-2590.720797,-612.876398
2763.071149,-10436.903782,-2368.659014,-306.438199
2763.071487,-10066.800811,-1924.535449,0.000000
2763.071824,-10066.800811,-2368.659014,76.609550
2763.072162,-10807.006753,-2590.720797,1072.533697
2763.072499,-10658.965565,-2516.700203,1149.143247
2763.072837,-10436.903782,-1924.535449,842.705048
2763.073174,-10658.965565,-1554.432478,1685.410096
2763.073512,-10732.986159,-1406.391290,1225.752797
2763.073850,-10658.965565,-444.123565,1915.238745
2763.074187,-10658.965565,-148.041188,1608.800546
2763.074525,-9918.759623,148.041188,1685.410096
2763.074862,-10066.800811,0.000000,919.314598
2763.075200,-10362.883188,444.123565,1149.143247
2763.075537,-10140.821405,1406.391290,766.095498
2763.075875,-10066.800811,1036.288319,229.828649
2763.076212,-9622.677246,1406.391290,-306.438199
2763.076550,-9474.636058,1110.308913,0.000000
2763.076887,-9918.759623,1406.391290,153.219100
2763.077225,-9474.636058,1110.308913,-1072.533697
2763.077562,-9326.594869,592.164754,-1532.190996
2763.077900,-9400.615463,296.082377,-153.219100
2763.078237,-9326.594869,-74.020594,-383.047749
2763.078575,-9474.636058,444.123565,76.609550
2763.078912,-9548.656652,-444.123565,229.828649
2763.079250,-9326.594869,0.000000,153.219100
2763.079587,-9252.574275,0.000000,383.047749
2763.079925,-9992.780217,296.082377,1225.752797
2763.080262,-9992.780217,444.123565,0.000000
2763.080600,-10140.821405,0.000000,919.314598
2763.080937,-10510.924376,74.020594,1149.143247
2763.081275,-10140.821405,-74.020594,459.657299
2763.081612,-10510.924376,-592.164754,153.219100
2763.081950,-9770.718434,0.000000,76.609550
2763.082287,-10214.842000,-888.247130,689.485948
2763.082625,-9918.759623,-814.226536,0.000000
2763.082962,-10658.965565,-962.267725,-383.047749
2763.083300,-10288.862594,-962.267725,76.609550
2763.083637,-10436.903782,-1776.494261,-536.266849
2763.083975,-10436.903782,-1406.391290,0.000000
2763.084312,-10288.862594,-1480.411884,-459.657299
2763.084650,-10288.862594,-2146.597232,-383.047749
2763.084987,-10362.883188,-1850.514855,-306.438199
2763.085325,-9992.780217,-2590.720797,0.000000
2763.085662,-10584.944971,-1332.370696,306.438199
2763.086000,-10807.006753,-1924.535449,459.657299
2763.086337,-9474.636058,-1258.350101,689.485948
2763.086675,-9992.780217,-1036.288319,1685.410096
2763.087012,-10362.883188,-518.144159,1685.410096
2763.087349,-10214.842000,74.020594,1991.848295
2763.087687,-10658.965565,1110.308913,1991.848295
2763.088024,-10288.862594,1406.391290,2145.067394
2763.088361,-9918.759623,1850.514855,1685.410096
2763.088699,-10066.800811,1924.535449,1685.410096
2763.089036,-10066.800811,2294.638420,536.266849
2763.089373,-9696.697840,1924.535449,766.095498
2763.089711,-9474.636058,2294.638420,0.000000
2763.090048,-9252.574275,1776.494261,-612.876398
2763.090385,-9326.594869,1702.473667,-612.876398
2763.090723,-9252.574275,1628.453072,-842.705048
2763.091060,-9326.594869,1184.329507,-1225.752797
2763.091397,-9548.656652,370.102971,-1225.752797
2763.091735,-9992.780217,370.102971,-995.924147
2763.092072,-9400.615463,0.000000,-1072.533697
2763.092409,-9326.594869,-814.226536,-383.047749
2763.092747,-9844.739029,-1184.329507,919.314598
2763.093084,-10510.924376,-1480.411884,153.219100
2763.093421,-9622.677246,-1998.556043,-153.219100
2763.093759,-9770.718434,-1850.514855,0.000000
2763.094096,-9992.780217,-2294.638420,842.705048
2763.094433,-10510.924376,-1554.432478,1072.533697
2763.094771,-10807.006753,-1776.494261,919.314598
2763.095108,-10066.800811,-814.226536,612.876398
2763.095445,-10362.883188,-1184.329507,842.705048
2763.095783,-11029.068536,-814.226536,1072.533697
2763.096120,-10955.047942,-1036.288319,995.924147
2763.096457,-10955.047942,-592.164754,689.485948
2763.096795,-10584.944971,-296.082377,612.876398
2763.097132,-10807.006753,-592.164754,459.657299
2763.097469,-10584.944971,-444.123565,0.000000
2763.097807,-10214.842000,-1480.411884,-766.095498
2763.098144,-9770.718434,-592.164754,-306.438199
2763.098481,-10066.800811,-74.020594,-383.047749
2763.098819,-10066.800811,-592.164754,-306.438199
2763.099156,-9474.636058,-740.205942,-1225.752797
2763.099493,-9474.636058,-518.144159,229.828649
2763.099831,-9696.697840,0.000000,1149.143247
2763.100168,-9844.739029,-518.144159,1149.143247
2763.100505,-10214.842000,518.144159,1532.190996
2763.100842,-9918.759623,0.000000,1225.752797
2763.101180,-9696.697840,740.205942,1072.533697
2763.101517,-9622.677246,592.164754,1762.019645
2763.101854,-9918.759623,1110.308913,1149.143247
2763.102192,-9400.615463,888.247130,919.314598
2763.102529,-9622.677246,1480.411884,612.876398
2763.102866,-9770.718434,2294.638420,536.266849
2763.103204,-9992.780217,1702.473667,383.047749
2763.103541,-9992.780217,1258.350101,76.609550
2763.103878,-9918.759623,1998.556043,-229.828649
2763.104216,-10140.821405,740.205942,-383.047749
2763.104553,-10214.842000,222.061783,-229.828649
2763.104890,-10066.800811,-962.267725,-1225.752797
2763.105228,-9622.677246,-1110.308913,-689.485948
2763.105565,-9400.615463,-1332.370696,-842.705048
2763.105902,-9474.636058,-2516.700203,-1455.581446
2763.106240,-9622.677246,-2442.679609,-842.705048
2763.106577,-10362.883188,-2886.803174,0.000000
2763.106914,-10214.842000,-1702.473667,153.219100
2763.107252,-10807.006753,-2220.617826,0.000000
2763.107589,-10807.006753,-2220.617826,612.876398
2763.107926,-10436.903782,-2590.720797,842.705048
2763.108264,-10362.883188,-1998.556043,1532.190996
2763.108601,-10436.903782,-1628.453072,1455.581446
2763.108938,-10807.006753,-2146.597232,1455.581446
2763.109276,-10658.965565,-148.041188,1762.019645
2763.109613,-10658.965565,74.020594,1532.190996
2763.109950,-10584.944971,222.061783,1762.019645
2763.110288,-10140.821405,222.061783,536.266849
2763.110625,-10732.986159,1332.370696,1225.752797
2763.110962,-10140.821405,1776.494261,306.438199
2763.111300,-9696.697840,1258.350101,0.000000
2763.111637,-9696.697840,1184.329507,0.000000
2763.111974,-9622.677246,1480.411884,0.000000
2763.112312,-9770.718434,1332.370696,0.000000
2763.112649,-10066.800811,962.267725,-995.924147
2763.112986,-9104.533087,740.205942,-1685.410096
2763.113324,-9474.636058,74.020594,-229.828649
2763.113661,-9178.553681,0.000000,0.000000
2763.113998,-8808.450710,222.061783,153.219100
2763.114336,-9548.656652,740.205942,-229.828649
2763.114673,-9548.656652,0.000000,-459.657299
2763.115010,-9474.636058,370.102971,842.705048
2763.115348,-9844.739029,-222.061783,1072.533697
2763.115685,-9474.636058,222.061783,1072.533697
2763.116022,-9770.718434,222.061783,1455.581446
2763.116360,-9918.759623,148.041188,1685.410096
2763.116697,-10510.924376,0.000000,459.657299
2763.117034,-10658.965565,0.000000,0.000000
2763.117372,-10066.800811,-148.041188,383.047749
2763.117709,-10362.883188,-1036.288319,306.438199
2763.118046,-10288.862594,-444.123565,0.000000
2763.118384,-10732.986159,-1036.288319,-306.438199
2763.118721,-10066.800811,-888.247130,-612.876398
2763.119058,-10288.862594,-2146.597232,-842.705048
2763.119396,-10436.903782,-1480.411884,0.000000
2763.119733,-10436.903782,-1924.535449,-612.876398
2763.120070,-10436.903782,-2368.659014,-536.266849
2763.120408,-10066.800811,-2516.700203,-306.438199
2763.120745,-9992.780217,-2516.700203,-76.609550
2763.121082,-10510.924376,-1554.432478,76.609550
2763.121420,-10362.883188,-1924.535449,0.000000
2763.121757,-10140.821405,-1628.453072,76.609550
2763.122094,-9622.677246,-1628.453072,1072.533697
2763.122432,-10436.903782,-666.185348,1915.238745
2763.122769,-10140.821405,-148.041188,1762.019645
2763.123106,-10066.800811,0.000000,1608.800546
2763.123444,-9992.780217,666.185348,2451.505594
2763.123781,-9992.780217,1702.473667,1838.629195
2763.124118,-10140.821405,2146.597232,1378.971896
2763.124456,-10658.965565,1776.494261,459.657299
2763.124793,-9622.677246,2220.617826,0.000000
2763.125130,-9770.718434,2368.659014,-383.047749
2763.125468,-9474.636058,1776.494261,-383.047749
2763.125805,-9400.615463,1332.370696,-1072.533697
2763.126142,-9178.553681,1110.308913,-766.095498
2763.126480,-9104.533087,296.082377,-1149.143247
2763.126817,-9474.636058,370.102971,-1149.143247
2763.127154,-9844.739029,74.020594,-995.924147
2763.127492,-9548.656652,-444.123565,-1302.362347
2763.127829,-9548.656652,-888.247130,-536.266849
2763.128166,-9992.780217,-1110.308913,153.219100
2763.128504,-9844.739029,-1702.473667,0.000000
2763.128841,-10288.862594,-1702.473667,0.000000
2763.129178,-9918.759623,-2146.597232,-76.609550
2763.129516,-9918.759623,-2368.659014,536.266849
2763.129853,-10288.862594,-1998.556043,842.705048
2763.130190,-10362.883188,-1776.494261,1302.362347
2763.130528,-10658.965565,-1332.370696,1302.362347
2763.130865,-10807.006753,-1036.288319,1225.752797
2763.131202,-11177.109724,-444.123565,1072.533697
2763.131540,-10955.047942,-1184.329507,1225.752797
2763.131877,-10214.842000,-740.205942,459.657299
2763.132214,-10881.027347,-592.164754,919.314598
2763.132552,-10436.903782,-666.185348,153.219100
2763.132889,-9622.677246,-518.144159,-612.876398
2763.133226,-10658.965565,-1480.411884,0.000000
2763.133564,-9844.739029,-814.226536,-766.095498
2763.133901,-9770.718434,-592.164754,-306.438199
2763.134238,-10362.883188,-592.164754,0.000000
2763.134576,-9326.594869,-740.205942,-383.047749
2763.134913,-9548.656652,-666.185348,0.000000
2763.135250,-9992.780217,0.000000,1149.143247
2763.135588,-10066.800811,740.205942,1072.533697
2763.135925,-10214.842000,296.082377,1225.752797
2763.136262,-9844.739029,222.061783,766.095498
2763.136599,-9474.636058,1036.288319,1762.019645
2763.136937,-9622.677246,888.247130,1608.800546
2763.137274,-9622.677246,1110.308913,1685.410096
2763.137611,-9548.656652,1480.411884,766.095498
2763.137949,-9696.697840,2442.679609,306.438199
2763.138286,-9474.636058,2368.659014,459.657299
2763.138623,-9844.739029,962.267725,153.219100
2763.138961,-9770.718434,1554.432478,229.828649
2763.139298,-9474.636058,1702.473667,153.219100
2763.139635,-9548.656652,1332.370696,-612.876398
2763.139973,-9696.697840,74.020594,-919.314598
2763.140310,-10732.986159,-370.102971,-1532.190996
2763.140647,-9770.718434,-518.144159,-689.485948
2763.140985,-9474.636058,-1332.370696,-919.314598
2763.141322,-9844.739029,-2590.720797,-842.705048
2763.141659,-9992.780217,-2442.679609,-1302.362347
2763.141997,-10436.903782,-3108.864956,0.000000
2763.142334,-10510.924376,-1776.494261,76.609550
2763.142671,-10214.842000,-2664.741391,229.828649
2763.143009,-10955.047942,-2294.638420,842.705048
2763.143346,-10732.986159,-2368.659014,995.924147
2763.143683,-10955.047942,-1924.535449,1378.971896
2763.144021,-10584.944971,-1998.556043,1991.848295
2763.144358,-10732.986159,-1628.453072,1225.752797
2763.144695,-10584.944971,-1258.350101,1302.362347
2763.145033,-11251.130318,-518.144159,1532.190996
2763.145370,-9918.759623,0.000000,1149.143247
2763.145707,-10288.862594,74.020594,1072.533697
2763.146045,-10288.862594,592.164754,1149.143247
2763.146382,-9844.739029,888.247130,76.609550
2763.146719,-10066.800811,1184.329507,229.828649
2763.147057,-9844.739029,1184.329507,306.438199
2763.147394,-9400.615463,666.185348,229.828649
2763.147731,-9918.759623,1554.432478,0.000000
2763.148069,-9770.718434,222.061783,-612.876398
2763.148406,-9474.636058,666.185348,-1302.362347
2763.148743,-8956.491898,-148.041188,-459.657299
2763.149081,-9178.553681,-296.082377,-612.876398
2763.149418,-8660.409521,0.000000,-459.657299
2763.149755,-9400.615463,0.000000,0.000000
2763.150093,-9844.739029,0.000000,229.828649
2763.150430,-9474.636058,148.041188,306.438199
2763.150767,-10066.800811,518.144159,995.924147
2763.151105,-10140.821405,518.144159,1685.410096
2763.151442,-9770.718434,0.000000,995.924147
2763.151779,-10362.883188,444.123565,689.485948
2763.152117,-10436.903782,-148.041188,1302.362347
2763.152454,-10584.944971,-148.041188,612.876398
2763.152791,-9918.759623,-296.082377,459.657299
2763.153129,-9844.739029,-1184.329507,76.609550
2763.153466,-10066.800811,-666.185348,-383.047749
2763.153803,-10066.800811,-1184.329507,-383.047749
2763.154141,-10436.903782,-1036.288319,-612.876398
2763.154478,-10214.842000,-1628.453072,-306.438199
2763.154815,-10658.965565,-1406.391290,-383.047749
2763.155153,-10584.944971,-1554.432478,-383.047749
2763.155490,-10288.862594,-2368.659014,-536.266849
2763.155827,-10362.883188,-3034.844362,0.000000
2763.156165,-9992.780217,-2664.741391,0.000000
2763.156502,-10362.883188,-1924.535449,229.828649
2763.156839,-10955.047942,-1850.514855,153.219100
2763.157177,-9992.780217,-1480.411884,153.219100
2763.157514,-10140.821405,-1702.473667,1149.143247
2763.157851,-10362.883188,0.000000,1685.410096
2763.158189,-9992.780217,0.000000,1149.143247
2763.158526,-10436.903782,888.247130,1762.019645
2763.158863,-10288.862594,888.247130,1991.848295
2763.159201,-9844.739029,1628.453072,1608.800546
2763.159538,-10510.924376,2072.576638,1685.410096
2763.159875,-10510.924376,1776.494261,1532.190996
2763.160213,-9474.636058,1924.535449,-536.266849
2763.160550,-9178.553681,1924.535449,-766.095498
2763.160887,-9326.594869,1850.514855,-612.876398
2763.161225,-8956.491898,1850.514855,-612.876398
2763.161562,-8882.471304,1110.308913,-1149.143247
2763.161899,-9030.512492,1332.370696,-1225.752797
2763.162237,-9548.656652,592.164754,-842.705048
2763.162574,-9548.656652,518.144159,-536.266849
2763.162911,-9252.574275,0.000000,-689.485948
2763.163249,-9474.636058,-666.185348,612.876398
2763.163586,-10362.883188,-1036.288319,842.705048
2763.163923,-10288.862594,-1554.432478,459.657299
2763.164261,-9992.780217,-1702.473667,0.000000
2763.164598,-9548.656652,-2072.576638,229.828649
2763.164935,-10510.924376,-1850.514855,459.657299
2763.165273,-10362.883188,-1406.391290,612.876398
2763.165610,-10584.944971,-1480.411884,689.485948
2763.165947,-10584.944971,-1184.329507,612.876398
2763.166285,-10658.965565,-1036.288319,1225.752797
2763.166622,-11325.150913,-518.144159,1608.800546
2763.166959,-10881.027347,-1480.411884,995.924147
2763.167297,-10658.965565,-666.185348,842.705048
2763.167634,-10510.924376,-444.123565,919.314598
2763.167971,-10362.883188,-814.226536,306.438199
2763.168309,-9918.759623,-740.205942,0.000000
2763.168646,-10288.862594,-1480.411884,0.000000
2763.168983,-9844.739029,-518.144159,-995.924147
2763.169321,-9770.718434,-518.144159,-766.095498
2763.169658,-9918.759623,-592.164754,-766.095498
2763.169995,-9474.636058,-1184.329507,-766.095498
2763.170333,-9622.677246,-666.185348,0.000000
2763.170670,-9770.718434,74.020594,766.095498
2763.171007,-10066.800811,222.061783,1225.752797
2763.171345,-10214.842000,222.061783,842.705048
2763.171682,-9844.739029,444.123565,1149.143247
2763.172019,-9770.718434,740.205942,1072.533697
2763.172357,-9696.697840,592.164754,2298.286494
2763.172694,-10140.821405,888.247130,1532.190996
2763.173031,-9622.677246,1258.350101,459.657299
2763.173368,-9400.615463,1776.494261,229.828649
2763.173706,-9844.739029,1998.556043,459.657299
2763.174043,-9474.636058,1776.494261,0.000000
2763.174380,-9622.677246,1554.432478,153.219100
2763.174718,-10066.800811,1258.350101,-229.828649
2763.175055,-9696.697840,740.205942,-229.828649
2763.175392,-10288.862594,296.082377,-612.876398
2763.175730,-10362.883188,-740.205942,-995.924147
2763.176067,-9918.759623,-888.247130,-842.705048
2763.176404,-9622.677246,-1332.370696,-536.266849
2763.176742,-9770.718434,-2220.617826,-1455.581446
2763.177079,-9548.656652,-3256.906145,-766.095498
2763.177416,-9992.780217,-3108.864956,76.609550
2763.177754,-10214.842000,-2368.659014,-153.219100
2763.178091,-10584.944971,-2590.720797,76.609550
2763.178428,-10732.986159,-2368.659014,459.657299
2763.178766,-10807.006753,-2812.782580,919.314598
2763.179103,-10807.006753,-2072.576638,1378.971896
2763.179440,-10510.924376,-1628.453072,1915.238745
2763.179778,-10955.047942,-1480.411884,1762.019645
2763.180115,-10436.903782,-1554.432478,1532.190996
2763.180452,-10510.924376,0.000000,1991.848295
2763.180790,-10436.903782,0.000000,1455.581446
2763.181127,-10214.842000,444.123565,766.095498
2763.181464,-10214.842000,666.185348,459.657299
2763.181802,-10140.821405,1184.329507,536.266849
2763.182139,-9548.656652,1036.288319,306.438199
2763.182476,-9770.718434,1406.391290,229.828649
2763.182814,-10066.800811,1406.391290,306.438199
2763.183151,-9770.718434,1406.391290,0.000000
2763.183488,-9992.780217,1258.350101,-766.095498
2763.183826,-9252.574275,1110.308913,-1608.800546
2763.184163,-9252.574275,0.000000,-383.047749
2763.184500,-8956.491898,0.000000,842.705048
2763.184838,-8734.430116,518.144159,76.609550
2763.185175,-9548.656652,814.226536,0.000000
2763.185512,-9770.718434,444.123565,0.000000
2763.185850,-9548.656652,0.000000,306.438199
2763.186187,-9474.636058,740.205942,995.924147
2763.186524,-9400.615463,444.123565,1685.410096
2763.186862,-9918.759623,740.205942,1532.190996
2763.187199,-10732.986159,592.164754,1455.581446
2763.187536,-10140.821405,370.102971,689.485948
2763.187873,-10214.842000,592.164754,536.266849
2763.188211,-10510.924376,0.000000,459.657299
2763.188548,-10288.862594,-74.020594,76.609550
2763.188885,-10140.821405,-1184.329507,-459.657299
2763.189222,-9770.718434,-370.102971,-1225.752797
2763.189559,-9918.759623,-1628.453072,-459.657299
2763.189897,-10510.924376,-1480.411884,0.000000
2763.190234,-10510.924376,-1480.411884,-689.485948
2763.190571,-10807.006753,-1184.329507,-229.828649
2763.190908,-10436.903782,-2146.597232,-919.314598
2763.191245,-10214.842000,-2368.659014,-306.438199
2763.191583,-10436.903782,-3034.844362,229.828649
2763.191920,-9918.759623,-1480.411884,229.828649
2763.192257,-10658.965565,-2220.617826,842.705048
2763.192594,-10066.800811,-1628.453072,0.000000
2763.192931,-9844.739029,-1702.473667,536.266849
2763.193269,-10214.842000,-888.247130,1991.848295
2763.193606,-9844.739029,0.000000,1378.971896
2763.193943,-9696.697840,370.102971,2145.067394
2763.194280,-10658.965565,1036.288319,2068.457845
2763.194617,-9844.739029,1628.453072,1455.581446
2763.194955,-10362.883188,1998.556043,1762.019645
2763.195292,-10510.924376,1480.411884,1149.143247
2763.195629,-9548.656652,2368.659014,0.000000
2763.195966,-9548.656652,1554.432478,-153.219100
2763.196304,-9252.574275,1702.473667,-689.485948
2763.196641,-8808.450710,1332.370696,-1378.971896
2763.196978,-9474.636058,888.247130,-995.924147
2763.197315,-9400.615463,888.247130,-612.876398
2763.197652,-9326.594869,592.164754,-995.924147
2763.197990,-9622.677246,518.144159,-995.924147
2763.198327,-9474.636058,-222.061783,-766.095498
2763.198664,-9696.697840,-444.123565,229.828649
2763.199001,-10362.883188,-1184.329507,459.657299
2763.199338,-9992.780217,-1258.350101,612.876398
2763.199676,-9474.636058,-1702.473667,-459.657299
2763.200013,-9992.780217,-2220.617826,536.266849
2763.200350,-10066.800811,-2072.576638,766.095498
2763.200687,-10066.800811,-1702.473667,1149.143247
2763.201024,-10732.986159,-814.226536,1225.752797
2763.201362,-10955.047942,-1258.350101,842.705048
2763.201699,-10584.944971,-444.123565,842.705048
2763.202036,-10584.944971,-592.164754,842.705048
2763.202373,-11325.150913,-666.185348,1762.019645
2763.202710,-10584.944971,-1036.288319,842.705048
2763.203048,-10214.842000,-666.185348,153.219100
2763.203385,-10140.821405,-888.247130,76.609550
2763.203722,-10288.862594,-888.247130,-459.657299
2763.204059,-10658.965565,-1036.288319,-306.438199
2763.204396,-10510.924376,-370.102971,-1072.533697
2763.204734,-9696.697840,-296.082377,-1072.533697
2763.205071,-10066.800811,-74.020594,229.828649
2763.205408,-9400.615463,-666.185348,-536.266849
2763.205745,-9548.656652,-740.205942,229.828649
2763.206082,-10140.821405,148.041188,1072.533697
2763.206420,-9696.697840,222.061783,689.485948
2763.206757,-10214.842000,592.164754,1302.362347
2763.207094,-9918.759623,148.041188,1225.752797
2763.207431,-9326.594869,444.123565,1072.533697
2763.207768,-9548.656652,962.267725,1455.581446
2763.208106,-9918.759623,1554.432478,1302.362347
2763.208443,-9844.739029,2220.617826,306.438199
2763.208780,-9474.636058,2368.659014,229.828649
2763.209117,-10066.800811,1776.494261,0.000000
2763.209454,-9696.697840,1406.391290,383.047749
2763.209792,-9622.677246,1998.556043,536.266849
2763.210129,-9178.553681,1184.329507,229.828649
2763.210466,-9770.718434,1406.391290,0.000000
2763.210803,-9918.759623,370.102971,-612.876398
2763.211140,-10584.944971,0.000000,-383.047749
2763.211478,-10362.883188,-962.267725,-1149.143247
2763.211815,-9326.594869,-814.226536,-1455.581446
2763.212152,-9918.759623,-2368.659014,-459.657299
2763.212489,-9844.739029,-2220.617826,-766.095498
2763.212826,-9474.636058,-2368.659014,-689.485948
2763.213164,-10510.924376,-2368.659014,229.828649
2763.213501,-10658.965565,-2146.597232,459.657299
2763.213838,-11473.192101,-1998.556043,459.657299
2763.214175,-10955.047942,-2368.659014,1225.752797
2763.214512,-10288.862594,-2146.597232,1302.362347
2763.214850,-10732.986159,-1406.391290,2068.457845
2763.215187,-11399.171507,-1332.370696,1225.752797
2763.215524,-10732.986159,-888.247130,919.314598
2763.215861,-10658.965565,-814.226536,1532.190996
2763.216198,-10140.821405,0.000000,842.705048
2763.216536,-10066.800811,444.123565,919.314598
2763.216873,-10214.842000,444.123565,536.266849
2763.217210,-10066.800811,888.247130,76.609550
2763.217547,-9474.636058,1110.308913,306.438199
2763.217884,-9696.697840,1036.288319,536.266849
2763.218222,-9992.780217,1036.288319,0.000000
2763.218559,-9992.780217,1036.288319,-536.266849
2763.218896,-9548.656652,1110.308913,-536.266849
2763.219233,-9104.533087,296.082377,-1378.971896
2763.219570,-9178.553681,0.000000,-766.095498
2763.219908,-9178.553681,0.000000,-306.438199
2763.220245,-8808.450710,222.061783,-612.876398
2763.220582,-9548.656652,74.020594,-229.828649
2763.220919,-9770.718434,296.082377,76.609550
2763.221257,-10066.800811,-296.082377,153.219100
2763.221594,-9696.697840,222.061783,459.657299
2763.221931,-9770.718434,518.144159,1608.800546
2763.222268,-10510.924376,888.247130,1072.533697
2763.222605,-10658.965565,0.000000,1072.533697
2763.222943,-10658.965565,74.020594,306.438199
2763.223280,-10066.800811,74.020594,0.000000
2763.223617,-10510.924376,-518.144159,153.219100
2763.223954,-10288.862594,-1332.370696,-76.609550
2763.224291,-9696.697840,-1110.308913,-536.266849
2763.224629,-9252.574275,-1332.370696,-612.876398
2763.224966,-10362.883188,-1332.370696,-612.876398
2763.225303,-10584.944971,-1554.432478,-536.266849
2763.225640,-10584.944971,-1628.453072,-766.095498
2763.225977,-10510.924376,-1776.494261,-536.266849
2763.226315,-10214.842000,-2294.638420,-536.266849
2763.226652,-10658.965565,-2812.782580,766.095498
2763.226989,-10288.862594,-2886.803174,229.828649
2763.227326,-10214.842000,-2368.659014,383.047749
2763.227663,-10584.944971,-1702.473667,306.438199
2763.228001,-10362.883188,-1776.494261,153.219100
2763.228338,-10288.862594,-1406.391290,766.095498
2763.228675,-9992.780217,-592.164754,1915.238745
2763.229012,-9918.759623,-222.061783,1378.971896
2763.229349,-9622.677246,592.164754,1532.190996
2763.229687,-9844.739029,1110.308913,2145.067394
2763.230024,-10140.821405,1480.411884,1838.629195
2763.230361,-10140.821405,2072.576638,1302.362347
2763.230698,-10362.883188,2590.720797,1378.971896
2763.231035,-9770.718434,2146.597232,612.876398
2763.231373,-9104.533087,1776.494261,-153.219100
2763.231710,-9400.615463,2294.638420,-76.609550
2763.232047,-9030.512492,1924.535449,-383.047749
2763.232384,-9104.533087,1406.391290,-612.876398
2763.232721,-9400.615463,740.205942,-995.924147
2763.233059,-9696.697840,518.144159,-1149.143247
2763.233396,-8956.491898,740.205942,-919.314598
2763.233733,-9548.656652,0.000000,-383.047749
2763.234070,-9474.636058,0.000000,459.657299
2763.234407,-10510.924376,-814.226536,229.828649
2763.234745,-10510.924376,-740.205942,0.000000
2763.235082,-9548.656652,-1110.308913,-842.705048
2763.235419,-10066.800811,-1924.535449,612.876398
2763.235756,-10362.883188,-2146.597232,383.047749
2763.236093,-10066.800811,-1332.370696,459.657299
2763.236431,-10510.924376,-962.267725,689.485948
2763.236768,-10510.924376,-962.267725,612.876398
2763.237105,-10436.903782,-592.164754,1072.533697
2763.237442,-11325.150913,-740.205942,1762.019645
2763.237779,-11473.192101,-592.164754,1225.752797
2763.238117,-10732.986159,-888.247130,153.219100
2763.238454,-10732.986159,-518.144159,306.438199
2763.238791,-10436.903782,-1110.308913,0.000000
2763.239128,-10066.800811,-1110.308913,-612.876398
2763.239465,-10362.883188,-814.226536,0.000000
2763.239803,-10510.924376,-1184.329507,-536.266849
2763.240140,-9770.718434,-592.164754,-1149.143247
2763.240477,-9844.739029,-666.185348,-1455.581446
2763.240814,-9770.718434,-888.247130,-306.438199
2763.241151,-9400.615463,-740.205942,0.000000
2763.241489,-9548.656652,-592.164754,1149.143247
2763.241826,-9770.718434,444.123565,919.314598
2763.242163,-9918.759623,296.082377,842.705048
2763.242500,-10214.842000,74.020594,1225.752797
2763.242837,-9844.739029,740.205942,1072.533697
2763.243175,-9548.656652,370.102971,1685.410096
2763.243512,-9474.636058,740.205942,1302.362347
2763.243849,-9030.512492,1036.288319,536.266849
2763.244186,-9400.615463,1332.370696,766.095498
2763.244524,-9918.759623,1406.391290,689.485948
2763.244861,-9770.718434,1776.494261,383.047749
2763.245198,-9844.739029,1628.453072,229.828649
2763.245535,-9844.739029,1332.370696,0.000000
2763.245872,-9400.615463,814.226536,-766.095498
2763.246210,-9918.759623,0.000000,-306.438199
2763.246547,-10436.903782,-814.226536,-76.609550
2763.246884,-10066.800811,-1480.411884,-995.924147
2763.247221,-9474.636058,-1332.370696,-1149.143247
2763.247558,-9770.718434,-2368.659014,-1225.752797
2763.247896,-9548.656652,-2960.823768,-612.876398
2763.248233,-10066.800811,-2442.679609,76.609550
2763.248570,-10510.924376,-2960.823768,383.047749
2763.248907,-10436.903782,-1924.535449,383.047749
2763.249244,-11029.068536,-2368.659014,612.876398
2763.249582,-11029.068536,-2590.720797,919.314598
2763.249919,-10436.903782,-2368.659014,1378.971896
2763.250256,-10362.883188,-1702.473667,1532.190996
2763.250593,-10955.047942,-1480.411884,1915.238745
2763.250930,-10510.924376,-1406.391290,1302.362347
2763.251268,-10436.903782,0.000000,1455.581446
2763.251605,-10881.027347,0.000000,842.705048
2763.251942,-10362.883188,592.164754,612.876398
2763.252279,-10436.903782,222.061783,536.266849
2763.252616,-10214.842000,1184.329507,306.438199
2763.252954,-9474.636058,1110.308913,76.609550
2763.253291,-9548.656652,1184.329507,306.438199
2763.253628,-10362.883188,740.205942,0.000000
2763.253965,-9696.697840,1036.288319,-689.485948
2763.254302,-9400.615463,740.205942,-766.095498
2763.254640,-9326.594869,444.123565,-1225.752797
2763.254977,-8660.409521,0.000000,-383.047749
2763.255314,-8882.471304,0.000000,306.438199
2763.255651,-9178.553681,962.267725,-459.657299
2763.255988,-9548.656652,518.144159,-383.047749
2763.256326,-10066.800811,148.041188,0.000000
2763.256663,-9770.718434,74.020594,459.657299
2763.257000,-9548.656652,592.164754,1225.752797
2763.257337,-9400.615463,592.164754,2298.286494
2763.257674,-9844.739029,296.082377,1685.410096
2763.258012,-10732.986159,74.020594,995.924147
2763.258349,-10955.047942,1036.288319,995.924147
2763.258686,-10140.821405,444.123565,459.657299
2763.259023,-10140.821405,0.000000,-306.438199
2763.259360,-10140.821405,-888.247130,-229.828649
2763.259698,-10066.800811,-1036.288319,-459.657299
2763.260035,-9548.656652,-888.247130,-459.657299
2763.260372,-9992.780217,-1480.411884,-536.266849
2763.260709,-10510.924376,-1628.453072,0.000000
2763.261046,-10732.986159,-1258.350101,-459.657299
2763.261384,-10214.842000,-1776.494261,-229.828649
2763.261721,-10066.800811,-1998.556043,-306.438199
2763.262058,-10362.883188,-2664.741391,229.828649
2763.262395,-10584.944971,-2516.700203,229.828649
2763.262732,-9992.780217,-2146.597232,76.609550
2763.263070,-10066.800811,-1480.411884,0.000000
2763.263407,-10732.986159,-1628.453072,306.438199
2763.263744,-10214.842000,-666.185348,1608.800546
2763.264081,-9992.780217,-1406.391290,1532.190996
2763.264418,-9844.739029,0.000000,1838.629195
2763.264756,-9622.677246,222.061783,1225.752797
2763.265093,-10510.924376,1036.288319,2374.896044
2763.265430,-10510.924376,1554.432478,1608.800546
2763.265767,-10140.821405,1776.494261,1072.533697
2763.266104,-10362.883188,2294.638420,995.924147
2763.266442,-9622.677246,1480.411884,-766.095498
2763.266779,-9178.553681,1850.514855,-612.876398
2763.267116,-9252.574275,1702.473667,-766.095498
2763.267453,-9178.553681,1332.370696,-995.924147
2763.267790,-9326.594869,962.267725,-995.924147
2763.268128,-9400.615463,444.123565,-1072.533697
2763.268465,-9474.636058,592.164754,-1225.752797
2763.268802,-9622.677246,74.020594,-995.924147
2763.269139,-9770.718434,0.000000,-459.657299
2763.269477,-9918.759623,-1480.411884,0.000000
2763.269814,-10214.842000,-1110.308913,459.657299
2763.270151,-9548.656652,-1332.370696,76.609550
2763.270488,-10436.903782,-1702.473667,76.609550
2763.270825,-9992.780217,-2368.659014,76.609550
2763.271163,-10066.800811,-2146.597232,459.657299
2763.271500,-10288.862594,-2146.597232,1072.533697
2763.271837,-9918.759623,-888.247130,536.266849
2763.272174,-11399.171507,-1924.535449,1608.800546
2763.272511,-10362.883188,-888.247130,842.705048
2763.272849,-10807.006753,-888.247130,919.314598
2763.273186,-11325.150913,-1184.329507,1685.410096
2763.273523,-10214.842000,-1332.370696,919.314598
2763.273860,-10436.903782,-814.226536,306.438199
2763.274197,-10436.903782,-1184.329507,0.000000
2763.274535,-9770.718434,-1036.288319,-306.438199
2763.274872,-10214.842000,-962.267725,-153.219100
2763.275209,-10584.944971,-962.267725,-842.705048
2763.275546,-10066.800811,0.000000,-766.095498
2763.275883,-10214.842000,-1036.288319,-995.924147
2763.276221,-9844.739029,-592.164754,0.000000
2763.276558,-9326.594869,-666.185348,306.438199
2763.276895,-10066.800811,-444.123565,1149.143247
2763.277232,-10288.862594,592.164754,1532.190996
2763.277569,-10362.883188,370.102971,842.705048
2763.277907,-9992.780217,666.185348,1225.752797
2763.278244,-9770.718434,296.082377,919.314598
2763.278581,-9400.615463,1184.329507,1991.848295
2763.278918,-9992.780217,1184.329507,2068.457845
2763.279255,-9474.636058,2368.659014,612.876398
2763.279593,-9252.574275,2220.617826,0.000000
2763.279930,-10066.800811,1480.411884,383.047749
2763.280267,-9696.697840,1924.535449,306.438199
2763.280604,-9400.615463,1702.473667,229.828649
2763.280941,-9326.594869,2072.576638,229.828649
2763.281279,-9622.677246,740.205942,0.000000
2763.281616,-10362.883188,888.247130,-689.485948
2763.281953,-10510.924376,222.061783,-842.705048
2763.282290,-10140.821405,-1036.288319,-842.705048
2763.282627,-9252.574275,-1332.370696,-995.924147
2763.282965,-9474.636058,-1702.473667,-1608.800546
2763.283302,-9918.759623,-2294.638420,-459.657299
2763.283639,-9622.677246,-2442.679609,-1455.581446
2763.283976,-9844.739029,-2590.720797,229.828649
2763.284313,-10881.027347,-1332.370696,459.657299
2763.284651,-10807.006753,-2294.638420,536.266849
2763.284988,-11251.130318,-1924.535449,1378.971896
2763.285325,-10362.883188,-1924.535449,1302.362347
2763.285662,-10807.006753,-1332.370696,1455.581446
2763.285999,-11695.253884,-1332.370696,1225.752797
2763.286337,-10436.903782,-1406.391290,919.314598
2763.286674,-10214.842000,-370.102971,1532.190996
2763.287011,-10214.842000,-444.123565,1149.143247
2763.287348,-10066.800811,518.144159,766.095498
2763.287685,-10288.862594,370.102971,0.000000
2763.288023,-9992.780217,888.247130,0.000000
2763.288360,-9622.677246,1406.391290,-153.219100
2763.288697,-9696.697840,1332.370696,536.266849
2763.289034,-9696.697840,666.185348,0.000000
2763.289372,-9622.677246,444.123565,-536.266849
2763.289709,-9770.718434,1184.329507,-383.047749
2763.290046,-9474.636058,-222.061783,-842.705048
2763.290383,-9252.574275,0.000000,0.000000
2763.290721,-8882.471304,-370.102971,-306.438199
2763.291058,-9252.574275,0.000000,153.219100
2763.291395,-9030.512492,0.000000,76.609550
2763.291732,-9548.656652,0.000000,0.000000
2763.292069,-10066.800811,-370.102971,842.705048
2763.292407,-9770.718434,740.205942,612.876398
2763.292744,-9770.718434,370.102971,1685.410096
2763.293081,-10436.903782,592.164754,1378.971896
2763.293418,-10066.800811,-296.082377,1149.143247
2763.293756,-11103.089130,0.000000,612.876398
2763.294093,-10066.800811,-370.102971,995.924147
2763.294430,-10066.800811,-666.185348,229.828649
2763.294767,-9992.780217,-962.267725,0.000000
2763.295105,-10066.800811,-962.267725,-383.047749
2763.295442,-9696.697840,-962.267725,-536.266849
2763.295779,-10288.862594,-1776.494261,-459.657299
2763.296116,-10362.883188,-1110.308913,-536.266849
2763.296454,-10436.903782,-1998.556043,-995.924147
2763.296791,-10732.986159,-1554.432478,0.000000
2763.297128,-10362.883188,-2442.679609,-612.876398
2763.297465,-10584.944971,-2442.679609,153.219100
2763.297802,-10288.862594,-2664.741391,536.266849
2763.298140,-10066.800811,-2368.659014,0.000000
2763.298477,-10140.821405,-1776.494261,383.047749
2763.298814,-10510.924376,-1850.514855,306.438199
2763.299151,-10140.821405,-1406.391290,1072.533697
2763.299489,-9992.780217,-814.226536,1149.143247
2763.299826,-9992.780217,518.144159,1455.581446
2763.300163,-10214.842000,444.123565,1685.410096
2763.300500,-10362.883188,1110.308913,1915.238745
2763.300838,-9918.759623,1406.391290,1838.629195
2763.301175,-9918.759623,1628.453072,1532.190996
2763.301512,-10288.862594,2442.679609,459.657299
2763.301849,-10140.821405,1998.556043,0.000000
2763.302187,-9104.533087,1850.514855,-306.438199
2763.302524,-8956.491898,1850.514855,-383.047749
2763.302861,-9252.574275,1776.494261,-612.876398
2763.303198,-9030.512492,740.205942,-766.095498
2763.303535,-9548.656652,592.164754,-995.924147
2763.303873,-9474.636058,592.164754,-842.705048
2763.304210,-8956.491898,74.020594,-306.438199
2763.304547,-9030.512492,0.000000,459.657299
2763.304884,-9992.780217,-666.185348,383.047749
2763.305222,-10214.842000,-148.041188,536.266849
2763.305559,-10510.924376,-148.041188,229.828649
2763.305896,-9992.780217,-1110.308913,0.000000
2763.306233,-9844.739029,-1850.514855,689.485948
2763.306571,-10140.821405,-1702.473667,766.095498
2763.306908,-10807.006753,-888.247130,1072.533697
2763.307245,-10066.800811,-962.267725,1072.533697
2763.307582,-10288.862594,-1406.391290,1149.143247
2763.307920,-10510.924376,-1036.288319,1072.533697
2763.308257,-10881.027347,-518.144159,1302.362347
2763.308594,-11029.068536,0.000000,1302.362347
2763.308931,-10881.027347,-1036.288319,536.266849
2763.309268,-10288.862594,-444.123565,76.609550
2763.309606,-10436.903782,-1036.288319,306.438199
2763.309943,-10214.842000,-1110.308913,0.000000
2763.310280,-10066.800811,-666.185348,-919.314598
2763.310617,-10066.800811,-962.267725,-459.657299
2763.310955,-10066.800811,-888.247130,-995.924147
2763.311292,-9548.656652,-1406.391290,-1532.190996
2763.311629,-9844.739029,-888.247130,-689.485948
2763.311966,-9400.615463,-962.267725,0.000000
2763.312304,-9844.739029,-666.185348,536.266849
2763.312641,-9992.780217,0.000000,1225.752797
2763.312978,-9918.759623,222.061783,459.657299
2763.313315,-9992.780217,518.144159,995.924147
2763.313653,-10140.821405,74.020594,919.314598
2763.313990,-9400.615463,592.164754,1608.800546
2763.314327,-9696.697840,1036.288319,766.095498
2763.314664,-9474.636058,1184.329507,612.876398
2763.315001,-9326.594869,1406.391290,459.657299
2763.315339,-9992.780217,1554.432478,229.828649
2763.315676,-9844.739029,2072.576638,383.047749
2763.316013,-9622.677246,1184.329507,-153.219100
2763.316350,-9696.697840,1184.329507,459.657299
2763.316688,-9474.636058,740.205942,0.000000
2763.317025,-9548.656652,666.185348,-766.095498
2763.317362,-10362.883188,-370.102971,-536.266849
2763.317699,-10066.800811,-1110.308913,-919.314598
2763.318037,-9548.656652,-1998.556043,-995.924147
2763.318374,-9696.697840,-2368.659014,-1532.190996
2763.318711,-9474.636058,-2738.761985,-536.266849
2763.319048,-9696.697840,-3034.844362,-612.876398
2763.319386,-9918.759623,-2516.700203,153.219100
2763.319723,-10732.986159,-2294.638420,842.705048
2763.320060,-10658.965565,-2220.617826,76.609550
2763.320397,-10881.027347,-1924.535449,919.314598
2763.320734,-10584.944971,-2590.720797,1762.019645
2763.321072,-10732.986159,-1554.432478,1991.848295
2763.321409,-10807.006753,-1406.391290,1915.238745
2763.321746,-10658.965565,-814.226536,1762.019645
2763.322083,-10362.883188,-888.247130,1762.019645
2763.322421,-10955.047942,0.000000,2068.457845
2763.322758,-10214.842000,666.185348,153.219100
2763.323095,-10436.903782,370.102971,689.485948
2763.323432,-10362.883188,1110.308913,612.876398
2763.323770,-9178.553681,1332.370696,-536.266849
2763.324107,-9770.718434,1110.308913,459.657299
2763.324444,-10214.842000,1332.370696,0.000000
2763.324781,-9622.677246,1036.288319,-842.705048
2763.325119,-9770.718434,1332.370696,-766.095498
2763.325456,-9622.677246,518.144159,-766.095498
2763.325793,-8882.471304,370.102971,-229.828649
2763.326130,-9178.553681,222.061783,229.828649
2763.326467,-9178.553681,888.247130,229.828649
2763.326805,-9474.636058,518.144159,0.000000
2763.327142,-10066.800811,370.102971,0.000000
2763.327479,-9992.780217,0.000000,459.657299
2763.327816,-9400.615463,740.205942,1532.190996
2763.328154,-9622.677246,1480.411884,1838.629195
2763.328491,-10362.883188,814.226536,1685.410096
2763.328828,-10658.965565,666.185348,1149.143247
2763.329165,-10436.903782,962.267725,689.485948
2763.329503,-10214.842000,0.000000,1072.533697
2763.329840,-10288.862594,222.061783,612.876398
2763.330177,-10436.903782,-666.185348,-612.876398
2763.330514,-9992.780217,-518.144159,-459.657299
2763.330852,-9326.594869,-814.226536,-1149.143247
2763.331189,-10066.800811,-666.185348,-383.047749
2763.331526,-10658.965565,-1850.514855,-306.438199
2763.331863,-10510.924376,-1184.329507,-919.314598
2763.332201,-10732.986159,-1776.494261,-689.485948
2763.332538,-10732.986159,-1702.473667,-76.609550
2763.332875,-10066.800811,-2294.638420,-536.266849
2763.333212,-10288.862594,-2886.803174,536.266849
2763.333549,-10066.800811,-2516.700203,612.876398
2763.333887,-10066.800811,-1628.453072,0.000000
2763.334224,-10584.944971,-2146.597232,383.047749
2763.334561,-10510.924376,-1258.350101,536.266849
2763.334898,-10140.821405,-1258.350101,1378.971896
2763.335236,-9844.739029,0.000000,1685.410096
2763.335573,-9770.718434,740.205942,1455.581446
2763.335910,-10436.903782,592.164754,2068.457845
2763.336247,-10436.903782,1036.288319,1991.848295
2763.336585,-9918.759623,1406.391290,995.924147
2763.336922,-10288.862594,2072.576638,536.266849
2763.337259,-9992.780217,1554.432478,229.828649
2763.337596,-9326.594869,1776.494261,-689.485948
2763.337934,-9104.533087,1332.370696,-689.485948
2763.338271,-9474.636058,1554.432478,-383.047749
2763.338608,-9104.533087,888.247130,-919.314598
2763.338945,-9400.615463,222.061783,-995.924147
2763.339282,-9252.574275,666.185348,-842.705048
2763.339620,-9474.636058,0.000000,-766.095498
2763.339957,-9326.594869,0.000000,0.000000
2763.340294,-9548.656652,-1258.350101,76.609550
2763.340631,-10066.800811,-1036.288319,919.314598
2763.340969,-10214.842000,-962.267725,153.219100
2763.341306,-10362.883188,-1850.514855,766.095498
2763.341643,-9992.780217,-1628.453072,229.828649
2763.341980,-10140.821405,-2072.576638,383.047749
2763.342318,-10584.944971,-1036.288319,1225.752797
2763.342655,-10288.862594,-1332.370696,766.095498
2763.342992,-10140.821405,-962.267725,842.705048
2763.343329,-10807.006753,-1036.288319,1225.752797
2763.343667,-10732.986159,-740.205942,842.705048
2763.344004,-10955.047942,-592.164754,1608.800546
2763.344341,-10807.006753,-814.226536,842.705048
2763.344678,-10066.800811,-962.267725,306.438199
2763.345015,-10436.903782,-888.247130,306.438199
2763.345353,-10066.800811,-962.267725,-306.438199
2763.345690,-10066.800811,-518.144159,-919.314598
2763.346027,-10436.903782,-592.164754,-842.705048
2763.346364,-9622.677246,-592.164754,-1762.019645
2763.346702,-10066.800811,-444.123565,-1072.533697
2763.347039,-10140.821405,-370.102971,-612.876398
2763.347376,-9696.697840,-814.226536,76.609550
2763.347713,-10066.800811,-74.020594,995.924147
2763.348051,-10140.821405,74.020594,1072.533697
2763.348388,-10140.821405,518.144159,536.266849
2763.348725,-9992.780217,296.082377,1225.752797
2763.349062,-9622.677246,592.164754,1302.362347
2763.349400,-9548.656652,962.267725,1838.629195
2763.349737,-10066.800811,2146.597232,1149.143247
2763.350074,-9622.677246,2072.576638,76.609550
2763.350411,-9696.697840,1924.535449,459.657299
2763.350748,-9918.759623,1776.494261,612.876398
2763.351086,-9622.677246,2220.617826,1072.533697
2763.351423,-9252.574275,1406.391290,306.438199
2763.351760,-8808.450710,2072.576638,459.657299
2763.352097,-10436.903782,444.123565,842.705048
2763.352435,-10066.800811,1110.308913,-459.657299
2763.352772,-9770.718434,74.020594,-766.095498
2763.353109,-10140.821405,-740.205942,0.000000
2763.353446,-9474.636058,-1110.308913,-1149.143247
2763.353784,-9844.739029,-1702.473667,-842.705048
2763.354121,-10362.883188,-2220.617826,-766.095498
2763.354458,-9030.512492,-2368.659014,-689.485948
2763.354795,-10362.883188,-2294.638420,229.828649
2763.355133,-10955.047942,-2146.597232,306.438199
2763.355470,-10288.862594,-2072.576638,306.438199
2763.355807,-10955.047942,-2442.679609,995.924147
2763.356144,-10658.965565,-2072.576638,2068.457845
2763.356481,-10732.986159,-1480.411884,1838.629195
2763.356819,-11029.068536,-1258.350101,1532.190996
2763.357156,-10362.883188,-1110.308913,919.314598
2763.357493,-10584.944971,-888.247130,995.924147
2763.357830,-10658.965565,0.000000,1915.238745
2763.358168,-10510.924376,148.041188,536.266849
2763.358505,-10066.800811,444.123565,0.000000
2763.358842,-10066.800811,444.123565,0.000000
2763.359179,-9474.636058,888.247130,-153.219100
2763.359517,-9622.677246,888.247130,0.000000
2763.359854,-10140.821405,444.123565,0.000000
2763.360191,-9548.656652,222.061783,-919.314598
2763.360528,-9548.656652,666.185348,-1149.143247
2763.360866,-9918.759623,444.123565,-766.095498
2763.361203,-9326.594869,-592.164754,-919.314598
2763.361540,-9178.553681,-518.144159,-612.876398
2763.361877,-8956.491898,222.061783,0.000000
2763.362214,-9770.718434,74.020594,153.219100
2763.362552,-9622.677246,-222.061783,-153.219100
2763.362889,-9548.656652,74.020594,76.609550
2763.363226,-9770.718434,222.061783,1149.143247
2763.363563,-9622.677246,740.205942,919.314598
2763.363901,-10436.903782,296.082377,1455.581446
2763.364238,-10510.924376,666.185348,1072.533697
2763.364575,-9844.739029,-296.082377,919.314598
2763.364912,-10140.821405,-370.102971,1378.971896
2763.365250,-10140.821405,-666.185348,0.000000
2763.365587,-10214.842000,-740.205942,0.000000
2763.365924,-10436.903782,-1258.350101,-536.266849
2763.366261,-9474.636058,-1480.411884,-612.876398
2763.366599,-9992.780217,-814.226536,0.000000
2763.366936,-10584.944971,-1776.494261,-383.047749
2763.367273,-10214.842000,-1258.350101,-766.095498
2763.367610,-10732.986159,-1702.473667,-995.924147
2763.367947,-10732.986159,-2294.638420,-229.828649
2763.368285,-10140.821405,-2516.700203,229.828649
2763.368622,-10510.924376,-2960.823768,689.485948
2763.368959,-10066.800811,-2590.720797,383.047749
2763.369296,-10066.800811,-1554.432478,612.876398
2763.369634,-10658.965565,-1110.308913,842.705048
2763.369971,-10510.924376,-1480.411884,919.314598
2763.370308,-9770.718434,-1184.329507,842.705048
2763.370645,-9992.780217,222.061783,1991.848295
2763.370983,-10362.883188,1110.308913,2221.676944
2763.371320,-9844.739029,666.185348,1532.190996
2763.371657,-10436.903782,2146.597232,1762.019645
2763.371994,-10066.800811,1554.432478,1838.629195
2763.372332,-10214.842000,2442.679609,536.266849
2763.372669,-9918.759623,1702.473667,0.000000
2763.373006,-9030.512492,2072.576638,-766.095498
2763.373343,-9252.574275,1924.535449,-459.657299
2763.373680,-9252.574275,2146.597232,-842.705048
2763.374018,-9104.533087,888.247130,-766.095498
2763.374355,-9918.759623,814.226536,-1149.143247
2763.374692,-9400.615463,740.205942,-689.485948
2763.375029,-9030.512492,888.247130,-383.047749
2763.375367,-8956.491898,74.020594,0.000000
2763.375704,-9770.718434,-740.205942,689.485948
2763.376041,-10066.800811,0.000000,0.000000
2763.376378,-10140.821405,-518.144159,0.000000
2763.376716,-9844.739029,-1036.288319,689.485948
2763.377053,-10584.944971,-1110.308913,689.485948
2763.377390,-10584.944971,-1702.473667,153.219100
2763.377727,-10288.862594,-1110.308913,536.266849
2763.378065,-10288.862594,-962.267725,612.876398
2763.378402,-10584.944971,-296.082377,842.705048
2763.378739,-10807.006753,-888.247130,919.314598
2763.379076,-10881.027347,-666.185348,1149.143247
2763.379414,-11029.068536,-296.082377,842.705048
2763.379751,-11177.109724,-740.205942,766.095498
2763.380088,-10436.903782,-814.226536,383.047749
2763.380425,-10436.903782,-814.226536,0.000000
2763.380762,-10140.821405,-1036.288319,0.000000
2763.381100,-9696.697840,-1184.329507,-612.876398
2763.381437,-10140.821405,-1184.329507,-689.485948
2763.381774,-10510.924376,-1258.350101,-1149.143247
2763.382111,-9622.677246,-814.226536,-1302.362347
2763.382449,-9474.636058,-1184.329507,-1072.533697
2763.382786,-9622.677246,-1184.329507,0.000000
2763.383123,-9696.697840,-888.247130,842.705048
2763.383460,-10362.883188,74.020594,1455.581446
2763.383798,-10436.903782,0.000000,612.876398
2763.384135,-9770.718434,-74.020594,995.924147
2763.384472,-9918.759623,-222.061783,1762.019645
2763.384809,-9622.677246,814.226536,1378.971896
2763.385147,-9622.677246,666.185348,1532.190996
2763.385484,-9474.636058,1110.308913,995.924147
2763.385821,-9474.636058,1184.329507,153.219100
2763.386158,-9918.759623,1776.494261,536.266849
2763.386495,-10066.800811,1554.432478,536.266849
2763.386833,-9696.697840,1184.329507,76.609550
2763.387170,-9918.759623,1110.308913,229.828649
2763.387507,-9622.677246,370.102971,306.438199
2763.387844,-9474.636058,296.082377,-306.438199
2763.388182,-10140.821405,-592.164754,-536.266849
2763.388519,-10140.821405,-888.247130,-153.219100
2763.388856,-9918.759623,-1924.535449,-689.485948
2763.389193,-9622.677246,-1628.453072,-1072.533697
2763.389531,-9622.677246,-2072.576638,-536.266849
2763.389868,-9844.739029,-2516.700203,0.000000
2763.390205,-9918.759623,-2368.659014,0.000000
2763.390542,-10436.903782,-2294.638420,766.095498
2763.390880,-10955.047942,-2294.638420,995.924147
2763.391217,-10881.027347,-2442.679609,842.705048
2763.391554,-11325.150913,-2368.659014,2221.676944
2763.391892,-10362.883188,-1332.370696,1685.410096
2763.392229,-10807.006753,-1702.473667,1608.800546
2763.392566,-10362.883188,-1184.329507,1532.190996
2763.392903,-10214.842000,-444.123565,842.705048
2763.393241,-10436.903782,0.000000,766.095498
2763.393578,-10807.006753,296.082377,-229.828649
2763.393915,-9844.739029,444.123565,0.000000
2763.394252,-10214.842000,888.247130,0.000000
2763.394590,-9252.574275,444.123565,-306.438199
2763.394927,-9474.636058,1110.308913,0.000000
2763.395264,-10288.862594,740.205942,459.657299
2763.395602,-10066.800811,740.205942,-919.314598
2763.395939,-9326.594869,666.185348,-1378.971896
2763.396276,-9474.636058,0.000000,-842.705048
2763.396613,-9030.512492,222.061783,-383.047749
2763.396951,-9252.574275,592.164754,-536.266849
2763.397288,-8956.491898,666.185348,0.000000
2763.397625,-9474.636058,592.164754,0.000000
2763.397963,-9918.759623,74.020594,229.828649
2763.398300,-9622.677246,814.226536,919.314598
2763.398637,-9400.615463,296.082377,1455.581446
2763.398974,-9474.636058,814.226536,1608.800546
2763.399312,-10214.842000,1110.308913,2221.676944
2763.399649,-10732.986159,518.144159,1685.410096
2763.399986,-10214.842000,222.061783,919.314598
2763.400323,-9992.780217,666.185348,766.095498
2763.400661,-10362.883188,0.000000,612.876398
2763.400998,-10288.862594,0.000000,-1072.533697
2763.401335,-9918.759623,-888.247130,-306.438199
2763.401673,-9548.656652,0.000000,-689.485948
2763.402010,-9622.677246,-1480.411884,-459.657299
2763.402347,-11103.089130,-1406.391290,0.000000
2763.402684,-10362.883188,-1480.411884,-383.047749
2763.403022,-10436.903782,-1924.535449,-919.314598
2763.403359,-10881.027347,-2072.576638,76.609550
2763.403696,-10288.862594,-2368.659014,-383.047749
2763.404034,-10288.862594,-2664.741391,766.095498
2763.404371,-9992.780217,-2516.700203,153.219100
2763.404708,-9770.718434,-2146.597232,229.828649
2763.405045,-10732.986159,-1554.432478,0.000000
2763.405383,-10658.965565,-2072.576638,689.485948
2763.405720,-9770.718434,-1332.370696,612.876398
2763.406057,-9844.739029,0.000000,1532.190996
2763.406395,-10066.800811,222.061783,1532.190996
2763.406732,-10214.842000,518.144159,1838.629195
2763.407069,-10362.883188,1036.288319,1302.362347
2763.407406,-10214.842000,1406.391290,995.924147
2763.407744,-9992.780217,1628.453072,612.876398
2763.408081,-10066.800811,1480.411884,229.828649
2763.408418,-9474.636058,1480.411884,-1149.143247
2763.408755,-8956.491898,1258.350101,-1149.143247
2763.409093,-9178.553681,1110.308913,-1225.752797
2763.409430,-9030.512492,370.102971,-1225.752797
2763.409767,-9252.574275,370.102971,-383.047749
2763.410105,-9030.512492,74.020594,-995.924147
2763.410442,-9252.574275,0.000000,-1072.533697
2763.410779,-9400.615463,-740.205942,-459.657299
2763.411116,-9918.759623,-444.123565,612.876398
2763.411454,-10214.842000,-1184.329507,76.609550
2763.411791,-9770.718434,-592.164754,76.609550
2763.412128,-10362.883188,-1332.370696,306.438199
2763.412466,-10288.862594,-2294.638420,919.314598
2763.412803,-10140.821405,-1850.514855,76.609550
2763.413140,-10066.800811,-1554.432478,1072.533697
2763.413477,-10436.903782,-1480.411884,919.314598
2763.413815,-10066.800811,-1184.329507,689.485948
2763.414152,-11029.068536,-1480.411884,1378.971896
2763.414489,-10362.883188,-444.123565,1072.533697
2763.414826,-10955.047942,-518.144159,842.705048
2763.415164,-11177.109724,-888.247130,995.924147
2763.415501,-10140.821405,-592.164754,229.828649
2763.415838,-10510.924376,-1110.308913,383.047749
2763.416176,-10436.903782,-740.205942,0.000000
2763.416513,-10214.842000,-962.267725,76.609550
2763.416850,-10362.883188,-888.247130,-383.047749
2763.417187,-9918.759623,-740.205942,-1455.581446
2763.417525,-9622.677246,-370.102971,-1302.362347
2763.417862,-9918.759623,-666.185348,-459.657299
2763.418199,-9770.718434,-666.185348,383.047749
2763.418537,-9548.656652,0.000000,689.485948
2763.418874,-9918.759623,-74.020594,842.705048
2763.419211,-9844.739029,888.247130,766.095498
2763.419548,-10140.821405,74.020594,1225.752797
2763.419886,-10066.800811,444.123565,2451.505594
2763.420223,-9622.677246,1110.308913,1838.629195
2763.420560,-9992.780217,2072.576638,1762.019645
2763.420897,-9548.656652,2220.617826,306.438199
2763.421235,-9770.718434,1628.453072,383.047749
2763.421572,-9918.759623,1554.432478,383.047749
2763.421909,-9474.636058,2738.761985,229.828649
2763.422247,-9474.636058,1776.494261,383.047749
2763.422584,-9326.594869,1702.473667,153.219100
2763.422921,-10140.821405,1406.391290,306.438199
2763.423258,-10066.800811,1406.391290,0.000000
2763.423596,-9844.739029,222.061783,-995.924147
2763.423933,-10510.924376,-518.144159,-383.047749
2763.424270,-10288.862594,-888.247130,-689.485948
2763.424608,-9696.697840,-2072.576638,-1225.752797
2763.424945,-9992.780217,-1628.453072,-612.876398
2763.425282,-9474.636058,-2516.700203,-689.485948
2763.425619,-9992.780217,-1924.535449,0.000000
2763.425957,-10732.986159,-2294.638420,76.609550
2763.426294,-10288.862594,-1776.494261,229.828649
2763.426631,-10732.986159,-1924.535449,919.314598
2763.426968,-11399.171507,-1776.494261,1532.190996
2763.427306,-10807.006753,-1554.432478,1685.410096
2763.427643,-11251.130318,-1110.308913,1302.362347
2763.427980,-10584.944971,-1332.370696,1302.362347
2763.428318,-10066.800811,-888.247130,919.314598
2763.428655,-10584.944971,-518.144159,1302.362347
2763.428992,-10436.903782,74.020594,1072.533697
2763.429329,-10140.821405,296.082377,-306.438199
2763.429667,-9548.656652,444.123565,-459.657299
2763.430004,-9622.677246,444.123565,0.000000
2763.430341,-9474.636058,370.102971,-229.828649
2763.430679,-9770.718434,370.102971,-153.219100
2763.431016,-9844.739029,148.041188,-766.095498
2763.431353,-9548.656652,222.061783,-919.314598
2763.431690,-9622.677246,222.061783,-995.924147
2763.432028,-9548.656652,-444.123565,-383.047749
2763.432365,-8956.491898,-222.061783,-766.095498
2763.432702,-8956.491898,-222.061783,0.000000
2763.433040,-9178.553681,0.000000,153.219100
2763.433377,-9548.656652,-74.020594,306.438199
2763.433714,-10066.800811,296.082377,842.705048
2763.434051,-10066.800811,370.102971,1302.362347
2763.434389,-9992.780217,1036.288319,2221.676944
2763.434726,-10510.924376,296.082377,1915.238745
2763.435063,-9918.759623,370.102971,842.705048
2763.435400,-9844.739029,0.000000,1072.533697
2763.435738,-10436.903782,74.020594,1685.410096
2763.436075,-10140.821405,0.000000,766.095498
2763.436412,-10510.924376,0.000000,229.828649
2763.436750,-9918.759623,-518.144159,-536.266849
2763.437087,-9548.656652,-888.247130,-612.876398
2763.437424,-9992.780217,-1184.329507,-383.047749
2763.437761,-10288.862594,-1776.494261,-153.219100
2763.438099,-9918.759623,-1406.391290,-536.266849
2763.438436,-10584.944971,-1406.391290,-229.828649
2763.438773,-11029.068536,-2368.659014,-153.219100
2763.439111,-10140.821405,-2516.700203,-153.219100
2763.439448,-10436.903782,-2442.679609,459.657299
2763.439785,-10436.903782,-2072.576638,459.657299
2763.440122,-9844.739029,-1776.494261,229.828649
2763.440460,-11177.109724,-666.185348,383.047749
2763.440797,-11029.068536,-1258.350101,766.095498
2763.441134,-9992.780217,-666.185348,536.266849
2763.441471,-9918.759623,-222.061783,1378.971896
2763.441809,-10214.842000,1258.350101,1991.848295
2763.442146,-10362.883188,666.185348,1608.800546
2763.442483,-9770.718434,1258.350101,1608.800546
2763.442821,-9844.739029,1924.535449,995.924147
2763.443158,-10436.903782,1998.556043,842.705048
2763.443495,-10214.842000,1776.494261,153.219100
2763.443832,-9474.636058,2368.659014,-536.266849
2763.444170,-9030.512492,2146.597232,-919.314598
2763.444507,-8882.471304,1554.432478,-919.314598
2763.444844,-9474.636058,888.247130,-995.924147
2763.445182,-9326.594869,518.144159,-995.924147
2763.445519,-9326.594869,1184.329507,-459.657299
2763.445856,-9178.553681,0.000000,-306.438199
2763.446193,-9474.636058,0.000000,229.828649
2763.446531,-9992.780217,-592.164754,995.924147
2763.446868,-10288.862594,-222.061783,0.000000
2763.447205,-9696.697840,-444.123565,536.266849
2763.447542,-10436.903782,-518.144159,689.485948
2763.447880,-10140.821405,-1776.494261,689.485948
2763.448217,-10288.862594,-1332.370696,995.924147
2763.448554,-9918.759623,-740.205942,459.657299
2763.448892,-10214.842000,-1258.350101,536.266849
2763.449229,-10362.883188,-888.247130,689.485948
2763.449566,-10881.027347,-740.205942,1455.581446
2763.449903,-10732.986159,-962.267725,1225.752797
2763.450241,-10658.965565,-370.102971,459.657299
2763.450578,-11325.150913,-370.102971,1302.362347
2763.450915,-10955.047942,-888.247130,229.828649
2763.451253,-9770.718434,-1332.370696,-229.828649
2763.451590,-10436.903782,-740.205942,76.609550
2763.451927,-10066.800811,-1332.370696,-612.876398
2763.452264,-10584.944971,-1036.288319,-1149.143247
2763.452602,-10436.903782,-1480.411884,-1225.752797
2763.452939,-9474.636058,-814.226536,-1838.629195
2763.453276,-9548.656652,-1332.370696,-612.876398
2763.453614,-9770.718434,-1110.308913,0.000000
2763.453951,-9474.636058,-888.247130,689.485948
2763.454288,-10732.986159,0.000000,995.924147
2763.454625,-9622.677246,-444.123565,459.657299
2763.454963,-9918.759623,0.000000,1072.533697
2763.455300,-10140.821405,0.000000,1302.362347
2763.455637,-9696.697840,370.102971,766.095498
2763.455974,-9622.677246,1184.329507,995.924147
2763.456312,-9474.636058,888.247130,153.219100
2763.456649,-9548.656652,1184.329507,612.876398
2763.456986,-9770.718434,1480.411884,153.219100
2763.457324,-9696.697840,1924.535449,0.000000
2763.457661,-9400.615463,1184.329507,0.000000
2763.457998,-9770.718434,444.123565,76.609550
2763.458335,-9770.718434,592.164754,306.438199
2763.458673,-9548.656652,592.164754,-689.485948
2763.459010,-9770.718434,-740.205942,-842.705048
2763.459347,-10288.862594,-814.226536,-766.095498
2763.459685,-9844.739029,-1332.370696,-919.314598
2763.460022,-9548.656652,-1924.535449,-1072.533697
2763.460359,-9474.636058,-2294.638420,-1149.143247
2763.460696,-9548.656652,-2738.761985,0.000000
2763.461034,-10066.800811,-2368.659014,76.609550
2763.461371,-10584.944971,-2146.597232,689.485948
2763.461708,-10584.944971,-1776.494261,153.219100
2763.462045,-10584.944971,-2368.659014,1149.143247
2763.462383,-11251.130318,-1850.514855,1608.800546
2763.462720,-10362.883188,-1332.370696,1838.629195
2763.463057,-10658.965565,-1406.391290,1762.019645
2763.463395,-10955.047942,-888.247130,1762.019645
2763.463732,-10807.006753,-148.041188,1072.533697
2763.464069,-10288.862594,0.000000,1149.143247
2763.464406,-10732.986159,148.041188,689.485948
2763.464744,-10214.842000,592.164754,0.000000
2763.465081,-9918.759623,666.185348,229.828649
2763.465418,-9548.656652,814.226536,612.876398
2763.465756,-9474.636058,888.247130,-459.657299
2763.466093,-10510.924376,1480.411884,153.219100
2763.466430,-9918.759623,888.247130,-766.095498
2763.466767,-9326.594869,444.123565,-306.438199
2763.467105,-9844.739029,518.144159,612.876398
2763.467442,-9326.594869,0.000000,-153.219100
2763.467779,-9030.512492,1036.288319,0.000000
2763.468116,-9178.553681,74.020594,-383.047749
2763.468454,-10066.800811,888.247130,153.219100
2763.468791,-9770.718434,0.000000,229.828649
2763.469128,-9474.636058,814.226536,842.705048
2763.469466,-9474.636058,444.123565,1608.800546
2763.469803,-9548.656652,1184.329507,1915.238745
2763.470140,-10214.842000,1332.370696,1225.752797
2763.470477,-10732.986159,740.205942,1225.752797
2763.470815,-10140.821405,740.205942,1149.143247
2763.471152,-10362.883188,592.164754,842.705048
2763.471489,-11029.068536,148.041188,459.657299
2763.471827,-10140.821405,222.061783,-995.924147
2763.472164,-10066.800811,-888.247130,-536.266849
2763.472501,-9548.656652,-1036.288319,-459.657299
2763.472838,-9474.636058,-888.247130,-689.485948
2763.473176,-10658.965565,-1184.329507,0.000000
2763.473513,-10510.924376,-1110.308913,-1072.533697
2763.473850,-10214.842000,-1776.494261,-766.095498
2763.474187,-11103.089130,-2220.617826,0.000000
2763.474525,-10288.862594,-2442.679609,0.000000
2763.474862,-10140.821405,-3034.844362,689.485948
2763.475199,-9992.780217,-2590.720797,612.876398
2763.475537,-9918.759623,-1776.494261,0.000000
2763.475874,-10584.944971,-1628.453072,0.000000
2763.476211,-10584.944971,-1924.535449,536.266849
2763.476548,-9918.759623,-1036.288319,842.705048
2763.476886,-10140.821405,-74.020594,1225.752797
2763.477223,-10214.842000,592.164754,2451.505594
2763.477560,-10214.842000,148.041188,1225.752797
2763.477898,-10436.903782,888.247130,2145.067394
2763.478235,-9918.759623,1332.370696,1378.971896
2763.478572,-10066.800811,1480.411884,995.924147
2763.478909,-10140.821405,1480.411884,0.000000
2763.479247,-9400.615463,1184.329507,-612.876398
2763.479584,-9030.512492,1184.329507,-842.705048
2763.479921,-8808.450710,740.205942,-766.095498
2763.480259,-9252.574275,814.226536,-842.705048
2763.480596,-9400.615463,592.164754,-919.314598
2763.480933,-9178.553681,444.123565,-1378.971896
2763.481270,-9474.636058,-296.082377,-612.876398
2763.481608,-9548.656652,0.000000,-536.266849
2763.481945,-9622.677246,-1036.288319,536.266849
2763.482282,-10140.821405,-1036.288319,612.876398
2763.482619,-9548.656652,-1332.370696,766.095498
2763.482957,-10362.883188,-962.267725,842.705048
2763.483294,-10584.944971,-1850.514855,995.924147
2763.483631,-10510.924376,-1480.411884,383.047749
2763.483969,-10362.883188,-962.267725,1378.971896
2763.484306,-10881.027347,-518.144159,689.485948
2763.484643,-10362.883188,-962.267725,306.438199
2763.484980,-11029.068536,-1036.288319,1225.752797
2763.485318,-10214.842000,-444.123565,766.095498
2763.485655,-10658.965565,-592.164754,1149.143247
2763.485992,-11029.068536,-444.123565,995.924147
2763.486330,-10214.842000,-1036.288319,0.000000
2763.486667,-10288.862594,-592.164754,383.047749
2763.487004,-10140.821405,-592.164754,0.000000
2763.487341,-10288.862594,-962.267725,-306.438199
2763.487679,-10510.924376,-296.082377,-995.924147
2763.488016,-9918.759623,-1184.329507,-1455.581446
2763.488353,-9918.759623,-222.061783,-1532.190996
2763.488690,-9918.759623,-1184.329507,-689.485948
2763.489028,-10066.800811,-740.205942,536.266849
2763.489365,-9400.615463,-888.247130,306.438199
2763.489702,-9918.759623,0.000000,1149.143247
2763.490040,-10140.821405,0.000000,536.266849
2763.490377,-10214.842000,592.164754,1149.143247
2763.490714,-10066.800811,444.123565,1532.190996
2763.491052,-9992.780217,1628.453072,1532.190996
2763.491389,-9770.718434,1924.535449,766.095498
2763.491726,-9178.553681,2146.597232,153.219100
2763.492064,-9770.718434,1332.370696,995.924147
2763.492401,-9548.656652,1554.432478,383.047749
2763.492739,-9252.574275,2220.617826,0.000000
2763.493076,-9178.553681,1702.473667,842.705048
2763.493413,-9844.739029,1110.308913,229.828649
2763.493751,-9844.739029,888.247130,153.219100
2763.494088,-9918.759623,888.247130,0.000000
2763.494425,-9474.636058,666.185348,-536.266849
2763.494763,-10436.903782,-518.144159,-536.266849
2763.495100,-10066.800811,-666.185348,-689.485948
2763.495438,-9992.780217,-1258.350101,-1302.362347
2763.495775,-9474.636058,-2368.659014,-536.266849
2763.496112,-9696.697840,-2516.700203,-383.047749
2763.496450,-10140.821405,-2368.659014,229.828649
2763.496787,-11029.068536,-2368.659014,1072.533697
2763.497125,-10214.842000,-1702.473667,306.438199
2763.497462,-11029.068536,-2220.617826,919.314598
2763.497799,-11251.130318,-1702.473667,1915.238745
2763.498137,-11103.089130,-1554.432478,1762.019645
2763.498474,-10955.047942,-666.185348,1762.019645
2763.498812,-10436.903782,-1406.391290,842.705048
2763.499149,-10288.862594,-666.185348,842.705048
2763.499486,-10658.965565,-444.123565,766.095498
2763.499824,-10510.924376,0.000000,995.924147
2763.500161,-10140.821405,0.000000,-536.266849
2763.500499,-9918.759623,222.061783,153.219100
2763.500836,-10066.800811,518.144159,306.438199
2763.501173,-9770.718434,74.020594,0.000000
2763.501511,-10362.883188,370.102971,-459.657299
2763.501848,-9548.656652,740.205942,-612.876398
2763.502186,-9844.739029,0.000000,-995.924147
2763.502523,-9326.594869,0.000000,-612.876398
2763.502860,-9770.718434,-296.082377,-1149.143247
2763.503198,-9326.594869,-148.041188,-306.438199
2763.503535,-9474.636058,-444.123565,-459.657299
2763.503873,-9326.594869,0.000000,153.219100
2763.504210,-9622.677246,0.000000,153.219100
2763.504547,-9548.656652,0.000000,919.314598
2763.504885,-10362.883188,296.082377,689.485948
2763.505222,-9548.656652,666.185348,1302.362347
2763.505560,-9918.759623,666.185348,1378.971896
2763.505897,-10362.883188,222.061783,766.095498
2763.506234,-9918.759623,518.144159,995.924147
2763.506572,-10140.821405,296.082377,1302.362347
2763.506909,-10436.903782,-370.102971,766.095498
2763.507246,-10066.800811,0.000000,-383.047749
2763.507584,-9844.739029,-518.144159,-766.095498
2763.507921,-9548.656652,-1258.350101,-766.095498
2763.508259,-10066.800811,-1184.329507,-766.095498
2763.508596,-10436.903782,-1480.411884,-306.438199
2763.508933,-9548.656652,-2146.597232,-919.314598
2763.509271,-10288.862594,-1702.473667,-76.609550
2763.509608,-11029.068536,-2072.576638,0.000000
2763.509946,-10066.800811,-2368.659014,0.000000
2763.510283,-10510.924376,-2368.659014,306.438199
2763.510620,-10288.862594,-2146.597232,612.876398
2763.510958,-10362.883188,-1554.432478,766.095498
2763.511295,-10658.965565,-1480.411884,842.705048
2763.511633,-10732.986159,-1110.308913,1608.800546
2763.511970,-9844.739029,-740.205942,612.876398
2763.512307,-9918.759623,0.000000,1608.800546
2763.512645,-10658.965565,740.205942,1991.848295
2763.512982,-9992.780217,666.185348,1608.800546
2763.513320,-10140.821405,1184.329507,1608.800546
2763.513657,-10066.800811,1776.494261,1378.971896
2763.513994,-9844.739029,1776.494261,919.314598
2763.514332,-9844.739029,1924.535449,76.609550
2763.514669,-9696.697840,1480.411884,-153.219100
2763.515007,-8808.450710,2368.659014,-919.314598
2763.515344,-9178.553681,1110.308913,-842.705048
2763.515681,-9548.656652,1258.350101,-995.924147
2763.516019,-9252.574275,666.185348,-1302.362347
2763.516356,-8882.471304,740.205942,-689.485948
2763.516694,-9252.574275,370.102971,-306.438199
2763.517031,-9548.656652,0.000000,0.000000
2763.517368,-10362.883188,-518.144159,153.219100
2763.517706,-9474.636058,-592.164754,0.000000
2763.518043,-9696.697840,-222.061783,459.657299
2763.518381,-10362.883188,-740.205942,306.438199
2763.518718,-10362.883188,-1628.453072,459.657299
2763.519055,-10288.862594,-1258.350101,0.000000
2763.519393,-9918.759623,-1332.370696,612.876398
2763.519730,-10436.903782,-518.144159,1072.533697
2763.520067,-10288.862594,-1184.329507,459.657299
2763.520405,-10658.965565,-148.041188,1378.971896
2763.520742,-10732.986159,-666.185348,612.876398
2763.521080,-10807.006753,-296.082377,842.705048
2763.521417,-11251.130318,-888.247130,612.876398
2763.521754,-10510.924376,-666.185348,995.924147
2763.522092,-10066.800811,-1702.473667,612.876398
2763.522429,-9770.718434,-962.267725,0.000000
2763.522767,-9918.759623,-1184.329507,-383.047749
2763.523104,-10214.842000,-1332.370696,-1072.533697
2763.523441,-10288.862594,-1554.432478,-1225.752797
2763.523779,-9548.656652,-444.123565,-1685.410096
2763.524116,-9548.656652,-1258.350101,-766.095498
2763.524454,-9696.697840,-1036.288319,0.000000
2763.524791,-9474.636058,-1258.350101,0.000000
2763.525128,-10066.800811,-74.020594,919.314598
2763.525466,-9844.739029,0.000000,919.314598
2763.525803,-9918.759623,-518.144159,919.314598
2763.526141,-10362.883188,0.000000,1455.581446
2763.526478,-9770.718434,222.061783,1302.362347
2763.526815,-9696.697840,1258.350101,1532.190996
2763.527153,-9622.677246,1184.329507,689.485948
2763.527490,-9696.697840,1332.370696,612.876398
2763.527828,-9770.718434,1776.494261,306.438199
2763.528165,-9992.780217,2294.638420,229.828649
2763.528502,-9696.697840,1406.391290,0.000000
2763.528840,-9474.636058,74.020594,76.609550
2763.529177,-9474.636058,1258.350101,76.609550
2763.529515,-9622.677246,222.061783,0.000000
2763.529852,-9918.759623,-296.082377,-153.219100
2763.530189,-9770.718434,-1036.288319,-1072.533697
2763.530527,-10362.883188,-592.164754,0.000000
2763.530864,-9548.656652,-1776.494261,-995.924147
2763.531202,-9474.636058,-2368.659014,-766.095498
2763.531539,-10214.842000,-2146.597232,0.000000
2763.531876,-9770.718434,-2146.597232,0.000000
2763.532214,-10881.027347,-2442.679609,919.314598
2763.532551,-10658.965565,-1554.432478,536.266849
2763.532888,-11103.089130,-1554.432478,1302.362347
2763.533226,-11695.253884,-2146.597232,2298.286494
2763.533563,-10510.924376,-1406.391290,919.314598
2763.533901,-10140.821405,-1110.308913,1685.410096
2763.534238,-10955.047942,-666.185348,1838.629195
2763.534575,-10288.862594,-592.164754,1149.143247
2763.534913,-10436.903782,222.061783,612.876398
2763.535250,-10658.965565,222.061783,306.438199
2763.535588,-10214.842000,1184.329507,-306.438199
2763.535925,-10584.944971,296.082377,76.609550
2763.536262,-9474.636058,666.185348,0.000000
2763.536600,-9104.533087,592.164754,0.000000
2763.536937,-10140.821405,888.247130,0.000000
2763.537275,-9844.739029,592.164754,-842.705048
2763.537612,-9622.677246,296.082377,-1072.533697
2763.537949,-9548.656652,370.102971,-612.876398
2763.538287,-9548.656652,370.102971,-459.657299
2763.538624,-9104.533087,518.144159,-459.657299
2763.538962,-9326.594869,0.000000,-383.047749
2763.539299,-9622.677246,518.144159,612.876398
2763.539636,-9400.615463,518.144159,536.266849
2763.539974,-9548.656652,592.164754,1225.752797
2763.540311,-9548.656652,148.041188,1608.800546
2763.540649,-9548.656652,222.061783,1991.848295
2763.540986,-10436.903782,1998.556043,1762.019645
2763.541323,-10288.862594,518.144159,1225.752797
2763.541661,-10288.862594,1036.288319,1072.533697
2763.541998,-10214.842000,296.082377,1149.143247
2763.542336,-10881.027347,666.185348,689.485948
2763.542673,-10362.883188,-74.020594,-766.095498
2763.543010,-9770.718434,-296.082377,-689.485948
2763.543348,-9622.677246,-1036.288319,229.828649
2763.543685,-9992.780217,-592.164754,-306.438199
2763.544023,-10066.800811,-1480.411884,229.828649
2763.544360,-10288.862594,-1036.288319,-919.314598
2763.544697,-10436.903782,-1924.535449,-383.047749
2763.545035,-11251.130318,-1850.514855,-306.438199
2763.545372,-10066.800811,-2442.679609,0.000000
2763.545709,-9992.780217,-2664.741391,536.266849
2763.546047,-10288.862594,-2220.617826,919.314598
2763.546384,-10066.800811,-2220.617826,-76.609550
2763.546722,-10510.924376,-1776.494261,153.219100
2763.547059,-10955.047942,-1850.514855,766.095498
2763.547396,-9918.759623,-1258.350101,689.485948
2763.547734,-9548.656652,-444.123565,1608.800546
2763.548071,-10288.862594,148.041188,1838.629195
2763.548409,-9918.759623,296.082377,995.924147
2763.548746,-10732.986159,666.185348,1685.410096
2763.549083,-10288.862594,1554.432478,689.485948
2763.549421,-9844.739029,1036.288319,766.095498
2763.549758,-10510.924376,1702.473667,76.609550
2763.550096,-9622.677246,1036.288319,-842.705048
2763.550433,-9178.553681,1628.453072,-612.876398
2763.550770,-9178.553681,888.247130,-1072.533697
2763.551108,-9252.574275,1036.288319,-766.095498
2763.551445,-9030.512492,0.000000,-1608.800546
2763.551783,-8956.491898,740.205942,-1378.971896
2763.552120,-9696.697840,-148.041188,-383.047749
2763.552457,-9400.615463,-518.144159,-536.266849
2763.552795,-9252.574275,-814.226536,0.000000
2763.553132,-10584.944971,-666.185348,612.876398
2763.553470,-9474.636058,-1110.308913,229.828649
2763.553807,-10140.821405,-888.247130,459.657299
2763.554144,-10658.965565,-1924.535449,766.095498
2763.554482,-9918.759623,-1850.514855,919.314598
2763.554819,-10288.862594,-1184.329507,919.314598
2763.555157,-10584.944971,-962.267725,842.705048
2763.555494,-10510.924376,-888.247130,612.876398
2763.555831,-10732.986159,-1332.370696,1838.629195
2763.556169,-10066.800811,-370.102971,842.705048
2763.556506,-10584.944971,-296.082377,1302.362347
2763.556844,-11325.150913,-518.144159,995.924147
2763.557181,-10732.986159,-1036.288319,612.876398
2763.557518,-10214.842000,-1036.288319,459.657299
2763.557856,-10140.821405,-814.226536,383.047749
2763.558193,-10362.883188,-518.144159,0.000000
2763.558530,-10362.883188,-888.247130,-1072.533697
2763.558868,-10066.800811,-740.205942,-766.095498
2763.559205,-9918.759623,-888.247130,-1149.143247
2763.559543,-10066.800811,-444.123565,-153.219100
2763.559880,-9918.759623,-518.144159,383.047749
2763.560217,-9770.718434,-296.082377,612.876398
2763.560555,-9474.636058,74.020594,383.047749
2763.560892,-9696.697840,0.000000,919.314598
2763.561230,-10288.862594,-296.082377,1762.019645
2763.561567,-10214.842000,962.267725,1685.410096
2763.561904,-10362.883188,1406.391290,1915.238745
2763.562242,-9696.697840,2590.720797,689.485948
2763.562579,-9844.739029,1702.473667,306.438199
2763.562917,-10066.800811,1258.350101,919.314598
2763.563254,-9474.636058,1702.473667,0.000000
2763.563591,-9252.574275,2442.679609,383.047749
2763.563929,-9770.718434,2146.597232,383.047749
2763.564266,-9474.636058,1258.350101,-229.828649
2763.564604,-9770.718434,1036.288319,0.000000
2763.564941,-9474.636058,962.267725,-689.485948
2763.565278,-9696.697840,444.123565,-612.876398
2763.565616,-10807.006753,-444.123565,-612.876398
2763.565953,-10214.842000,-1036.288319,-1149.143247
2763.566291,-9548.656652,-1332.370696,-1302.362347
2763.566628,-9696.697840,-2146.597232,-459.657299
2763.566965,-9696.697840,-2516.700203,-459.657299
2763.567303,-10288.862594,-2368.659014,0.000000
2763.567640,-10732.986159,-1850.514855,459.657299
2763.567978,-10584.944971,-1702.473667,0.000000
2763.568315,-11177.109724,-1998.556043,689.485948
2763.568652,-11177.109724,-2146.597232,1915.238745
2763.568990,-10362.883188,-1776.494261,1149.143247
2763.569327,-10362.883188,-962.267725,1302.362347
2763.569665,-10066.800811,-1036.288319,1302.362347
2763.570002,-10288.862594,-1184.329507,1072.533697
2763.570339,-10584.944971,-444.123565,536.266849
2763.570677,-10584.944971,74.020594,842.705048
2763.571014,-10362.883188,148.041188,-612.876398
2763.571351,-9548.656652,0.000000,0.000000
2763.571689,-9770.718434,370.102971,229.828649
2763.572026,-9474.636058,-74.020594,0.000000
2763.572364,-9918.759623,444.123565,-229.828649
2763.572701,-9844.739029,370.102971,-995.924147
2763.573038,-9622.677246,0.000000,-995.924147
2763.573376,-9622.677246,-148.041188,-919.314598
2763.573713,-9770.718434,-370.102971,-383.047749
2763.574051,-8956.491898,0.000000,0.000000
2763.574388,-9252.574275,-296.082377,0.000000
2763.574725,-9326.594869,0.000000,306.438199
2763.575063,-9548.656652,370.102971,229.828649
2763.575400,-9918.759623,518.144159,1072.533697
2763.575738,-10140.821405,-296.082377,1072.533697
2763.576075,-9474.636058,740.205942,1838.629195
2763.576412,-9918.759623,666.185348,1991.848295
2763.576750,-10066.800811,74.020594,1762.019645
2763.577087,-9992.780217,296.082377,1455.581446
2763.577425,-10510.924376,-148.041188,1455.581446
2763.577762,-10362.883188,296.082377,612.876398
2763.578099,-10214.842000,-74.020594,-76.609550
2763.578437,-10288.862594,0.000000,-689.485948
2763.578774,-9770.718434,-814.226536,0.000000
2763.579112,-9474.636058,-1036.288319,-612.876398
2763.579449,-10510.924376,-1110.308913,0.000000
2763.579786,-10658.965565,-1924.535449,-383.047749
2763.580124,-10140.821405,-1628.453072,-1302.362347
2763.580461,-10584.944971,-1776.494261,0.000000
2763.580799,-10288.862594,-2516.700203,459.657299
2763.581136,-10140.821405,-2368.659014,306.438199
2763.581473,-10436.903782,-2368.659014,536.266849
2763.581811,-10140.821405,-888.247130,306.438199
2763.582148,-10658.965565,-1258.350101,0.000000
2763.582486,-11177.109724,-1406.391290,842.705048
2763.582823,-9918.759623,0.000000,689.485948
2763.583160,-10066.800811,0.000000,1608.800546
2763.583498,-10288.862594,740.205942,1915.238745
2763.583835,-9770.718434,962.267725,1149.143247
2763.584172,-10584.944971,1332.370696,1378.971896
2763.584510,-10140.821405,1554.432478,612.876398
2763.584847,-9696.697840,1850.514855,536.266849
2763.585185,-10214.842000,2294.638420,-383.047749
2763.585522,-9474.636058,2072.576638,-612.876398
2763.585859,-9030.512492,1850.514855,-995.924147
2763.586197,-9178.553681,1554.432478,-1149.143247
2763.586534,-9252.574275,1258.350101,-766.095498
2763.586872,-9474.636058,814.226536,-1225.752797
2763.587209,-8956.491898,962.267725,-153.219100
2763.587546,-9252.574275,74.020594,-229.828649
2763.587884,-9770.718434,-296.082377,306.438199
2763.588221,-9918.759623,296.082377,766.095498
2763.588559,-9918.759623,-370.102971,76.609550
2763.588896,-9844.739029,-296.082377,919.314598
2763.589233,-10362.883188,-740.205942,536.266849
2763.589571,-10807.006753,-1036.288319,383.047749
2763.589908,-9918.759623,-1110.308913,536.266849
2763.590246,-9770.718434,-814.226536,689.485948
2763.590583,-10362.883188,-740.205942,766.095498
2763.590920,-10510.924376,-666.185348,995.924147
2763.591258,-10881.027347,-814.226536,1225.752797
2763.591595,-10732.986159,-962.267725,1378.971896
2763.591933,-10658.965565,-148.041188,1072.533697
2763.592270,-11399.171507,-592.164754,1149.143247
2763.592607,-10436.903782,-1036.288319,153.219100
2763.592945,-9474.636058,-1036.288319,0.000000
2763.593282,-9918.759623,-888.247130,306.438199
2763.593620,-10807.006753,-1480.411884,-459.657299
2763.593957,-10140.821405,-1850.514855,-1455.581446
2763.594294,-10214.842000,-1480.411884,-1225.752797
2763.594632,-9400.615463,-1036.288319,-1149.143247
2763.594969,-9548.656652,-1184.329507,-383.047749
2763.595307,-9918.759623,-1110.308913,-76.609550
2763.595644,-9474.636058,-1110.308913,76.609550
2763.595981,-10584.944971,-222.061783,919.314598
2763.596319,-10214.842000,-296.082377,689.485948
2763.596656,-9770.718434,-370.102971,1149.143247
2763.596994,-10214.842000,0.000000,1532.190996
2763.597331,-9770.718434,666.185348,1302.362347
2763.597668,-9622.677246,1554.432478,689.485948
2763.598006,-9844.739029,1036.288319,459.657299
2763.598343,-9918.759623,1702.473667,536.266849
2763.598681,-9844.739029,1036.288319,229.828649
2763.599018,-9548.656652,1924.535449,-76.609550
2763.599356,-9696.697840,1406.391290,0.000000
2763.599693,-9326.594869,740.205942,0.000000
2763.600030,-9474.636058,592.164754,536.266849
2763.600368,-9918.759623,222.061783,306.438199
2763.600705,-10214.842000,0.000000,-383.047749
2763.601043,-9992.780217,-592.164754,-919.314598
2763.601380,-10066.800811,-1184.329507,-689.485948
2763.601717,-9622.677246,-1480.411884,-995.924147
2763.602055,-9252.574275,-2738.761985,-459.657299
2763.602392,-9992.780217,-2294.638420,0.000000
2763.602730,-9844.739029,-2368.659014,-383.047749
2763.603067,-10732.986159,-2220.617826,689.485948
2763.603404,-10510.924376,-1850.514855,459.657299
2763.603742,-10807.006753,-1628.453072,995.924147
2763.604079,-11103.089130,-1776.494261,1991.848295
2763.604417,-10584.944971,-962.267725,1532.190996
2763.604754,-10732.986159,-814.226536,1838.629195
2763.605091,-11103.089130,-592.164754,1991.848295
2763.605429,-10658.965565,-296.082377,1378.971896
2763.605766,-10807.006753,-296.082377,1149.143247
2763.606104,-10362.883188,222.061783,919.314598
2763.606441,-9770.718434,666.185348,0.000000
2763.606778,-9918.759623,296.082377,536.266849
2763.607116,-9548.656652,740.205942,76.609550
2763.607453,-9548.656652,666.185348,-383.047749
2763.607791,-10140.821405,1184.329507,0.000000
2763.608128,-9770.718434,370.102971,-383.047749
2763.608465,-9326.594869,222.061783,-612.876398
2763.608803,-9770.718434,370.102971,0.000000
2763.609140,-9474.636058,666.185348,-306.438199
2763.609478,-9252.574275,370.102971,-306.438199
2763.609815,-9474.636058,0.000000,0.000000
2763.610152,-9474.636058,518.144159,383.047749
2763.610490,-9770.718434,518.144159,1225.752797
2763.610827,-9696.697840,592.164754,919.314598
2763.611165,-9548.656652,0.000000,1532.190996
2763.611502,-10140.821405,1110.308913,1532.190996
2763.611839,-9770.718434,1628.453072,919.314598
2763.612177,-10732.986159,666.185348,1225.752797
2763.612514,-10066.800811,518.144159,1378.971896
2763.612852,-10732.986159,518.144159,1302.362347
2763.613189,-10955.047942,296.082377,766.095498
2763.613526,-9844.739029,0.000000,-919.314598
2763.613864,-9622.677246,-444.123565,-689.485948
2763.614201,-10214.842000,-592.164754,-1072.533697
2763.614539,-9548.656652,-1110.308913,-995.924147
2763.614876,-10658.965565,-1258.350101,-153.219100
2763.615213,-10510.924376,-1258.350101,-1225.752797
2763.615551,-10584.944971,-1628.453072,-919.314598
2763.615888,-10732.986159,-1924.535449,-536.266849
2763.616226,-9918.759623,-2516.700203,-229.828649
2763.616563,-10066.800811,-2516.700203,612.876398
2763.616900,-10288.862594,-2516.700203,383.047749
2763.617238,-9992.780217,-2368.659014,153.219100
2763.617575,-10584.944971,-1850.514855,0.000000
2763.617913,-10658.965565,-1480.411884,766.095498
2763.618250,-9918.759623,-814.226536,766.095498
2763.618587,-9696.697840,-666.185348,1378.971896
2763.618925,-10140.821405,0.000000,1685.410096
2763.619262,-10214.842000,592.164754,995.924147
2763.619600,-10658.965565,888.247130,1225.752797
2763.619937,-10140.821405,592.164754,1302.362347
2763.620275,-9622.677246,962.267725,766.095498
2763.620612,-9548.656652,1258.350101,306.438199
2763.620949,-9918.759623,1110.308913,0.000000
2763.621287,-8956.491898,740.205942,-919.314598
2763.621624,-9030.512492,962.267725,-919.314598
2763.621962,-9474.636058,1036.288319,-383.047749
2763.622299,-9696.697840,518.144159,-689.485948
2763.622636,-9326.594869,370.102971,-689.485948
2763.622974,-9474.636058,0.000000,0.000000
2763.623311,-9622.677246,-296.082377,612.876398
2763.623649,-9844.739029,-814.226536,612.876398
2763.623986,-10140.821405,-1184.329507,995.924147
2763.624323,-9992.780217,-592.164754,919.314598
2763.624661,-9918.759623,-1036.288319,842.705048
2763.624998,-10436.903782,-1110.308913,1072.533697
2763.625336,-10066.800811,-1554.432478,689.485948
2763.625673,-10436.903782,-1110.308913,1225.752797
2763.626010,-10732.986159,-518.144159,383.047749
2763.626348,-10140.821405,-1036.288319,612.876398
2763.626685,-10732.986159,-1184.329507,1608.800546
2763.627023,-10584.944971,-666.185348,612.876398
2763.627360,-10732.986159,-518.144159,995.924147
2763.627697,-11103.089130,-518.144159,536.266849
2763.628035,-10510.924376,-1110.308913,0.000000
2763.628372,-10362.883188,-444.123565,76.609550
2763.628710,-10214.842000,-1258.350101,0.000000
2763.629047,-10140.821405,-888.247130,-766.095498
2763.629384,-10140.821405,-1110.308913,-1072.533697
2763.629722,-10288.862594,-592.164754,-995.924147
2763.630059,-9844.739029,-962.267725,-1455.581446
2763.630397,-9844.739029,-814.226536,-1072.533697
2763.630734,-9844.739029,-962.267725,383.047749
2763.631071,-10066.800811,-444.123565,306.438199
2763.631409,-9548.656652,-222.061783,229.828649
2763.631746,-9770.718434,148.041188,766.095498
2763.632084,-10066.800811,-222.061783,1455.581446
2763.632421,-9844.739029,962.267725,1762.019645
2763.632758,-9918.759623,1702.473667,1149.143247
2763.633096,-9844.739029,2220.617826,1149.143247
2763.633433,-9770.718434,1332.370696,536.266849
2763.633771,-9844.739029,1554.432478,689.485948
2763.634108,-9252.574275,1480.411884,536.266849
2763.634445,-9178.553681,2442.679609,306.438199
2763.634783,-9622.677246,1406.391290,383.047749
2763.635120,-9400.615463,1110.308913,383.047749
2763.635458,-9992.780217,1406.391290,612.876398
2763.635795,-9622.677246,0.000000,0.000000
2763.636132,-9474.636058,814.226536,76.609550
2763.636470,-10510.924376,-370.102971,-842.705048
2763.636807,-10140.821405,-1036.288319,-612.876398
2763.637145,-9622.677246,-1036.288319,-1378.971896
2763.637482,-9548.656652,-2146.597232,-536.266849
2763.637819,-9844.739029,-2294.638420,612.876398
2763.638157,-10140.821405,-2516.700203,0.000000
2763.638494,-10658.965565,-1998.556043,536.266849
2763.638832,-10288.862594,-2146.597232,306.438199
2763.639169,-11251.130318,-2146.597232,1149.143247
2763.639506,-11251.130318,-1924.535449,1685.410096
2763.639844,-10658.965565,-1258.350101,1455.581446
2763.640181,-10584.944971,-1110.308913,1532.190996
2763.640519,-10955.047942,-740.205942,1532.190996
2763.640856,-10584.944971,-888.247130,766.095498
2763.641193,-10362.883188,-592.164754,229.828649
2763.641531,-10362.883188,0.000000,612.876398
2763.641868,-10140.821405,518.144159,-383.047749
2763.642206,-10066.800811,148.041188,-229.828649
2763.642543,-9844.739029,0.000000,76.609550
2763.642881,-9548.656652,222.061783,-459.657299
2763.643218,-9918.759623,370.102971,-153.219100
2763.643555,-9992.780217,74.020594,-995.924147
2763.643893,-9548.656652,0.000000,-919.314598
2763.644230,-9548.656652,0.000000,-1149.143247
2763.644568,-9622.677246,-740.205942,-766.095498
2763.644905,-9104.533087,-222.061783,-459.657299
2763.645242,-9326.594869,-370.102971,0.000000
2763.645580,-9770.718434,74.020594,536.266849
2763.645917,-9474.636058,0.000000,-153.219100
2763.646255,-10140.821405,444.123565,919.314598
2763.646592,-10214.842000,0.000000,1149.143247
2763.646929,-9844.739029,518.144159,1455.581446
2763.647267,-10066.800811,1258.350101,1685.410096
2763.647604,-9918.759623,74.020594,689.485948
2763.647942,-10214.842000,370.102971,919.314598
2763.648279,-10510.924376,148.041188,612.876398
2763.648616,-10658.965565,222.061783,766.095498
2763.648954,-10140.821405,-296.082377,-306.438199
2763.649291,-9548.656652,-296.082377,-459.657299
2763.649629,-9844.739029,-962.267725,-306.438199
2763.649966,-9696.697840,-1702.473667,-153.219100
2763.650303,-10066.800811,-1110.308913,0.000000
2763.650641,-10436.903782,-1702.473667,-536.266849
2763.650978,-10510.924376,-1406.391290,-689.485948
2763.651316,-10288.862594,-2368.659014,-153.219100
2763.651653,-10807.006753,-2368.659014,229.828649
2763.651990,-9992.780217,-2442.679609,842.705048
2763.652328,-10658.965565,-1776.494261,459.657299
2763.652665,-10362.883188,-1850.514855,229.828649
2763.653003,-10214.842000,-1110.308913,229.828649
2763.653340,-11177.109724,-1554.432478,1455.581446
2763.653677,-10288.862594,-444.123565,766.095498
2763.654015,-9918.759623,-592.164754,1762.019645
2763.654352,-10658.965565,1110.308913,2145.067394
2763.654690,-10066.800811,1036.288319,1302.362347
2763.655027,-10288.862594,1406.391290,1532.190996
2763.655364,-10140.821405,740.205942,1302.362347
2763.655702,-9770.718434,1332.370696,919.314598
2763.656039,-10214.842000,2664.741391,689.485948
2763.656377,-9770.718434,1924.535449,-689.485948
2763.656714,-9030.512492,1998.556043,-1225.752797
2763.657051,-9326.594869,814.226536,-995.924147
2763.657389,-9252.574275,1110.308913,-536.266849
2763.657726,-9178.553681,888.247130,-919.314598
2763.658064,-9030.512492,296.082377,-612.876398
2763.658401,-9770.718434,518.144159,-612.876398
2763.658738,-9770.718434,-370.102971,153.219100
2763.659076,-9770.718434,518.144159,0.000000
2763.659413,-9770.718434,-666.185348,536.266849
2763.659751,-10066.800811,0.000000,1149.143247
2763.660088,-10066.800811,-1036.288319,459.657299
2763.660425,-10807.006753,-666.185348,306.438199
2763.660763,-9770.718434,-1702.473667,153.219100
2763.661100,-9696.697840,-888.247130,536.266849
2763.661438,-10362.883188,-1036.288319,842.705048
2763.661775,-10140.821405,-148.041188,383.047749
2763.662112,-10510.924376,-1258.350101,919.314598
2763.662450,-10955.047942,-518.144159,612.876398
2763.662787,-10584.944971,-518.144159,689.485948
2763.663125,-11621.233289,-370.102971,1149.143247
2763.663462,-10214.842000,-1406.391290,0.000000
2763.663799,-9548.656652,-1184.329507,-1225.752797
2763.664137,-10214.842000,-1480.411884,306.438199
2763.664474,-10362.883188,-1184.329507,-689.485948
2763.664812,-10140.821405,-1554.432478,-1149.143247
2763.665149,-10066.800811,-1702.473667,-995.924147
2763.665487,-9474.636058,-962.267725,-1532.190996
2763.665824,-9696.697840,-1554.432478,0.000000
2763.666161,-9770.718434,-962.267725,0.000000
2763.666499,-9770.718434,-1184.329507,0.000000
2763.666836,-10732.986159,-370.102971,766.095498
2763.667174,-9770.718434,-740.205942,1302.362347
2763.667511,-9918.759623,-740.205942,1072.533697
2763.667848,-10436.903782,0.000000,1762.019645
2763.668186,-9844.739029,0.000000,1455.581446
2763.668523,-9252.574275,1480.411884,1225.752797
2763.668861,-9622.677246,888.247130,766.095498
2763.669198,-9770.718434,2220.617826,1608.800546
2763.669535,-9696.697840,1628.453072,0.000000
2763.669873,-9844.739029,2294.638420,842.705048
2763.670210,-9622.677246,1480.411884,0.000000
2763.670548,-9474.636058,592.164754,-76.609550
2763.670885,-9548.656652,666.185348,536.266849
2763.671222,-9548.656652,-370.102971,612.876398
2763.671560,-9992.780217,74.020594,0.000000
2763.671897,-9918.759623,-148.041188,-995.924147
2763.672235,-10436.903782,-1110.308913,-689.485948
2763.672572,-9696.697840,-1554.432478,-842.705048
2763.672909,-9326.594869,-1480.411884,-689.485948
2763.673247,-10066.800811,-2072.576638,153.219100
2763.673584,-10288.862594,-1998.556043,-76.609550
2763.673922,-9844.739029,-2146.597232,306.438199
2763.674259,-11029.068536,-2072.576638,306.438199
2763.674596,-10436.903782,-2220.617826,1225.752797
2763.674934,-11177.109724,-1628.453072,1685.410096
2763.675271,-10214.842000,-1406.391290,1532.190996
2763.675609,-10288.862594,-666.185348,1225.752797
2763.675946,-11325.150913,-518.144159,1378.971896
2763.676283,-10955.047942,-222.061783,612.876398
2763.676621,-10658.965565,74.020594,536.266849
2763.676958,-10436.903782,296.082377,153.219100
2763.677296,-9844.739029,518.144159,-536.266849
2763.677633,-9992.780217,370.102971,-229.828649
2763.677970,-10066.800811,666.185348,383.047749
2763.678308,-9622.677246,592.164754,-612.876398
2763.678645,-10066.800811,740.205942,-689.485948
2763.678983,-9918.759623,148.041188,-919.314598
2763.679320,-9400.615463,296.082377,-612.876398
2763.679657,-9548.656652,444.123565,-919.314598
2763.679995,-9400.615463,592.164754,-306.438199
2763.680332,-9252.574275,0.000000,-612.876398
2763.680670,-9474.636058,-444.123565,153.219100
2763.681007,-9400.615463,370.102971,76.609550
2763.681344,-9326.594869,0.000000,842.705048
2763.681682,-9548.656652,592.164754,1225.752797
2763.682019,-10140.821405,0.000000,1685.410096
2763.682357,-10436.903782,962.267725,1838.629195
2763.682694,-9548.656652,1258.350101,1225.752797
2763.683031,-10436.903782,888.247130,1532.190996
2763.683369,-10288.862594,740.205942,1532.190996
2763.683706,-10584.944971,296.082377,689.485948
2763.684044,-10436.903782,518.144159,842.705048
2763.684381,-9696.697840,444.123565,-536.266849
2763.684718,-9844.739029,-444.123565,-306.438199
2763.685056,-10214.842000,-962.267725,0.000000
2763.685393,-9622.677246,-1258.350101,-459.657299
2763.685731,-10214.842000,-1258.350101,-76.609550
2763.686068,-10288.862594,-1776.494261,-383.047749
2763.686406,-10584.944971,-1776.494261,-766.095498
2763.686743,-10658.965565,-2072.576638,0.000000
2763.687080,-9918.759623,-2368.659014,0.000000
2763.687418,-9844.739029,-2294.638420,536.266849
2763.687755,-10362.883188,-2220.617826,536.266849
2763.688093,-10584.944971,-2220.617826,229.828649
2763.688430,-10584.944971,-1776.494261,-536.266849
2763.688767,-10658.965565,-1406.391290,612.876398
2763.689105,-10066.800811,-1184.329507,1149.143247
2763.689442,-10214.842000,-444.123565,1991.848295
2763.689780,-10140.821405,370.102971,1455.581446
2763.690117,-9992.780217,0.000000,536.266849
2763.690455,-10362.883188,814.226536,1149.143247
2763.690792,-10214.842000,666.185348,1072.533697
2763.691129,-9992.780217,1184.329507,919.314598
2763.691467,-10140.821405,1628.453072,-306.438199
2763.691804,-9696.697840,1258.350101,-459.657299
2763.692142,-9474.636058,1258.350101,-919.314598
2763.692479,-9178.553681,740.205942,-995.924147
2763.692816,-9474.636058,1184.329507,-306.438199
2763.693154,-9252.574275,222.061783,-1455.581446
2763.693491,-9474.636058,0.000000,-1072.533697
2763.693829,-9770.718434,296.082377,-612.876398
2763.694166,-9622.677246,-296.082377,-306.438199
2763.694503,-9548.656652,-222.061783,459.657299
2763.694841,-10140.821405,-1258.350101,689.485948
2763.695178,-9844.739029,-592.164754,383.047749
2763.695515,-10288.862594,-962.267725,536.266849
2763.695853,-10658.965565,-1258.350101,919.314598
2763.696190,-9844.739029,-1628.453072,842.705048
2763.696528,-10214.842000,-888.247130,1225.752797
2763.696865,-10436.903782,-666.185348,919.314598
2763.697202,-10362.883188,-814.226536,766.095498
2763.697540,-10140.821405,-740.205942,766.095498
2763.697877,-10214.842000,-962.267725,612.876398
2763.698215,-10584.944971,-148.041188,919.314598
2763.698552,-10881.027347,-222.061783,995.924147
2763.698889,-10881.027347,-1258.350101,306.438199
2763.699227,-9696.697840,-740.205942,229.828649
2763.699564,-9992.780217,-1036.288319,0.000000
2763.699902,-10436.903782,-888.247130,-383.047749
2763.700239,-9770.718434,-1184.329507,-1685.410096
2763.700576,-10140.821405,-592.164754,-612.876398
2763.700914,-10214.842000,-1332.370696,-689.485948
2763.701251,-9622.677246,-1110.308913,-306.438199
2763.701589,-10362.883188,-444.123565,229.828649
2763.701926,-9992.780217,-296.082377,306.438199
2763.702263,-9770.718434,-296.082377,612.876398
2763.702601,-9918.759623,-444.123565,1302.362347
2763.702938,-10066.800811,0.000000,1685.410096
2763.703275,-10214.842000,666.185348,1685.410096
2763.703613,-9844.739029,888.247130,1072.533697
2763.703950,-9474.636058,1702.473667,1532.190996
2763.704288,-10436.903782,1184.329507,919.314598
2763.704625,-9696.697840,1776.494261,1302.362347
2763.704962,-8956.491898,2072.576638,306.438199
2763.705300,-9400.615463,2072.576638,842.705048
2763.705637,-10140.821405,1776.494261,459.657299
2763.705975,-10510.924376,1554.432478,0.000000
2763.706312,-9474.636058,1036.288319,0.000000
2763.706649,-9474.636058,222.061783,383.047749
2763.706987,-9844.739029,296.082377,-612.876398
2763.707324,-10510.924376,-740.205942,-919.314598
2763.707662,-10140.821405,-666.185348,-1378.971896
2763.707999,-9548.656652,-1554.432478,-1149.143247
2763.708336,-9548.656652,-1554.432478,-919.314598
2763.708674,-10066.800811,-2220.617826,-459.657299
2763.709011,-9918.759623,-2590.720797,-383.047749
2763.709349,-10362.883188,-1702.473667,153.219100
2763.709686,-10584.944971,-1924.535449,842.705048
2763.710023,-11103.089130,-1924.535449,1378.971896
2763.710361,-11029.068536,-1850.514855,1225.752797
2763.710698,-10732.986159,-1258.350101,1685.410096
2763.711035,-10288.862594,-1184.329507,1072.533697
2763.711373,-10510.924376,-1332.370696,1149.143247
2763.711710,-10881.027347,-740.205942,766.095498
2763.712048,-10140.821405,-518.144159,153.219100
2763.712385,-10510.924376,222.061783,76.609550
2763.712722,-10288.862594,370.102971,-459.657299
2763.713060,-9992.780217,0.000000,76.609550
2763.713397,-9918.759623,0.000000,0.000000
2763.713735,-9696.697840,296.082377,-612.876398
2763.714072,-9622.677246,148.041188,-306.438199
2763.714409,-10140.821405,222.061783,0.000000
2763.714747,-9770.718434,-592.164754,-1225.752797
2763.715084,-9622.677246,0.000000,-689.485948
2763.715422,-9326.594869,-666.185348,-459.657299
2763.715759,-8512.368333,-370.102971,-306.438199
2763.716096,-9474.636058,-74.020594,0.000000
2763.716434,-9326.594869,444.123565,536.266849
2763.716771,-9696.697840,74.020594,689.485948
2763.717109,-10362.883188,296.082377,1838.629195
2763.717446,-10288.862594,0.000000,1762.019645
2763.717783,-9844.739029,518.144159,2145.067394
2763.718121,-10066.800811,814.226536,1455.581446
2763.718458,-9918.759623,148.041188,1685.410096
2763.718795,-10066.800811,666.185348,1455.581446
2763.719133,-10362.883188,222.061783,995.924147
2763.719470,-10807.006753,518.144159,919.314598
2763.719808,-10288.862594,518.144159,-153.219100
2763.720145,-9844.739029,0.000000,-1072.533697
2763.720482,-10140.821405,-518.144159,-459.657299
2763.720820,-9474.636058,-1258.350101,-766.095498
2763.721157,-9918.759623,-666.185348,0.000000
2763.721495,-10584.944971,-1776.494261,0.000000
2763.721832,-10288.862594,-1332.370696,-306.438199
2763.722169,-10510.924376,-2368.659014,-229.828649
2763.722507,-10140.821405,-2368.659014,306.438199
2763.722844,-9844.739029,-2072.576638,153.219100
2763.723182,-10510.924376,-1776.494261,229.828649
2763.723519,-10510.924376,-1702.473667,153.219100
2763.723856,-10288.862594,-962.267725,-153.219100
2763.724194,-10807.006753,-1332.370696,612.876398
2763.724531,-10510.924376,-814.226536,612.876398
2763.724869,-10066.800811,-296.082377,1149.143247
2763.725206,-10288.862594,518.144159,1378.971896
2763.725543,-10066.800811,888.247130,1225.752797
2763.725881,-10362.883188,592.164754,1225.752797
2763.726218,-10066.800811,888.247130,1072.533697
2763.726556,-9918.759623,1702.473667,459.657299
2763.726893,-10140.821405,2368.659014,229.828649
2763.727230,-9992.780217,1924.535449,-536.266849
2763.727568,-9178.553681,1480.411884,-1378.971896
2763.727905,-9474.636058,1554.432478,-689.485948
2763.728242,-9178.553681,1628.453072,-153.219100
2763.728580,-8586.388927,444.123565,-1225.752797
2763.728917,-9252.574275,74.020594,-689.485948
2763.729255,-9178.553681,74.020594,-306.438199
2763.729592,-9696.697840,-222.061783,383.047749
2763.729929,-9770.718434,0.000000,995.924147
2763.730267,-9770.718434,-518.144159,689.485948
2763.730604,-10362.883188,-148.041188,842.705048
2763.730942,-10436.903782,-740.205942,536.266849
2763.731279,-10436.903782,-888.247130,919.314598
2763.731616,-10288.862594,-962.267725,842.705048
2763.731954,-9770.718434,-1110.308913,842.705048
2763.732291,-10807.006753,-370.102971,995.924147
2763.732629,-10436.903782,-814.226536,689.485948
2763.732966,-10140.821405,-370.102971,842.705048
2763.733303,-11103.089130,-814.226536,1302.362347
2763.733641,-10510.924376,-444.123565,919.314598
2763.733978,-10881.027347,-518.144159,842.705048
2763.734316,-10658.965565,-1036.288319,612.876398
2763.734653,-9622.677246,-1184.329507,-306.438199
2763.734990,-10214.842000,-1110.308913,153.219100
2763.735328,-10288.862594,-1480.411884,-459.657299
2763.735665,-10066.800811,-1332.370696,-1608.800546
2763.736002,-10362.883188,-1110.308913,-1608.800546
2763.736340,-9622.677246,-1554.432478,-1685.410096
2763.736677,-9474.636058,-1258.350101,-459.657299
2763.737015,-9622.677246,-1406.391290,-459.657299
2763.737352,-9844.739029,-1184.329507,0.000000
2763.737689,-10288.862594,-666.185348,229.828649
2763.738027,-10066.800811,-592.164754,612.876398
2763.738364,-10214.842000,-74.020594,1072.533697
2763.738702,-10214.842000,-592.164754,1302.362347
2763.739039,-9696.697840,740.205942,1302.362347
2763.739376,-9622.677246,740.205942,1378.971896
2763.739714,-9622.677246,1406.391290,766.095498
2763.740051,-9548.656652,1628.453072,383.047749
2763.740389,-10140.821405,1406.391290,306.438199
2763.740726,-9474.636058,1776.494261,229.828649
2763.741063,-9548.656652,1406.391290,0.000000
2763.741401,-9474.636058,592.164754,229.828649
2763.741738,-9252.574275,1036.288319,0.000000
2763.742076,-9844.739029,-444.123565,612.876398
2763.742413,-9992.780217,518.144159,-536.266849
2763.742750,-9622.677246,-814.226536,-1378.971896
2763.743088,-10658.965565,-962.267725,-689.485948
2763.743425,-8956.491898,-1776.494261,-995.924147
2763.743762,-9696.697840,-1850.514855,-383.047749
2763.744100,-10066.800811,-2146.597232,766.095498
2763.744437,-9844.739029,-2442.679609,76.609550
2763.744775,-9992.780217,-2072.576638,383.047749
2763.745112,-11177.109724,-1998.556043,842.705048
2763.745449,-10732.986159,-1406.391290,1072.533697
2763.745787,-10881.027347,-1850.514855,1608.800546
2763.746124,-10658.965565,-1036.288319,1685.410096
2763.746462,-10510.924376,-814.226536,1762.019645
2763.746799,-11103.089130,-592.164754,1532.190996
2763.747136,-10732.986159,-74.020594,1149.143247
2763.747474,-10584.944971,-370.102971,612.876398
2763.747811,-10362.883188,518.144159,842.705048
2763.748149,-10066.800811,518.144159,0.000000
2763.748486,-9918.759623,962.267725,0.000000
2763.748823,-10140.821405,296.082377,76.609550
2763.749161,-9548.656652,296.082377,-612.876398
2763.749498,-9622.677246,592.164754,-612.876398
2763.749836,-10066.800811,222.061783,0.000000
2763.750173,-9474.636058,222.061783,-766.095498
2763.750510,-9474.636058,814.226536,-536.266849
2763.750848,-9548.656652,1110.308913,-612.876398
2763.751185,-9474.636058,0.000000,0.000000
2763.751522,-9548.656652,-296.082377,0.000000
2763.751860,-9474.636058,1036.288319,153.219100
2763.752197,-9474.636058,518.144159,1149.143247
2763.752535,-9474.636058,370.102971,1149.143247
2763.752872,-10066.800811,814.226536,1225.752797
2763.753209,-10658.965565,1036.288319,1608.800546
2763.753547,-9474.636058,1406.391290,1302.362347
2763.753884,-9770.718434,814.226536,919.314598
2763.754222,-10436.903782,1110.308913,1608.800546
2763.754559,-10510.924376,0.000000,1072.533697
2763.754896,-10658.965565,666.185348,229.828649
2763.755234,-9326.594869,0.000000,-766.095498
2763.755571,-10214.842000,148.041188,-383.047749
2763.755909,-10288.862594,-888.247130,-612.876398
2763.756246,-9548.656652,-1406.391290,-612.876398
2763.756583,-9918.759623,-592.164754,153.219100
2763.756921,-10436.903782,-1924.535449,-612.876398
2763.757258,-10214.842000,-1924.535449,-612.876398
2763.757596,-10732.986159,-2442.679609,-689.485948
2763.757933,-10288.862594,-2368.659014,-306.438199
2763.758270,-9992.780217,-2146.597232,383.047749
2763.758608,-9992.780217,-2590.720797,383.047749
2763.758945,-10362.883188,-2590.720797,0.000000
2763.759282,-9918.759623,-1924.535449,383.047749
2763.759620,-10288.862594,-962.267725,459.657299
2763.759957,-10584.944971,-1628.453072,1378.971896
2763.760295,-10140.821405,-518.144159,1072.533697
2763.760632,-10066.800811,0.000000,1608.800546
2763.760969,-10362.883188,296.082377,1149.143247
2763.761307,-9696.697840,0.000000,995.924147
2763.761644,-10436.903782,666.185348,919.314598
2763.761982,-10066.800811,740.205942,842.705048
2763.762319,-10066.800811,1628.453072,153.219100
2763.762656,-9844.739029,1110.308913,-229.828649
2763.762994,-9326.594869,1332.370696,-842.705048
2763.763331,-9400.615463,592.164754,-76.609550
2763.763669,-9474.636058,814.226536,-919.314598
2763.764006,-9474.636058,666.185348,-919.314598
2763.764343,-9696.697840,518.144159,-383.047749
2763.764681,-9030.512492,-222.061783,-153.219100
2763.765018,-9548.656652,0.000000,0.000000
2763.765356,-9770.718434,-148.041188,536.266849
2763.765693,-10214.842000,-1110.308913,1225.752797
2763.766030,-9696.697840,-666.185348,459.657299
2763.766368,-9844.739029,-1184.329507,842.705048
2763.766705,-10436.903782,-666.185348,1838.629195
2763.767042,-10362.883188,-888.247130,306.438199
2763.767380,-10510.924376,-444.123565,1378.971896
2763.767717,-10436.903782,0.000000,1149.143247
2763.768055,-10510.924376,-1110.308913,919.314598
2763.768392,-10436.903782,-740.205942,1302.362347
2763.768729,-10658.965565,-1184.329507,1302.362347
2763.769067,-10214.842000,-296.082377,1149.143247
2763.769404,-10807.006753,-74.020594,689.485948
2763.769742,-10955.047942,-222.061783,0.000000
2763.770079,-10066.800811,-888.247130,-229.828649
2763.770416,-10362.883188,-962.267725,-459.657299
2763.770754,-10288.862594,-666.185348,-459.657299
2763.771091,-10214.842000,-740.205942,-1455.581446
2763.771429,-9844.739029,-666.185348,-1225.752797
2763.771766,-9918.759623,-962.267725,-1225.752797
2763.772103,-9474.636058,-962.267725,-766.095498
2763.772441,-9992.780217,-666.185348,229.828649
2763.772778,-10214.842000,-888.247130,229.828649
2763.773116,-9622.677246,-296.082377,383.047749
2763.773453,-9548.656652,-74.020594,995.924147
2763.773790,-10066.800811,0.000000,1532.190996
2763.774128,-9770.718434,814.226536,1455.581446
2763.774465,-9918.759623,814.226536,1455.581446
2763.774803,-9918.759623,1480.411884,1149.143247
2763.775140,-9992.780217,1480.411884,919.314598
2763.775477,-9548.656652,1628.453072,1149.143247
2763.775815,-9252.574275,1554.432478,689.485948
2763.776152,-9252.574275,2220.617826,459.657299
2763.776489,-9844.739029,1480.411884,459.657299
2763.776827,-9844.739029,1332.370696,76.609550
2763.777164,-8956.491898,814.226536,0.000000
2763.777502,-9548.656652,148.041188,229.828649
2763.777839,-9622.677246,666.185348,-689.485948
2763.778176,-10066.800811,-370.102971,-766.095498
2763.778514,-9992.780217,0.000000,-689.485948
2763.778851,-9400.615463,-2368.659014,-1225.752797
2763.779189,-9548.656652,-1480.411884,0.000000
2763.779526,-9844.739029,-2146.597232,306.438199
2763.779863,-10214.842000,-2368.659014,229.828649
2763.780201,-9770.718434,-1776.494261,229.828649
2763.780538,-10807.006753,-1850.514855,1225.752797
2763.780876,-11473.192101,-1998.556043,1608.800546
2763.781213,-10732.986159,-1480.411884,1378.971896
2763.781550,-10881.027347,-1924.535449,1762.019645
2763.781888,-10214.842000,-666.185348,1608.800546
2763.782225,-10732.986159,-1332.370696,1225.752797
2763.782563,-11177.109724,-814.226536,995.924147
2763.782900,-10214.842000,-370.102971,76.609550
2763.783237,-10066.800811,74.020594,306.438199
2763.783575,-10510.924376,-296.082377,-459.657299
2763.783912,-9548.656652,0.000000,0.000000
2763.784249,-10140.821405,0.000000,-383.047749
2763.784587,-9770.718434,0.000000,-536.266849
2763.784924,-9622.677246,148.041188,-766.095498
2763.785262,-10066.800811,0.000000,-536.266849
2763.785599,-9844.739029,-148.041188,-1378.971896
2763.785936,-9178.553681,-370.102971,-1455.581446
2763.786274,-9548.656652,-370.102971,-612.876398
2763.786611,-9252.574275,-370.102971,0.000000
2763.786949,-9696.697840,-370.102971,-459.657299
2763.787286,-9252.574275,296.082377,306.438199
2763.787623,-9548.656652,74.020594,0.000000
2763.787961,-10214.842000,296.082377,995.924147
2763.788298,-9918.759623,592.164754,1149.143247
2763.788636,-9918.759623,444.123565,1149.143247
2763.788973,-9622.677246,592.164754,1149.143247
2763.789310,-9770.718434,1110.308913,1915.238745
2763.789648,-10362.883188,740.205942,1455.581446
2763.789985,-10362.883188,222.061783,1072.533697
2763.790323,-10288.862594,370.102971,76.609550
2763.790660,-10214.842000,0.000000,536.266849
2763.790997,-9918.759623,-148.041188,-766.095498
2763.791335,-9400.615463,-1184.329507,-459.657299
2763.791672,-10140.821405,-814.226536,-383.047749
2763.792009,-9622.677246,-1036.288319,0.000000
2763.792346,-10658.965565,-1332.370696,-459.657299
2763.792684,-9918.759623,-1850.514855,-689.485948
2763.793021,-10214.842000,-2368.659014,0.000000
