#time,accel_x,accel_y,accel_z
2961.713237,-10140.821405,-1628.453072,612.876398
2961.713575,-10732.986159,-1998.556043,1532.190996
2961.713914,-10362.883188,-666.185348,1685.410096
2961.714252,-10066.800811,0.000000,995.924147
2961.714590,-10436.903782,0.000000,1302.362347
2961.714928,-11399.171507,-444.123565,766.095498
2961.715266,-11251.130318,-740.205942,689.485948
2961.715604,-9992.780217,148.041188,383.047749
2961.715942,-9474.636058,148.041188,612.876398
2961.716280,-10362.883188,-222.061783,-766.095498
2961.716618,-9696.697840,-814.226536,-995.924147
2961.716956,-9252.574275,-1184.329507,-612.876398
2961.717294,-9622.677246,-592.164754,153.219100
2961.717632,-9474.636058,-444.123565,-1302.362347
2961.717970,-9992.780217,-740.205942,-1608.800546
2961.718308,-10214.842000,-1480.411884,-1378.971896
2961.718646,-8882.471304,-1776.494261,-1149.143247
2961.718984,-9104.533087,-1036.288319,0.000000
2961.719322,-9844.739029,-1036.288319,-612.876398
2961.719660,-10066.800811,-1480.411884,-1302.362347
2961.719998,-9548.656652,-888.247130,-612.876398
2961.720336,-9400.615463,-1480.411884,153.219100
2961.720674,-9844.739029,-518.144159,1838.629195
2961.721012,-10658.965565,-592.164754,-306.438199
2961.721350,-10881.027347,370.102971,-1532.190996
2961.721688,-10584.944971,-444.123565,-1991.848295
2961.722026,-10288.862594,-1702.473667,76.609550
2961.722364,-10214.842000,-592.164754,-919.314598
2961.722702,-10288.862594,-1036.288319,-1608.800546
2961.723041,-10881.027347,-814.226536,-3140.991542
2961.723379,-9252.574275,-2516.700203,-3217.601092
2961.723717,-9474.636058,-2590.720797,-2068.457845
2961.724055,-9696.697840,-2886.803174,-2528.115143
2961.724393,-10214.842000,-3330.926739,-4290.134789
2961.724731,-10584.944971,-3701.029710,-5209.449386
2961.725069,-9474.636058,-4737.318029,-5362.668486
2961.725407,-9030.512492,-5625.565159,-3983.696590
2961.725745,-8734.430116,-4737.318029,-2298.286494
2961.726083,-8956.491898,-4737.318029,-1302.362347
2961.726421,-10362.883188,-3404.947333,-1838.629195
2961.726759,-10140.821405,-2812.782580,-2451.505594
2961.727097,-11399.171507,-2664.741391,-2068.457845
2961.727435,-11251.130318,-2960.823768,-2221.676944
2961.727773,-11251.130318,-3849.070898,-2451.505594
2961.728111,-10436.903782,-4441.235652,-1149.143247
2961.728449,-8512.368333,-3627.009116,-995.924147
2961.728787,-8290.306550,-3701.029710,-76.609550
2961.729125,-9326.594869,-2294.638420,536.266849
2961.729463,-10288.862594,-1258.350101,76.609550
2961.729801,-11621.233289,0.000000,-1225.752797
2961.730139,-11029.068536,370.102971,-3064.381992
2961.730477,-10362.883188,-888.247130,-2757.943793
2961.730815,-10658.965565,-1998.556043,-1072.533697
2961.731153,-9104.533087,-2368.659014,-1455.581446
2961.731491,-9474.636058,-2220.617826,-842.705048
2961.731830,-9326.594869,-2294.638420,-689.485948
2961.732168,-8882.471304,-3108.864956,-2451.505594
2961.732506,-9548.656652,-3404.947333,-1762.019645
2961.732844,-9104.533087,-3404.947333,-383.047749
2961.733182,-8882.471304,-1628.453072,689.485948
2961.733520,-10066.800811,-518.144159,0.000000
2961.733858,-11621.233289,0.000000,-995.924147
2961.734196,-11473.192101,-2072.576638,-2757.943793
2961.734534,-10955.047942,-3627.009116,-1225.752797
2961.734872,-9474.636058,-3997.112087,383.047749
2961.735210,-8808.450710,-3478.967927,-229.828649
2961.735548,-8956.491898,-3775.050304,-1378.971896
2961.735886,-9474.636058,-3182.885551,-1838.629195
2961.736224,-10510.924376,-2886.803174,-1455.581446
2961.736562,-9474.636058,-888.247130,-2145.067394
2961.736900,-9770.718434,0.000000,-2757.943793
2961.737238,-11769.274478,-148.041188,-2145.067394
2961.737576,-13101.645173,-1258.350101,-3217.601092
2961.737914,-10807.006753,-888.247130,-3907.087040
2961.738252,-8068.244768,-2590.720797,-2604.724693
2961.738590,-9326.594869,-3627.009116,-536.266849
2961.738928,-10732.986159,-3627.009116,-1991.848295
2961.739266,-9474.636058,-2664.741391,-4366.744339
2961.739604,-9252.574275,-2442.679609,-4519.963438
2961.739942,-10807.006753,-3701.029710,-3753.867940
2961.740280,-11621.233289,-2072.576638,-4903.011187
2961.740618,-9992.780217,-2146.597232,-4366.744339
2961.740957,-8808.450710,-1998.556043,-1685.410096
2961.741295,-8660.409521,-1480.411884,-306.438199
2961.741633,-10362.883188,-1702.473667,-1838.629195
2961.741971,-11325.150913,-1850.514855,-612.876398
2961.742309,-9918.759623,-1480.411884,-689.485948
2961.742647,-8734.430116,-740.205942,0.000000
2961.742985,-9770.718434,-740.205942,1225.752797
2961.743323,-9844.739029,222.061783,842.705048
2961.743661,-10066.800811,-74.020594,-1532.190996
2961.743999,-10288.862594,222.061783,-2374.896044
2961.744337,-11029.068536,-518.144159,-2374.896044
2961.744675,-10584.944971,-666.185348,-2451.505594
2961.745013,-9178.553681,-1110.308913,-2987.772442
2961.745351,-7698.141797,-1628.453072,-2834.553343
2961.745689,-9030.512492,-2146.597232,-1532.190996
2961.746027,-9770.718434,-2220.617826,-1302.362347
2961.746365,-9474.636058,-2664.741391,-1225.752797
2961.746703,-10436.903782,-2516.700203,383.047749
2961.747041,-11251.130318,-2220.617826,-459.657299
2961.747379,-11473.192101,-2442.679609,-995.924147
2961.747717,-11251.130318,-3330.926739,-2145.067394
2961.748055,-9770.718434,-4811.338623,-2911.162892
2961.748393,-9474.636058,-4811.338623,-2451.505594
2961.748731,-8734.430116,-5477.523971,-2528.115143
2961.749069,-8882.471304,-5255.462188,-2221.676944
2961.749407,-9252.574275,-4959.379811,-1991.848295
2961.749746,-9252.574275,-3849.070898,-612.876398
2961.750084,-10732.986159,-1776.494261,1378.971896
2961.750422,-10881.027347,0.000000,536.266849
2961.750760,-12361.439231,0.000000,76.609550
2961.751098,-13101.645173,-592.164754,-1991.848295
2961.751436,-12509.480420,-2072.576638,-1378.971896
2961.751774,-10658.965565,-3997.112087,-1838.629195
2961.752112,-7846.182985,-4367.215058,-2451.505594
2961.752450,-7476.080014,-5551.544565,-2298.286494
2961.752788,-8364.327145,-4811.338623,-2451.505594
2961.753126,-8586.388927,-3478.967927,-2987.772442
2961.753464,-8808.450710,-1184.329507,-1991.848295
2961.753802,-10584.944971,1184.329507,-1149.143247
2961.754140,-11325.150913,1258.350101,-1685.410096
2961.754478,-14211.954086,1332.370696,-1532.190996
2961.754816,-11251.130318,-1332.370696,-1838.629195
2961.755154,-8882.471304,-1924.535449,0.000000
2961.755492,-7402.059420,-3923.091493,1072.533697
2961.755830,-8290.306550,-4663.297435,1608.800546
2961.756168,-8512.368333,-4367.215058,1149.143247
2961.756506,-7254.018232,-2294.638420,536.266849
2961.756844,-9104.533087,74.020594,459.657299
2961.757182,-12065.356855,2812.782580,-1072.533697
2961.757520,-13545.768739,2368.659014,-2987.772442
2961.757858,-12139.377449,2368.659014,-3983.696590
2961.758196,-9326.594869,592.164754,-1378.971896
2961.758535,-9622.677246,-444.123565,2604.724693
2961.758873,-9474.636058,-1332.370696,1608.800546
2961.759211,-9474.636058,-2664.741391,1302.362347
2961.759549,-9992.780217,-3849.070898,459.657299
2961.759887,-9844.739029,-4071.132681,0.000000
2961.760225,-10732.986159,-2294.638420,-1149.143247
2961.760563,-10658.965565,-1924.535449,-3217.601092
2961.760901,-9474.636058,-1850.514855,-3830.477490
2961.761239,-8882.471304,-1184.329507,-2145.067394
2961.761577,-8586.388927,-222.061783,-306.438199
2961.761915,-9548.656652,-518.144159,1378.971896
2961.762253,-12139.377449,-814.226536,1149.143247
2961.762591,-12953.603985,-1702.473667,459.657299
2961.762929,-11843.295072,-3923.091493,306.438199
2961.763267,-8364.327145,-3627.009116,1455.581446
2961.763605,-8068.244768,-4441.235652,4136.915689
2961.763943,-9474.636058,-1036.288319,2987.772442
2961.764281,-9696.697840,1258.350101,383.047749
2961.764619,-11621.233289,3701.029710,-459.657299
2961.764957,-11769.274478,3552.988522,-1991.848295
2961.765295,-11917.315666,3256.906145,-1685.410096
2961.765633,-11325.150913,2220.617826,-383.047749
2961.765971,-7476.080014,1406.391290,919.314598
2961.766309,-8290.306550,0.000000,3524.039291
2961.766647,-8882.471304,444.123565,3294.210641
2961.766985,-11103.089130,592.164754,2604.724693
2961.767323,-12509.480420,1110.308913,1302.362347
2961.767661,-10881.027347,592.164754,-995.924147
2961.767999,-9474.636058,962.267725,-1455.581446
2961.768336,-8142.265362,1110.308913,-1455.581446
2961.768674,-7105.977043,1258.350101,-1762.019645
2961.769011,-8438.347739,2146.597232,-1455.581446
2961.769349,-9992.780217,1776.494261,-459.657299
2961.769686,-10955.047942,1924.535449,1149.143247
2961.770024,-11843.295072,518.144159,2681.334243
2961.770362,-11769.274478,222.061783,2528.115143
2961.770699,-10658.965565,-1258.350101,1532.190996
2961.771037,-9178.553681,-2590.720797,2298.286494
2961.771374,-8660.409521,-2516.700203,2834.553343
2961.771712,-9400.615463,-888.247130,1149.143247
2961.772049,-9474.636058,592.164754,-306.438199
2961.772387,-11177.109724,1628.453072,-995.924147
2961.772724,-11843.295072,2368.659014,-2604.724693
2961.773062,-11621.233289,444.123565,-3447.429741
2961.773400,-10362.883188,-666.185348,-1915.238745
2961.773737,-8734.430116,-3849.070898,153.219100
2961.774075,-9474.636058,-3775.050304,1532.190996
2961.774412,-9178.553681,-3849.070898,76.609550
2961.774750,-9474.636058,-4515.256246,153.219100
2961.775087,-10362.883188,-3552.988522,-612.876398
2961.775425,-10732.986159,-3404.947333,-689.485948
2961.775763,-11029.068536,-1258.350101,-1378.971896
2961.776100,-9474.636058,-1924.535449,-1302.362347
2961.776438,-9622.677246,-1480.411884,689.485948
2961.776775,-9474.636058,-1258.350101,229.828649
2961.777113,-10436.903782,-1036.288319,1149.143247
2961.777450,-11325.150913,-814.226536,3217.601092
2961.777788,-11621.233289,-518.144159,1685.410096
2961.778125,-11029.068536,-296.082377,1225.752797
2961.778463,-10658.965565,-370.102971,766.095498
2961.778801,-8956.491898,-962.267725,1455.581446
2961.779138,-8734.430116,444.123565,1838.629195
2961.779476,-8364.327145,1406.391290,995.924147
2961.779813,-9622.677246,3108.864956,919.314598
2961.780151,-11547.212695,3775.050304,459.657299
2961.780488,-12213.398043,2368.659014,-1302.362347
2961.780826,-11547.212695,1258.350101,-1072.533697
2961.781163,-8882.471304,-666.185348,229.828649
2961.781501,-7920.203579,-1702.473667,1072.533697
2961.781839,-7402.059420,-2368.659014,1225.752797
2961.782176,-7994.224174,-1924.535449,612.876398
2961.782514,-9622.677246,-1554.432478,-306.438199
2961.782851,-11177.109724,-296.082377,-306.438199
2961.783189,-11251.130318,74.020594,-1532.190996
2961.783526,-9548.656652,-592.164754,-612.876398
2961.783864,-8808.450710,-1036.288319,842.705048
2961.784202,-9548.656652,-1776.494261,1915.238745
2961.784539,-10732.986159,-1184.329507,1991.848295
2961.784877,-10955.047942,-2146.597232,1991.848295
2961.785214,-11103.089130,-1110.308913,1455.581446
2961.785552,-11325.150913,-1776.494261,1072.533697
2961.785889,-10066.800811,-74.020594,0.000000
2961.786227,-9992.780217,-1480.411884,536.266849
2961.786564,-9992.780217,-370.102971,-459.657299
2961.786902,-10288.862594,1406.391290,-1838.629195
2961.787240,-11547.212695,666.185348,-1762.019645
2961.787577,-10658.965565,518.144159,-536.266849
2961.787915,-10658.965565,296.082377,306.438199
2961.788252,-11251.130318,222.061783,306.438199
2961.788590,-10066.800811,-814.226536,76.609550
2961.788927,-9548.656652,-1924.535449,229.828649
2961.789265,-9178.553681,-1628.453072,-306.438199
2961.789603,-8956.491898,-592.164754,-842.705048
2961.789940,-9030.512492,-444.123565,-153.219100
2961.790278,-9252.574275,740.205942,-842.705048
2961.790615,-9474.636058,1480.411884,-1149.143247
2961.790953,-10214.842000,1776.494261,-306.438199
2961.791290,-10510.924376,1036.288319,919.314598
2961.791628,-10732.986159,888.247130,2757.943793
2961.791965,-9844.739029,666.185348,2834.553343
2961.792303,-9474.636058,296.082377,3140.991542
2961.792641,-9474.636058,1332.370696,3140.991542
2961.792978,-9844.739029,1554.432478,2374.896044
2961.793316,-10955.047942,1554.432478,-76.609550
2961.793653,-10807.006753,1332.370696,-995.924147
2961.793991,-10436.903782,1406.391290,-689.485948
2961.794328,-10214.842000,1110.308913,-1225.752797
2961.794666,-8882.471304,222.061783,-919.314598
2961.795003,-8586.388927,-518.144159,0.000000
2961.795341,-9474.636058,-592.164754,919.314598
2961.795679,-10732.986159,0.000000,0.000000
2961.796016,-11621.233289,-1776.494261,-766.095498
2961.796354,-10807.006753,-2516.700203,-536.266849
2961.796691,-9992.780217,-3108.864956,0.000000
2961.797029,-9474.636058,-2960.823768,919.314598
2961.797366,-8956.491898,-3182.885551,536.266849
2961.797704,-9104.533087,-2516.700203,0.000000
2961.798042,-10288.862594,-1332.370696,-842.705048
2961.798379,-11917.315666,-888.247130,-1225.752797
2961.798717,-11103.089130,-1554.432478,-766.095498
2961.799054,-10658.965565,-2294.638420,153.219100
2961.799392,-9992.780217,-1258.350101,1608.800546
2961.799729,-9326.594869,-1036.288319,1225.752797
2961.800067,-9622.677246,-1184.329507,2145.067394
2961.800404,-10140.821405,-1480.411884,1838.629195
2961.800742,-11177.109724,148.041188,1532.190996
2961.801080,-11769.274478,1332.370696,-306.438199
2961.801417,-9548.656652,222.061783,-919.314598
2961.801755,-9400.615463,74.020594,0.000000
2961.802092,-8882.471304,370.102971,-919.314598
2961.802430,-9474.636058,444.123565,0.000000
2961.802767,-9844.739029,444.123565,459.657299
2961.803105,-11029.068536,296.082377,-612.876398
2961.803442,-11177.109724,814.226536,-1608.800546
2961.803780,-9030.512492,74.020594,-459.657299
2961.804118,-8586.388927,-1258.350101,1149.143247
2961.804455,-9030.512492,-370.102971,1149.143247
2961.804793,-8882.471304,592.164754,1072.533697
2961.805130,-9844.739029,888.247130,536.266849
2961.805468,-9918.759623,666.185348,229.828649
2961.805805,-10732.986159,1702.473667,0.000000
2961.806143,-11399.171507,444.123565,919.314598
2961.806481,-9918.759623,296.082377,1532.190996
2961.806818,-9326.594869,-518.144159,1685.410096
2961.807156,-9474.636058,-296.082377,1685.410096
2961.807493,-9474.636058,-666.185348,1838.629195
2961.807831,-10658.965565,-1258.350101,1685.410096
2961.808168,-10288.862594,222.061783,459.657299
2961.808506,-11177.109724,0.000000,-306.438199
2961.808843,-10362.883188,-370.102971,-536.266849
2961.809181,-9622.677246,-222.061783,0.000000
2961.809519,-10732.986159,-518.144159,-842.705048
2961.809856,-11029.068536,-814.226536,-2145.067394
2961.810194,-9992.780217,-1480.411884,-1915.238745
2961.810531,-9992.780217,-2960.823768,-1149.143247
2961.810869,-9474.636058,-2960.823768,-459.657299
2961.811206,-8956.491898,-2146.597232,0.000000
2961.811544,-9252.574275,-2368.659014,229.828649
2961.811882,-10288.862594,-1332.370696,306.438199
2961.812219,-11029.068536,-1036.288319,0.000000
2961.812557,-11325.150913,-222.061783,612.876398
2961.812894,-11325.150913,-518.144159,2221.676944
2961.813232,-10732.986159,0.000000,1915.238745
2961.813569,-10362.883188,1036.288319,1762.019645
2961.813907,-9548.656652,222.061783,1149.143247
2961.814244,-9400.615463,370.102971,1455.581446
2961.814582,-9918.759623,814.226536,1302.362347
2961.814920,-10214.842000,1036.288319,766.095498
2961.815257,-9474.636058,1184.329507,76.609550
2961.815595,-10214.842000,1184.329507,306.438199
2961.815932,-9770.718434,1850.514855,-536.266849
2961.816270,-9178.553681,1480.411884,-612.876398
2961.816607,-8956.491898,1628.453072,306.438199
2961.816945,-9770.718434,2072.576638,-689.485948
2961.817282,-9918.759623,222.061783,-1685.410096
2961.817620,-9992.780217,-296.082377,-919.314598
2961.817958,-8956.491898,-1184.329507,-229.828649
2961.818295,-9474.636058,-1184.329507,919.314598
2961.818633,-9918.759623,-592.164754,0.000000
2961.818970,-9178.553681,-666.185348,76.609550
2961.819308,-10066.800811,-296.082377,153.219100
2961.819645,-10881.027347,222.061783,306.438199
2961.819983,-11547.212695,296.082377,153.219100
2961.820321,-11029.068536,0.000000,306.438199
2961.820658,-10436.903782,0.000000,995.924147
2961.820996,-9622.677246,-370.102971,1455.581446
2961.821333,-10066.800811,-370.102971,1685.410096
2961.821671,-10362.883188,-1258.350101,1991.848295
2961.822008,-10732.986159,-518.144159,995.924147
2961.822346,-11029.068536,592.164754,-306.438199
2961.822683,-10881.027347,74.020594,-995.924147
2961.823021,-9992.780217,-444.123565,-689.485948
2961.823359,-9474.636058,-518.144159,-766.095498
2961.823696,-9548.656652,-370.102971,-306.438199
2961.824034,-8734.430116,-518.144159,0.000000
2961.824371,-9918.759623,-740.205942,229.828649
2961.824709,-10510.924376,-296.082377,-766.095498
2961.825046,-10510.924376,-444.123565,-1225.752797
2961.825384,-10362.883188,-666.185348,536.266849
2961.825722,-9474.636058,-1850.514855,1072.533697
2961.826059,-8660.409521,-296.082377,1149.143247
2961.826397,-9548.656652,0.000000,1225.752797
2961.826734,-9992.780217,0.000000,1302.362347
2961.827072,-9992.780217,740.205942,842.705048
2961.827409,-10807.006753,1480.411884,1225.752797
2961.827747,-10288.862594,1332.370696,1072.533697
2961.828084,-9548.656652,1406.391290,2145.067394
2961.828422,-10066.800811,518.144159,1685.410096
2961.828760,-10732.986159,1628.453072,536.266849
2961.829097,-9992.780217,1110.308913,459.657299
2961.829435,-10214.842000,1258.350101,76.609550
2961.829772,-9844.739029,814.226536,-919.314598
2961.830110,-10362.883188,0.000000,-919.314598
2961.830447,-9252.574275,-962.267725,-995.924147
2961.830785,-9178.553681,-888.247130,-766.095498
2961.831122,-9622.677246,-814.226536,-842.705048
2961.831460,-10214.842000,-1332.370696,-919.314598
2961.831798,-9474.636058,-1776.494261,-612.876398
2961.832135,-9992.780217,-1258.350101,-459.657299
2961.832473,-10362.883188,-666.185348,-612.876398
2961.832810,-10732.986159,-1776.494261,-689.485948
2961.833148,-10584.944971,-1850.514855,-1532.190996
2961.833485,-10288.862594,-2294.638420,-689.485948
2961.833823,-10214.842000,-2368.659014,229.828649
2961.834161,-9696.697840,-1332.370696,1915.238745
2961.834498,-10214.842000,-1258.350101,2911.162892
2961.834836,-10362.883188,666.185348,2528.115143
2961.835173,-11843.295072,1110.308913,842.705048
2961.835511,-11399.171507,0.000000,1225.752797
2961.835848,-11177.109724,296.082377,1225.752797
2961.836186,-9992.780217,74.020594,1378.971896
2961.836523,-9474.636058,1036.288319,1455.581446
2961.836861,-8216.285956,1036.288319,76.609550
2961.837199,-10288.862594,888.247130,306.438199
2961.837536,-10658.965565,1776.494261,-1149.143247
2961.837874,-10140.821405,888.247130,-1225.752797
2961.838211,-10436.903782,148.041188,383.047749
2961.838549,-9178.553681,0.000000,-536.266849
2961.838886,-8290.306550,148.041188,153.219100
2961.839224,-8142.265362,-296.082377,1378.971896
2961.839562,-9030.512492,296.082377,1608.800546
2961.839899,-9992.780217,1258.350101,153.219100
2961.840237,-10584.944971,888.247130,-459.657299
2961.840574,-10362.883188,0.000000,-306.438199
2961.840912,-9992.780217,-370.102971,306.438199
2961.841249,-9326.594869,148.041188,536.266849
2961.841587,-9030.512492,-518.144159,919.314598
2961.841924,-9474.636058,222.061783,2298.286494
2961.842262,-10362.883188,370.102971,1608.800546
2961.842600,-11325.150913,962.267725,306.438199
2961.842937,-11843.295072,296.082377,536.266849
2961.843275,-11251.130318,296.082377,-306.438199
2961.843612,-9918.759623,222.061783,-1378.971896
2961.843950,-9918.759623,-592.164754,-995.924147
2961.844287,-9030.512492,-1110.308913,0.000000
2961.844625,-9696.697840,-1110.308913,229.828649
2961.844962,-10584.944971,0.000000,-919.314598
2961.845300,-11769.274478,370.102971,-1302.362347
2961.845638,-11251.130318,-1258.350101,-1838.629195
2961.845975,-10214.842000,-1850.514855,-995.924147
2961.846313,-10288.862594,-3182.885551,536.266849
2961.846650,-7994.224174,-2738.761985,1915.238745
2961.846988,-8364.327145,-2294.638420,2451.505594
2961.847325,-10955.047942,-1036.288319,1762.019645
2961.847663,-10955.047942,0.000000,-766.095498
2961.848001,-10658.965565,222.061783,76.609550
2961.848338,-10436.903782,74.020594,995.924147
2961.848676,-9622.677246,296.082377,1149.143247
2961.849013,-10066.800811,740.205942,1378.971896
2961.849351,-8734.430116,0.000000,1685.410096
2961.849688,-9696.697840,814.226536,2911.162892
2961.850026,-10732.986159,2368.659014,2068.457845
2961.850363,-10881.027347,2294.638420,76.609550
2961.850701,-10510.924376,1628.453072,0.000000
2961.851039,-9770.718434,888.247130,-383.047749
2961.851376,-9030.512492,148.041188,-995.924147
2961.851714,-8882.471304,-222.061783,0.000000
2961.852051,-8290.306550,0.000000,306.438199
2961.852389,-9326.594869,1628.453072,-1072.533697
2961.852726,-10510.924376,518.144159,-1991.848295
2961.853064,-11103.089130,-74.020594,-383.047749
2961.853402,-10214.842000,-666.185348,-689.485948
2961.853739,-10214.842000,-1406.391290,-766.095498
2961.854077,-9474.636058,-1628.453072,0.000000
2961.854414,-8660.409521,-2590.720797,306.438199
2961.854752,-9252.574275,-2516.700203,1991.848295
2961.855089,-9844.739029,-1110.308913,76.609550
2961.855427,-10881.027347,148.041188,536.266849
2961.855764,-11769.274478,74.020594,-306.438199
2961.856102,-11473.192101,-222.061783,-919.314598
2961.856440,-10362.883188,-888.247130,-229.828649
2961.856777,-9770.718434,-1110.308913,1225.752797
2961.857115,-9474.636058,-1258.350101,2451.505594
2961.857452,-9622.677246,148.041188,1762.019645
2961.857790,-10362.883188,1258.350101,-76.609550
2961.858127,-11547.212695,74.020594,-383.047749
2961.858465,-11473.192101,-592.164754,-1149.143247
2961.858802,-10214.842000,-1628.453072,-536.266849
2961.859140,-9474.636058,-1110.308913,-306.438199
2961.859478,-7550.100608,-740.205942,536.266849
2961.859815,-9030.512492,-592.164754,1149.143247
2961.860153,-9400.615463,-222.061783,-842.705048
2961.860490,-9770.718434,0.000000,-1149.143247
2961.860828,-10807.006753,370.102971,1149.143247
2961.861165,-10732.986159,-296.082377,153.219100
2961.861503,-10658.965565,-1036.288319,76.609550
2961.861841,-9474.636058,-962.267725,2145.067394
2961.862178,-8068.244768,-1110.308913,3217.601092
2961.862516,-9030.512492,962.267725,3830.477490
2961.862853,-10214.842000,1184.329507,2604.724693
2961.863191,-11399.171507,1554.432478,842.705048
2961.863528,-11991.336260,2294.638420,0.000000
2961.863866,-11621.233289,1850.514855,-76.609550
2961.864203,-10658.965565,1480.411884,0.000000
2961.864541,-8808.450710,518.144159,689.485948
2961.864879,-9030.512492,666.185348,1532.190996
2961.865216,-9622.677246,740.205942,-229.828649
2961.865554,-9992.780217,0.000000,-153.219100
2961.865891,-11473.192101,-74.020594,-689.485948
2961.866229,-11103.089130,-1110.308913,-2374.896044
2961.866566,-9474.636058,-666.185348,-3217.601092
2961.866904,-8290.306550,-2368.659014,-2221.676944
2961.867241,-8142.265362,-2220.617826,612.876398
2961.867579,-9252.574275,-1258.350101,766.095498
2961.867917,-10732.986159,-148.041188,-306.438199
2961.868254,-11695.253884,-1184.329507,-383.047749
2961.868592,-12213.398043,-1258.350101,-612.876398
2961.868928,-10881.027347,-2368.659014,536.266849
2961.869265,-8438.347739,-2516.700203,536.266849
2961.869602,-8290.306550,-2294.638420,2145.067394
2961.869940,-9844.739029,-1850.514855,1838.629195
2961.870277,-10955.047942,888.247130,689.485948
2961.870614,-11251.130318,1258.350101,76.609550
2961.870951,-11843.295072,2072.576638,0.000000
2961.871289,-11991.336260,1924.535449,-459.657299
2961.871626,-10510.924376,222.061783,-306.438199
2961.871963,-8438.347739,-592.164754,1149.143247
2961.872301,-7550.100608,-592.164754,1915.238745
2961.872638,-9548.656652,518.144159,1915.238745
2961.872975,-10658.965565,1628.453072,-76.609550
2961.873313,-11103.089130,1332.370696,-1149.143247
2961.873650,-10881.027347,1480.411884,-1762.019645
2961.873987,-10288.862594,0.000000,-1915.238745
2961.874324,-8734.430116,-666.185348,-766.095498
2961.874662,-7179.997637,-1776.494261,459.657299
2961.874999,-7698.141797,-1184.329507,1532.190996
2961.875336,-8956.491898,666.185348,612.876398
2961.875674,-9622.677246,0.000000,1072.533697
2961.876011,-10510.924376,0.000000,1302.362347
2961.876348,-11325.150913,-592.164754,919.314598
2961.876685,-11843.295072,0.000000,1762.019645
2961.877023,-9622.677246,-1036.288319,1608.800546
2961.877360,-9474.636058,-1480.411884,3064.381992
2961.877697,-10066.800811,74.020594,2221.676944
2961.878035,-10362.883188,814.226536,459.657299
2961.878372,-10955.047942,666.185348,153.219100
2961.878709,-11769.274478,148.041188,-306.438199
2961.879047,-11621.233289,740.205942,-1149.143247
2961.879384,-11473.192101,-444.123565,-1762.019645
2961.879721,-9400.615463,-1258.350101,-306.438199
2961.880058,-9178.553681,-1924.535449,306.438199
2961.880396,-9400.615463,-1184.329507,689.485948
2961.880733,-10214.842000,-1184.329507,306.438199
2961.881070,-11103.089130,-1036.288319,-995.924147
2961.881408,-10732.986159,-2072.576638,-1685.410096
2961.881745,-10214.842000,-2812.782580,-2068.457845
2961.882082,-8364.327145,-2664.741391,-995.924147
2961.882419,-7994.224174,-2590.720797,766.095498
2961.882757,-8660.409521,-1924.535449,1072.533697
2961.883094,-9326.594869,-1480.411884,1072.533697
2961.883431,-10510.924376,-74.020594,1915.238745
2961.883769,-11843.295072,148.041188,2374.896044
2961.884106,-11621.233289,-296.082377,919.314598
2961.884443,-11103.089130,0.000000,306.438199
2961.884781,-8290.306550,-518.144159,919.314598
2961.885118,-8290.306550,222.061783,2604.724693
2961.885455,-8808.450710,740.205942,1762.019645
2961.885792,-10955.047942,1998.556043,459.657299
2961.886130,-11547.212695,2368.659014,-612.876398
2961.886467,-11991.336260,1850.514855,-1225.752797
2961.886804,-11547.212695,962.267725,-842.705048
2961.887142,-9030.512492,222.061783,-76.609550
2961.887479,-8734.430116,-888.247130,1072.533697
2961.887816,-8882.471304,296.082377,-689.485948
2961.888153,-8882.471304,-148.041188,-1455.581446
2961.888491,-10436.903782,-222.061783,-689.485948
2961.888828,-10436.903782,-740.205942,-1378.971896
2961.889165,-10955.047942,-444.123565,-1302.362347
2961.889503,-10584.944971,-962.267725,-1149.143247
2961.889840,-8586.388927,-2368.659014,0.000000
2961.890177,-8734.430116,-2368.659014,2604.724693
2961.890515,-8734.430116,-1850.514855,1378.971896
2961.890852,-9252.574275,-222.061783,1762.019645
2961.891189,-11695.253884,-222.061783,919.314598
2961.891526,-12657.521608,-74.020594,76.609550
2961.891864,-11325.150913,0.000000,-1378.971896
2961.892201,-9548.656652,0.000000,-612.876398
2961.892538,-9030.512492,-962.267725,1072.533697
2961.892876,-9400.615463,-592.164754,919.314598
2961.893213,-9918.759623,666.185348,-153.219100
2961.893550,-10362.883188,74.020594,0.000000
2961.893887,-11473.192101,888.247130,229.828649
2961.894225,-11547.212695,518.144159,-1378.971896
2961.894562,-10955.047942,74.020594,-1685.410096
2961.894899,-8586.388927,-2072.576638,0.000000
2961.895237,-8734.430116,-1332.370696,766.095498
2961.895574,-9030.512492,-1184.329507,612.876398
2961.895911,-9104.533087,0.000000,0.000000
2961.896248,-11177.109724,-740.205942,1378.971896
2961.896586,-11843.295072,888.247130,0.000000
2961.896923,-10955.047942,-370.102971,-536.266849
2961.897260,-9474.636058,-962.267725,1378.971896
2961.897598,-7254.018232,-1480.411884,2604.724693
2961.897935,-8216.285956,444.123565,2374.896044
2961.898272,-9622.677246,1110.308913,2068.457845
2961.898610,-10881.027347,1628.453072,1149.143247
2961.898947,-11029.068536,2368.659014,306.438199
2961.899284,-11547.212695,1776.494261,0.000000
2961.899621,-10436.903782,1258.350101,-76.609550
2961.899959,-9178.553681,-1406.391290,229.828649
2961.900296,-9326.594869,-222.061783,2145.067394
2961.900633,-8808.450710,-222.061783,-306.438199
2961.900971,-10066.800811,0.000000,0.000000
2961.901308,-10436.903782,-518.144159,-612.876398
2961.901645,-10658.965565,-1332.370696,-1532.190996
2961.901982,-11029.068536,-888.247130,-1608.800546
2961.902320,-10288.862594,-2368.659014,-1762.019645
2961.902657,-8808.450710,-2072.576638,-383.047749
2961.902994,-9844.739029,-3404.947333,-306.438199
2961.903332,-10140.821405,-2368.659014,0.000000
2961.903669,-10140.821405,-1998.556043,0.000000
2961.904006,-11399.171507,-1332.370696,306.438199
2961.904344,-11473.192101,-1480.411884,-766.095498
2961.904681,-10658.965565,-1480.411884,-459.657299
2961.905018,-9844.739029,-1258.350101,689.485948
2961.905355,-10362.883188,-2294.638420,1762.019645
2961.905693,-10066.800811,-1184.329507,1685.410096
2961.906030,-10066.800811,0.000000,1455.581446
2961.906367,-10658.965565,592.164754,1685.410096
2961.906705,-10584.944971,1332.370696,306.438199
2961.907042,-11103.089130,1554.432478,-995.924147
2961.907379,-9770.718434,0.000000,0.000000
2961.907716,-9178.553681,-444.123565,459.657299
2961.908054,-8808.450710,-74.020594,766.095498
2961.908391,-8808.450710,518.144159,153.219100
2961.908728,-9030.512492,296.082377,766.095498
2961.909066,-10436.903782,888.247130,76.609550
2961.909403,-10214.842000,74.020594,-842.705048
2961.909740,-9696.697840,-444.123565,-536.266849
2961.910078,-8882.471304,-1480.411884,1225.752797
2961.910415,-8660.409521,-962.267725,1378.971896
2961.910752,-8512.368333,222.061783,612.876398
2961.911089,-9770.718434,0.000000,1072.533697
2961.911427,-10362.883188,592.164754,459.657299
2961.911764,-11769.274478,222.061783,612.876398
2961.912101,-11621.233289,666.185348,536.266849
2961.912439,-10881.027347,0.000000,229.828649
2961.912776,-10584.944971,-444.123565,1608.800546
2961.913113,-9474.636058,-814.226536,689.485948
2961.913450,-8586.388927,-814.226536,1302.362347
2961.913788,-10140.821405,148.041188,2374.896044
2961.914125,-11843.295072,-74.020594,612.876398
2961.914462,-11843.295072,148.041188,-1532.190996
2961.914800,-11103.089130,-518.144159,-2068.457845
2961.915137,-9548.656652,-888.247130,-459.657299
2961.915474,-8882.471304,-1776.494261,-76.609550
2961.915812,-9030.512492,-1184.329507,-1302.362347
2961.916149,-9030.512492,-2294.638420,-919.314598
2961.916486,-10140.821405,-1924.535449,-1532.190996
2961.916823,-10436.903782,-2072.576638,-1149.143247
2961.917161,-10881.027347,-2442.679609,-1072.533697
2961.917498,-9548.656652,-2368.659014,153.219100
2961.917835,-9844.739029,-2146.597232,1149.143247
2961.918173,-9326.594869,-1258.350101,306.438199
2961.918510,-9474.636058,-666.185348,919.314598
2961.918847,-9918.759623,-666.185348,919.314598
2961.919184,-11621.233289,740.205942,689.485948
2961.919522,-11695.253884,1036.288319,-383.047749
2961.919859,-10732.986159,888.247130,689.485948
2961.920196,-8882.471304,444.123565,1838.629195
2961.920534,-10066.800811,370.102971,2604.724693
2961.920871,-9918.759623,1776.494261,1838.629195
2961.921208,-10436.903782,1332.370696,1302.362347
2961.921545,-10362.883188,2146.597232,1685.410096
2961.921883,-10732.986159,2516.700203,0.000000
2961.922220,-10807.006753,2590.720797,-689.485948
2961.922557,-9696.697840,1332.370696,-1378.971896
2961.922895,-9548.656652,-444.123565,-306.438199
2961.923232,-9252.574275,740.205942,-2145.067394
2961.923569,-7772.162391,-370.102971,-1455.581446
2961.923907,-9326.594869,-740.205942,536.266849
2961.924244,-9770.718434,-1258.350101,459.657299
2961.924581,-10288.862594,-370.102971,153.219100
2961.924918,-10510.924376,-592.164754,383.047749
2961.925256,-9622.677246,-1702.473667,306.438199
2961.925593,-10066.800811,-1850.514855,536.266849
2961.925930,-9770.718434,-1924.535449,995.924147
2961.926268,-8734.430116,-1850.514855,1762.019645
2961.926605,-9548.656652,-888.247130,1685.410096
2961.926942,-10510.924376,0.000000,995.924147
2961.927279,-10510.924376,-370.102971,-612.876398
2961.927617,-10510.924376,-962.267725,306.438199
2961.927954,-10658.965565,-592.164754,919.314598
2961.928291,-10362.883188,-222.061783,153.219100
2961.928629,-10510.924376,-592.164754,612.876398
2961.928966,-10140.821405,-1184.329507,383.047749
2961.929303,-9992.780217,-444.123565,383.047749
2961.929641,-10658.965565,-222.061783,-612.876398
2961.929978,-10288.862594,-666.185348,-1225.752797
2961.930315,-9696.697840,-1258.350101,-536.266849
2961.930652,-9548.656652,-888.247130,-1072.533697
2961.930990,-9326.594869,-740.205942,-612.876398
2961.931327,-9622.677246,-518.144159,612.876398
2961.931664,-10510.924376,-444.123565,842.705048
2961.932002,-11103.089130,0.000000,0.000000
2961.932339,-10955.047942,-592.164754,0.000000
2961.932676,-9474.636058,-592.164754,1991.848295
2961.933013,-9474.636058,-1480.411884,2604.724693
2961.933351,-8956.491898,592.164754,2221.676944
2961.933688,-8956.491898,518.144159,1455.581446
2961.934025,-9400.615463,148.041188,1378.971896
2961.934363,-9696.697840,1776.494261,612.876398
2961.934700,-10955.047942,1998.556043,689.485948
2961.935037,-11547.212695,1702.473667,-383.047749
2961.935375,-9622.677246,74.020594,0.000000
2961.935712,-10066.800811,222.061783,1455.581446
2961.936049,-8660.409521,444.123565,842.705048
2961.936386,-9474.636058,-370.102971,229.828649
2961.936724,-10214.842000,-222.061783,0.000000
2961.937061,-11103.089130,-222.061783,-1838.629195
2961.937398,-10288.862594,-148.041188,-1072.533697
2961.937736,-10436.903782,-1332.370696,-1532.190996
2961.938073,-10584.944971,-888.247130,-459.657299
2961.938410,-10288.862594,-1776.494261,-919.314598
2961.938747,-10140.821405,-1702.473667,76.609550
2961.939085,-10288.862594,-1184.329507,689.485948
2961.939422,-10510.924376,-1776.494261,0.000000
2961.939759,-11325.150913,-1924.535449,689.485948
2961.940097,-10362.883188,-2146.597232,612.876398
2961.940434,-9030.512492,-1702.473667,1838.629195
2961.940771,-9992.780217,-1110.308913,1378.971896
2961.941109,-10214.842000,0.000000,612.876398
2961.941446,-10436.903782,-296.082377,306.438199
2961.941783,-10436.903782,74.020594,459.657299
2961.942120,-10214.842000,222.061783,536.266849
2961.942458,-9622.677246,888.247130,-842.705048
2961.942795,-8438.347739,0.000000,-306.438199
2961.943132,-7328.038826,0.000000,0.000000
2961.943470,-8956.491898,1036.288319,0.000000
2961.943807,-11177.109724,666.185348,153.219100
2961.944144,-10362.883188,814.226536,-1149.143247
2961.944481,-10140.821405,592.164754,-1532.190996
2961.944819,-11621.233289,222.061783,-383.047749
2961.945156,-9178.553681,1036.288319,0.000000
2961.945493,-7994.224174,-148.041188,306.438199
2961.945831,-9696.697840,296.082377,689.485948
2961.946168,-10066.800811,962.267725,306.438199
2961.946505,-11547.212695,444.123565,919.314598
2961.946842,-11399.171507,592.164754,689.485948
2961.947180,-10955.047942,-296.082377,1072.533697
2961.947517,-11177.109724,814.226536,2298.286494
2961.947854,-8956.491898,222.061783,2145.067394
2961.948192,-9252.574275,-518.144159,2681.334243
2961.948529,-9770.718434,222.061783,919.314598
2961.948866,-9474.636058,-148.041188,-76.609550
2961.949204,-10362.883188,296.082377,536.266849
2961.949541,-10214.842000,-962.267725,229.828649
2961.949878,-10066.800811,-296.082377,-689.485948
2961.950215,-8882.471304,0.000000,-536.266849
2961.950553,-8068.244768,-370.102971,153.219100
2961.950890,-10066.800811,-592.164754,0.000000
2961.951227,-11621.233289,-1258.350101,-1225.752797
2961.951565,-10140.821405,-2072.576638,-1608.800546
2961.951902,-9326.594869,-1702.473667,-842.705048
2961.952239,-10140.821405,-2072.576638,-76.609550
2961.952576,-10362.883188,-1998.556043,-995.924147
2961.952914,-9474.636058,-2146.597232,229.828649
2961.953251,-10140.821405,-1480.411884,612.876398
2961.953588,-10436.903782,-666.185348,229.828649
2961.953926,-11621.233289,-148.041188,1149.143247
2961.954263,-11769.274478,-962.267725,1915.238745
2961.954600,-10955.047942,-592.164754,2221.676944
2961.954938,-9992.780217,518.144159,2374.896044
2961.955275,-9474.636058,1184.329507,1991.848295
2961.955612,-9770.718434,0.000000,2145.067394
2961.955949,-10214.842000,1480.411884,306.438199
2961.956287,-10362.883188,2294.638420,-612.876398
2961.956624,-10288.862594,1480.411884,-459.657299
2961.956961,-9474.636058,1258.350101,-612.876398
2961.957299,-9326.594869,1110.308913,-153.219100
2961.957636,-9622.677246,814.226536,-995.924147
2961.957973,-8216.285956,222.061783,0.000000
2961.958310,-9252.574275,-518.144159,536.266849
2961.958648,-9474.636058,1036.288319,-689.485948
2961.958985,-9770.718434,-74.020594,-1608.800546
2961.959322,-9844.739029,-814.226536,-383.047749
2961.959660,-9178.553681,-1110.308913,0.000000
2961.959997,-9770.718434,-2072.576638,459.657299
2961.960334,-8808.450710,-1258.350101,536.266849
2961.960672,-8808.450710,-1258.350101,1685.410096
2961.961009,-11325.150913,-518.144159,1838.629195
2961.961346,-11843.295072,-370.102971,383.047749
2961.961683,-11325.150913,0.000000,0.000000
2961.962021,-10510.924376,-296.082377,766.095498
2961.962358,-10881.027347,-962.267725,689.485948
2961.962695,-9770.718434,74.020594,689.485948
2961.963033,-9400.615463,-518.144159,1532.190996
2961.963370,-10807.006753,518.144159,1455.581446
2961.963707,-12065.356855,740.205942,-536.266849
2961.964044,-11547.212695,592.164754,-766.095498
2961.964382,-10140.821405,-962.267725,-612.876398
2961.964719,-10140.821405,-888.247130,153.219100
2961.965056,-9326.594869,-888.247130,-919.314598
2961.965394,-8660.409521,-1480.411884,-612.876398
2961.965731,-9252.574275,-1702.473667,0.000000
2961.966068,-9474.636058,-592.164754,-612.876398
2961.966405,-10436.903782,0.000000,-612.876398
2961.966743,-9770.718434,-518.144159,-1532.190996
2961.967080,-9400.615463,-1110.308913,-536.266849
2961.967417,-9918.759623,-740.205942,459.657299
2961.967754,-9178.553681,-1702.473667,689.485948
2961.968092,-8216.285956,-1184.329507,2681.334243
2961.968429,-9548.656652,-296.082377,3064.381992
2961.968766,-9844.739029,1258.350101,1991.848295
2961.969103,-11325.150913,1776.494261,1532.190996
2961.969441,-10881.027347,814.226536,0.000000
2961.969778,-9770.718434,1776.494261,229.828649
2961.970115,-9770.718434,1406.391290,306.438199
2961.970452,-9252.574275,1480.411884,229.828649
2961.970789,-9474.636058,518.144159,612.876398
2961.971127,-11177.109724,1702.473667,-383.047749
2961.971464,-10955.047942,1480.411884,-1991.848295
2961.971801,-10955.047942,518.144159,-995.924147
2961.972138,-10140.821405,-296.082377,0.000000
2961.972476,-9696.697840,-1258.350101,-536.266849
2961.972813,-9104.533087,-1628.453072,-612.876398
2961.973150,-9030.512492,-1924.535449,153.219100
2961.973487,-10288.862594,-1628.453072,842.705048
2961.973825,-10584.944971,-740.205942,-766.095498
2961.974162,-11103.089130,-888.247130,-1072.533697
2961.974499,-10214.842000,-1480.411884,-1072.533697
2961.974836,-9622.677246,-1998.556043,-153.219100
2961.975173,-10288.862594,-2368.659014,0.000000
2961.975511,-8734.430116,-2368.659014,612.876398
2961.975848,-8068.244768,-1332.370696,2298.286494
2961.976185,-11029.068536,-444.123565,2987.772442
2961.976522,-11473.192101,1258.350101,2068.457845
2961.976860,-11695.253884,888.247130,1455.581446
2961.977197,-11547.212695,296.082377,1762.019645
2961.977534,-10658.965565,148.041188,842.705048
2961.977871,-9474.636058,592.164754,1072.533697
2961.978209,-9030.512492,0.000000,2221.676944
2961.978546,-9548.656652,1036.288319,919.314598
2961.978883,-10807.006753,2072.576638,-842.705048
2961.979220,-10955.047942,2516.700203,-1915.238745
2961.979557,-10584.944971,1184.329507,-1225.752797
2961.979895,-10288.862594,592.164754,-842.705048
2961.980232,-10140.821405,222.061783,-1225.752797
2961.980569,-8660.409521,0.000000,-459.657299
2961.980906,-7920.203579,-740.205942,1608.800546
2961.981244,-8586.388927,222.061783,919.314598
2961.981581,-9474.636058,666.185348,459.657299
2961.981918,-10362.883188,0.000000,536.266849
2961.982255,-11029.068536,0.000000,1302.362347
2961.982593,-10955.047942,-296.082377,612.876398
2961.982930,-9844.739029,0.000000,1302.362347
2961.983267,-8216.285956,-592.164754,1149.143247
2961.983604,-9474.636058,0.000000,1838.629195
2961.983941,-9474.636058,666.185348,766.095498
2961.984279,-9770.718434,0.000000,-919.314598
2961.984616,-10732.986159,444.123565,-689.485948
2961.984953,-11695.253884,-740.205942,-536.266849
2961.985290,-10214.842000,-1258.350101,-919.314598
2961.985628,-8438.347739,-2664.741391,842.705048
2961.985965,-8364.327145,-1258.350101,2221.676944
2961.986302,-10140.821405,0.000000,689.485948
2961.986639,-11991.336260,-148.041188,-1608.800546
2961.986977,-12435.459826,-1480.411884,-2374.896044
2961.987314,-11917.315666,-2442.679609,-1915.238745
2961.987651,-9770.718434,-2738.761985,-536.266849
2961.987988,-8956.491898,-2516.700203,153.219100
2961.988325,-8290.306550,-3256.906145,1915.238745
2961.988663,-10214.842000,-1776.494261,1991.848295
2961.989000,-11325.150913,-592.164754,842.705048
2961.989337,-11695.253884,148.041188,995.924147
2961.989674,-12583.501014,74.020594,1608.800546
2961.990012,-12509.480420,0.000000,842.705048
2961.990349,-10362.883188,592.164754,536.266849
2961.990686,-7328.038826,-592.164754,1762.019645
2961.991023,-7254.018232,-296.082377,3217.601092
2961.991361,-9474.636058,1554.432478,2221.676944
2961.991698,-10510.924376,2516.700203,229.828649
2961.992035,-11325.150913,1998.556043,-689.485948
2961.992372,-10658.965565,1628.453072,-1302.362347
2961.992709,-9548.656652,1258.350101,-995.924147
2961.993047,-8142.265362,0.000000,-995.924147
2961.993384,-7105.977043,518.144159,0.000000
2961.993721,-9326.594869,444.123565,306.438199
2961.994058,-10066.800811,1110.308913,-1532.190996
2961.994396,-9548.656652,666.185348,-2145.067394
2961.994733,-10955.047942,592.164754,-612.876398
2961.995070,-11325.150913,-740.205942,-1225.752797
2961.995407,-10732.986159,-1480.411884,-1302.362347
2961.995745,-8956.491898,-1628.453072,306.438199
2961.996082,-8142.265362,-1480.411884,1685.410096
2961.996419,-10362.883188,-148.041188,1225.752797
2961.996756,-11621.233289,-814.226536,0.000000
2961.997093,-11029.068536,296.082377,76.609550
2961.997431,-11547.212695,148.041188,-383.047749
2961.997768,-11769.274478,-148.041188,0.000000
2961.998105,-9548.656652,-1406.391290,612.876398
2961.998442,-9030.512492,-1628.453072,2604.724693
2961.998780,-9474.636058,-444.123565,2528.115143
2961.999117,-10584.944971,1258.350101,1072.533697
2961.999454,-11547.212695,74.020594,536.266849
2961.999791,-10881.027347,0.000000,-842.705048
2962.000129,-11029.068536,148.041188,-1608.800546
2962.000466,-10066.800811,-740.205942,-1608.800546
2962.000803,-8068.244768,-1924.535449,-383.047749
2962.001140,-7179.997637,-2220.617826,842.705048
2962.001477,-8808.450710,-592.164754,383.047749
2962.001815,-10510.924376,-74.020594,766.095498
2962.002152,-11251.130318,0.000000,689.485948
2962.002489,-11177.109724,-74.020594,689.485948
2962.002826,-10362.883188,-296.082377,612.876398
2962.003164,-10066.800811,-1036.288319,1991.848295
2962.003501,-8290.306550,-1184.329507,3064.381992
2962.003838,-8956.491898,-740.205942,2681.334243
2962.004175,-9918.759623,1776.494261,1685.410096
2962.004513,-10807.006753,2368.659014,689.485948
2962.004850,-10584.944971,1628.453072,-612.876398
2962.005187,-10881.027347,2368.659014,76.609550
2962.005524,-10436.903782,1406.391290,229.828649
2962.005861,-9400.615463,1406.391290,76.609550
2962.006199,-8438.347739,222.061783,689.485948
2962.006536,-9844.739029,1036.288319,612.876398
2962.006873,-9992.780217,444.123565,459.657299
2962.007210,-10288.862594,0.000000,-383.047749
2962.007548,-10658.965565,-296.082377,-306.438199
2962.007885,-11103.089130,-814.226536,-1532.190996
2962.008222,-9992.780217,-1554.432478,-2145.067394
2962.008559,-9030.512492,-3330.926739,-612.876398
2962.008897,-8290.306550,-2590.720797,459.657299
2962.009234,-9326.594869,-1628.453072,-383.047749
2962.009571,-10066.800811,-1628.453072,-919.314598
2962.009908,-9918.759623,-1776.494261,-1225.752797
2962.010245,-11029.068536,-1628.453072,-842.705048
2962.010583,-11695.253884,-2516.700203,-153.219100
2962.010920,-9696.697840,-2812.782580,2145.067394
2962.011257,-9104.533087,-3108.864956,3524.039291
2962.011594,-9844.739029,-1702.473667,2681.334243
2962.011932,-10066.800811,-222.061783,1915.238745
2962.012269,-11251.130318,370.102971,1455.581446
2962.012606,-12213.398043,666.185348,-306.438199
2962.012943,-11843.295072,962.267725,-1608.800546
2962.013281,-10288.862594,1110.308913,-2145.067394
2962.013618,-8216.285956,0.000000,-229.828649
2962.013955,-8586.388927,0.000000,459.657299
2962.014292,-9400.615463,1036.288319,-383.047749
2962.014629,-10584.944971,1184.329507,-153.219100
2962.014967,-10732.986159,814.226536,689.485948
2962.015304,-10658.965565,0.000000,383.047749
2962.015641,-10807.006753,-888.247130,459.657299
2962.015978,-8956.491898,-666.185348,0.000000
2962.016316,-8808.450710,-1776.494261,1378.971896
2962.016653,-8660.409521,-888.247130,919.314598
2962.016990,-8290.306550,814.226536,-229.828649
2962.017327,-9918.759623,666.185348,842.705048
2962.017664,-10214.842000,1184.329507,0.000000
2962.018002,-11103.089130,296.082377,0.000000
2962.018339,-11177.109724,370.102971,459.657299
2962.018676,-8364.327145,-444.123565,1149.143247
2962.019013,-8808.450710,-888.247130,2451.505594
2962.019351,-9770.718434,0.000000,2604.724693
2962.019688,-10140.821405,370.102971,1302.362347
2962.020025,-11103.089130,1406.391290,76.609550
2962.020362,-11695.253884,1036.288319,-1302.362347
2962.020700,-11251.130318,740.205942,-2604.724693
2962.021037,-9548.656652,-592.164754,-1915.238745
2962.021374,-9178.553681,-1110.308913,-459.657299
2962.021711,-8882.471304,-814.226536,-612.876398
2962.022048,-10140.821405,-592.164754,-1302.362347
2962.022386,-10066.800811,-1036.288319,-1302.362347
2962.022723,-10658.965565,-1776.494261,-1072.533697
2962.023060,-11325.150913,-1554.432478,-536.266849
2962.023397,-10955.047942,-2220.617826,306.438199
2962.023735,-10362.883188,-3034.844362,1608.800546
2962.024072,-9326.594869,-2664.741391,1072.533697
2962.024409,-8808.450710,-1850.514855,1072.533697
2962.024746,-9326.594869,-1406.391290,1762.019645
2962.025084,-10362.883188,-148.041188,1915.238745
2962.025421,-10955.047942,-74.020594,1072.533697
2962.025758,-11991.336260,888.247130,0.000000
2962.026095,-9770.718434,148.041188,459.657299
2962.026432,-9844.739029,444.123565,1455.581446
2962.026770,-9400.615463,296.082377,1302.362347
2962.027107,-9326.594869,1332.370696,1915.238745
2962.027444,-10436.903782,2146.597232,1149.143247
2962.027781,-11103.089130,1776.494261,0.000000
2962.028119,-11029.068536,1184.329507,-689.485948
2962.028456,-10436.903782,370.102971,-1302.362347
2962.028793,-8660.409521,148.041188,-306.438199
2962.029130,-9474.636058,74.020594,383.047749
2962.029468,-8586.388927,444.123565,-1302.362347
2962.029805,-8660.409521,74.020594,-995.924147
2962.030142,-9918.759623,0.000000,-383.047749
2962.030479,-10436.903782,-814.226536,-1302.362347
2962.030816,-11695.253884,-444.123565,-689.485948
2962.031154,-9622.677246,-1184.329507,153.219100
2962.031491,-8660.409521,-2368.659014,536.266849
2962.031828,-9400.615463,-1554.432478,2068.457845
2962.032165,-9400.615463,-2368.659014,2374.896044
2962.032503,-9844.739029,-1332.370696,2374.896044
2962.032840,-11399.171507,-518.144159,2681.334243
2962.033177,-11843.295072,0.000000,536.266849
2962.033514,-11251.130318,-666.185348,-153.219100
2962.033852,-9844.739029,-1036.288319,229.828649
2962.034189,-9474.636058,-814.226536,-229.828649
2962.034526,-9400.615463,-370.102971,-919.314598
2962.034863,-9696.697840,-518.144159,-766.095498
2962.035200,-10066.800811,-592.164754,-1149.143247
2962.035538,-10362.883188,-740.205942,-1378.971896
2962.035875,-10658.965565,-444.123565,-1991.848295
2962.036212,-9104.533087,-1554.432478,-153.219100
2962.036549,-8882.471304,-2220.617826,306.438199
2962.036887,-8660.409521,-2368.659014,842.705048
2962.037224,-9844.739029,-2220.617826,1225.752797
2962.037561,-9918.759623,-1258.350101,1762.019645
2962.037898,-10510.924376,-888.247130,1378.971896
2962.038236,-11325.150913,148.041188,-153.219100
2962.038573,-10214.842000,0.000000,-459.657299
2962.038910,-9326.594869,-814.226536,459.657299
2962.039247,-9548.656652,-814.226536,919.314598
2962.039584,-9104.533087,222.061783,1225.752797
2962.039922,-9770.718434,1184.329507,2221.676944
2962.040259,-10066.800811,1850.514855,1838.629195
2962.040596,-11769.274478,1924.535449,1608.800546
2962.040933,-11843.295072,2072.576638,995.924147
2962.041271,-9696.697840,1924.535449,0.000000
2962.041608,-10436.903782,444.123565,919.314598
2962.041945,-10436.903782,1258.350101,229.828649
2962.042282,-8586.388927,74.020594,-766.095498
2962.042620,-9400.615463,222.061783,0.000000
2962.042957,-9548.656652,0.000000,-536.266849
2962.043294,-10066.800811,0.000000,-2834.553343
2962.043631,-10140.821405,-592.164754,-2604.724693
2962.043968,-9400.615463,-1998.556043,-766.095498
2962.044306,-9474.636058,-1480.411884,-383.047749
2962.044643,-9696.697840,-1184.329507,0.000000
2962.044980,-9770.718434,-1776.494261,1072.533697
2962.045317,-9844.739029,-1776.494261,306.438199
2962.045655,-11177.109724,-1924.535449,766.095498
2962.045992,-11695.253884,-962.267725,689.485948
2962.046329,-10510.924376,-1850.514855,995.924147
2962.046666,-9548.656652,-1480.411884,1685.410096
2962.047004,-10140.821405,-814.226536,1455.581446
2962.047341,-10066.800811,-296.082377,1225.752797
2962.047678,-9844.739029,-148.041188,1302.362347
2962.048015,-10732.986159,296.082377,1225.752797
2962.048352,-11251.130318,1110.308913,0.000000
2962.048690,-10732.986159,1776.494261,-612.876398
2962.049027,-9918.759623,888.247130,229.828649
2962.049364,-9992.780217,444.123565,229.828649
2962.049701,-10066.800811,370.102971,689.485948
2962.050039,-10140.821405,-74.020594,306.438199
2962.050376,-10214.842000,74.020594,229.828649
2962.050713,-10140.821405,148.041188,-612.876398
2962.051050,-9770.718434,148.041188,-1225.752797
2962.051388,-8512.368333,-222.061783,-536.266849
2962.051725,-8882.471304,-962.267725,76.609550
2962.052062,-9252.574275,-296.082377,-306.438199
2962.052399,-8660.409521,-592.164754,-153.219100
2962.052736,-9548.656652,-444.123565,1532.190996
2962.053074,-10658.965565,444.123565,1455.581446
2962.053411,-10881.027347,518.144159,1378.971896
2962.053748,-10066.800811,296.082377,1149.143247
2962.054085,-9548.656652,-148.041188,1838.629195
2962.054423,-10510.924376,370.102971,1532.190996
2962.054760,-10362.883188,0.000000,689.485948
2962.055097,-9548.656652,-888.247130,76.609550
2962.055434,-9696.697840,148.041188,229.828649
2962.055772,-10510.924376,666.185348,-612.876398
2962.056109,-9474.636058,444.123565,-1762.019645
2962.056446,-9622.677246,-888.247130,-1149.143247
2962.056783,-10955.047942,-888.247130,0.000000
2962.057120,-10362.883188,-444.123565,-1225.752797
2962.057458,-10881.027347,-1184.329507,-995.924147
2962.057795,-10510.924376,-2442.679609,-612.876398
2962.058132,-9696.697840,-3108.864956,0.000000
2962.058469,-10362.883188,-2368.659014,689.485948
2962.058807,-9400.615463,-2812.782580,459.657299
2962.059144,-9178.553681,-2220.617826,919.314598
2962.059481,-10510.924376,-1776.494261,153.219100
2962.059818,-10362.883188,-1850.514855,-306.438199
2962.060156,-10584.944971,-1850.514855,536.266849
2962.060493,-9474.636058,-1184.329507,612.876398
2962.060830,-10584.944971,-962.267725,2374.896044
2962.061167,-10066.800811,222.061783,1149.143247
2962.061504,-9548.656652,222.061783,1762.019645
2962.061842,-10288.862594,222.061783,1685.410096
2962.062179,-10658.965565,814.226536,1838.629195
2962.062516,-10807.006753,1258.350101,1149.143247
2962.062853,-10214.842000,666.185348,383.047749
2962.063191,-9696.697840,592.164754,0.000000
2962.063528,-9548.656652,1110.308913,0.000000
2962.063865,-9252.574275,666.185348,229.828649
2962.064202,-8808.450710,296.082377,-766.095498
2962.064540,-10362.883188,1332.370696,-919.314598
2962.064877,-10288.862594,592.164754,-1302.362347
2962.065214,-10436.903782,0.000000,-689.485948
2962.065551,-9474.636058,-1036.288319,229.828649
2962.065888,-9548.656652,-814.226536,153.219100
2962.066226,-10140.821405,-1184.329507,76.609550
2962.066563,-8882.471304,-740.205942,612.876398
2962.066900,-9474.636058,-1110.308913,612.876398
2962.067237,-10807.006753,-370.102971,383.047749
2962.067575,-10807.006753,-1110.308913,0.000000
2962.067912,-10066.800811,-518.144159,0.000000
2962.068249,-9474.636058,-296.082377,1302.362347
2962.068586,-9918.759623,444.123565,383.047749
2962.068923,-9474.636058,1110.308913,0.000000
2962.069261,-10510.924376,370.102971,459.657299
2962.069598,-11251.130318,740.205942,153.219100
2962.069935,-11473.192101,0.000000,0.000000
2962.070272,-11547.212695,-148.041188,536.266849
2962.070609,-9400.615463,-1110.308913,306.438199
2962.070947,-9178.553681,-444.123565,842.705048
2962.071284,-9474.636058,-148.041188,-612.876398
2962.071621,-9326.594869,-74.020594,-995.924147
2962.071958,-10510.924376,-148.041188,-766.095498
2962.072295,-10658.965565,-444.123565,-1991.848295
2962.072632,-9844.739029,-296.082377,-1302.362347
2962.072970,-9326.594869,-814.226536,0.000000
2962.073307,-8660.409521,0.000000,1685.410096
2962.073644,-9918.759623,-888.247130,1838.629195
2962.073981,-10140.821405,-74.020594,1608.800546
2962.074318,-9770.718434,-222.061783,1762.019645
2962.074656,-10881.027347,518.144159,2068.457845
2962.074993,-10658.965565,592.164754,1608.800546
2962.075330,-9770.718434,1480.411884,842.705048
2962.075667,-9474.636058,1184.329507,995.924147
2962.076004,-9918.759623,2220.617826,612.876398
2962.076342,-11325.150913,1332.370696,0.000000
2962.076679,-9326.594869,2146.597232,0.000000
2962.077016,-9844.739029,1036.288319,536.266849
2962.077353,-11029.068536,370.102971,1149.143247
2962.077690,-9548.656652,0.000000,0.000000
2962.078028,-9548.656652,-1110.308913,919.314598
2962.078365,-10362.883188,-962.267725,995.924147
2962.078702,-9770.718434,-1110.308913,-919.314598
2962.079039,-10288.862594,-1258.350101,-689.485948
2962.079376,-9474.636058,-2368.659014,-306.438199
2962.079714,-9474.636058,-1332.370696,-612.876398
2962.080051,-10436.903782,-1406.391290,-1072.533697
2962.080388,-10288.862594,-1628.453072,-1455.581446
2962.080725,-9696.697840,-2516.700203,-612.876398
2962.081062,-10214.842000,-2442.679609,0.000000
2962.081400,-10140.821405,-1850.514855,459.657299
2962.081737,-9770.718434,-2294.638420,1225.752797
2962.082074,-10362.883188,-1998.556043,2221.676944
2962.082411,-10436.903782,-740.205942,842.705048
2962.082748,-11177.109724,148.041188,1149.143247
2962.083085,-11325.150913,-518.144159,995.924147
2962.083423,-10288.862594,-592.164754,536.266849
2962.083760,-9992.780217,-296.082377,153.219100
2962.084097,-9474.636058,0.000000,919.314598
2962.084434,-8956.491898,74.020594,1225.752797
2962.084771,-9918.759623,888.247130,0.000000
2962.085109,-11103.089130,1406.391290,-1149.143247
2962.085446,-10584.944971,518.144159,-1302.362347
2962.085783,-10362.883188,592.164754,-1302.362347
2962.086120,-9104.533087,-518.144159,0.000000
2962.086457,-8734.430116,-1184.329507,766.095498
2962.086795,-8216.285956,-1554.432478,919.314598
2962.087132,-9178.553681,-962.267725,1455.581446
2962.087469,-9992.780217,-370.102971,1608.800546
2962.087806,-10214.842000,0.000000,1072.533697
2962.088143,-10066.800811,-74.020594,1991.848295
2962.088481,-10584.944971,1258.350101,1149.143247
2962.088818,-10732.986159,74.020594,1072.533697
2962.089155,-10288.862594,740.205942,459.657299
2962.089492,-9474.636058,740.205942,842.705048
2962.089829,-10214.842000,1184.329507,153.219100
2962.090167,-10066.800811,1258.350101,-383.047749
2962.090504,-9770.718434,888.247130,-383.047749
2962.090841,-10288.862594,1036.288319,76.609550
2962.091178,-10955.047942,0.000000,-383.047749
2962.091515,-10362.883188,0.000000,-919.314598
2962.091853,-9992.780217,-370.102971,536.266849
2962.092190,-10066.800811,-370.102971,689.485948
2962.092527,-9770.718434,592.164754,-612.876398
2962.092864,-10288.862594,0.000000,-1072.533697
2962.093201,-9992.780217,-1332.370696,-1915.238745
2962.093538,-10362.883188,-2220.617826,-1991.848295
2962.093876,-10066.800811,-1850.514855,-1762.019645
2962.094213,-8808.450710,-2220.617826,-76.609550
2962.094550,-8586.388927,-1850.514855,1072.533697
2962.094887,-9326.594869,-1406.391290,842.705048
2962.095224,-10955.047942,-296.082377,766.095498
2962.095562,-11103.089130,-962.267725,1455.581446
2962.095899,-11547.212695,148.041188,1685.410096
2962.096236,-11843.295072,-888.247130,2145.067394
2962.096573,-10436.903782,0.000000,1532.190996
2962.096910,-8142.265362,74.020594,2374.896044
2962.097248,-9474.636058,1110.308913,2987.772442
2962.097585,-9992.780217,1332.370696,1225.752797
2962.097922,-10881.027347,2220.617826,153.219100
2962.098259,-11399.171507,2072.576638,-612.876398
2962.098596,-10955.047942,1480.411884,-842.705048
2962.098934,-10658.965565,1036.288319,-76.609550
2962.099271,-8586.388927,370.102971,0.000000
2962.099608,-7846.182985,444.123565,842.705048
2962.099945,-8808.450710,740.205942,536.266849
2962.100282,-9844.739029,1184.329507,-306.438199
2962.100620,-11325.150913,-74.020594,-689.485948
2962.100957,-11399.171507,-666.185348,-766.095498
2962.101294,-9918.759623,-962.267725,-689.485948
2962.101631,-9992.780217,-1184.329507,76.609550
2962.101968,-7476.080014,-1776.494261,1302.362347
2962.102306,-8142.265362,-1406.391290,1225.752797
2962.102643,-9770.718434,0.000000,76.609550
2962.102980,-10584.944971,-666.185348,0.000000
2962.103317,-11621.233289,-666.185348,153.219100
2962.103654,-11103.089130,-518.144159,-153.219100
2962.103992,-10436.903782,-222.061783,459.657299
2962.104329,-8660.409521,-296.082377,1608.800546
2962.104666,-9104.533087,-814.226536,2451.505594
2962.105003,-10288.862594,0.000000,995.924147
2962.105340,-11251.130318,148.041188,-842.705048
2962.105677,-11695.253884,-740.205942,-919.314598
2962.106015,-11399.171507,-1036.288319,-1378.971896
2962.106352,-9548.656652,-1332.370696,-1685.410096
2962.106689,-8882.471304,-1332.370696,-995.924147
2962.107026,-8068.244768,-1332.370696,0.000000
2962.107363,-9252.574275,-962.267725,0.000000
2962.107701,-11473.192101,-370.102971,-383.047749
2962.108038,-11695.253884,-1184.329507,0.000000
2962.108375,-11843.295072,-740.205942,459.657299
2962.108712,-11399.171507,-1258.350101,459.657299
2962.109049,-9474.636058,-1628.453072,306.438199
2962.109387,-7105.977043,-1998.556043,1838.629195
2962.109724,-7698.141797,-1406.391290,2757.943793
2962.110061,-10140.821405,-222.061783,1608.800546
2962.110398,-10658.965565,814.226536,459.657299
2962.110735,-10140.821405,740.205942,842.705048
2962.111073,-10584.944971,666.185348,612.876398
2962.111410,-11029.068536,2072.576638,1302.362347
2962.111747,-9622.677246,1110.308913,995.924147
2962.112084,-8142.265362,444.123565,1915.238745
2962.112421,-10140.821405,666.185348,2145.067394
2962.112759,-11029.068536,1184.329507,766.095498
2962.113096,-10732.986159,0.000000,-536.266849
2962.113433,-10807.006753,0.000000,-766.095498
2962.113770,-10288.862594,148.041188,-1302.362347
2962.114107,-9622.677246,-888.247130,-2451.505594
2962.114445,-8068.244768,-1332.370696,-1149.143247
2962.114782,-8882.471304,-1850.514855,459.657299
2962.115119,-10362.883188,74.020594,-229.828649
2962.115456,-10658.965565,-296.082377,-842.705048
2962.115793,-11621.233289,0.000000,-612.876398
2962.116130,-11029.068536,-1776.494261,-1149.143247
2962.116468,-11325.150913,-2146.597232,-229.828649
2962.116805,-9622.677246,-2368.659014,995.924147
2962.117142,-8512.368333,-1924.535449,3294.210641
2962.117479,-9770.718434,-1406.391290,2757.943793
2962.117816,-10807.006753,74.020594,0.000000
2962.118154,-10140.821405,444.123565,153.219100
2962.118491,-10584.944971,296.082377,-76.609550
2962.118828,-10732.986159,-370.102971,-306.438199
2962.119165,-10584.944971,0.000000,229.828649
2962.119502,-8290.306550,-444.123565,153.219100
2962.119840,-8364.327145,-148.041188,1072.533697
2962.120177,-9622.677246,1702.473667,536.266849
2962.120514,-10955.047942,222.061783,76.609550
2962.120851,-10436.903782,666.185348,-612.876398
2962.121188,-11399.171507,222.061783,-919.314598
2962.121526,-11029.068536,296.082377,-612.876398
2962.121863,-9474.636058,-296.082377,-766.095498
2962.122200,-8216.285956,-740.205942,612.876398
2962.122537,-8808.450710,592.164754,995.924147
2962.122874,-9474.636058,962.267725,-229.828649
2962.123212,-9844.739029,1776.494261,-1149.143247
2962.123549,-9770.718434,740.205942,-383.047749
2962.123886,-11103.089130,592.164754,0.000000
2962.124223,-10732.986159,222.061783,459.657299
2962.124560,-9992.780217,-296.082377,2451.505594
2962.124898,-9326.594869,-666.185348,4213.525239
2962.125235,-9474.636058,1036.288319,2681.334243
2962.125572,-10288.862594,1036.288319,2451.505594
2962.125909,-10732.986159,1406.391290,536.266849
2962.126246,-11769.274478,0.000000,-153.219100
2962.126583,-11695.253884,0.000000,-1225.752797
2962.126921,-8586.388927,148.041188,-995.924147
2962.127258,-7920.203579,-1036.288319,383.047749
2962.127595,-8364.327145,-1184.329507,76.609550
2962.127932,-9252.574275,0.000000,-536.266849
2962.128269,-11029.068536,-444.123565,-459.657299
2962.128607,-11917.315666,-962.267725,-842.705048
2962.128944,-11399.171507,-1554.432478,-2451.505594
2962.129281,-11251.130318,-2294.638420,-1455.581446
2962.129618,-8660.409521,-2368.659014,153.219100
2962.129955,-8142.265362,-2886.803174,1225.752797
2962.130293,-8882.471304,-1628.453072,1072.533697
2962.130630,-9252.574275,-1332.370696,689.485948
2962.130967,-11769.274478,-518.144159,842.705048
2962.131304,-12065.356855,-296.082377,0.000000
2962.131641,-11843.295072,-518.144159,0.000000
2962.131979,-9844.739029,-666.185348,1302.362347
2962.132316,-7624.121203,-1258.350101,2681.334243
2962.132653,-8142.265362,74.020594,2528.115143
2962.132990,-10140.821405,592.164754,1991.848295
2962.133327,-11029.068536,1776.494261,612.876398
2962.133665,-11917.315666,962.267725,-1072.533697
2962.134002,-12435.459826,296.082377,-1455.581446
2962.134339,-10362.883188,222.061783,-1149.143247
2962.134676,-7698.141797,-740.205942,-306.438199
2962.135013,-6809.894666,-666.185348,689.485948
2962.135351,-8586.388927,-296.082377,76.609550
2962.135688,-10658.965565,-148.041188,-383.047749
2962.136025,-11029.068536,370.102971,-1915.238745
2962.136362,-12065.356855,-74.020594,-919.314598
2962.136699,-11325.150913,-888.247130,-1149.143247
2962.137036,-9696.697840,-1258.350101,-995.924147
2962.137374,-8216.285956,-1776.494261,1378.971896
2962.137711,-7846.182985,-1776.494261,2374.896044
2962.138048,-9252.574275,-1184.329507,2068.457845
2962.138385,-11917.315666,-962.267725,1608.800546
2962.138722,-11621.233289,-296.082377,459.657299
2962.139060,-11695.253884,148.041188,459.657299
2962.139397,-10066.800811,-518.144159,0.000000
2962.139734,-8216.285956,-296.082377,842.705048
2962.140071,-9030.512492,-222.061783,1915.238745
2962.140408,-9844.739029,222.061783,689.485948
2962.140746,-10658.965565,1184.329507,-842.705048
2962.141083,-11547.212695,814.226536,-1378.971896
2962.141420,-11103.089130,0.000000,-842.705048
2962.141757,-10140.821405,-1036.288319,-766.095498
2962.142094,-8956.491898,-1184.329507,153.219100
2962.142432,-7846.182985,-1406.391290,1378.971896
2962.142769,-9326.594869,-962.267725,1685.410096
2962.143106,-10140.821405,-222.061783,383.047749
2962.143443,-11621.233289,0.000000,0.000000
2962.143780,-11547.212695,222.061783,-229.828649
2962.144118,-10955.047942,0.000000,-1149.143247
2962.144455,-10214.842000,-444.123565,-1225.752797
2962.144792,-8068.244768,-1110.308913,383.047749
2962.145129,-8438.347739,-370.102971,1455.581446
2962.145466,-8882.471304,592.164754,1685.410096
2962.145804,-10436.903782,1184.329507,842.705048
2962.146141,-11177.109724,2072.576638,1302.362347
2962.146478,-11103.089130,2220.617826,229.828649
2962.146815,-11251.130318,1184.329507,229.828649
2962.147152,-10881.027347,518.144159,1149.143247
2962.147490,-8660.409521,592.164754,995.924147
2962.147827,-9178.553681,666.185348,612.876398
2962.148164,-10066.800811,1776.494261,76.609550
2962.148501,-9696.697840,1036.288319,-1991.848295
2962.148838,-10288.862594,-370.102971,-2221.676944
2962.149175,-10288.862594,-518.144159,-2451.505594
2962.149513,-9844.739029,-888.247130,-1915.238745
2962.149850,-9252.574275,-1924.535449,-536.266849
2962.150187,-9400.615463,-1850.514855,995.924147
2962.150524,-9474.636058,-1406.391290,229.828649
2962.150861,-10510.924376,-1110.308913,612.876398
2962.151199,-11177.109724,-1258.350101,76.609550
2962.151536,-11325.150913,-1702.473667,-76.609550
2962.151873,-12139.377449,-1924.535449,-306.438199
2962.152210,-10066.800811,-2442.679609,229.828649
2962.152547,-8438.347739,-2368.659014,2221.676944
2962.152885,-9474.636058,-1036.288319,2987.772442
2962.153222,-9622.677246,0.000000,1685.410096
2962.153559,-10732.986159,444.123565,1225.752797
2962.153896,-11473.192101,296.082377,1225.752797
2962.154233,-11621.233289,444.123565,0.000000
2962.154571,-10732.986159,148.041188,153.219100
2962.154908,-9030.512492,-518.144159,689.485948
2962.155245,-8734.430116,-666.185348,1762.019645
2962.155582,-9252.574275,888.247130,1991.848295
2962.155919,-9622.677246,444.123565,306.438199
2962.156257,-10584.944971,444.123565,-612.876398
2962.156594,-10362.883188,0.000000,-1838.629195
2962.156931,-10881.027347,518.144159,-1532.190996
2962.157268,-9104.533087,-1480.411884,-1225.752797
2962.157605,-7328.038826,-1406.391290,766.095498
2962.157943,-8290.306550,-962.267725,1225.752797
2962.158280,-9252.574275,-444.123565,1225.752797
2962.158617,-10066.800811,148.041188,995.924147
2962.158954,-10658.965565,222.061783,919.314598
2962.159291,-10807.006753,592.164754,76.609550
2962.159628,-11547.212695,370.102971,459.657299
2962.159966,-9992.780217,-148.041188,612.876398
2962.160303,-9400.615463,-518.144159,612.876398
2962.160640,-9178.553681,296.082377,459.657299
2962.160977,-8956.491898,296.082377,842.705048
2962.161314,-10140.821405,666.185348,-76.609550
2962.161652,-11399.171507,814.226536,-1225.752797
2962.161989,-11843.295072,-148.041188,-1915.238745
2962.162326,-10288.862594,0.000000,-919.314598
2962.162663,-9992.780217,-1036.288319,919.314598
2962.163000,-10140.821405,-1406.391290,766.095498
2962.163338,-9400.615463,-1036.288319,0.000000
2962.163675,-9844.739029,-1480.411884,-612.876398
2962.164012,-10807.006753,-2072.576638,-306.438199
2962.164349,-10362.883188,-2294.638420,-1685.410096
2962.164686,-10214.842000,-2368.659014,-1915.238745
2962.165024,-9252.574275,-3034.844362,-383.047749
2962.165361,-8882.471304,-2590.720797,153.219100
2962.165698,-9104.533087,-1702.473667,153.219100
2962.166035,-9178.553681,-1702.473667,1915.238745
2962.166372,-10214.842000,-740.205942,2068.457845
2962.166710,-11399.171507,370.102971,2068.457845
2962.167047,-12361.439231,0.000000,1685.410096
2962.167384,-10732.986159,0.000000,1991.848295
2962.167721,-10066.800811,-666.185348,3140.991542
2962.168058,-10436.903782,1258.350101,2528.115143
2962.168396,-9918.759623,1406.391290,995.924147
2962.168733,-9474.636058,1628.453072,229.828649
2962.169070,-9992.780217,2368.659014,-842.705048
2962.169407,-10510.924376,1702.473667,-2221.676944
2962.169744,-10732.986159,2072.576638,-2145.067394
2962.170082,-9030.512492,296.082377,-1991.848295
2962.170419,-9252.574275,148.041188,-766.095498
2962.170756,-9104.533087,666.185348,76.609550
2962.171094,-9326.594869,74.020594,0.000000
2962.171431,-9844.739029,-444.123565,306.438199
2962.171768,-10807.006753,-592.164754,536.266849
2962.172105,-10362.883188,-740.205942,-153.219100
2962.172443,-9548.656652,-962.267725,-306.438199
2962.172780,-8734.430116,-1776.494261,842.705048
2962.173117,-8882.471304,-1332.370696,-306.438199
2962.173454,-8882.471304,-296.082377,0.000000
2962.173792,-9548.656652,-666.185348,306.438199
2962.174129,-10436.903782,148.041188,0.000000
2962.174466,-10955.047942,148.041188,-842.705048
2962.174803,-11473.192101,296.082377,306.438199
2962.175141,-10362.883188,-296.082377,842.705048
2962.175478,-10362.883188,-296.082377,2068.457845
2962.175815,-10955.047942,370.102971,1455.581446
2962.176152,-10214.842000,-740.205942,1302.362347
2962.176490,-10584.944971,74.020594,995.924147
2962.176827,-11029.068536,296.082377,-919.314598
2962.177164,-11991.336260,-148.041188,-1378.971896
2962.177501,-9918.759623,0.000000,-1762.019645
2962.177839,-8734.430116,-370.102971,-2221.676944
2962.178176,-8882.471304,-518.144159,-1455.581446
2962.178513,-9622.677246,-666.185348,-612.876398
2962.178851,-9252.574275,-1110.308913,-306.438199
2962.179188,-9844.739029,-370.102971,459.657299
2962.179525,-11547.212695,-1110.308913,1608.800546
2962.179862,-10584.944971,-888.247130,1378.971896
2962.180200,-8586.388927,-1554.432478,2528.115143
2962.180537,-9104.533087,-1406.391290,3447.429741
2962.180874,-9474.636058,-666.185348,2451.505594
2962.181211,-9918.759623,222.061783,1532.190996
2962.181549,-8882.471304,518.144159,1149.143247
2962.181886,-9548.656652,1036.288319,153.219100
2962.182223,-10732.986159,1702.473667,-383.047749
2962.182560,-9918.759623,888.247130,-842.705048
2962.182898,-9400.615463,148.041188,0.000000
2962.183235,-10510.924376,814.226536,153.219100
2962.183572,-9992.780217,370.102971,-612.876398
2962.183909,-10807.006753,0.000000,76.609550
2962.184247,-11029.068536,-444.123565,-383.047749
2962.184584,-11029.068536,-1184.329507,-1225.752797
2962.184921,-9770.718434,-1776.494261,-1608.800546
2962.185258,-9030.512492,-1258.350101,-766.095498
2962.185596,-10510.924376,-2072.576638,76.609550
2962.185933,-10732.986159,-1406.391290,-1455.581446
2962.186270,-10214.842000,-1924.535449,-919.314598
2962.186607,-10436.903782,-2072.576638,919.314598
2962.186945,-10510.924376,-2516.700203,1608.800546
2962.187282,-10510.924376,-2516.700203,612.876398
2962.187619,-9030.512492,-2368.659014,1532.190996
2962.187957,-8882.471304,-2294.638420,2298.286494
2962.188294,-10584.944971,-2294.638420,2451.505594
2962.188631,-10807.006753,-1332.370696,1149.143247
2962.188968,-9326.594869,-1036.288319,1838.629195
2962.189306,-9844.739029,148.041188,2068.457845
2962.189643,-11325.150913,1184.329507,1072.533697
2962.189980,-10807.006753,888.247130,306.438199
2962.190317,-9326.594869,370.102971,536.266849
2962.190655,-9400.615463,518.144159,153.219100
2962.190992,-10436.903782,1332.370696,76.609550
2962.191329,-10955.047942,1406.391290,306.438199
2962.191666,-9844.739029,1776.494261,-919.314598
2962.192004,-9992.780217,1628.453072,-612.876398
2962.192341,-10955.047942,1480.411884,-612.876398
2962.192678,-9326.594869,296.082377,-459.657299
2962.193015,-9918.759623,-592.164754,689.485948
2962.193353,-9474.636058,962.267725,842.705048
2962.193690,-9474.636058,148.041188,0.000000
2962.194027,-10066.800811,814.226536,459.657299
2962.194364,-9474.636058,740.205942,842.705048
2962.194702,-10510.924376,962.267725,76.609550
2962.195039,-9770.718434,1258.350101,-459.657299
2962.195376,-8808.450710,370.102971,306.438199
2962.195714,-9696.697840,518.144159,0.000000
2962.196051,-8660.409521,518.144159,-689.485948
2962.196388,-9548.656652,74.020594,383.047749
2962.196725,-9696.697840,-370.102971,612.876398
2962.197063,-9918.759623,0.000000,1532.190996
2962.197400,-11251.130318,222.061783,1149.143247
2962.197737,-10140.821405,0.000000,536.266849
2962.198074,-10584.944971,-888.247130,76.609550
2962.198412,-11547.212695,-888.247130,-1225.752797
2962.198749,-10066.800811,-1480.411884,-1915.238745
2962.199086,-9622.677246,-1184.329507,-1608.800546
2962.199423,-9178.553681,-1776.494261,-995.924147
2962.199761,-9844.739029,-1776.494261,-1685.410096
2962.200098,-10362.883188,-1776.494261,-536.266849
2962.200435,-10288.862594,-1554.432478,-536.266849
2962.200772,-11103.089130,-814.226536,459.657299
2962.201110,-10807.006753,-666.185348,766.095498
2962.201447,-10362.883188,-1554.432478,1608.800546
2962.201784,-10066.800811,-1406.391290,3064.381992
2962.202121,-9918.759623,-962.267725,3140.991542
2962.202459,-10362.883188,148.041188,2451.505594
2962.202796,-10140.821405,370.102971,2145.067394
2962.203133,-9918.759623,888.247130,1072.533697
2962.203470,-9918.759623,740.205942,306.438199
2962.203808,-10214.842000,1628.453072,153.219100
2962.204145,-9252.574275,1554.432478,0.000000
2962.204482,-8956.491898,888.247130,-306.438199
2962.204820,-9178.553681,592.164754,-612.876398
2962.205157,-9844.739029,1480.411884,0.000000
2962.205494,-9252.574275,0.000000,995.924147
2962.205831,-9548.656652,1184.329507,306.438199
2962.206169,-10140.821405,592.164754,0.000000
2962.206506,-9918.759623,148.041188,-1302.362347
2962.206843,-10214.842000,-1110.308913,-766.095498
2962.207180,-11029.068536,-1406.391290,0.000000
2962.207518,-9400.615463,-1110.308913,-1455.581446
2962.207855,-8808.450710,-1184.329507,-842.705048
2962.208192,-9696.697840,-1628.453072,995.924147
2962.208529,-10658.965565,-888.247130,0.000000
2962.208867,-10584.944971,-1184.329507,153.219100
2962.209204,-10955.047942,-1184.329507,995.924147
2962.209541,-10510.924376,-962.267725,1455.581446
2962.209878,-11177.109724,-1554.432478,1762.019645
2962.210216,-10510.924376,-740.205942,1455.581446
2962.210553,-9474.636058,-592.164754,1685.410096
2962.210890,-10658.965565,-814.226536,995.924147
2962.211227,-10288.862594,-444.123565,-383.047749
2962.211565,-9992.780217,-1036.288319,-995.924147
2962.211902,-9474.636058,-1702.473667,229.828649
2962.212239,-9622.677246,-1332.370696,-1072.533697
2962.212577,-10362.883188,-666.185348,-766.095498
2962.212914,-8956.491898,-1332.370696,0.000000
2962.213251,-8882.471304,-1184.329507,536.266849
2962.213588,-9622.677246,-296.082377,383.047749
2962.213926,-11177.109724,-296.082377,919.314598
2962.214263,-11177.109724,-592.164754,612.876398
2962.214600,-10807.006753,-962.267725,229.828649
2962.214937,-10658.965565,-444.123565,842.705048
2962.215275,-9474.636058,-370.102971,842.705048
2962.215612,-9030.512492,-740.205942,1762.019645
2962.215949,-9252.574275,1406.391290,1455.581446
2962.216286,-10362.883188,1628.453072,459.657299
2962.216624,-10955.047942,1184.329507,153.219100
2962.216961,-10510.924376,2072.576638,383.047749
2962.217298,-10510.924376,1702.473667,1149.143247
2962.217635,-10510.924376,1850.514855,1072.533697
2962.217973,-9030.512492,1332.370696,1532.190996
2962.218310,-9474.636058,1554.432478,1685.410096
2962.218647,-9992.780217,1702.473667,76.609550
2962.218984,-10658.965565,1110.308913,-919.314598
2962.219322,-10140.821405,666.185348,-1991.848295
2962.219659,-9770.718434,0.000000,-2451.505594
2962.219996,-9326.594869,-1406.391290,-2987.772442
2962.220333,-7698.141797,-1480.411884,-2681.334243
2962.220671,-7624.121203,-1258.350101,229.828649
2962.221008,-9696.697840,-888.247130,-229.828649
2962.221345,-10362.883188,0.000000,-383.047749
2962.221683,-11843.295072,-1036.288319,0.000000
2962.222020,-11769.274478,-1998.556043,612.876398
2962.222357,-11029.068536,-2368.659014,1532.190996
2962.222694,-11029.068536,-2368.659014,1838.629195
2962.223032,-9548.656652,-2368.659014,1915.238745
2962.223369,-9622.677246,-1332.370696,2451.505594
2962.223706,-10955.047942,444.123565,1149.143247
2962.224043,-10955.047942,-74.020594,-153.219100
2962.224381,-10658.965565,296.082377,-383.047749
2962.224718,-11177.109724,518.144159,536.266849
2962.225055,-11251.130318,592.164754,229.828649
2962.225392,-8882.471304,74.020594,229.828649
2962.225730,-8734.430116,0.000000,1991.848295
2962.226067,-9326.594869,0.000000,2298.286494
2962.226404,-10214.842000,740.205942,766.095498
2962.226741,-10955.047942,222.061783,766.095498
2962.227079,-9992.780217,0.000000,-153.219100
2962.227416,-10510.924376,-444.123565,-689.485948
2962.227753,-9622.677246,-962.267725,-612.876398
2962.228090,-7550.100608,-1332.370696,-689.485948
2962.228428,-8142.265362,-370.102971,919.314598
2962.228765,-8290.306550,222.061783,-459.657299
2962.229102,-9474.636058,592.164754,-536.266849
2962.229440,-11177.109724,222.061783,0.000000
2962.229777,-11473.192101,-888.247130,153.219100
2962.230114,-10732.986159,0.000000,689.485948
2962.230451,-9548.656652,-962.267725,2221.676944
2962.230789,-9400.615463,-222.061783,3983.696590
2962.231126,-10510.924376,148.041188,1838.629195
2962.231463,-10436.903782,444.123565,0.000000
2962.231800,-10658.965565,444.123565,-842.705048
2962.232138,-10881.027347,148.041188,-919.314598
2962.232475,-10584.944971,0.000000,-1532.190996
2962.232812,-9918.759623,-1036.288319,-1762.019645
2962.233149,-8142.265362,-1480.411884,229.828649
2962.233487,-9474.636058,-962.267725,383.047749
2962.233824,-10510.924376,74.020594,-842.705048
2962.234161,-10436.903782,-1110.308913,-1608.800546
2962.234498,-11325.150913,-1628.453072,-1455.581446
2962.234836,-10807.006753,-2516.700203,-766.095498
2962.235173,-10066.800811,-2442.679609,-689.485948
2962.235510,-9326.594869,-2960.823768,689.485948
2962.235847,-8956.491898,-3108.864956,1455.581446
2962.236185,-9400.615463,-1332.370696,995.924147
2962.236522,-9770.718434,-444.123565,459.657299
2962.236859,-10510.924376,-666.185348,1072.533697
2962.237196,-10658.965565,-888.247130,919.314598
2962.237534,-11473.192101,-444.123565,766.095498
2962.237871,-10362.883188,74.020594,1608.800546
2962.238208,-8586.388927,296.082377,2451.505594
2962.238546,-8586.388927,518.144159,3830.477490
2962.238883,-10066.800811,2590.720797,2374.896044
2962.239220,-11251.130318,2368.659014,536.266849
2962.239557,-11399.171507,2220.617826,76.609550
2962.239895,-10732.986159,1554.432478,0.000000
2962.240232,-10214.842000,1258.350101,-76.609550
2962.240569,-8808.450710,1406.391290,153.219100
2962.240906,-8660.409521,1110.308913,689.485948
2962.241244,-8956.491898,1406.391290,-536.266849
2962.241581,-9326.594869,740.205942,-1378.971896
2962.241918,-9918.759623,814.226536,-1149.143247
2962.242255,-10584.944971,0.000000,-919.314598
2962.242593,-11325.150913,148.041188,-995.924147
2962.242930,-9770.718434,-1406.391290,-766.095498
2962.243267,-7994.224174,-592.164754,1378.971896
2962.243604,-9178.553681,-1332.370696,2145.067394
2962.243942,-9992.780217,-1036.288319,612.876398
2962.244279,-9622.677246,-518.144159,536.266849
2962.244616,-10732.986159,-888.247130,1072.533697
2962.244953,-11843.295072,0.000000,689.485948
2962.245291,-10955.047942,-740.205942,-842.705048
2962.245628,-9474.636058,-1480.411884,995.924147
2962.245965,-7994.224174,-1110.308913,1532.190996
2962.246303,-9030.512492,-74.020594,459.657299
2962.246640,-9548.656652,0.000000,229.828649
2962.246977,-10658.965565,-222.061783,-1455.581446
2962.247314,-11621.233289,-1036.288319,-842.705048
2962.247652,-11769.274478,-592.164754,-1378.971896
2962.247989,-10436.903782,-1332.370696,0.000000
2962.248326,-9548.656652,-2368.659014,1378.971896
2962.248663,-9400.615463,-1480.411884,1378.971896
2962.249001,-10066.800811,0.000000,229.828649
2962.249338,-11029.068536,-222.061783,76.609550
2962.249675,-11843.295072,74.020594,0.000000
2962.250012,-11621.233289,-148.041188,-1378.971896
2962.250350,-10807.006753,-444.123565,-1225.752797
2962.250687,-8438.347739,-740.205942,0.000000
2962.251024,-8660.409521,-1480.411884,1991.848295
2962.251361,-9474.636058,222.061783,2451.505594
2962.251699,-9622.677246,666.185348,1915.238745
2962.252036,-10436.903782,1036.288319,2451.505594
2962.252373,-11103.089130,1406.391290,2451.505594
2962.252710,-11177.109724,0.000000,1225.752797
2962.253048,-9696.697840,592.164754,1455.581446
2962.253385,-7550.100608,148.041188,2221.676944
2962.253722,-8512.368333,518.144159,1149.143247
2962.254059,-8808.450710,962.267725,-1225.752797
2962.254397,-8882.471304,962.267725,-1608.800546
2962.254734,-9400.615463,222.061783,-1838.629195
2962.255071,-10362.883188,148.041188,-2681.334243
2962.255409,-10807.006753,-740.205942,-2451.505594
2962.255746,-9622.677246,-1036.288319,-2221.676944
2962.256083,-8364.327145,-2368.659014,0.000000
2962.256420,-10955.047942,-1480.411884,459.657299
2962.256758,-9622.677246,-1406.391290,0.000000
2962.257095,-10436.903782,-1480.411884,229.828649
2962.257432,-11695.253884,-962.267725,0.000000
2962.257769,-12435.459826,-1554.432478,-1455.581446
2962.258107,-11991.336260,-2146.597232,-842.705048
2962.258444,-10140.821405,-2146.597232,689.485948
2962.258781,-8808.450710,-1480.411884,1532.190996
2962.259118,-9844.739029,0.000000,1762.019645
2962.259456,-10140.821405,-444.123565,0.000000
2962.259793,-10807.006753,-740.205942,612.876398
2962.260130,-11695.253884,-370.102971,1302.362347
2962.260467,-11177.109724,-296.082377,612.876398
2962.260805,-9844.739029,-370.102971,1838.629195
2962.261142,-9326.594869,-296.082377,2451.505594
2962.261479,-8956.491898,0.000000,2374.896044
2962.261816,-9030.512492,740.205942,1225.752797
2962.262154,-10066.800811,740.205942,153.219100
2962.262491,-10362.883188,592.164754,-1149.143247
2962.262828,-10881.027347,-296.082377,-1532.190996
2962.263166,-9992.780217,74.020594,-1608.800546
2962.263503,-7920.203579,-962.267725,0.000000
2962.263840,-7994.224174,-74.020594,2451.505594
2962.264177,-8808.450710,0.000000,1608.800546
2962.264515,-10140.821405,1184.329507,1608.800546
2962.264852,-10658.965565,2368.659014,1378.971896
2962.265189,-12287.418637,1628.453072,1225.752797
2962.265526,-13027.624579,518.144159,1225.752797
2962.265864,-9918.759623,814.226536,536.266849
2962.266201,-9474.636058,518.144159,2374.896044
2962.266538,-9030.512492,518.144159,1991.848295
2962.266875,-9326.594869,666.185348,689.485948
2962.267213,-10214.842000,814.226536,536.266849
2962.267550,-10584.944971,888.247130,-689.485948
2962.267887,-10807.006753,740.205942,-1991.848295
2962.268224,-11547.212695,-666.185348,-1838.629195
2962.268562,-9104.533087,-666.185348,-766.095498
2962.268899,-8956.491898,-666.185348,0.000000
2962.269236,-9326.594869,-962.267725,0.000000
2962.269573,-9474.636058,-740.205942,-995.924147
2962.269911,-10807.006753,-1406.391290,-1455.581446
2962.270248,-10362.883188,-2294.638420,-2451.505594
2962.270585,-10584.944971,-2516.700203,-2221.676944
2962.270923,-9770.718434,-3552.988522,-842.705048
2962.271260,-8956.491898,-3627.009116,842.705048
2962.271597,-8586.388927,-1998.556043,995.924147
2962.271934,-9326.594869,-888.247130,76.609550
2962.272272,-10807.006753,-74.020594,153.219100
2962.272609,-11917.315666,0.000000,536.266849
2962.272946,-12805.562797,-518.144159,0.000000
2962.273283,-11177.109724,444.123565,536.266849
2962.273621,-9622.677246,-518.144159,1685.410096
2962.273958,-9400.615463,0.000000,3294.210641
2962.274295,-8956.491898,296.082377,2451.505594
2962.274632,-9770.718434,1184.329507,1838.629195
2962.274970,-10658.965565,1258.350101,459.657299
2962.275307,-10955.047942,444.123565,-229.828649
2962.275644,-11177.109724,1036.288319,-842.705048
2962.275981,-9474.636058,1702.473667,-459.657299
2962.276319,-9548.656652,444.123565,306.438199
2962.276656,-8660.409521,296.082377,-306.438199
2962.276993,-8882.471304,-74.020594,536.266849
2962.277331,-9252.574275,0.000000,612.876398
2962.277668,-10140.821405,-666.185348,536.266849
2962.278005,-11621.233289,0.000000,689.485948
2962.278342,-10881.027347,-888.247130,-383.047749
2962.278680,-9400.615463,-1480.411884,0.000000
2962.279017,-9104.533087,-888.247130,995.924147
2962.279354,-8586.388927,-888.247130,689.485948
2962.279691,-9104.533087,-592.164754,1225.752797
2962.280029,-10584.944971,0.000000,153.219100
2962.280366,-10658.965565,1184.329507,-459.657299
2962.280703,-11547.212695,148.041188,-766.095498
2962.281040,-10658.965565,-814.226536,536.266849
2962.281378,-9770.718434,-962.267725,1991.848295
2962.281715,-10066.800811,-222.061783,2068.457845
2962.282052,-9844.739029,-518.144159,1149.143247
2962.282389,-10807.006753,-666.185348,459.657299
2962.282727,-10807.006753,-518.144159,-459.657299
2962.283064,-10732.986159,-444.123565,-1915.238745
2962.283401,-9918.759623,-666.185348,-1991.848295
2962.283739,-9548.656652,-1850.514855,-1685.410096
2962.284076,-9326.594869,-1776.494261,-1455.581446
2962.284413,-8882.471304,-1332.370696,-995.924147
2962.284750,-9696.697840,-1702.473667,229.828649
2962.285088,-10214.842000,-814.226536,842.705048
2962.285425,-11029.068536,-296.082377,0.000000
2962.285762,-11103.089130,-518.144159,689.485948
2962.286099,-10362.883188,-1184.329507,842.705048
2962.286437,-9992.780217,-1184.329507,1378.971896
2962.286774,-9622.677246,-148.041188,2145.067394
2962.287111,-9030.512492,-296.082377,1838.629195
2962.287448,-9918.759623,296.082377,1838.629195
2962.287786,-9622.677246,2146.597232,1149.143247
2962.288123,-10140.821405,1998.556043,0.000000
2962.288460,-9918.759623,2146.597232,-306.438199
2962.288797,-9474.636058,1184.329507,689.485948
2962.289135,-9844.739029,2220.617826,383.047749
2962.289472,-9770.718434,1406.391290,689.485948
2962.289809,-9696.697840,962.267725,612.876398
2962.290147,-9474.636058,518.144159,153.219100
2962.290484,-10436.903782,222.061783,0.000000
2962.290821,-10732.986159,444.123565,-995.924147
2962.291158,-9252.574275,-962.267725,-1378.971896
2962.291496,-10214.842000,-1702.473667,229.828649
2962.291833,-10140.821405,-1480.411884,-306.438199
2962.292170,-9252.574275,-962.267725,-383.047749
2962.292507,-10584.944971,-1184.329507,306.438199
2962.292845,-10807.006753,-1258.350101,383.047749
2962.293182,-10362.883188,-518.144159,-995.924147
2962.293519,-10288.862594,-1406.391290,-689.485948
2962.293856,-10066.800811,-1924.535449,995.924147
2962.294194,-10288.862594,-1850.514855,612.876398
2962.294531,-11177.109724,-666.185348,919.314598
2962.294868,-9770.718434,-1036.288319,1378.971896
2962.295205,-9400.615463,-518.144159,1532.190996
2962.295543,-10362.883188,-1184.329507,1532.190996
2962.295880,-10214.842000,370.102971,766.095498
2962.296217,-10436.903782,0.000000,0.000000
2962.296555,-10436.903782,-962.267725,229.828649
2962.296892,-10362.883188,-148.041188,-306.438199
2962.297229,-9400.615463,-148.041188,-689.485948
2962.297566,-9252.574275,-666.185348,0.000000
2962.297904,-9400.615463,0.000000,-919.314598
2962.298241,-10288.862594,-148.041188,-1302.362347
2962.298578,-10288.862594,0.000000,-1225.752797
2962.298915,-9770.718434,-1554.432478,-383.047749
2962.299253,-10288.862594,-1184.329507,0.000000
2962.299590,-9474.636058,-148.041188,536.266849
2962.299927,-9474.636058,-888.247130,1455.581446
2962.300264,-9400.615463,592.164754,2145.067394
2962.300602,-9696.697840,1110.308913,1149.143247
2962.300939,-11103.089130,888.247130,459.657299
2962.301276,-10732.986159,0.000000,1149.143247
2962.301613,-11325.150913,666.185348,1991.848295
2962.301951,-10658.965565,1258.350101,536.266849
2962.302288,-9326.594869,814.226536,153.219100
2962.302625,-9030.512492,814.226536,383.047749
2962.302963,-9474.636058,592.164754,689.485948
2962.303300,-9844.739029,1850.514855,-383.047749
2962.303637,-11399.171507,592.164754,-536.266849
2962.303974,-10807.006753,0.000000,-459.657299
2962.304312,-10066.800811,-370.102971,-1532.190996
2962.304649,-9326.594869,-296.082377,-153.219100
2962.304986,-8364.327145,-1480.411884,229.828649
2962.305323,-8660.409521,-1480.411884,306.438199
2962.305661,-9992.780217,-1036.288319,-1302.362347
2962.305998,-10658.965565,-1258.350101,-1991.848295
2962.306335,-10732.986159,-1776.494261,-1072.533697
2962.306672,-10584.944971,-2072.576638,-459.657299
2962.307010,-9918.759623,-1258.350101,536.266849
2962.307347,-9400.615463,-1776.494261,1378.971896
2962.307684,-9400.615463,-1554.432478,2528.115143
2962.308021,-9622.677246,-1480.411884,2834.553343
2962.308359,-11399.171507,-518.144159,2145.067394
2962.308696,-10807.006753,-296.082377,1378.971896
2962.309033,-11325.150913,296.082377,1532.190996
2962.309371,-10807.006753,0.000000,1455.581446
2962.309708,-9252.574275,592.164754,229.828649
2962.310045,-9104.533087,888.247130,612.876398
2962.310382,-9770.718434,888.247130,459.657299
2962.310720,-10214.842000,888.247130,-1149.143247
2962.311057,-10288.862594,962.267725,-1455.581446
2962.311394,-9400.615463,592.164754,-459.657299
2962.311731,-9918.759623,296.082377,-76.609550
2962.312069,-9770.718434,444.123565,-689.485948
2962.312406,-9474.636058,-518.144159,0.000000
2962.312743,-9474.636058,-370.102971,383.047749
2962.313080,-9918.759623,-444.123565,383.047749
2962.313418,-10658.965565,148.041188,229.828649
2962.313755,-9992.780217,-1110.308913,-1149.143247
2962.314092,-9770.718434,-1258.350101,-612.876398
2962.314429,-9252.574275,-740.205942,-383.047749
2962.314767,-8956.491898,-1110.308913,0.000000
2962.315104,-9622.677246,-592.164754,995.924147
2962.315441,-9844.739029,-1036.288319,1762.019645
2962.315779,-10510.924376,148.041188,1225.752797
2962.316116,-11103.089130,0.000000,1225.752797
2962.316453,-11103.089130,-370.102971,1762.019645
2962.316790,-10584.944971,-666.185348,1915.238745
2962.317128,-10658.965565,74.020594,229.828649
2962.317465,-9696.697840,0.000000,76.609550
2962.317802,-9992.780217,-666.185348,-995.924147
2962.318139,-9770.718434,-888.247130,-1378.971896
2962.318477,-10807.006753,-1036.288319,-1608.800546
2962.318814,-9622.677246,-1110.308913,-383.047749
2962.319151,-9178.553681,-1480.411884,0.000000
2962.319488,-10066.800811,-1554.432478,0.000000
2962.319826,-10214.842000,-1184.329507,-383.047749
2962.320163,-9770.718434,-1628.453072,459.657299
2962.320500,-10066.800811,-1406.391290,766.095498
2962.320837,-10288.862594,-2072.576638,842.705048
2962.321175,-10436.903782,-814.226536,1302.362347
2962.321512,-9030.512492,-592.164754,842.705048
2962.321849,-10066.800811,0.000000,1302.362347
2962.322187,-10436.903782,814.226536,842.705048
2962.322524,-10140.821405,888.247130,229.828649
2962.322861,-10584.944971,592.164754,1608.800546
2962.323198,-10288.862594,1406.391290,536.266849
2962.323536,-9548.656652,1554.432478,689.485948
2962.323873,-9992.780217,1776.494261,766.095498
2962.324210,-8882.471304,1628.453072,1149.143247
2962.324547,-10214.842000,1850.514855,153.219100
2962.324885,-10658.965565,1628.453072,-919.314598
2962.325222,-10362.883188,740.205942,-1455.581446
2962.325559,-10214.842000,0.000000,-459.657299
2962.325896,-9030.512492,74.020594,-1378.971896
2962.326234,-9474.636058,0.000000,-842.705048
2962.326571,-9178.553681,-888.247130,-919.314598
2962.326908,-9030.512492,-518.144159,-1072.533697
2962.327245,-10066.800811,-962.267725,-1378.971896
2962.327583,-9400.615463,-592.164754,-1225.752797
2962.327920,-10658.965565,-1776.494261,0.000000
2962.328257,-11177.109724,-1628.453072,536.266849
2962.328595,-9622.677246,-1110.308913,-536.266849
2962.328932,-9770.718434,-1184.329507,306.438199
2962.329269,-10066.800811,-814.226536,1378.971896
2962.329606,-10140.821405,-370.102971,536.266849
2962.329944,-10584.944971,-740.205942,1225.752797
2962.330281,-11251.130318,-1258.350101,1302.362347
2962.330618,-10584.944971,-370.102971,1991.848295
2962.330955,-10362.883188,148.041188,1532.190996
2962.331293,-10288.862594,444.123565,1302.362347
2962.331630,-10066.800811,296.082377,995.924147
2962.331967,-10658.965565,74.020594,536.266849
2962.332304,-10807.006753,888.247130,76.609550
2962.332642,-9992.780217,148.041188,-766.095498
2962.332979,-10510.924376,740.205942,-459.657299
2962.333316,-10584.944971,-444.123565,-1225.752797
2962.333653,-9770.718434,-1036.288319,-766.095498
2962.333991,-8882.471304,-814.226536,459.657299
2962.334328,-8956.491898,-888.247130,1532.190996
2962.334665,-9696.697840,0.000000,995.924147
2962.335003,-9696.697840,0.000000,0.000000
2962.335340,-9622.677246,-962.267725,0.000000
2962.335677,-9622.677246,148.041188,1455.581446
2962.336014,-9992.780217,-148.041188,1915.238745
2962.336352,-9844.739029,1110.308913,1072.533697
2962.336689,-9696.697840,-148.041188,1225.752797
2962.337026,-10510.924376,814.226536,2451.505594
2962.337363,-9992.780217,1480.411884,536.266849
2962.337701,-9474.636058,444.123565,306.438199
2962.338038,-10066.800811,-370.102971,995.924147
2962.338375,-10066.800811,-148.041188,0.000000
2962.338712,-10066.800811,148.041188,0.000000
2962.339050,-10140.821405,-222.061783,0.000000
2962.339387,-9104.533087,0.000000,459.657299
2962.339724,-10732.986159,222.061783,-306.438199
2962.340061,-11103.089130,592.164754,-1532.190996
2962.340399,-10658.965565,-592.164754,-1762.019645
2962.340736,-11103.089130,-1776.494261,-1149.143247
2962.341073,-10955.047942,-1998.556043,-1608.800546
2962.341411,-9252.574275,-2220.617826,-1302.362347
2962.341748,-8586.388927,-1776.494261,153.219100
2962.342085,-9104.533087,-2590.720797,76.609550
2962.342422,-10510.924376,-740.205942,76.609550
2962.342760,-11399.171507,-1258.350101,306.438199
2962.343097,-11029.068536,-1554.432478,459.657299
2962.343434,-10584.944971,-1332.370696,1378.971896
2962.343771,-10288.862594,-814.226536,2145.067394
2962.344109,-8512.368333,-518.144159,2451.505594
2962.344446,-8512.368333,-666.185348,2834.553343
2962.344783,-10362.883188,1036.288319,2374.896044
2962.345120,-10510.924376,888.247130,-612.876398
2962.345458,-10436.903782,1110.308913,-536.266849
2962.345795,-10140.821405,666.185348,-612.876398
2962.346132,-9844.739029,74.020594,0.000000
2962.346469,-8956.491898,0.000000,383.047749
2962.346807,-7624.121203,370.102971,919.314598
2962.347144,-9844.739029,740.205942,1762.019645
2962.347481,-10288.862594,1480.411884,-306.438199
2962.347819,-11473.192101,740.205942,-995.924147
2962.348156,-11399.171507,888.247130,-1532.190996
2962.348493,-9770.718434,0.000000,-1608.800546
2962.348830,-9770.718434,-370.102971,-766.095498
2962.349168,-8882.471304,-740.205942,0.000000
2962.349505,-8364.327145,-1258.350101,919.314598
2962.349842,-10140.821405,-444.123565,612.876398
2962.350179,-10510.924376,-148.041188,229.828649
2962.350517,-11473.192101,370.102971,1149.143247
2962.350854,-11103.089130,-296.082377,1225.752797
2962.351191,-10140.821405,0.000000,919.314598
2962.351528,-10584.944971,-370.102971,1608.800546
2962.351866,-9844.739029,-518.144159,2451.505594
2962.352203,-9770.718434,-592.164754,2145.067394
2962.352540,-10140.821405,1110.308913,536.266849
2962.352877,-10436.903782,370.102971,-689.485948
2962.353215,-10288.862594,-148.041188,-1685.410096
2962.353552,-10066.800811,-1110.308913,-995.924147
2962.353889,-9696.697840,-1628.453072,-1072.533697
2962.354227,-8216.285956,-962.267725,-689.485948
2962.354564,-9400.615463,-740.205942,0.000000
2962.354901,-10214.842000,-370.102971,-306.438199
2962.355238,-10362.883188,-592.164754,-1225.752797
2962.355576,-11177.109724,-1406.391290,-383.047749
2962.355913,-11399.171507,-740.205942,1149.143247
2962.356250,-11177.109724,-1184.329507,0.000000
2962.356587,-9548.656652,-888.247130,766.095498
2962.356925,-8734.430116,-740.205942,1302.362347
2962.357262,-9770.718434,-518.144159,3217.601092
2962.357599,-10362.883188,222.061783,1608.800546
2962.357936,-10955.047942,74.020594,612.876398
2962.358274,-10881.027347,962.267725,536.266849
2962.358611,-9918.759623,1702.473667,0.000000
2962.358948,-10436.903782,222.061783,383.047749
2962.359285,-8808.450710,296.082377,995.924147
2962.359623,-8734.430116,518.144159,2451.505594
2962.359960,-9030.512492,1850.514855,1149.143247
2962.360297,-9474.636058,1184.329507,-459.657299
2962.360635,-10436.903782,888.247130,0.000000
2962.360972,-10214.842000,-370.102971,-1225.752797
2962.361309,-9770.718434,-370.102971,-1378.971896
2962.361646,-8660.409521,-888.247130,-919.314598
2962.361984,-7920.203579,-1924.535449,0.000000
2962.362321,-9030.512492,-1184.329507,536.266849
2962.362658,-10066.800811,-592.164754,612.876398
2962.362995,-10732.986159,-296.082377,842.705048
2962.363333,-11621.233289,-1332.370696,76.609550
2962.363670,-11769.274478,-1850.514855,-919.314598
2962.364007,-10510.924376,-2072.576638,0.000000
2962.364344,-9622.677246,-2368.659014,1532.190996
2962.364682,-9474.636058,-1406.391290,3064.381992
2962.365019,-10510.924376,-592.164754,1225.752797
2962.365356,-10955.047942,222.061783,306.438199
2962.365693,-11473.192101,-296.082377,0.000000
2962.366031,-11547.212695,222.061783,0.000000
2962.366368,-11029.068536,-370.102971,76.609550
2962.366705,-9918.759623,-74.020594,689.485948
2962.367043,-8808.450710,-296.082377,1378.971896
2962.367380,-9770.718434,0.000000,995.924147
2962.367717,-9474.636058,370.102971,0.000000
2962.368054,-9696.697840,148.041188,-536.266849
2962.368392,-10881.027347,-296.082377,-383.047749
2962.368729,-10140.821405,-518.144159,-1838.629195
2962.369066,-9770.718434,-1184.329507,-1225.752797
2962.369404,-8438.347739,-1850.514855,306.438199
2962.369741,-8068.244768,-1406.391290,919.314598
2962.370078,-9030.512492,222.061783,1072.533697
2962.370416,-9474.636058,-592.164754,459.657299
2962.370753,-9696.697840,-666.185348,459.657299
2962.371090,-10066.800811,74.020594,689.485948
2962.371428,-10584.944971,-296.082377,995.924147
2962.371765,-10288.862594,296.082377,919.314598
2962.372102,-9548.656652,-666.185348,1762.019645
2962.372440,-10140.821405,814.226536,2298.286494
2962.372777,-9844.739029,1184.329507,842.705048
2962.373114,-10066.800811,1554.432478,153.219100
2962.373452,-11103.089130,1184.329507,-306.438199
2962.373789,-10955.047942,1110.308913,-689.485948
2962.374126,-11177.109724,1406.391290,-459.657299
2962.374464,-11325.150913,444.123565,459.657299
2962.374801,-9918.759623,222.061783,76.609550
2962.375138,-9844.739029,518.144159,-766.095498
2962.375476,-9696.697840,444.123565,-536.266849
2962.375813,-9474.636058,0.000000,-1838.629195
2962.376150,-10732.986159,-1628.453072,-1685.410096
2962.376487,-11103.089130,-2146.597232,-1378.971896
2962.376825,-9548.656652,-2738.761985,-1225.752797
2962.377162,-8216.285956,-2072.576638,1225.752797
2962.377499,-9030.512492,-2072.576638,1302.362347
2962.377837,-9252.574275,-592.164754,536.266849
2962.378174,-10288.862594,-1258.350101,612.876398
2962.378511,-10510.924376,-962.267725,383.047749
2962.378849,-9918.759623,-888.247130,842.705048
2962.379186,-10436.903782,-888.247130,1149.143247
2962.379523,-8882.471304,-518.144159,1762.019645
2962.379861,-8660.409521,-592.164754,2145.067394
2962.380198,-9992.780217,1332.370696,1532.190996
2962.380535,-9992.780217,1480.411884,919.314598
2962.380873,-10881.027347,1702.473667,383.047749
2962.381210,-11251.130318,1628.453072,-995.924147
2962.381547,-11029.068536,740.205942,-1378.971896
2962.381885,-10140.821405,814.226536,-383.047749
2962.382222,-9400.615463,-518.144159,459.657299
2962.382559,-9918.759623,148.041188,766.095498
2962.382897,-10214.842000,1036.288319,-766.095498
2962.383234,-10140.821405,888.247130,-1225.752797
2962.383571,-11103.089130,0.000000,-1149.143247
2962.383909,-10510.924376,-518.144159,-1455.581446
2962.384246,-10362.883188,-592.164754,-995.924147
2962.384583,-9844.739029,-2294.638420,383.047749
2962.384921,-8660.409521,-2368.659014,1608.800546
2962.385258,-8882.471304,-1554.432478,1455.581446
2962.385595,-9326.594869,-962.267725,1532.190996
2962.385933,-9918.759623,518.144159,1685.410096
2962.386270,-11695.253884,-444.123565,1532.190996
2962.386607,-10955.047942,222.061783,383.047749
2962.386945,-9918.759623,0.000000,459.657299
2962.387282,-9548.656652,-444.123565,2451.505594
2962.387619,-9400.615463,0.000000,2145.067394
2962.387956,-9104.533087,222.061783,766.095498
2962.388294,-9992.780217,888.247130,459.657299
2962.388631,-10214.842000,666.185348,-766.095498
2962.388968,-11547.212695,814.226536,-2068.457845
2962.389306,-11695.253884,-296.082377,-1608.800546
2962.389643,-9844.739029,-444.123565,-1149.143247
2962.389980,-9326.594869,-1258.350101,383.047749
2962.390318,-9178.553681,-592.164754,383.047749
2962.390655,-8438.347739,-518.144159,383.047749
2962.390992,-10510.924376,-740.205942,459.657299
2962.391330,-11029.068536,-296.082377,-229.828649
2962.391667,-11917.315666,-1258.350101,-612.876398
2962.392004,-11251.130318,-888.247130,919.314598
2962.392342,-8364.327145,-1184.329507,919.314598
2962.392679,-9030.512492,-592.164754,2681.334243
2962.393016,-9992.780217,-296.082377,2068.457845
2962.393354,-9770.718434,-296.082377,1149.143247
2962.393691,-9992.780217,296.082377,1378.971896
2962.394028,-10658.965565,-222.061783,153.219100
2962.394366,-10584.944971,222.061783,-306.438199
2962.394703,-8882.471304,-296.082377,0.000000
2962.395040,-8438.347739,-222.061783,689.485948
2962.395378,-8512.368333,0.000000,1149.143247
2962.395715,-9400.615463,518.144159,76.609550
2962.396052,-10288.862594,518.144159,-306.438199
2962.396390,-11695.253884,-740.205942,-919.314598
2962.396727,-11695.253884,-814.226536,-2374.896044
2962.397064,-9992.780217,-1480.411884,-2374.896044
2962.397402,-8734.430116,-2146.597232,-919.314598
2962.397739,-8586.388927,-1776.494261,-1072.533697
2962.398076,-9104.533087,-1924.535449,-459.657299
2962.398414,-10510.924376,-222.061783,-1072.533697
2962.398751,-11177.109724,-518.144159,-919.314598
2962.399088,-11843.295072,-370.102971,-536.266849
2962.399425,-11325.150913,-1258.350101,-689.485948
2962.399763,-10510.924376,-1554.432478,229.828649
2962.400100,-9696.697840,-518.144159,2145.067394
2962.400437,-9844.739029,-518.144159,1685.410096
2962.400775,-10140.821405,296.082377,1685.410096
2962.401112,-10955.047942,0.000000,1149.143247
2962.401449,-10510.924376,592.164754,1072.533697
2962.401787,-10658.965565,740.205942,995.924147
2962.402124,-10214.842000,148.041188,995.924147
2962.402461,-8512.368333,592.164754,689.485948
2962.402799,-9178.553681,592.164754,459.657299
2962.403136,-8364.327145,1184.329507,-612.876398
2962.403473,-8808.450710,592.164754,-536.266849
2962.403811,-10436.903782,1406.391290,0.000000
2962.404148,-10584.944971,814.226536,-2068.457845
2962.404485,-11177.109724,296.082377,-1762.019645
2962.404823,-9696.697840,-518.144159,-919.314598
2962.405160,-8512.368333,-814.226536,919.314598
2962.405497,-9030.512492,0.000000,1685.410096
2962.405835,-9178.553681,1036.288319,459.657299
2962.406172,-10732.986159,148.041188,995.924147
2962.406509,-11399.171507,74.020594,1455.581446
2962.406847,-11251.130318,222.061783,1608.800546
2962.407184,-10436.903782,1036.288319,2221.676944
2962.407521,-10658.965565,-296.082377,2298.286494
2962.407859,-10510.924376,0.000000,1302.362347
2962.408196,-9178.553681,74.020594,76.609550
2962.408533,-9326.594869,222.061783,459.657299
2962.408871,-9474.636058,-444.123565,383.047749
2962.409208,-9844.739029,-888.247130,-612.876398
2962.409545,-9992.780217,0.000000,-1378.971896
2962.409883,-9696.697840,-1406.391290,-383.047749
2962.410220,-9474.636058,-1332.370696,612.876398
2962.410557,-9474.636058,-1406.391290,0.000000
2962.410894,-9474.636058,-1480.411884,612.876398
2962.411232,-10436.903782,-1110.308913,306.438199
2962.411569,-11029.068536,-1184.329507,-842.705048
2962.411906,-10732.986159,-1850.514855,-1915.238745
2962.412244,-10140.821405,-2812.782580,-1455.581446
2962.412581,-10140.821405,-2738.761985,-229.828649
2962.412918,-9548.656652,-1924.535449,-1149.143247
2962.413256,-8290.306550,-1110.308913,-459.657299
2962.413593,-9252.574275,-1332.370696,306.438199
2962.413930,-10881.027347,-74.020594,842.705048
2962.414268,-11695.253884,0.000000,153.219100
2962.414605,-12361.439231,222.061783,1302.362347
2962.414942,-10510.924376,-296.082377,2221.676944
2962.415280,-9474.636058,0.000000,3294.210641
2962.415617,-9548.656652,1110.308913,2604.724693
2962.415954,-9474.636058,666.185348,2221.676944
2962.416292,-9548.656652,1110.308913,842.705048
2962.416629,-10362.883188,1998.556043,-383.047749
2962.416966,-11251.130318,1628.453072,-1608.800546
2962.417304,-9548.656652,666.185348,-1685.410096
2962.417641,-8586.388927,-962.267725,-842.705048
2962.417978,-8660.409521,-296.082377,153.219100
2962.418316,-8068.244768,-370.102971,0.000000
2962.418653,-9252.574275,-1110.308913,919.314598
2962.418990,-9548.656652,-296.082377,995.924147
2962.419328,-10658.965565,-888.247130,-76.609550
2962.419665,-11621.233289,0.000000,153.219100
2962.420002,-10288.862594,-1480.411884,-153.219100
2962.420340,-10066.800811,-1332.370696,689.485948
2962.420677,-9252.574275,-1110.308913,0.000000
2962.421014,-8290.306550,-1480.411884,842.705048
2962.421352,-9104.533087,0.000000,1378.971896
2962.421689,-10658.965565,0.000000,0.000000
2962.422026,-11325.150913,370.102971,-612.876398
2962.422363,-11547.212695,-592.164754,-383.047749
2962.422701,-10955.047942,-148.041188,1149.143247
2962.423038,-10066.800811,-296.082377,612.876398
2962.423375,-9400.615463,-666.185348,1762.019645
2962.423713,-9770.718434,222.061783,1685.410096
2962.424050,-10140.821405,222.061783,-229.828649
2962.424387,-10807.006753,370.102971,-1455.581446
2962.424725,-11769.274478,-740.205942,-1225.752797
2962.425062,-10510.924376,-888.247130,-1685.410096
2962.425399,-9474.636058,-1258.350101,-1072.533697
2962.425737,-9178.553681,-370.102971,-1378.971896
2962.426074,-7772.162391,-1702.473667,153.219100
2962.426411,-8882.471304,-1184.329507,689.485948
2962.426749,-10214.842000,-740.205942,536.266849
2962.427086,-11251.130318,74.020594,306.438199
2962.427423,-10584.944971,0.000000,612.876398
2962.427761,-10140.821405,-1036.288319,1072.533697
2962.428098,-8956.491898,0.000000,1225.752797
2962.428435,-8438.347739,740.205942,1608.800546
2962.428773,-10066.800811,592.164754,2451.505594
2962.429110,-10881.027347,1850.514855,2451.505594
2962.429447,-11103.089130,1480.411884,459.657299
2962.429785,-10658.965565,2294.638420,0.000000
2962.430122,-9326.594869,1332.370696,306.438199
2962.430459,-9918.759623,740.205942,1225.752797
2962.430797,-9030.512492,1554.432478,-306.438199
2962.431134,-8956.491898,888.247130,383.047749
2962.431471,-10436.903782,1184.329507,229.828649
2962.431809,-11103.089130,370.102971,-1838.629195
2962.432146,-11251.130318,0.000000,-1608.800546
2962.432483,-9474.636058,-444.123565,-842.705048
2962.432821,-9326.594869,-2220.617826,76.609550
2962.433158,-8882.471304,-1924.535449,-229.828649
2962.433495,-8808.450710,-2368.659014,0.000000
2962.433832,-9844.739029,-2294.638420,459.657299
2962.434170,-10955.047942,-2146.597232,-612.876398
2962.434507,-11325.150913,-1184.329507,-612.876398
2962.434844,-10066.800811,-1998.556043,0.000000
2962.435182,-9178.553681,-1776.494261,612.876398
2962.435519,-10288.862594,-1702.473667,1378.971896
2962.435856,-10214.842000,-740.205942,76.609550
2962.436194,-10066.800811,-1850.514855,612.876398
2962.436531,-10436.903782,-1702.473667,2068.457845
2962.436868,-10066.800811,-296.082377,1225.752797
2962.437206,-10658.965565,-74.020594,995.924147
2962.437543,-9918.759623,74.020594,536.266849
2962.437880,-9252.574275,296.082377,0.000000
2962.438218,-10658.965565,592.164754,0.000000
2962.438555,-10362.883188,518.144159,-536.266849
2962.438892,-9844.739029,-814.226536,-306.438199
2962.439230,-9770.718434,74.020594,459.657299
2962.439567,-9696.697840,370.102971,-306.438199
2962.439904,-10140.821405,0.000000,0.000000
2962.440242,-9252.574275,-518.144159,76.609550
2962.440579,-9992.780217,-444.123565,612.876398
2962.440916,-10362.883188,222.061783,383.047749
2962.441254,-10066.800811,0.000000,995.924147
2962.441591,-9770.718434,296.082377,1685.410096
2962.441928,-9400.615463,222.061783,1149.143247
2962.442266,-10362.883188,296.082377,1838.629195
2962.442603,-9918.759623,1110.308913,1685.410096
2962.442940,-9992.780217,592.164754,2221.676944
2962.443278,-10214.842000,1258.350101,1225.752797
2962.443615,-10362.883188,444.123565,0.000000
2962.443952,-9770.718434,222.061783,766.095498
2962.444290,-9326.594869,222.061783,0.000000
2962.444627,-8734.430116,-444.123565,-153.219100
2962.444964,-9474.636058,518.144159,-306.438199
2962.445301,-9770.718434,-148.041188,0.000000
2962.445639,-11251.130318,-740.205942,-919.314598
2962.445976,-10584.944971,74.020594,-2374.896044
2962.446313,-9770.718434,-1332.370696,-2145.067394
2962.446651,-9918.759623,-1332.370696,-995.924147
2962.446988,-9474.636058,-1924.535449,-1762.019645
2962.447325,-10658.965565,-2146.597232,0.000000
2962.447663,-10436.903782,-2294.638420,-459.657299
2962.448000,-9918.759623,-1776.494261,-153.219100
2962.448337,-11843.295072,-1332.370696,0.000000
2962.448675,-10732.986159,-1480.411884,-1072.533697
2962.449012,-10732.986159,-1480.411884,153.219100
2962.449349,-9918.759623,-1110.308913,1915.238745
2962.449687,-9770.718434,-962.267725,1838.629195
2962.450024,-11325.150913,-666.185348,2374.896044
2962.450361,-10214.842000,-74.020594,1455.581446
2962.450699,-9770.718434,444.123565,1991.848295
2962.451036,-10658.965565,1258.350101,2145.067394
2962.451373,-10436.903782,370.102971,1225.752797
2962.451711,-9474.636058,1036.288319,536.266849
2962.452048,-9252.574275,1258.350101,0.000000
2962.452385,-9548.656652,1406.391290,0.000000
2962.452723,-9474.636058,1554.432478,0.000000
2962.453060,-9770.718434,1110.308913,-1225.752797
2962.453397,-9474.636058,888.247130,-1532.190996
2962.453735,-8956.491898,1258.350101,-1378.971896
2962.454072,-9030.512492,1258.350101,-1149.143247
2962.454409,-9252.574275,74.020594,-766.095498
2962.454747,-10140.821405,0.000000,-306.438199
2962.455084,-10214.842000,222.061783,0.000000
2962.455421,-10288.862594,-1184.329507,1455.581446
2962.455759,-10140.821405,-444.123565,1302.362347
2962.456096,-9770.718434,-1258.350101,1149.143247
2962.456433,-9918.759623,-814.226536,1608.800546
2962.456770,-10584.944971,0.000000,1532.190996
2962.457108,-10732.986159,-370.102971,1072.533697
2962.457445,-10584.944971,222.061783,-306.438199
2962.457782,-9696.697840,-370.102971,0.000000
2962.458120,-10362.883188,-296.082377,1072.533697
2962.458457,-9696.697840,0.000000,0.000000
2962.458794,-9622.677246,-592.164754,-229.828649
2962.459132,-10214.842000,-592.164754,-229.828649
2962.459469,-10140.821405,-296.082377,-1149.143247
2962.459806,-10881.027347,-592.164754,-919.314598
2962.460144,-10955.047942,-1258.350101,-536.266849
2962.460481,-9770.718434,-1258.350101,-842.705048
2962.460818,-10066.800811,-1406.391290,0.000000
2962.461156,-10140.821405,-1184.329507,-842.705048
2962.461493,-9252.574275,-1998.556043,-459.657299
2962.461830,-10288.862594,-1406.391290,1302.362347
2962.462168,-11029.068536,-1554.432478,919.314598
2962.462505,-10214.842000,-518.144159,842.705048
2962.462842,-9770.718434,-592.164754,1225.752797
2962.463180,-9770.718434,-1110.308913,2068.457845
2962.463517,-9770.718434,-222.061783,1225.752797
2962.463854,-9474.636058,370.102971,1455.581446
2962.464192,-9770.718434,814.226536,1685.410096
2962.464529,-9918.759623,1406.391290,1838.629195
2962.464866,-10584.944971,1184.329507,1685.410096
2962.465204,-9696.697840,1184.329507,995.924147
2962.465541,-9622.677246,1702.473667,1608.800546
2962.465878,-9622.677246,2072.576638,1532.190996
2962.466216,-10584.944971,1850.514855,-459.657299
2962.466553,-9030.512492,1406.391290,-766.095498
2962.466890,-10066.800811,814.226536,-383.047749
2962.467228,-10362.883188,-740.205942,-1302.362347
2962.467565,-9548.656652,-296.082377,-1455.581446
2962.467902,-8364.327145,-222.061783,-1225.752797
2962.468239,-9548.656652,-1184.329507,-536.266849
2962.468577,-9844.739029,-740.205942,-1838.629195
2962.468914,-10362.883188,-1184.329507,-1072.533697
2962.469252,-10955.047942,-1036.288319,-689.485948
2962.469589,-10658.965565,-1480.411884,-229.828649
2962.469926,-11029.068536,-1776.494261,0.000000
2962.470264,-9770.718434,-2738.761985,1149.143247
2962.470601,-9178.553681,-2812.782580,2528.115143
2962.470939,-9918.759623,-1406.391290,1838.629195
2962.471276,-9992.780217,-962.267725,459.657299
2962.471614,-10732.986159,-518.144159,0.000000
2962.471951,-10955.047942,-444.123565,459.657299
2962.472289,-9844.739029,74.020594,306.438199
2962.472626,-11177.109724,-444.123565,229.828649
2962.472963,-9548.656652,-592.164754,1072.533697
2962.473301,-9252.574275,-444.123565,1455.581446
2962.473638,-10066.800811,518.144159,1072.533697
2962.473976,-9400.615463,296.082377,153.219100
2962.474313,-9696.697840,0.000000,-536.266849
2962.474651,-11251.130318,-222.061783,-383.047749
2962.474988,-11325.150913,-666.185348,-1225.752797
2962.475325,-9474.636058,-1406.391290,-153.219100
2962.475663,-8512.368333,-962.267725,995.924147
2962.476000,-9178.553681,-222.061783,1608.800546
2962.476338,-9622.677246,370.102971,0.000000
2962.476675,-11251.130318,296.082377,-1149.143247
2962.477013,-10807.006753,1480.411884,-459.657299
2962.477350,-10881.027347,666.185348,0.000000
2962.477688,-10140.821405,74.020594,229.828649
2962.478025,-8882.471304,296.082377,1532.190996
2962.478362,-8956.491898,1036.288319,2987.772442
2962.478700,-9548.656652,1406.391290,1685.410096
2962.479037,-10584.944971,1184.329507,842.705048
2962.479375,-11325.150913,1406.391290,0.000000
2962.479712,-11029.068536,518.144159,-383.047749
2962.480050,-10807.006753,0.000000,-766.095498
2962.480387,-8142.265362,0.000000,-689.485948
2962.480725,-7994.224174,-1332.370696,842.705048
2962.481062,-8882.471304,0.000000,0.000000
2962.481399,-8660.409521,0.000000,-1532.190996
2962.481737,-10288.862594,0.000000,-1608.800546
2962.482074,-11547.212695,-1184.329507,-2298.286494
2962.482412,-11695.253884,-1184.329507,-2451.505594
2962.482749,-10658.965565,-2294.638420,-1225.752797
2962.483087,-8882.471304,-2886.803174,0.000000
2962.483424,-9104.533087,-2146.597232,1455.581446
2962.483762,-10510.924376,-444.123565,1378.971896
2962.484099,-10955.047942,-1480.411884,383.047749
2962.484436,-11769.274478,-2072.576638,689.485948
2962.484774,-11843.295072,-1998.556043,1762.019645
2962.485111,-10807.006753,-1406.391290,1455.581446
2962.485449,-8956.491898,-1480.411884,2451.505594
2962.485786,-8438.347739,-592.164754,3600.648841
2962.486124,-9918.759623,222.061783,3217.601092
2962.486461,-10658.965565,2146.597232,995.924147
2962.486798,-12139.377449,1184.329507,-76.609550
2962.487136,-11843.295072,1480.411884,229.828649
2962.487473,-10214.842000,444.123565,-612.876398
2962.487811,-8956.491898,370.102971,76.609550
2962.488148,-6883.915261,0.000000,1685.410096
2962.488486,-8142.265362,-74.020594,1838.629195
2962.488823,-8956.491898,222.061783,0.000000
2962.489161,-9178.553681,962.267725,-1302.362347
2962.489498,-10732.986159,1184.329507,-536.266849
2962.489835,-11325.150913,0.000000,-1149.143247
2962.490173,-10288.862594,222.061783,-1072.533697
2962.490510,-9030.512492,-370.102971,0.000000
2962.490848,-8734.430116,-1480.411884,1072.533697
2962.491185,-9400.615463,-518.144159,766.095498
2962.491523,-9104.533087,-592.164754,0.000000
2962.491860,-10362.883188,0.000000,459.657299
2962.492198,-11621.233289,74.020594,0.000000
2962.492535,-12657.521608,222.061783,-76.609550
2962.492872,-10214.842000,74.020594,-612.876398
2962.493210,-8956.491898,-1258.350101,1225.752797
2962.493547,-10066.800811,0.000000,2068.457845
2962.493885,-9844.739029,444.123565,306.438199
2962.494222,-10362.883188,-296.082377,0.000000
2962.494560,-11695.253884,74.020594,-766.095498
2962.494897,-10732.986159,-444.123565,-1225.752797
2962.495234,-10658.965565,0.000000,-1608.800546
2962.495572,-9770.718434,-1480.411884,-612.876398
2962.495909,-9178.553681,-2146.597232,-383.047749
2962.496247,-8586.388927,-1036.288319,-459.657299
2962.496584,-9252.574275,-1110.308913,-1378.971896
2962.496922,-10362.883188,-1332.370696,-76.609550
2962.497259,-10732.986159,-1702.473667,-842.705048
2962.497597,-10436.903782,-1924.535449,-536.266849
2962.497934,-9844.739029,-1480.411884,-459.657299
2962.498271,-7846.182985,-2072.576638,1378.971896
2962.498609,-9622.677246,-1702.473667,3064.381992
2962.498946,-9770.718434,0.000000,2298.286494
2962.499284,-10362.883188,888.247130,1685.410096
2962.499621,-11843.295072,1554.432478,1532.190996
2962.499959,-11103.089130,1850.514855,689.485948
2962.500296,-9844.739029,1554.432478,536.266849
2962.500634,-9178.553681,962.267725,919.314598
2962.500971,-8364.327145,1332.370696,1915.238745
2962.501308,-9548.656652,2368.659014,919.314598
2962.501646,-9474.636058,2220.617826,-383.047749
2962.501983,-10658.965565,1850.514855,-689.485948
2962.502321,-11251.130318,2294.638420,-1225.752797
2962.502658,-11177.109724,1110.308913,-1762.019645
2962.502996,-10066.800811,0.000000,-1378.971896
2962.503333,-8438.347739,-1258.350101,0.000000
2962.503670,-8290.306550,-962.267725,229.828649
2962.504008,-8364.327145,-1406.391290,-306.438199
2962.504345,-9252.574275,-740.205942,153.219100
2962.504683,-10881.027347,-1850.514855,612.876398
2962.505020,-11029.068536,-444.123565,-306.438199
2962.505358,-11325.150913,-1036.288319,-612.876398
2962.505695,-10807.006753,-1998.556043,306.438199
2962.506033,-8660.409521,-2960.823768,1915.238745
2962.506370,-9548.656652,-814.226536,2681.334243
2962.506707,-9548.656652,-592.164754,1608.800546
2962.507045,-10140.821405,0.000000,612.876398
2962.507382,-11473.192101,-296.082377,995.924147
2962.507720,-12213.398043,74.020594,-689.485948
2962.508057,-11621.233289,0.000000,76.609550
2962.508395,-9844.739029,-296.082377,919.314598
2962.508732,-7846.182985,-592.164754,1225.752797
2962.509070,-8586.388927,814.226536,919.314598
2962.509407,-9696.697840,296.082377,0.000000
2962.509744,-10881.027347,518.144159,-1225.752797
2962.510082,-12065.356855,444.123565,-1762.019645
2962.510419,-11325.150913,444.123565,-2374.896044
2962.510757,-9622.677246,-370.102971,-536.266849
2962.511094,-8586.388927,-2146.597232,1608.800546
2962.511432,-8586.388927,-888.247130,2298.286494
2962.511769,-9030.512492,-592.164754,612.876398
2962.512106,-10214.842000,0.000000,306.438199
2962.512444,-10510.924376,518.144159,612.876398
2962.512781,-11399.171507,-740.205942,-229.828649
2962.513119,-10436.903782,74.020594,459.657299
2962.513456,-8734.430116,-1036.288319,2145.067394
2962.513794,-9474.636058,296.082377,3370.820191
2962.514131,-8882.471304,444.123565,1455.581446
2962.514469,-10140.821405,1036.288319,1149.143247
2962.514806,-10288.862594,1036.288319,536.266849
2962.515143,-11251.130318,1110.308913,-995.924147
2962.515481,-11251.130318,518.144159,-995.924147
2962.515818,-9400.615463,0.000000,-1685.410096
2962.516156,-8586.388927,-2368.659014,76.609550
2962.516493,-8808.450710,-888.247130,536.266849
2962.516831,-8734.430116,-148.041188,766.095498
2962.517168,-10955.047942,-148.041188,0.000000
2962.517506,-11325.150913,74.020594,-1532.190996
2962.517843,-12287.418637,-444.123565,-2681.334243
2962.518180,-12065.356855,-2146.597232,-995.924147
2962.518518,-9178.553681,-3478.967927,-689.485948
2962.518855,-7772.162391,-2960.823768,1455.581446
2962.519193,-9104.533087,-2146.597232,1991.848295
2962.519530,-10066.800811,-1554.432478,612.876398
2962.519868,-12287.418637,-1554.432478,766.095498
2962.520205,-10658.965565,-814.226536,689.485948
2962.520542,-10510.924376,-888.247130,995.924147
2962.520880,-12065.356855,-666.185348,689.485948
2962.521217,-9474.636058,-370.102971,1072.533697
2962.521555,-7624.121203,-148.041188,2145.067394
2962.521892,-8290.306550,1702.473667,2604.724693
2962.522230,-10362.883188,2368.659014,1455.581446
2962.522567,-11547.212695,2368.659014,-689.485948
2962.522905,-11621.233289,1332.370696,-1455.581446
2962.523242,-10288.862594,1850.514855,-1532.190996
2962.523579,-8734.430116,148.041188,-919.314598
2962.523917,-9030.512492,-444.123565,1532.190996
2962.524254,-7772.162391,74.020594,766.095498
2962.524592,-8808.450710,592.164754,229.828649
2962.524929,-9548.656652,888.247130,0.000000
2962.525267,-11473.192101,0.000000,-229.828649
2962.525604,-12213.398043,296.082377,-842.705048
2962.525942,-9474.636058,0.000000,-1378.971896
2962.526279,-9400.615463,-592.164754,1072.533697
2962.526616,-8216.285956,-1184.329507,995.924147
2962.526954,-8512.368333,-888.247130,459.657299
2962.527291,-10807.006753,-592.164754,459.657299
2962.527629,-10362.883188,0.000000,0.000000
2962.527966,-11029.068536,-814.226536,842.705048
2962.528304,-11843.295072,-148.041188,536.266849
2962.528641,-9326.594869,-814.226536,1225.752797
2962.528979,-9844.739029,-814.226536,2528.115143
2962.529316,-10140.821405,-370.102971,2221.676944
2962.529653,-10658.965565,148.041188,612.876398
2962.529991,-11251.130318,0.000000,0.000000
2962.530328,-10658.965565,0.000000,-1838.629195
2962.530666,-11029.068536,-592.164754,-1915.238745
2962.531003,-10214.842000,-1628.453072,-1608.800546
2962.531341,-8882.471304,-1924.535449,-1302.362347
2962.531678,-8660.409521,-1406.391290,-536.266849
2962.532015,-9030.512492,-1332.370696,-536.266849
2962.532353,-9474.636058,-888.247130,-153.219100
2962.532690,-11399.171507,-296.082377,459.657299
2962.533028,-11621.233289,-592.164754,-1072.533697
2962.533365,-10955.047942,-518.144159,-383.047749
2962.533703,-9400.615463,-1036.288319,1302.362347
2962.534040,-9326.594869,-1332.370696,3140.991542
2962.534378,-9030.512492,-962.267725,2681.334243
2962.534715,-9252.574275,0.000000,2451.505594
2962.535052,-10584.944971,1850.514855,2145.067394
2962.535390,-11399.171507,1184.329507,1072.533697
2962.535727,-11473.192101,1332.370696,-612.876398
2962.536065,-9474.636058,1036.288319,-76.609550
2962.536402,-8882.471304,1406.391290,1608.800546
2962.536740,-8364.327145,1406.391290,612.876398
2962.537077,-9474.636058,962.267725,229.828649
2962.537415,-9326.594869,592.164754,-76.609550
2962.537752,-9992.780217,740.205942,76.609550
2962.538089,-11547.212695,740.205942,-459.657299
2962.538427,-10362.883188,74.020594,-1302.362347
2962.538764,-9252.574275,-1480.411884,-766.095498
2962.539102,-9696.697840,-1702.473667,-153.219100
2962.539439,-8216.285956,-2294.638420,-919.314598
2962.539777,-9400.615463,-1998.556043,76.609550
2962.540114,-10214.842000,-1406.391290,229.828649
2962.540451,-10362.883188,-740.205942,-919.314598
