#time,accel_x,accel_y,accel_z
3360.284972,-9770.718434,-518.144159,0.000000
3360.285310,-10214.842000,0.000000,842.705048
3360.285648,-9844.739029,-444.123565,1302.362347
3360.285986,-9548.656652,0.000000,153.219100
3360.286324,-9918.759623,-296.082377,0.000000
3360.286662,-9844.739029,-296.082377,0.000000
3360.287000,-9696.697840,-888.247130,0.000000
3360.287338,-10362.883188,-1110.308913,459.657299
3360.287676,-8882.471304,-1110.308913,-612.876398
3360.288014,-8512.368333,-1184.329507,-459.657299
3360.288352,-9844.739029,-1776.494261,459.657299
3360.288690,-9696.697840,-2146.597232,383.047749
3360.289028,-9548.656652,-1480.411884,995.924147
3360.289366,-9400.615463,-370.102971,842.705048
3360.289703,-9548.656652,-666.185348,919.314598
3360.290041,-10436.903782,-814.226536,1838.629195
3360.290379,-10881.027347,-592.164754,2528.115143
3360.290717,-9992.780217,740.205942,1915.238745
3360.291055,-10436.903782,444.123565,2145.067394
3360.291393,-10510.924376,814.226536,1532.190996
3360.291731,-10881.027347,-740.205942,1455.581446
3360.292069,-10362.883188,0.000000,2298.286494
3360.292407,-9030.512492,814.226536,1302.362347
3360.292745,-9104.533087,148.041188,842.705048
3360.293083,-10214.842000,0.000000,612.876398
3360.293421,-10140.821405,-1480.411884,612.876398
3360.293759,-10584.944971,-1776.494261,995.924147
3360.294097,-8808.450710,-1332.370696,2298.286494
3360.294435,-9844.739029,-2590.720797,2374.896044
3360.294772,-9770.718434,-3552.988522,2757.943793
3360.295110,-9844.739029,-4441.235652,1685.410096
3360.295448,-10362.883188,-3849.070898,3217.601092
3360.295786,-9326.594869,-4293.194464,3370.820191
3360.296124,-9622.677246,-3997.112087,3217.601092
3360.296462,-11177.109724,-3775.050304,2221.676944
3360.296800,-9622.677246,-3775.050304,1072.533697
3360.297138,-10732.986159,-3923.091493,2374.896044
3360.297476,-9844.739029,-4219.173869,3217.601092
3360.297814,-9326.594869,-2664.741391,3907.087040
3360.298152,-10584.944971,-1480.411884,3753.867940
3360.298490,-11473.192101,-1850.514855,2451.505594
3360.298828,-11325.150913,-1776.494261,2604.724693
3360.299166,-10807.006753,-2368.659014,3907.087040
3360.299503,-9918.759623,-1628.453072,3907.087040
3360.299841,-9918.759623,-962.267725,3294.210641
3360.300179,-10584.944971,-666.185348,2298.286494
3360.300517,-10510.924376,-888.247130,1072.533697
3360.300855,-9252.574275,-2146.597232,383.047749
3360.301193,-9178.553681,-3034.844362,1532.190996
3360.301531,-9178.553681,-3256.906145,2987.772442
3360.301869,-9400.615463,-2960.823768,3140.991542
3360.302207,-9326.594869,-2220.617826,2528.115143
3360.302545,-9770.718434,-2146.597232,1072.533697
3360.302883,-9770.718434,-1702.473667,1225.752797
3360.303221,-9770.718434,-2072.576638,1072.533697
3360.303559,-8808.450710,-3108.864956,1302.362347
3360.303897,-9326.594869,-3108.864956,2298.286494
3360.304235,-9474.636058,-3849.070898,3907.087040
3360.304572,-10214.842000,-2812.782580,3294.210641
3360.304910,-9770.718434,-2886.803174,2681.334243
3360.305248,-9696.697840,-2368.659014,3753.867940
3360.305586,-9844.739029,-1776.494261,4213.525239
3360.305924,-11399.171507,-1628.453072,4519.963438
3360.306262,-12213.398043,0.000000,2681.334243
3360.306600,-11325.150913,962.267725,0.000000
3360.306938,-10732.986159,0.000000,-459.657299
3360.307276,-10955.047942,-2664.741391,0.000000
3360.307614,-8586.388927,-4737.318029,383.047749
3360.307952,-7179.997637,-3404.947333,1149.143247
3360.308290,-8882.471304,-3256.906145,1838.629195
3360.308628,-10362.883188,-4071.132681,1532.190996
3360.308966,-11621.233289,-4071.132681,2145.067394
3360.309304,-10955.047942,-2368.659014,1838.629195
3360.309641,-10436.903782,-444.123565,1149.143247
3360.309979,-11547.212695,74.020594,459.657299
3360.310317,-11029.068536,-2516.700203,0.000000
3360.310655,-8808.450710,-4219.173869,229.828649
3360.310993,-7846.182985,-4737.318029,3370.820191
3360.311331,-9326.594869,-4737.318029,6128.763984
3360.311669,-11843.295072,-3923.091493,5515.887586
3360.312007,-10955.047942,-2146.597232,2528.115143
3360.312345,-8586.388927,-296.082377,2068.457845
3360.312683,-9696.697840,0.000000,3753.867940
3360.313021,-10732.986159,-222.061783,4366.744339
3360.313359,-9992.780217,296.082377,3447.429741
3360.313697,-10140.821405,1036.288319,3524.039291
3360.314035,-11843.295072,1184.329507,2834.553343
3360.314373,-12065.356855,-296.082377,2145.067394
3360.314710,-9474.636058,-2294.638420,2681.334243
3360.315048,-7476.080014,-3256.906145,2528.115143
3360.315386,-7105.977043,-3478.967927,2757.943793
3360.315724,-7920.203579,-2664.741391,3217.601092
3360.316062,-9844.739029,-1998.556043,3370.820191
3360.316400,-11621.233289,-666.185348,1225.752797
3360.316738,-11251.130318,148.041188,-229.828649
3360.317076,-11769.274478,-444.123565,995.924147
3360.317414,-9844.739029,-2294.638420,2145.067394
3360.317752,-9474.636058,-3849.070898,2451.505594
3360.318090,-8364.327145,-2960.823768,2528.115143
3360.318428,-9030.512492,-4145.153275,2221.676944
3360.318766,-11103.089130,-4811.338623,2911.162892
3360.319104,-10362.883188,-5995.668130,3140.991542
3360.319441,-9474.636058,-4737.318029,5362.668486
3360.319779,-9622.677246,-1998.556043,4826.401637
3360.320117,-10881.027347,0.000000,2987.772442
3360.320455,-12213.398043,148.041188,0.000000
3360.320793,-11621.233289,-1258.350101,-1072.533697
3360.321131,-11769.274478,-3404.947333,1685.410096
3360.321469,-9030.512492,-2442.679609,2298.286494
3360.321807,-8956.491898,-3627.009116,2604.724693
3360.322145,-9400.615463,-4663.297435,1838.629195
3360.322483,-8586.388927,-5329.482782,459.657299
3360.322821,-9548.656652,-5699.585753,2757.943793
3360.323159,-10436.903782,-2516.700203,3140.991542
3360.323497,-9252.574275,-1332.370696,1225.752797
3360.323835,-12213.398043,-592.164754,0.000000
3360.324173,-12139.377449,-2146.597232,-306.438199
3360.324510,-10510.924376,-3627.009116,1149.143247
3360.324848,-7105.977043,-1850.514855,2528.115143
3360.325186,-8142.265362,-2146.597232,4136.915689
3360.325524,-12509.480420,-3627.009116,4443.353888
3360.325862,-11251.130318,-4885.359217,2374.896044
3360.326200,-6957.935855,-2516.700203,3294.210641
3360.326538,-8438.347739,-1110.308913,7277.907231
3360.326876,-10140.821405,-1110.308913,5515.887586
3360.327214,-12139.377449,-592.164754,2068.457845
3360.327552,-10436.903782,1110.308913,919.314598
3360.327890,-8882.471304,1702.473667,2681.334243
3360.328228,-12139.377449,296.082377,4596.572988
3360.328566,-12583.501014,-1332.370696,2374.896044
3360.328904,-8808.450710,-2886.803174,-459.657299
3360.329242,-6217.729913,-1776.494261,383.047749
3360.329579,-8216.285956,-3330.926739,3753.867940
3360.329917,-10955.047942,-3923.091493,2145.067394
3360.330255,-8882.471304,-3552.988522,-919.314598
3360.330593,-9400.615463,-1258.350101,919.314598
3360.330931,-12435.459826,-666.185348,2987.772442
3360.331269,-13323.706956,-1184.329507,1072.533697
3360.331607,-10362.883188,-1998.556043,-536.266849
3360.331945,-9770.718434,-3034.844362,1608.800546
3360.332283,-11621.233289,-4293.194464,2604.724693
3360.332621,-10214.842000,-3775.050304,1149.143247
3360.332959,-7031.956449,-4071.132681,2757.943793
3360.333297,-8142.265362,-4589.276840,3907.087040
3360.333635,-11399.171507,-3775.050304,4290.134789
3360.333973,-11917.315666,-666.185348,1455.581446
3360.334311,-9474.636058,1406.391290,1378.971896
3360.334648,-11029.068536,962.267725,1378.971896
3360.334986,-13175.665768,74.020594,0.000000
3360.335324,-10955.047942,1036.288319,612.876398
3360.335662,-8882.471304,444.123565,1991.848295
3360.336000,-9252.574275,-1184.329507,1608.800546
3360.336338,-10288.862594,-2294.638420,536.266849
3360.336676,-8734.430116,-1258.350101,766.095498
3360.337014,-8068.244768,-2220.617826,995.924147
3360.337352,-8734.430116,-888.247130,-689.485948
3360.337690,-9400.615463,814.226536,-76.609550
3360.338028,-10510.924376,370.102971,-383.047749
3360.338366,-12361.439231,370.102971,153.219100
3360.338704,-11251.130318,518.144159,-689.485948
3360.339042,-9992.780217,1258.350101,229.828649
3360.339379,-8882.471304,74.020594,536.266849
3360.339717,-8734.430116,-1184.329507,1072.533697
3360.340055,-8882.471304,-962.267725,2221.676944
3360.340393,-8438.347739,-2294.638420,919.314598
3360.340730,-9622.677246,-1110.308913,2374.896044
3360.341068,-10658.965565,1258.350101,1532.190996
3360.341405,-12435.459826,1258.350101,153.219100
3360.341743,-13249.686362,1184.329507,-1149.143247
3360.342080,-9548.656652,592.164754,-1838.629195
3360.342418,-9252.574275,814.226536,536.266849
3360.342755,-9622.677246,-888.247130,0.000000
3360.343093,-9696.697840,-1850.514855,-995.924147
3360.343430,-9622.677246,-370.102971,-689.485948
3360.343768,-10807.006753,-2442.679609,-536.266849
3360.344105,-10658.965565,-2146.597232,-1532.190996
3360.344442,-9104.533087,-2368.659014,-1608.800546
3360.344780,-9474.636058,-2442.679609,-306.438199
3360.345117,-10881.027347,-1998.556043,-1072.533697
3360.345455,-10732.986159,-1258.350101,-1532.190996
3360.345792,-11103.089130,-1110.308913,0.000000
3360.346130,-11029.068536,-1924.535449,229.828649
3360.346467,-9992.780217,-2664.741391,919.314598
3360.346805,-9770.718434,-1480.411884,3600.648841
3360.347142,-9178.553681,-1332.370696,3830.477490
3360.347480,-10732.986159,-888.247130,1455.581446
3360.347817,-10436.903782,518.144159,153.219100
3360.348155,-10362.883188,0.000000,459.657299
3360.348492,-10658.965565,222.061783,1302.362347
3360.348830,-8512.368333,888.247130,1838.629195
3360.349167,-8808.450710,2146.597232,2374.896044
3360.349505,-11621.233289,1998.556043,1532.190996
3360.349842,-11029.068536,1924.535449,-1378.971896
3360.350179,-10066.800811,2220.617826,0.000000
3360.350517,-9252.574275,518.144159,1072.533697
3360.350854,-9104.533087,-814.226536,1225.752797
3360.351192,-9474.636058,-888.247130,1608.800546
3360.351529,-8956.491898,-1184.329507,612.876398
3360.351867,-9400.615463,-1332.370696,-153.219100
3360.352204,-9178.553681,-592.164754,-229.828649
3360.352542,-9696.697840,444.123565,76.609550
3360.352879,-10955.047942,0.000000,0.000000
3360.353217,-11103.089130,-370.102971,-229.828649
3360.353554,-11473.192101,-592.164754,1532.190996
3360.353892,-11843.295072,-1332.370696,2221.676944
3360.354229,-10658.965565,-1480.411884,1149.143247
3360.354567,-9548.656652,-1258.350101,1378.971896
3360.354904,-8956.491898,-2516.700203,229.828649
3360.355242,-8586.388927,-2294.638420,-766.095498
3360.355579,-9030.512492,-1480.411884,612.876398
3360.355916,-9918.759623,-1258.350101,612.876398
3360.356254,-11843.295072,-370.102971,0.000000
3360.356591,-11991.336260,1258.350101,-689.485948
3360.356929,-9548.656652,1554.432478,-1532.190996
3360.357266,-10288.862594,-1036.288319,-1149.143247
3360.357604,-10214.842000,-2146.597232,-383.047749
3360.357941,-8438.347739,-1924.535449,0.000000
3360.358279,-9548.656652,-2072.576638,1532.190996
3360.358616,-10288.862594,-2812.782580,-1378.971896
3360.358954,-9696.697840,-1036.288319,-1608.800546
3360.359291,-9548.656652,-1628.453072,-1991.848295
3360.359629,-9178.553681,-1036.288319,-1455.581446
3360.359966,-9474.636058,0.000000,306.438199
3360.360304,-11251.130318,666.185348,689.485948
3360.360641,-12139.377449,1406.391290,0.000000
3360.360979,-11621.233289,1406.391290,-383.047749
3360.361316,-10955.047942,2146.597232,459.657299
3360.361653,-9400.615463,-296.082377,1149.143247
3360.361991,-8586.388927,222.061783,2451.505594
3360.362328,-7772.162391,740.205942,3524.039291
3360.362666,-10288.862594,1184.329507,4060.306139
3360.363003,-11769.274478,1628.453072,536.266849
3360.363341,-10881.027347,3404.947333,-1225.752797
3360.363678,-10807.006753,2590.720797,-1225.752797
3360.364016,-9918.759623,2738.761985,-1838.629195
3360.364353,-7994.224174,1036.288319,0.000000
3360.364691,-8438.347739,1110.308913,1149.143247
3360.365028,-9252.574275,-592.164754,0.000000
3360.365366,-10436.903782,-592.164754,-459.657299
3360.365703,-10955.047942,-1332.370696,0.000000
3360.366041,-9770.718434,-2368.659014,153.219100
3360.366378,-8808.450710,-2294.638420,-306.438199
3360.366716,-7846.182985,-1258.350101,766.095498
3360.367053,-9622.677246,-2516.700203,383.047749
3360.367391,-11029.068536,-2072.576638,-995.924147
3360.367728,-11103.089130,-592.164754,-1302.362347
3360.368065,-12361.439231,-1554.432478,-306.438199
3360.368403,-11547.212695,-2146.597232,1149.143247
3360.368740,-9770.718434,-2442.679609,1608.800546
3360.369078,-9770.718434,-1480.411884,3370.820191
3360.369415,-9992.780217,-1776.494261,2451.505594
3360.369753,-10955.047942,-1480.411884,689.485948
3360.370090,-11769.274478,-370.102971,612.876398
3360.370428,-10658.965565,-1850.514855,-229.828649
3360.370765,-9770.718434,-74.020594,-383.047749
3360.371103,-9844.739029,0.000000,995.924147
3360.371440,-9622.677246,-518.144159,306.438199
3360.371778,-10140.821405,-518.144159,-1072.533697
3360.372115,-10436.903782,592.164754,-612.876398
3360.372453,-10658.965565,518.144159,-1302.362347
3360.372790,-9770.718434,-962.267725,-1149.143247
3360.373128,-8882.471304,-1110.308913,-306.438199
3360.373465,-7846.182985,-1110.308913,1225.752797
3360.373802,-8956.491898,-1036.288319,1532.190996
3360.374140,-10066.800811,74.020594,-153.219100
3360.374477,-11029.068536,1554.432478,383.047749
3360.374815,-10510.924376,1332.370696,-536.266849
3360.375152,-10066.800811,814.226536,0.000000
3360.375490,-9252.574275,1628.453072,2604.724693
3360.375827,-9992.780217,1110.308913,2221.676944
3360.376165,-10510.924376,444.123565,689.485948
3360.376502,-10510.924376,1924.535449,153.219100
3360.376840,-10066.800811,1036.288319,536.266849
3360.377177,-10214.842000,222.061783,842.705048
3360.377515,-9030.512492,0.000000,-306.438199
3360.377852,-9400.615463,888.247130,995.924147
3360.378190,-10881.027347,-740.205942,0.000000
3360.378527,-10584.944971,-444.123565,-1149.143247
3360.378865,-10436.903782,518.144159,-383.047749
3360.379202,-10436.903782,-1184.329507,-919.314598
3360.379539,-9844.739029,-1480.411884,-1685.410096
3360.379877,-9474.636058,-2516.700203,0.000000
3360.380214,-9178.553681,-3330.926739,1455.581446
3360.380552,-9252.574275,-3775.050304,383.047749
3360.380889,-10288.862594,-1628.453072,-459.657299
3360.381227,-11769.274478,-1702.473667,-689.485948
3360.381564,-9474.636058,-2812.782580,-766.095498
3360.381902,-9474.636058,-3404.947333,995.924147
3360.382239,-8586.388927,-2294.638420,3677.258390
3360.382577,-10140.821405,-1554.432478,2987.772442
3360.382914,-11473.192101,-444.123565,1762.019645
3360.383252,-11399.171507,1184.329507,459.657299
3360.383589,-10807.006753,-148.041188,-842.705048
3360.383927,-9474.636058,0.000000,612.876398
3360.384264,-8216.285956,0.000000,2987.772442
3360.384602,-9474.636058,148.041188,2451.505594
3360.384939,-10436.903782,1036.288319,0.000000
3360.385276,-10584.944971,2146.597232,-1532.190996
3360.385614,-11399.171507,2294.638420,-842.705048
3360.385951,-10436.903782,1184.329507,-1915.238745
3360.386289,-8808.450710,592.164754,-1302.362347
3360.386626,-8660.409521,1998.556043,842.705048
3360.386964,-8808.450710,222.061783,536.266849
3360.387301,-10066.800811,222.061783,-1455.581446
3360.387639,-10214.842000,1110.308913,-919.314598
3360.387976,-10658.965565,370.102971,0.000000
3360.388314,-9696.697840,444.123565,-1072.533697
3360.388651,-8068.244768,-444.123565,-536.266849
3360.388989,-9178.553681,-222.061783,1762.019645
3360.389326,-9696.697840,-518.144159,459.657299
3360.389664,-10881.027347,1036.288319,306.438199
3360.390001,-11547.212695,666.185348,153.219100
3360.390339,-10140.821405,444.123565,-229.828649
3360.390676,-9400.615463,222.061783,0.000000
3360.391013,-9770.718434,0.000000,3217.601092
3360.391351,-9474.636058,-1110.308913,2068.457845
3360.391688,-10584.944971,-666.185348,766.095498
3360.392026,-11251.130318,1036.288319,383.047749
3360.392363,-11473.192101,-296.082377,-229.828649
3360.392701,-10436.903782,-1036.288319,-612.876398
3360.393038,-8734.430116,-1628.453072,229.828649
3360.393376,-8364.327145,-1628.453072,1532.190996
3360.393713,-10584.944971,-814.226536,536.266849
3360.394051,-11177.109724,-1184.329507,-1991.848295
3360.394388,-10955.047942,-444.123565,-1072.533697
3360.394726,-10288.862594,-1258.350101,0.000000
3360.395063,-9548.656652,-740.205942,153.219100
3360.395401,-9696.697840,-444.123565,2068.457845
3360.395738,-10436.903782,-1702.473667,1915.238745
3360.396076,-10362.883188,-1110.308913,1302.362347
3360.396413,-10066.800811,1184.329507,1149.143247
3360.396750,-10955.047942,666.185348,2374.896044
3360.397088,-10658.965565,370.102971,1532.190996
3360.397425,-9622.677246,962.267725,1302.362347
3360.397763,-8142.265362,1332.370696,2451.505594
3360.398100,-8956.491898,592.164754,2451.505594
3360.398438,-10436.903782,1480.411884,1378.971896
3360.398775,-10510.924376,2886.803174,689.485948
3360.399113,-11103.089130,2294.638420,-612.876398
3360.399450,-9030.512492,1554.432478,-919.314598
3360.399788,-8438.347739,592.164754,0.000000
3360.400125,-8734.430116,-222.061783,383.047749
3360.400463,-9622.677246,-666.185348,0.000000
3360.400800,-9622.677246,740.205942,-1532.190996
3360.401138,-10510.924376,-740.205942,-2451.505594
3360.401475,-10140.821405,-1184.329507,-1838.629195
3360.401813,-9178.553681,-1850.514855,-1072.533697
3360.402150,-8364.327145,-1628.453072,612.876398
3360.402487,-9474.636058,-2442.679609,0.000000
3360.402825,-11251.130318,-2960.823768,153.219100
3360.403162,-10658.965565,-1554.432478,459.657299
3360.403500,-10362.883188,-1776.494261,306.438199
3360.403837,-11769.274478,-1924.535449,1378.971896
3360.404175,-11177.109724,-592.164754,1608.800546
3360.404512,-10362.883188,-1924.535449,1072.533697
3360.404850,-9844.739029,-1480.411884,689.485948
3360.405187,-9696.697840,-1110.308913,229.828649
3360.405525,-10807.006753,-592.164754,689.485948
3360.405862,-11325.150913,-1406.391290,-459.657299
3360.406200,-8586.388927,-370.102971,-689.485948
3360.406537,-9104.533087,0.000000,1149.143247
3360.406875,-9992.780217,-518.144159,842.705048
3360.407212,-10807.006753,-148.041188,0.000000
3360.407550,-10658.965565,1258.350101,0.000000
3360.407887,-10732.986159,1480.411884,-766.095498
3360.408224,-10362.883188,444.123565,-1149.143247
3360.408562,-9696.697840,888.247130,0.000000
3360.408899,-9474.636058,0.000000,612.876398
3360.409237,-9770.718434,-148.041188,153.219100
3360.409574,-9178.553681,814.226536,383.047749
3360.409912,-9696.697840,1776.494261,842.705048
3360.410249,-10510.924376,666.185348,995.924147
3360.410587,-10066.800811,888.247130,0.000000
3360.410924,-9030.512492,2072.576638,1838.629195
3360.411262,-9770.718434,888.247130,2068.457845
3360.411599,-9696.697840,1702.473667,1225.752797
3360.411937,-9992.780217,2220.617826,919.314598
3360.412274,-10732.986159,888.247130,1532.190996
3360.412612,-10362.883188,1702.473667,536.266849
3360.412949,-9252.574275,1258.350101,229.828649
3360.413287,-9548.656652,740.205942,919.314598
3360.413624,-9622.677246,-888.247130,-76.609550
3360.413961,-9474.636058,74.020594,-842.705048
3360.414299,-9178.553681,888.247130,-383.047749
3360.414636,-11399.171507,-962.267725,-459.657299
3360.414974,-10732.986159,-1480.411884,-2451.505594
3360.415311,-9548.656652,-1332.370696,-1072.533697
3360.415649,-9178.553681,-2072.576638,306.438199
3360.415986,-9770.718434,-2368.659014,0.000000
3360.416324,-11251.130318,-1924.535449,306.438199
3360.416661,-11769.274478,-1702.473667,-766.095498
3360.416999,-10066.800811,-2516.700203,-1455.581446
3360.417336,-9622.677246,-1924.535449,919.314598
3360.417674,-9770.718434,-1998.556043,2451.505594
3360.418011,-10658.965565,-1628.453072,1455.581446
3360.418349,-11177.109724,-888.247130,612.876398
3360.418686,-9844.739029,518.144159,1149.143247
3360.419024,-10066.800811,-222.061783,1378.971896
3360.419361,-10288.862594,-444.123565,1378.971896
3360.419699,-9548.656652,1554.432478,2911.162892
3360.420036,-10807.006753,370.102971,2221.676944
3360.420373,-11695.253884,592.164754,1072.533697
3360.420711,-9918.759623,1702.473667,-383.047749
3360.421048,-9844.739029,1924.535449,612.876398
3360.421386,-9326.594869,1110.308913,-842.705048
3360.421723,-8882.471304,0.000000,-1532.190996
3360.422061,-8660.409521,2368.659014,0.000000
3360.422398,-9252.574275,888.247130,-1302.362347
3360.422736,-10066.800811,666.185348,-2374.896044
3360.423073,-9474.636058,1110.308913,-1225.752797
3360.423411,-10436.903782,518.144159,-536.266849
3360.423748,-10362.883188,-666.185348,0.000000
3360.424086,-8438.347739,222.061783,536.266849
3360.424423,-8734.430116,-1406.391290,2298.286494
3360.424761,-10288.862594,-1776.494261,2451.505594
3360.425098,-10140.821405,74.020594,1608.800546
3360.425436,-10955.047942,-296.082377,1991.848295
3360.425773,-10881.027347,-1036.288319,1378.971896
3360.426110,-9548.656652,-666.185348,383.047749
3360.426448,-10066.800811,0.000000,1455.581446
3360.426785,-10140.821405,0.000000,-153.219100
3360.427123,-9548.656652,-888.247130,-2145.067394
3360.427460,-10362.883188,148.041188,-766.095498
3360.427798,-10436.903782,-1480.411884,-919.314598
3360.428135,-10436.903782,-2516.700203,-383.047749
3360.428473,-10066.800811,-1702.473667,76.609550
3360.428810,-9918.759623,-2072.576638,612.876398
3360.429148,-11843.295072,-814.226536,76.609550
3360.429485,-11029.068536,-1332.370696,-1991.848295
3360.429823,-10436.903782,-1924.535449,-689.485948
3360.430160,-9992.780217,-2368.659014,0.000000
3360.430498,-9474.636058,-1480.411884,-229.828649
3360.430835,-8660.409521,0.000000,383.047749
3360.431173,-9992.780217,-1554.432478,-919.314598
3360.431510,-9252.574275,-444.123565,-1455.581446
3360.431847,-9474.636058,962.267725,-383.047749
3360.432185,-10807.006753,1184.329507,1915.238745
3360.432522,-10732.986159,148.041188,229.828649
3360.432860,-9844.739029,1554.432478,2451.505594
3360.433197,-9622.677246,1332.370696,3524.039291
3360.433535,-10066.800811,1110.308913,2681.334243
3360.433872,-9844.739029,2146.597232,536.266849
3360.434210,-9622.677246,2886.803174,0.000000
3360.434547,-10362.883188,1702.473667,-229.828649
3360.434885,-8882.471304,1332.370696,-1149.143247
3360.435222,-8660.409521,2294.638420,76.609550
3360.435560,-9178.553681,1998.556043,-766.095498
3360.435897,-10066.800811,1110.308913,-3140.991542
3360.436235,-10214.842000,1998.556043,-2451.505594
3360.436572,-10140.821405,-518.144159,-1455.581446
3360.436910,-9400.615463,-1258.350101,306.438199
3360.437247,-8290.306550,-1332.370696,1608.800546
3360.437584,-9474.636058,-1850.514855,2757.943793
3360.437922,-11843.295072,-1036.288319,2221.676944
3360.438259,-11917.315666,-1776.494261,153.219100
3360.438597,-11325.150913,0.000000,612.876398
3360.438934,-10955.047942,-1702.473667,0.000000
3360.439272,-9622.677246,-1480.411884,-306.438199
3360.439609,-8882.471304,-1036.288319,1225.752797
3360.439947,-10140.821405,-1924.535449,1072.533697
3360.440284,-9918.759623,-962.267725,0.000000
3360.440622,-10510.924376,0.000000,306.438199
3360.440959,-11843.295072,-370.102971,842.705048
3360.441297,-10955.047942,-1480.411884,-689.485948
3360.441634,-9326.594869,-1184.329507,842.705048
3360.441971,-9178.553681,-888.247130,2604.724693
3360.442309,-10584.944971,-740.205942,2068.457845
3360.442646,-11029.068536,148.041188,-383.047749
3360.442984,-10881.027347,1406.391290,-1225.752797
3360.443321,-10066.800811,-296.082377,-1762.019645
3360.443659,-9474.636058,-666.185348,-2145.067394
3360.443996,-8882.471304,-296.082377,-306.438199
3360.444333,-9474.636058,-962.267725,0.000000
3360.444671,-9474.636058,-518.144159,-689.485948
3360.445008,-9622.677246,592.164754,-995.924147
3360.445346,-10436.903782,0.000000,0.000000
3360.445683,-9770.718434,0.000000,612.876398
3360.446021,-9622.677246,0.000000,1685.410096
3360.446358,-10066.800811,518.144159,2987.772442
3360.446695,-10584.944971,666.185348,3064.381992
3360.447033,-10288.862594,370.102971,1378.971896
3360.447370,-9992.780217,2590.720797,766.095498
3360.447708,-10584.944971,518.144159,0.000000
3360.448045,-10362.883188,148.041188,306.438199
3360.448383,-8882.471304,0.000000,995.924147
3360.448720,-9770.718434,-518.144159,919.314598
3360.449057,-9548.656652,-296.082377,-995.924147
3360.449395,-9474.636058,296.082377,-2221.676944
3360.449732,-9770.718434,0.000000,-1991.848295
3360.450070,-9770.718434,-1554.432478,-2528.115143
3360.450407,-8882.471304,-1480.411884,-2451.505594
3360.450745,-9844.739029,-1406.391290,0.000000
3360.451082,-11621.233289,-3256.906145,1072.533697
3360.451419,-11325.150913,-2516.700203,-383.047749
3360.451757,-11251.130318,-1184.329507,612.876398
3360.452094,-10658.965565,-1776.494261,689.485948
3360.452432,-10658.965565,-3182.885551,-229.828649
3360.452769,-9918.759623,-2516.700203,842.705048
3360.453107,-9622.677246,-2294.638420,1532.190996
3360.453444,-10362.883188,-888.247130,76.609550
3360.453781,-10362.883188,-296.082377,-919.314598
3360.454119,-10288.862594,592.164754,0.000000
3360.454456,-9844.739029,-222.061783,612.876398
3360.454794,-9548.656652,0.000000,1149.143247
3360.455131,-9252.574275,1184.329507,2604.724693
3360.455469,-10955.047942,592.164754,2451.505594
3360.455806,-11177.109724,1406.391290,842.705048
3360.456143,-10288.862594,2738.761985,-383.047749
3360.456481,-10510.924376,1332.370696,0.000000
3360.456818,-9992.780217,666.185348,-612.876398
3360.457156,-7920.203579,518.144159,-383.047749
3360.457493,-8438.347739,1776.494261,919.314598
3360.457831,-10140.821405,888.247130,0.000000
3360.458168,-10288.862594,518.144159,-2451.505594
3360.458505,-9622.677246,1628.453072,-995.924147
3360.458843,-9178.553681,-74.020594,306.438199
3360.459180,-8882.471304,-296.082377,766.095498
3360.459518,-8586.388927,-370.102971,2221.676944
3360.459855,-11473.192101,-518.144159,3217.601092
3360.460193,-11177.109724,-1110.308913,459.657299
3360.460530,-10510.924376,740.205942,306.438199
3360.460867,-10214.842000,296.082377,1225.752797
3360.461205,-9474.636058,-1554.432478,842.705048
3360.461542,-8956.491898,-962.267725,383.047749
3360.461880,-9400.615463,-296.082377,1608.800546
3360.462217,-10732.986159,-296.082377,766.095498
3360.462554,-11547.212695,0.000000,-1762.019645
3360.462892,-11325.150913,814.226536,-1455.581446
3360.463229,-10807.006753,-1258.350101,-1608.800546
3360.463567,-9030.512492,-2072.576638,-1302.362347
3360.463904,-9030.512492,-2072.576638,1225.752797
3360.464242,-10140.821405,-2072.576638,536.266849
3360.464579,-11473.192101,-2368.659014,-995.924147
3360.464916,-11547.212695,-1480.411884,-2298.286494
3360.465254,-10658.965565,-888.247130,-995.924147
3360.465591,-10140.821405,-2738.761985,0.000000
3360.465929,-8808.450710,-2664.741391,153.219100
3360.466266,-8956.491898,-1406.391290,1149.143247
3360.466604,-11325.150913,-1850.514855,1302.362347
3360.466941,-10807.006753,-1184.329507,-383.047749
3360.467278,-9548.656652,592.164754,76.609550
3360.467616,-9622.677246,0.000000,1149.143247
3360.467953,-9252.574275,-592.164754,1302.362347
3360.468291,-9696.697840,222.061783,3983.696590
3360.468628,-10214.842000,0.000000,4366.744339
3360.468966,-10732.986159,1110.308913,1762.019645
3360.469303,-10881.027347,2590.720797,0.000000
3360.469640,-10658.965565,2516.700203,0.000000
3360.469978,-9992.780217,1110.308913,76.609550
3360.470315,-8808.450710,814.226536,459.657299
3360.470653,-8512.368333,1998.556043,1915.238745
3360.470990,-10436.903782,1332.370696,689.485948
3360.471328,-10955.047942,74.020594,-2834.553343
3360.471665,-9770.718434,1924.535449,-2911.162892
3360.472002,-8586.388927,-592.164754,-3217.601092
3360.472340,-8882.471304,-1850.514855,-1378.971896
3360.472677,-8512.368333,-1332.370696,229.828649
3360.473015,-9252.574275,-1554.432478,1378.971896
3360.473352,-10732.986159,-1258.350101,-612.876398
3360.473690,-11991.336260,-1258.350101,-689.485948
3360.474027,-11843.295072,-740.205942,766.095498
3360.474364,-10658.965565,-2886.803174,1532.190996
3360.474702,-9918.759623,-2220.617826,1838.629195
3360.475039,-8734.430116,-1554.432478,1149.143247
3360.475377,-9844.739029,-2220.617826,995.924147
3360.475714,-11325.150913,-1850.514855,0.000000
3360.476052,-11547.212695,222.061783,-459.657299
3360.476389,-10658.965565,222.061783,-995.924147
3360.476726,-10362.883188,-1110.308913,-1685.410096
3360.477064,-8660.409521,-148.041188,76.609550
3360.477401,-9252.574275,-814.226536,1302.362347
3360.477739,-10214.842000,-1258.350101,229.828649
3360.478076,-10732.986159,-370.102971,-1072.533697
3360.478414,-11177.109724,814.226536,-229.828649
3360.478751,-10436.903782,-518.144159,-1302.362347
3360.479088,-9992.780217,-740.205942,-536.266849
3360.479426,-8660.409521,-148.041188,1378.971896
3360.479763,-8882.471304,-444.123565,995.924147
3360.480101,-10436.903782,222.061783,0.000000
3360.480438,-11029.068536,1110.308913,0.000000
3360.480776,-10362.883188,0.000000,0.000000
3360.481113,-9474.636058,-888.247130,1532.190996
3360.481450,-8142.265362,148.041188,2834.553343
3360.481788,-8512.368333,444.123565,4443.353888
3360.482125,-10436.903782,1110.308913,2604.724693
3360.482463,-10584.944971,1332.370696,0.000000
3360.482800,-11399.171507,1406.391290,1149.143247
3360.483137,-10066.800811,814.226536,612.876398
3360.483475,-8586.388927,1110.308913,76.609550
3360.483812,-8438.347739,740.205942,1072.533697
3360.484150,-9252.574275,962.267725,0.000000
3360.484487,-9918.759623,-148.041188,-1838.629195
3360.484825,-10214.842000,222.061783,-995.924147
3360.485162,-11399.171507,0.000000,-536.266849
3360.485499,-11399.171507,-1776.494261,-995.924147
3360.485837,-9474.636058,-888.247130,-766.095498
3360.486174,-9326.594869,-2146.597232,536.266849
3360.486512,-10807.006753,-2664.741391,536.266849
3360.486849,-10066.800811,-2146.597232,-2298.286494
3360.487187,-10807.006753,-1702.473667,-766.095498
3360.487524,-11473.192101,-2886.803174,-1149.143247
3360.487861,-10066.800811,-2960.823768,-995.924147
3360.488199,-9400.615463,-2516.700203,1991.848295
3360.488536,-10658.965565,-2886.803174,2681.334243
3360.488874,-9992.780217,-1998.556043,612.876398
3360.489211,-10732.986159,-962.267725,919.314598
3360.489549,-10288.862594,-666.185348,1455.581446
3360.489886,-9030.512492,-962.267725,1455.581446
3360.490223,-10066.800811,0.000000,2374.896044
3360.490561,-10288.862594,1110.308913,2374.896044
3360.490898,-10732.986159,-370.102971,0.000000
3360.491236,-11029.068536,666.185348,-919.314598
3360.491573,-8808.450710,2220.617826,-766.095498
3360.491911,-9696.697840,592.164754,153.219100
3360.492248,-10362.883188,0.000000,-536.266849
3360.492585,-9326.594869,0.000000,-612.876398
3360.492923,-9474.636058,370.102971,459.657299
3360.493260,-9844.739029,444.123565,-536.266849
3360.493598,-9474.636058,1110.308913,-1149.143247
3360.493935,-10288.862594,1776.494261,-689.485948
3360.494273,-10881.027347,222.061783,229.828649
3360.494610,-10510.924376,1036.288319,0.000000
3360.494947,-10214.842000,-74.020594,1302.362347
3360.495285,-10584.944971,-370.102971,1915.238745
3360.495622,-9992.780217,-444.123565,0.000000
3360.495960,-9622.677246,1258.350101,-306.438199
3360.496297,-8882.471304,148.041188,-306.438199
3360.496635,-8956.491898,-888.247130,-459.657299
3360.496972,-9030.512492,-222.061783,1072.533697
3360.497309,-10658.965565,-444.123565,1608.800546
3360.497647,-10436.903782,0.000000,0.000000
3360.497984,-11029.068536,148.041188,-1608.800546
3360.498322,-10807.006753,888.247130,-995.924147
3360.498659,-9474.636058,-1258.350101,-2221.676944
3360.498997,-9104.533087,-1850.514855,-612.876398
3360.499334,-8956.491898,-1850.514855,1149.143247
3360.499671,-10140.821405,-2368.659014,536.266849
3360.500009,-11843.295072,-2072.576638,-842.705048
3360.500346,-11547.212695,-1998.556043,-1302.362347
3360.500684,-10584.944971,-1332.370696,-459.657299
3360.501021,-10510.924376,-1554.432478,-459.657299
3360.501359,-9178.553681,-1036.288319,383.047749
3360.501696,-9548.656652,-888.247130,1608.800546
3360.502033,-11177.109724,-1332.370696,1915.238745
3360.502371,-11621.233289,-1258.350101,1149.143247
3360.502708,-10732.986159,444.123565,2221.676944
3360.503046,-10658.965565,518.144159,2451.505594
3360.503383,-10140.821405,592.164754,2068.457845
3360.503720,-9474.636058,1184.329507,2911.162892
3360.504058,-9992.780217,962.267725,2834.553343
3360.504395,-9770.718434,666.185348,1991.848295
3360.504733,-9918.759623,2886.803174,459.657299
3360.505070,-10140.821405,2516.700203,-689.485948
3360.505408,-9474.636058,1776.494261,-612.876398
3360.505745,-8068.244768,1924.535449,-536.266849
3360.506082,-8216.285956,1184.329507,536.266849
3360.506420,-9178.553681,962.267725,383.047749
3360.506757,-10436.903782,888.247130,-1455.581446
3360.507095,-9918.759623,1998.556043,-2451.505594
3360.507432,-9844.739029,-370.102971,-2604.724693
3360.507770,-8956.491898,-1184.329507,-612.876398
3360.508107,-9178.553681,-1406.391290,1378.971896
3360.508444,-9474.636058,-1776.494261,1072.533697
3360.508782,-10288.862594,-1258.350101,-306.438199
3360.509119,-11325.150913,-1036.288319,-919.314598
3360.509457,-11473.192101,-666.185348,-689.485948
3360.509794,-10510.924376,-2146.597232,-536.266849
3360.510132,-9992.780217,-962.267725,766.095498
3360.510469,-9770.718434,-1924.535449,1838.629195
3360.510806,-10288.862594,-1850.514855,1685.410096
3360.511144,-10881.027347,-1850.514855,766.095498
3360.511481,-10362.883188,-1110.308913,536.266849
3360.511819,-11547.212695,-1406.391290,383.047749
3360.512156,-10732.986159,-1998.556043,229.828649
3360.512494,-9252.574275,-1258.350101,229.828649
3360.512831,-9252.574275,-1850.514855,1149.143247
3360.513168,-10140.821405,-1332.370696,919.314598
3360.513506,-10214.842000,-740.205942,-612.876398
3360.513843,-10881.027347,-1554.432478,-612.876398
3360.514181,-9992.780217,-666.185348,-995.924147
3360.514518,-9474.636058,-1776.494261,-612.876398
3360.514856,-9178.553681,-1554.432478,1149.143247
3360.515193,-9252.574275,-962.267725,153.219100
3360.515530,-9474.636058,-814.226536,306.438199
3360.515868,-10510.924376,518.144159,919.314598
3360.516205,-10066.800811,-222.061783,306.438199
3360.516543,-10214.842000,74.020594,1378.971896
3360.516880,-10214.842000,444.123565,3140.991542
3360.517218,-9918.759623,740.205942,3370.820191
3360.517555,-10732.986159,1332.370696,2145.067394
3360.517892,-10584.944971,2590.720797,1532.190996
3360.518230,-10584.944971,2960.823768,612.876398
3360.518567,-11177.109724,1924.535449,0.000000
3360.518905,-9918.759623,2368.659014,-766.095498
3360.519242,-8734.430116,1924.535449,-383.047749
3360.519580,-9252.574275,1332.370696,-536.266849
3360.519917,-8956.491898,666.185348,-2374.896044
3360.520254,-9696.697840,1258.350101,-2451.505594
3360.520592,-10288.862594,814.226536,-2451.505594
3360.520929,-9918.759623,-888.247130,-2451.505594
3360.521267,-9326.594869,-592.164754,-1149.143247
3360.521604,-8956.491898,-1924.535449,76.609550
3360.521941,-10140.821405,-1998.556043,766.095498
3360.522279,-10658.965565,-1628.453072,0.000000
3360.522616,-10732.986159,-1702.473667,-612.876398
3360.522954,-10362.883188,-2516.700203,-153.219100
3360.523291,-9770.718434,-2886.803174,-229.828649
3360.523629,-9548.656652,-1924.535449,1838.629195
3360.523966,-10214.842000,-3182.885551,2451.505594
3360.524303,-10288.862594,-1110.308913,766.095498
3360.524641,-10584.944971,148.041188,766.095498
3360.524978,-11621.233289,-148.041188,1072.533697
3360.525316,-10436.903782,-74.020594,842.705048
3360.525653,-9844.739029,0.000000,2451.505594
3360.525991,-10732.986159,814.226536,3830.477490
3360.526328,-10140.821405,814.226536,1302.362347
3360.526665,-10881.027347,518.144159,0.000000
3360.527003,-10732.986159,1702.473667,-383.047749
3360.527340,-10214.842000,1036.288319,-995.924147
3360.527678,-9474.636058,1110.308913,-766.095498
3360.528015,-8586.388927,1258.350101,153.219100
3360.528353,-9474.636058,814.226536,0.000000
3360.528690,-10214.842000,666.185348,-1225.752797
3360.529027,-9474.636058,962.267725,-766.095498
3360.529365,-9844.739029,962.267725,536.266849
3360.529702,-10066.800811,0.000000,0.000000
3360.530040,-8438.347739,370.102971,153.219100
3360.530377,-9326.594869,-814.226536,2987.772442
3360.530715,-10140.821405,-740.205942,2757.943793
3360.531052,-9770.718434,-962.267725,842.705048
3360.531389,-9992.780217,1332.370696,1149.143247
3360.531727,-10658.965565,296.082377,306.438199
3360.532064,-10214.842000,0.000000,-1378.971896
3360.532402,-8956.491898,0.000000,0.000000
3360.532739,-8290.306550,-1110.308913,995.924147
3360.533077,-8216.285956,-444.123565,919.314598
3360.533414,-10288.862594,518.144159,-612.876398
3360.533751,-11843.295072,0.000000,459.657299
3360.534089,-11769.274478,-888.247130,-1149.143247
3360.534426,-10066.800811,-1332.370696,-919.314598
3360.534764,-10288.862594,-962.267725,1149.143247
3360.535101,-10436.903782,-1776.494261,76.609550
3360.535439,-10214.842000,-2072.576638,-1225.752797
3360.535776,-11177.109724,-1332.370696,-612.876398
3360.536113,-11621.233289,-2294.638420,-229.828649
3360.536451,-11177.109724,-2738.761985,76.609550
3360.536788,-9992.780217,-1850.514855,1225.752797
3360.537126,-9622.677246,-1702.473667,1532.190996
3360.537463,-11029.068536,-1332.370696,1762.019645
3360.537801,-10362.883188,-370.102971,459.657299
3360.538138,-10436.903782,0.000000,919.314598
3360.538475,-10510.924376,-444.123565,919.314598
3360.538813,-9326.594869,-592.164754,306.438199
3360.539150,-8364.327145,592.164754,2451.505594
3360.539488,-8882.471304,370.102971,2145.067394
3360.539825,-8882.471304,518.144159,0.000000
3360.540162,-9622.677246,1776.494261,-76.609550
3360.540500,-10436.903782,1998.556043,-612.876398
3360.540837,-8956.491898,1110.308913,-1762.019645
3360.541175,-8364.327145,888.247130,383.047749
3360.541512,-9178.553681,1110.308913,459.657299
3360.541849,-10436.903782,518.144159,-766.095498
3360.542187,-9622.677246,888.247130,-1608.800546
3360.542524,-10658.965565,1628.453072,-1532.190996
3360.542862,-10510.924376,-666.185348,-2451.505594
3360.543199,-9770.718434,-962.267725,-1378.971896
3360.543536,-9178.553681,-666.185348,919.314598
3360.543874,-9622.677246,-2368.659014,1455.581446
3360.544211,-10288.862594,0.000000,-306.438199
3360.544548,-11991.336260,-370.102971,0.000000
3360.544886,-12065.356855,0.000000,766.095498
3360.545223,-10362.883188,-222.061783,-229.828649
3360.545561,-10214.842000,-444.123565,1991.848295
3360.545898,-10140.821405,-962.267725,2681.334243
3360.546235,-11029.068536,-1998.556043,1225.752797
3360.546573,-9992.780217,-888.247130,306.438199
3360.546910,-9252.574275,-444.123565,1532.190996
3360.547248,-10510.924376,-370.102971,2068.457845
3360.547585,-10066.800811,-740.205942,0.000000
3360.547922,-9178.553681,222.061783,842.705048
3360.548260,-9770.718434,-1258.350101,1455.581446
3360.548597,-10140.821405,-592.164754,229.828649
3360.548935,-9400.615463,1480.411884,229.828649
3360.549272,-10436.903782,222.061783,-766.095498
3360.549609,-10066.800811,74.020594,-1072.533697
3360.549947,-9326.594869,-222.061783,-1149.143247
3360.550284,-9918.759623,-74.020594,1685.410096
3360.550622,-9696.697840,-444.123565,383.047749
3360.550959,-9548.656652,370.102971,0.000000
3360.551296,-10658.965565,1776.494261,842.705048
3360.551634,-11029.068536,222.061783,612.876398
3360.551971,-9844.739029,1036.288319,306.438199
3360.552308,-9696.697840,1036.288319,1915.238745
3360.552646,-9252.574275,592.164754,2374.896044
3360.552983,-10140.821405,1406.391290,1302.362347
3360.553321,-10066.800811,3182.885551,536.266849
3360.553658,-10881.027347,1036.288319,766.095498
3360.553995,-10658.965565,518.144159,76.609550
3360.554333,-9622.677246,518.144159,153.219100
3360.554670,-9178.553681,74.020594,842.705048
3360.555008,-9104.533087,-296.082377,76.609550
3360.555345,-9104.533087,-222.061783,-1225.752797
3360.555682,-9252.574275,-592.164754,-1608.800546
3360.556020,-10066.800811,-1702.473667,-2145.067394
3360.556357,-9918.759623,-2368.659014,-1072.533697
3360.556695,-9178.553681,-1850.514855,0.000000
3360.557032,-9400.615463,-3330.926739,383.047749
3360.557369,-10584.944971,-2294.638420,-306.438199
3360.557707,-10510.924376,-1480.411884,-919.314598
3360.558044,-10881.027347,-2294.638420,-689.485948
3360.558381,-10955.047942,-2960.823768,-766.095498
3360.558719,-9252.574275,-3330.926739,-306.438199
3360.559056,-9770.718434,-2664.741391,2681.334243
3360.559394,-10362.883188,-3108.864956,2145.067394
3360.559731,-10807.006753,-1406.391290,1838.629195
3360.560068,-11103.089130,518.144159,1378.971896
3360.560406,-11103.089130,0.000000,689.485948
3360.560743,-11695.253884,0.000000,1149.143247
3360.561081,-10881.027347,222.061783,2068.457845
3360.561418,-10288.862594,444.123565,1838.629195
3360.561755,-9918.759623,370.102971,689.485948
3360.562093,-9844.739029,2294.638420,-383.047749
3360.562430,-9696.697840,1554.432478,-995.924147
3360.562768,-10066.800811,1184.329507,-689.485948
3360.563105,-9474.636058,1628.453072,-995.924147
3360.563442,-9326.594869,1258.350101,-612.876398
3360.563780,-8956.491898,0.000000,-306.438199
3360.564117,-9474.636058,962.267725,-1378.971896
3360.564455,-9474.636058,814.226536,0.000000
3360.564792,-9696.697840,888.247130,0.000000
3360.565129,-8660.409521,-148.041188,-76.609550
3360.565467,-9104.533087,592.164754,2145.067394
3360.565804,-9770.718434,-518.144159,2681.334243
3360.566141,-11177.109724,518.144159,1378.971896
3360.566479,-10658.965565,1184.329507,153.219100
3360.566816,-10881.027347,1702.473667,153.219100
3360.567154,-10066.800811,222.061783,0.000000
3360.567491,-9474.636058,592.164754,0.000000
3360.567828,-8438.347739,888.247130,1991.848295
3360.568166,-10881.027347,-962.267725,1302.362347
3360.568503,-11177.109724,888.247130,-383.047749
3360.568841,-10881.027347,666.185348,-1149.143247
3360.569178,-11177.109724,74.020594,-536.266849
3360.569515,-9622.677246,-1554.432478,-612.876398
3360.569853,-9548.656652,-1258.350101,919.314598
3360.570190,-9696.697840,-1406.391290,1991.848295
3360.570528,-10066.800811,-1998.556043,153.219100
3360.570865,-10807.006753,-1406.391290,-1608.800546
3360.571202,-10732.986159,-2368.659014,-1225.752797
3360.571540,-9844.739029,-2960.823768,-612.876398
3360.571877,-8734.430116,-2960.823768,0.000000
3360.572214,-7994.224174,-2294.638420,1302.362347
3360.572552,-9474.636058,-2368.659014,1838.629195
3360.572889,-11103.089130,-1110.308913,229.828649
3360.573227,-11103.089130,0.000000,0.000000
3360.573564,-11473.192101,-518.144159,995.924147
3360.573901,-10807.006753,-592.164754,919.314598
3360.574239,-8808.450710,-444.123565,1915.238745
3360.574576,-8734.430116,222.061783,2987.772442
3360.574914,-10288.862594,814.226536,2374.896044
3360.575251,-10658.965565,2220.617826,383.047749
3360.575588,-11177.109724,3182.885551,0.000000
3360.575926,-11621.233289,2294.638420,-995.924147
3360.576263,-10140.821405,1554.432478,-1225.752797
3360.576601,-8290.306550,1258.350101,0.000000
3360.576938,-8882.471304,0.000000,1685.410096
3360.577275,-10140.821405,1258.350101,-306.438199
3360.577613,-10140.821405,1184.329507,-2145.067394
3360.577950,-10214.842000,518.144159,-1838.629195
3360.578288,-9844.739029,-1998.556043,-1072.533697
3360.578625,-9252.574275,-2220.617826,1149.143247
3360.578962,-8068.244768,-2220.617826,2221.676944
3360.579300,-9104.533087,-2442.679609,1149.143247
3360.579637,-9400.615463,-1332.370696,-919.314598
3360.579974,-9844.739029,-1036.288319,-1149.143247
3360.580312,-10436.903782,-2220.617826,-766.095498
3360.580649,-9918.759623,-2738.761985,459.657299
3360.580987,-9326.594869,-1776.494261,2834.553343
3360.581324,-9992.780217,-1702.473667,2681.334243
3360.581661,-11103.089130,-666.185348,1225.752797
3360.581999,-11103.089130,0.000000,153.219100
3360.582336,-11251.130318,-592.164754,-306.438199
3360.582674,-11029.068536,-962.267725,0.000000
3360.583011,-10066.800811,-592.164754,919.314598
3360.583348,-10140.821405,370.102971,1378.971896
3360.583686,-10140.821405,-592.164754,-229.828649
3360.584023,-11695.253884,296.082377,-1455.581446
3360.584361,-11177.109724,296.082377,-1225.752797
3360.584698,-11029.068536,-444.123565,-1378.971896
3360.585035,-9548.656652,-1554.432478,-1225.752797
3360.585373,-8512.368333,-1110.308913,459.657299
3360.585710,-9030.512492,-1258.350101,1685.410096
3360.586047,-10214.842000,-1036.288319,0.000000
3360.586385,-10066.800811,-148.041188,-306.438199
3360.586722,-9400.615463,518.144159,0.000000
3360.587060,-9030.512492,-148.041188,-383.047749
3360.587397,-9844.739029,1184.329507,306.438199
3360.587734,-9178.553681,1110.308913,1838.629195
3360.588072,-9770.718434,148.041188,1685.410096
3360.588409,-9770.718434,1998.556043,1072.533697
3360.588747,-9326.594869,1924.535449,1072.533697
3360.589084,-10436.903782,1850.514855,1608.800546
3360.589421,-9844.739029,74.020594,0.000000
3360.589759,-9326.594869,1184.329507,1072.533697
3360.590096,-10214.842000,1110.308913,1378.971896
3360.590434,-11103.089130,1184.329507,-1149.143247
3360.590771,-9844.739029,1480.411884,-2757.943793
3360.591108,-10140.821405,0.000000,-1302.362347
3360.591446,-9844.739029,-518.144159,-1149.143247
3360.591783,-9770.718434,-1258.350101,-76.609550
3360.592121,-9252.574275,-592.164754,1225.752797
3360.592458,-10214.842000,-2146.597232,383.047749
3360.592795,-11621.233289,-1036.288319,-612.876398
3360.593133,-10584.944971,-740.205942,-995.924147
3360.593470,-11251.130318,-1258.350101,0.000000
3360.593807,-10436.903782,-3034.844362,-229.828649
3360.594145,-9326.594869,-1850.514855,-383.047749
3360.594482,-9992.780217,-1776.494261,1532.190996
3360.594820,-10214.842000,-2294.638420,842.705048
3360.595157,-9622.677246,-962.267725,0.000000
3360.595494,-10584.944971,74.020594,1532.190996
3360.595832,-9992.780217,148.041188,1225.752797
3360.596169,-10140.821405,-148.041188,1149.143247
3360.596507,-11029.068536,0.000000,2911.162892
3360.596844,-10584.944971,74.020594,2145.067394
3360.597181,-10584.944971,1628.453072,-306.438199
3360.597519,-9992.780217,1776.494261,-1149.143247
3360.597856,-9474.636058,740.205942,-1685.410096
3360.598194,-9326.594869,-666.185348,-1991.848295
3360.598531,-8882.471304,0.000000,-459.657299
3360.598868,-8586.388927,148.041188,766.095498
3360.599206,-10066.800811,0.000000,459.657299
3360.599543,-10955.047942,444.123565,-1225.752797
3360.599880,-10436.903782,1110.308913,-919.314598
3360.600218,-10436.903782,0.000000,-229.828649
3360.600555,-9770.718434,-1480.411884,153.219100
3360.600893,-8364.327145,-518.144159,1532.190996
3360.601230,-9844.739029,-1480.411884,2604.724693
3360.601567,-10658.965565,-444.123565,1302.362347
3360.601905,-10807.006753,-518.144159,-229.828649
3360.602242,-10881.027347,0.000000,842.705048
3360.602580,-9844.739029,-740.205942,306.438199
3360.602917,-9178.553681,-962.267725,689.485948
3360.603254,-8882.471304,-370.102971,1915.238745
3360.603592,-10436.903782,-1480.411884,1838.629195
3360.603929,-11251.130318,-592.164754,-689.485948
3360.604267,-10584.944971,592.164754,-1225.752797
3360.604604,-10732.986159,-518.144159,-612.876398
3360.604941,-9104.533087,-1628.453072,-842.705048
3360.605279,-8734.430116,-1628.453072,0.000000
3360.605616,-10140.821405,-1924.535449,842.705048
3360.605954,-10732.986159,-2294.638420,-1838.629195
3360.606291,-10066.800811,-1258.350101,-2681.334243
3360.606628,-11473.192101,-1850.514855,-1149.143247
3360.606966,-10066.800811,-2072.576638,-1915.238745
3360.607303,-9474.636058,-1554.432478,-689.485948
3360.607640,-9252.574275,-1480.411884,1608.800546
3360.607978,-9992.780217,-1406.391290,1072.533697
3360.608315,-11251.130318,-444.123565,0.000000
3360.608653,-10881.027347,296.082377,459.657299
3360.608990,-11103.089130,222.061783,1149.143247
3360.609327,-10658.965565,74.020594,1149.143247
3360.609665,-8586.388927,740.205942,1685.410096
3360.610002,-9326.594869,888.247130,2681.334243
3360.610340,-10584.944971,1332.370696,1608.800546
3360.610677,-10807.006753,3034.844362,-459.657299
3360.611014,-10881.027347,2664.741391,0.000000
3360.611352,-10288.862594,2368.659014,-1302.362347
3360.611689,-8290.306550,1628.453072,-995.924147
3360.612027,-7920.203579,1628.453072,1302.362347
3360.612364,-9548.656652,962.267725,1685.410096
3360.612701,-10362.883188,962.267725,0.000000
3360.613039,-11103.089130,1628.453072,0.000000
3360.613376,-10658.965565,592.164754,0.000000
3360.613714,-9474.636058,-814.226536,-766.095498
3360.614051,-8364.327145,-518.144159,919.314598
3360.614388,-9474.636058,-1554.432478,2834.553343
3360.614726,-10584.944971,-1554.432478,1915.238745
3360.615063,-9918.759623,-740.205942,-536.266849
3360.615400,-11325.150913,-518.144159,229.828649
3360.615738,-11103.089130,-444.123565,-229.828649
3360.616075,-10510.924376,-1110.308913,-919.314598
3360.616413,-8660.409521,-1406.391290,612.876398
3360.616750,-9030.512492,-1998.556043,842.705048
3360.617087,-9918.759623,-1628.453072,1072.533697
3360.617425,-11399.171507,0.000000,919.314598
3360.617762,-11621.233289,-962.267725,-536.266849
3360.618100,-11251.130318,-740.205942,-612.876398
3360.618437,-9696.697840,-666.185348,459.657299
3360.618774,-9030.512492,-888.247130,1455.581446
3360.619112,-9844.739029,-2442.679609,1302.362347
3360.619449,-10288.862594,-962.267725,-689.485948
3360.619787,-10436.903782,-74.020594,-842.705048
3360.620124,-11399.171507,-1110.308913,-1302.362347
3360.620461,-9992.780217,-1406.391290,-2374.896044
3360.620799,-8438.347739,-1332.370696,-995.924147
3360.621136,-9178.553681,-1406.391290,1072.533697
3360.621473,-10066.800811,-444.123565,-383.047749
3360.621811,-10510.924376,888.247130,-612.876398
3360.622148,-11177.109724,0.000000,-76.609550
3360.622486,-10362.883188,-296.082377,-383.047749
3360.622823,-9178.553681,0.000000,995.924147
3360.623160,-9030.512492,1036.288319,3753.867940
3360.623498,-9992.780217,1036.288319,2987.772442
3360.623835,-11177.109724,1998.556043,76.609550
3360.624173,-10658.965565,2812.782580,0.000000
3360.624510,-10732.986159,2146.597232,0.000000
3360.624847,-9622.677246,592.164754,76.609550
3360.625185,-9104.533087,1332.370696,1762.019645
3360.625522,-9252.574275,296.082377,995.924147
3360.625860,-9252.574275,0.000000,-153.219100
3360.626197,-8734.430116,74.020594,-689.485948
3360.626534,-9918.759623,-148.041188,0.000000
3360.626872,-10584.944971,-370.102971,-1378.971896
3360.627209,-9844.739029,-814.226536,-1378.971896
3360.627547,-8734.430116,-518.144159,-612.876398
3360.627884,-9474.636058,-2516.700203,766.095498
3360.628221,-10584.944971,-2368.659014,0.000000
3360.628559,-10140.821405,-1554.432478,-612.876398
3360.628896,-10732.986159,-1850.514855,0.000000
3360.629233,-10510.924376,-2960.823768,229.828649
3360.629571,-9400.615463,-2368.659014,1072.533697
3360.629908,-10658.965565,-1924.535449,2145.067394
3360.630246,-11695.253884,-2368.659014,612.876398
3360.630583,-10955.047942,-740.205942,0.000000
3360.630920,-10510.924376,-74.020594,689.485948
3360.631258,-10140.821405,-740.205942,536.266849
3360.631595,-9622.677246,0.000000,306.438199
3360.631933,-10362.883188,-296.082377,1455.581446
3360.632270,-11177.109724,-666.185348,2451.505594
3360.632607,-10214.842000,222.061783,919.314598
3360.632945,-11029.068536,2072.576638,766.095498
3360.633282,-10807.006753,888.247130,0.000000
3360.633620,-9548.656652,-370.102971,-1532.190996
3360.633957,-8882.471304,0.000000,-383.047749
3360.634294,-8216.285956,296.082377,919.314598
3360.634632,-8808.450710,-444.123565,0.000000
3360.634969,-9326.594869,888.247130,-1302.362347
3360.635306,-9474.636058,1554.432478,-919.314598
3360.635644,-10140.821405,1110.308913,-1302.362347
3360.635981,-9992.780217,-296.082377,-842.705048
3360.636319,-8586.388927,74.020594,1915.238745
3360.636656,-9326.594869,-370.102971,2528.115143
3360.636993,-9770.718434,148.041188,1762.019645
3360.637331,-10288.862594,1258.350101,153.219100
3360.637668,-10732.986159,592.164754,383.047749
3360.638006,-10288.862594,518.144159,-229.828649
3360.638343,-9326.594869,1036.288319,0.000000
3360.638680,-9622.677246,814.226536,1685.410096
3360.639018,-10510.924376,74.020594,689.485948
3360.639355,-10362.883188,888.247130,-1532.190996
3360.639693,-10955.047942,1554.432478,-766.095498
3360.640030,-11695.253884,296.082377,-766.095498
3360.640367,-9918.759623,-1258.350101,-1532.190996
3360.640705,-9918.759623,-1110.308913,76.609550
3360.641042,-9548.656652,-1776.494261,995.924147
3360.641379,-9400.615463,-1702.473667,-766.095498
3360.641716,-10436.903782,-1184.329507,-1838.629195
3360.642054,-10732.986159,-2368.659014,-1762.019645
3360.642391,-9770.718434,-3256.906145,-1838.629195
3360.642728,-8882.471304,-2812.782580,459.657299
3360.643065,-9548.656652,-2738.761985,2911.162892
3360.643403,-10214.842000,-2664.741391,1685.410096
3360.643740,-10658.965565,-666.185348,536.266849
3360.644077,-11029.068536,296.082377,1225.752797
3360.644415,-11251.130318,-962.267725,1455.581446
3360.644752,-10955.047942,-370.102971,1838.629195
3360.645089,-9030.512492,296.082377,2298.286494
3360.645426,-8586.388927,0.000000,2911.162892
3360.645764,-9770.718434,370.102971,2068.457845
3360.646101,-10732.986159,740.205942,229.828649
3360.646438,-10214.842000,888.247130,1149.143247
3360.646775,-10362.883188,1480.411884,1072.533697
3360.647113,-9622.677246,1776.494261,229.828649
3360.647450,-9474.636058,2220.617826,459.657299
3360.647787,-9548.656652,962.267725,-306.438199
3360.648124,-9844.739029,1480.411884,-2145.067394
3360.648462,-9918.759623,1702.473667,-1378.971896
3360.648799,-10214.842000,-370.102971,-1532.190996
3360.649136,-9400.615463,-1406.391290,-1685.410096
3360.649474,-9252.574275,-814.226536,536.266849
3360.649811,-9696.697840,-740.205942,536.266849
3360.650148,-10658.965565,-1258.350101,-612.876398
3360.650485,-10140.821405,-962.267725,-995.924147
3360.650823,-10436.903782,-1184.329507,0.000000
3360.651160,-10510.924376,-1184.329507,612.876398
3360.651497,-10140.821405,-1184.329507,766.095498
3360.651834,-9474.636058,-518.144159,1455.581446
3360.652172,-10140.821405,-1924.535449,612.876398
3360.652509,-10214.842000,-888.247130,-306.438199
3360.652846,-9622.677246,370.102971,306.438199
3360.653183,-10436.903782,-814.226536,383.047749
3360.653521,-11251.130318,-740.205942,-1149.143247
3360.653858,-10362.883188,-814.226536,-766.095498
3360.654195,-9030.512492,-518.144159,0.000000
3360.654533,-9770.718434,-888.247130,76.609550
3360.654870,-9400.615463,-518.144159,0.000000
3360.655207,-10140.821405,0.000000,-229.828649
3360.655544,-10066.800811,-518.144159,-766.095498
3360.655882,-10288.862594,-814.226536,153.219100
3360.656219,-10288.862594,0.000000,1532.190996
3360.656556,-10732.986159,-370.102971,1149.143247
3360.656893,-10955.047942,222.061783,76.609550
3360.657231,-9844.739029,1406.391290,229.828649
3360.657568,-10214.842000,0.000000,842.705048
3360.657905,-9400.615463,-222.061783,459.657299
3360.658242,-8956.491898,148.041188,1838.629195
3360.658580,-10140.821405,1702.473667,3753.867940
3360.658917,-10732.986159,592.164754,1532.190996
3360.659254,-10288.862594,2146.597232,229.828649
3360.659592,-9844.739029,2220.617826,1378.971896
3360.659929,-9548.656652,740.205942,995.924147
3360.660266,-9178.553681,814.226536,612.876398
3360.660603,-8734.430116,1406.391290,1762.019645
3360.660941,-9992.780217,222.061783,1532.190996
3360.661278,-10140.821405,0.000000,-459.657299
3360.661615,-8956.491898,740.205942,-1149.143247
3360.661952,-10066.800811,-222.061783,-766.095498
3360.662290,-9992.780217,-1258.350101,-1608.800546
3360.662627,-9622.677246,-592.164754,-995.924147
3360.662964,-10214.842000,-1184.329507,459.657299
3360.663301,-11473.192101,-2146.597232,0.000000
3360.663639,-10955.047942,-1850.514855,-1685.410096
3360.663976,-10584.944971,-1480.411884,-1685.410096
3360.664313,-9474.636058,-2886.803174,-919.314598
3360.664651,-9548.656652,-3330.926739,-995.924147
3360.664988,-9030.512492,-2960.823768,0.000000
3360.665325,-9992.780217,-2442.679609,459.657299
3360.665662,-11769.274478,-2442.679609,1455.581446
3360.666000,-10881.027347,-1110.308913,536.266849
3360.666337,-10214.842000,-1036.288319,1149.143247
3360.666674,-10288.862594,-1480.411884,1762.019645
3360.667011,-9548.656652,-1036.288319,1915.238745
3360.667349,-10658.965565,222.061783,3140.991542
3360.667686,-10955.047942,0.000000,842.705048
3360.668023,-10288.862594,962.267725,-536.266849
3360.668360,-10658.965565,1850.514855,76.609550
3360.668698,-10362.883188,-148.041188,-919.314598
3360.669035,-9474.636058,148.041188,-383.047749
3360.669372,-9548.656652,666.185348,459.657299
3360.669710,-9252.574275,1554.432478,76.609550
3360.670047,-10066.800811,518.144159,-2451.505594
3360.670384,-10510.924376,666.185348,-1762.019645
3360.670721,-9474.636058,222.061783,-612.876398
3360.671059,-7920.203579,-148.041188,612.876398
3360.671396,-8586.388927,1184.329507,1072.533697
3360.671733,-9474.636058,814.226536,1608.800546
3360.672070,-10510.924376,592.164754,383.047749
3360.672408,-10436.903782,518.144159,-995.924147
3360.672745,-10288.862594,1258.350101,919.314598
3360.673082,-10140.821405,444.123565,1608.800546
3360.673419,-10066.800811,-222.061783,536.266849
3360.673757,-9400.615463,0.000000,1149.143247
3360.674094,-9474.636058,1406.391290,0.000000
3360.674431,-11399.171507,74.020594,0.000000
3360.674769,-11029.068536,1628.453072,-1762.019645
3360.675106,-10214.842000,814.226536,-1608.800546
3360.675443,-10881.027347,-222.061783,0.000000
3360.675780,-9770.718434,-1258.350101,-383.047749
3360.676118,-9622.677246,-1480.411884,1455.581446
3360.676455,-10584.944971,-1924.535449,842.705048
3360.676792,-10214.842000,-1480.411884,-1532.190996
3360.677129,-10658.965565,-1036.288319,-1072.533697
3360.677467,-10658.965565,-2516.700203,229.828649
3360.677804,-9548.656652,-2368.659014,229.828649
3360.678141,-9474.636058,-2368.659014,1149.143247
3360.678478,-10362.883188,-1110.308913,1762.019645
3360.678816,-10214.842000,-1702.473667,0.000000
3360.679153,-10436.903782,-1554.432478,0.000000
3360.679490,-10140.821405,-814.226536,995.924147
3360.679828,-9844.739029,-1406.391290,1532.190996
3360.680165,-9622.677246,-592.164754,2451.505594
3360.680502,-9992.780217,296.082377,3140.991542
3360.680839,-9918.759623,1110.308913,2451.505594
3360.681177,-10881.027347,814.226536,842.705048
3360.681514,-10732.986159,1998.556043,-383.047749
3360.681851,-9844.739029,1184.329507,76.609550
3360.682188,-9770.718434,1702.473667,612.876398
3360.682526,-8808.450710,2146.597232,76.609550
3360.682863,-9474.636058,2072.576638,383.047749
3360.683200,-10955.047942,1702.473667,-766.095498
3360.683537,-11103.089130,1258.350101,-2528.115143
3360.683875,-9104.533087,1258.350101,-2604.724693
3360.684212,-8956.491898,222.061783,-1455.581446
3360.684549,-9252.574275,-1406.391290,612.876398
3360.684887,-8438.347739,-1332.370696,536.266849
3360.685224,-9548.656652,-1184.329507,536.266849
3360.685561,-10955.047942,-1702.473667,76.609550
3360.685898,-10140.821405,-370.102971,-1302.362347
3360.686236,-10140.821405,-1850.514855,689.485948
3360.686573,-10214.842000,-1924.535449,1378.971896
3360.686910,-9178.553681,-1850.514855,1455.581446
3360.687247,-10436.903782,0.000000,3370.820191
3360.687585,-11029.068536,-1332.370696,919.314598
3360.687922,-11547.212695,-666.185348,229.828649
3360.688259,-10658.965565,-222.061783,919.314598
3360.688596,-9696.697840,-1036.288319,0.000000
3360.688934,-9696.697840,-1776.494261,1302.362347
3360.689271,-10140.821405,-1110.308913,1685.410096
3360.689608,-10288.862594,-518.144159,459.657299
3360.689946,-10881.027347,-888.247130,-1302.362347
3360.690283,-10066.800811,-444.123565,-536.266849
3360.690620,-9548.656652,-1332.370696,-689.485948
3360.690957,-9400.615463,-1332.370696,-612.876398
3360.691295,-9400.615463,-1036.288319,76.609550
3360.691632,-10066.800811,-592.164754,1378.971896
3360.691969,-11177.109724,-1184.329507,383.047749
3360.692306,-11325.150913,-592.164754,-229.828649
3360.692644,-10436.903782,1036.288319,229.828649
3360.692981,-9326.594869,-148.041188,153.219100
3360.693318,-9030.512492,-1184.329507,689.485948
3360.693655,-8660.409521,-518.144159,2145.067394
3360.693993,-9548.656652,666.185348,2681.334243
3360.694330,-10807.006753,888.247130,1838.629195
3360.694667,-11399.171507,2516.700203,0.000000
3360.695005,-10510.924376,2220.617826,0.000000
3360.695342,-9844.739029,1702.473667,-153.219100
3360.695679,-8808.450710,1110.308913,0.000000
3360.696016,-8882.471304,1258.350101,612.876398
3360.696354,-9844.739029,222.061783,0.000000
3360.696691,-10658.965565,1036.288319,-2451.505594
3360.697028,-10288.862594,1554.432478,-2528.115143
3360.697365,-9474.636058,296.082377,-2757.943793
3360.697703,-7920.203579,-1554.432478,-2221.676944
3360.698040,-8660.409521,-1628.453072,536.266849
3360.698377,-9770.718434,-740.205942,1225.752797
3360.698714,-11251.130318,-1554.432478,-612.876398
3360.699052,-11695.253884,-740.205942,-995.924147
3360.699389,-11177.109724,-1480.411884,-459.657299
3360.699726,-9844.739029,-1924.535449,76.609550
3360.700064,-8660.409521,-2368.659014,229.828649
3360.700401,-8956.491898,-1480.411884,2681.334243
3360.700738,-10955.047942,-1924.535449,2145.067394
3360.701075,-11991.336260,-666.185348,459.657299
3360.701413,-11251.130318,296.082377,536.266849
3360.701750,-10658.965565,-74.020594,1455.581446
3360.702087,-9400.615463,-444.123565,1685.410096
3360.702424,-8438.347739,-666.185348,2604.724693
3360.702762,-9770.718434,296.082377,4673.182538
3360.703099,-11547.212695,148.041188,2374.896044
3360.703436,-11547.212695,1406.391290,0.000000
3360.703773,-11177.109724,2516.700203,536.266849
3360.704111,-9622.677246,1036.288319,-153.219100
3360.704448,-8586.388927,370.102971,-306.438199
3360.704785,-7772.162391,0.000000,612.876398
3360.705123,-8956.491898,0.000000,766.095498
3360.705460,-10066.800811,-370.102971,-1532.190996
3360.705797,-10214.842000,666.185348,-1225.752797
3360.706134,-10362.883188,0.000000,-153.219100
3360.706472,-9104.533087,-592.164754,459.657299
3360.706809,-8586.388927,0.000000,1532.190996
3360.707146,-9696.697840,0.000000,1685.410096
3360.707483,-10732.986159,-518.144159,766.095498
3360.707821,-11325.150913,296.082377,-689.485948
3360.708158,-10436.903782,518.144159,-383.047749
3360.708495,-10584.944971,-740.205942,919.314598
3360.708832,-9030.512492,-1628.453072,536.266849
3360.709170,-8512.368333,-740.205942,2681.334243
3360.709507,-10881.027347,-740.205942,2298.286494
3360.709844,-12287.418637,-592.164754,-229.828649
3360.710182,-11843.295072,888.247130,-1302.362347
3360.710519,-11399.171507,0.000000,-612.876398
3360.710856,-9918.759623,-1332.370696,-919.314598
3360.711193,-8660.409521,-2738.761985,-383.047749
3360.711531,-8216.285956,-1850.514855,612.876398
3360.711868,-9252.574275,-3182.885551,-612.876398
3360.712205,-10214.842000,-1924.535449,-2604.724693
3360.712542,-10510.924376,-1184.329507,-3447.429741
3360.712880,-11399.171507,-2886.803174,-2451.505594
3360.713217,-10510.924376,-2516.700203,-1455.581446
3360.713554,-7846.182985,-2442.679609,76.609550
3360.713891,-9326.594869,-2146.597232,2604.724693
3360.714229,-9918.759623,-2072.576638,1072.533697
3360.714566,-11325.150913,-370.102971,2145.067394
3360.714903,-11843.295072,-444.123565,2145.067394
3360.715241,-10881.027347,-592.164754,1915.238745
3360.715578,-10140.821405,74.020594,2604.724693
3360.715915,-9918.759623,444.123565,3830.477490
3360.716252,-9326.594869,666.185348,2221.676944
3360.716590,-10362.883188,1554.432478,383.047749
3360.716927,-10881.027347,2738.761985,-612.876398
3360.717264,-10362.883188,2812.782580,-1915.238745
3360.717601,-9474.636058,2072.576638,-1991.848295
3360.717939,-8438.347739,1998.556043,76.609550
3360.718276,-8512.368333,1258.350101,1455.581446
3360.718613,-9178.553681,1332.370696,459.657299
3360.718950,-10955.047942,1776.494261,229.828649
3360.719288,-10955.047942,1776.494261,-1302.362347
3360.719625,-9992.780217,518.144159,-2298.286494
3360.719962,-9992.780217,-888.247130,-689.485948
3360.720300,-8956.491898,-814.226536,2298.286494
3360.720637,-9030.512492,-1554.432478,1149.143247
3360.720974,-9844.739029,-1036.288319,-383.047749
3360.721311,-9400.615463,-444.123565,-1225.752797
3360.721649,-10288.862594,-444.123565,459.657299
3360.721986,-10732.986159,-1628.453072,842.705048
3360.722323,-9696.697840,-1184.329507,1762.019645
3360.722660,-10658.965565,0.000000,2374.896044
3360.722998,-10955.047942,-888.247130,383.047749
3360.723335,-10436.903782,148.041188,0.000000
3360.723672,-10584.944971,0.000000,842.705048
3360.724009,-10658.965565,-296.082377,842.705048
3360.724347,-10066.800811,-962.267725,229.828649
3360.724684,-9992.780217,-888.247130,1762.019645
3360.725021,-10140.821405,-1480.411884,1225.752797
3360.725359,-10955.047942,-1332.370696,612.876398
3360.725696,-10658.965565,222.061783,153.219100
3360.726033,-10732.986159,-296.082377,-1302.362347
3360.726370,-9992.780217,-666.185348,-995.924147
3360.726708,-9326.594869,-814.226536,-1225.752797
3360.727045,-8882.471304,-1184.329507,0.000000
3360.727382,-10066.800811,-1110.308913,-459.657299
3360.727719,-10214.842000,-1184.329507,-995.924147
3360.728057,-9548.656652,592.164754,0.000000
3360.728394,-9548.656652,-370.102971,306.438199
3360.728731,-9770.718434,-1110.308913,1225.752797
3360.729068,-9622.677246,0.000000,2681.334243
3360.729406,-10214.842000,296.082377,3140.991542
3360.729743,-10584.944971,1110.308913,1762.019645
3360.730080,-10807.006753,2368.659014,612.876398
3360.730418,-10881.027347,1998.556043,76.609550
3360.730755,-9548.656652,1628.453072,-1608.800546
3360.731092,-8882.471304,1332.370696,-383.047749
3360.731429,-8808.450710,666.185348,153.219100
3360.731767,-9918.759623,-1110.308913,-229.828649
3360.732104,-10140.821405,0.000000,0.000000
3360.732441,-10066.800811,148.041188,-536.266849
3360.732778,-10362.883188,0.000000,-689.485948
3360.733116,-9548.656652,-1480.411884,-1455.581446
3360.733453,-9400.615463,-962.267725,76.609550
3360.733790,-9178.553681,-2516.700203,536.266849
3360.734127,-9474.636058,-2146.597232,153.219100
3360.734465,-10807.006753,-1554.432478,689.485948
3360.734802,-11843.295072,-2146.597232,-536.266849
3360.735139,-10140.821405,-2442.679609,-1378.971896
3360.735477,-9696.697840,-3034.844362,383.047749
3360.735814,-9400.615463,-2960.823768,3524.039291
3360.736151,-9400.615463,-2812.782580,2451.505594
3360.736488,-11029.068536,-2368.659014,1685.410096
3360.736826,-11177.109724,0.000000,1532.190996
3360.737163,-11473.192101,-1110.308913,1149.143247
3360.737500,-10807.006753,-814.226536,1149.143247
3360.737837,-9178.553681,-518.144159,2068.457845
3360.738175,-9770.718434,-296.082377,2681.334243
3360.738512,-10584.944971,1110.308913,612.876398
3360.738849,-10584.944971,962.267725,-995.924147
3360.739186,-11473.192101,1110.308913,-1149.143247
3360.739524,-10732.986159,0.000000,-2221.676944
3360.739861,-8660.409521,370.102971,-1225.752797
3360.740198,-8734.430116,592.164754,919.314598
3360.740536,-8364.327145,0.000000,76.609550
3360.740873,-9992.780217,444.123565,-1685.410096
3360.741210,-10807.006753,592.164754,-1149.143247
3360.741547,-9622.677246,518.144159,-76.609550
3360.741885,-9918.759623,-444.123565,0.000000
3360.742222,-9474.636058,592.164754,1302.362347
3360.742559,-9992.780217,0.000000,1149.143247
3360.742897,-9844.739029,-518.144159,306.438199
3360.743234,-9252.574275,370.102971,-459.657299
3360.743571,-9548.656652,888.247130,229.828649
3360.743909,-10881.027347,1184.329507,0.000000
3360.744246,-10140.821405,592.164754,-766.095498
3360.744583,-9992.780217,666.185348,1378.971896
3360.744921,-9252.574275,518.144159,306.438199
3360.745258,-9548.656652,518.144159,229.828649
3360.745595,-11325.150913,962.267725,459.657299
3360.745933,-11325.150913,-296.082377,-536.266849
3360.746270,-10140.821405,-222.061783,-383.047749
3360.746607,-9474.636058,-296.082377,766.095498
3360.746945,-9178.553681,-962.267725,1302.362347
3360.747282,-10881.027347,-1332.370696,-306.438199
3360.747619,-11103.089130,-1258.350101,-1532.190996
3360.747957,-10584.944971,-518.144159,-995.924147
3360.748294,-10881.027347,-1184.329507,-536.266849
3360.748631,-9104.533087,-1702.473667,-1532.190996
3360.748969,-9770.718434,-2368.659014,1685.410096
3360.749306,-9622.677246,-1554.432478,2068.457845
3360.749643,-9326.594869,-1924.535449,76.609550
3360.749981,-9770.718434,-666.185348,1302.362347
3360.750318,-10288.862594,-1036.288319,1991.848295
3360.750655,-10881.027347,-962.267725,1685.410096
3360.750993,-10140.821405,370.102971,2604.724693
3360.751330,-9918.759623,370.102971,3140.991542
3360.751668,-10658.965565,222.061783,2451.505594
3360.752005,-9474.636058,962.267725,0.000000
3360.752342,-9992.780217,1628.453072,919.314598
3360.752680,-10584.944971,1184.329507,383.047749
3360.753017,-8956.491898,888.247130,-995.924147
3360.753354,-8364.327145,1332.370696,0.000000
3360.753692,-9548.656652,444.123565,842.705048
3360.754029,-10807.006753,1406.391290,-1532.190996
3360.754366,-10140.821405,814.226536,-842.705048
3360.754704,-9992.780217,148.041188,-1225.752797
3360.755041,-10288.862594,-1184.329507,-1378.971896
3360.755378,-9474.636058,-1110.308913,-1302.362347
3360.755716,-8586.388927,-1554.432478,1302.362347
3360.756053,-10214.842000,-2442.679609,1455.581446
3360.756390,-9844.739029,-1628.453072,-383.047749
3360.756728,-9622.677246,-814.226536,-76.609550
3360.757065,-10955.047942,-1628.453072,842.705048
3360.757402,-10066.800811,-1628.453072,383.047749
3360.757740,-9992.780217,-1258.350101,1532.190996
3360.758077,-10658.965565,-1184.329507,2451.505594
3360.758414,-10807.006753,-1258.350101,919.314598
3360.758752,-10658.965565,-370.102971,919.314598
3360.759089,-10658.965565,-888.247130,536.266849
3360.759426,-10288.862594,-1480.411884,-612.876398
3360.759764,-9474.636058,-888.247130,-1072.533697
3360.760101,-9400.615463,-1258.350101,306.438199
3360.760438,-9548.656652,-1332.370696,-842.705048
3360.760776,-10436.903782,-740.205942,-2298.286494
3360.761113,-10362.883188,0.000000,-1378.971896
3360.761450,-11103.089130,-666.185348,-1762.019645
3360.761788,-9844.739029,-1850.514855,-1838.629195
3360.762125,-9030.512492,-1036.288319,229.828649
3360.762462,-9326.594869,-1628.453072,1149.143247
3360.762800,-10584.944971,-1332.370696,1072.533697
3360.763137,-11325.150913,-740.205942,153.219100
3360.763474,-10732.986159,-444.123565,766.095498
3360.763812,-10066.800811,-888.247130,76.609550
3360.764149,-9178.553681,814.226536,1072.533697
3360.764486,-9770.718434,370.102971,2451.505594
3360.764824,-10066.800811,740.205942,1608.800546
3360.765161,-9548.656652,2368.659014,-153.219100
3360.765498,-10288.862594,2812.782580,229.828649
3360.765836,-10584.944971,2442.679609,459.657299
3360.766173,-10214.842000,962.267725,0.000000
3360.766510,-9474.636058,2294.638420,1378.971896
3360.766848,-9622.677246,1850.514855,2528.115143
3360.767185,-10807.006753,666.185348,612.876398
3360.767522,-9992.780217,1480.411884,229.828649
3360.767860,-9770.718434,1702.473667,536.266849
3360.768197,-10214.842000,518.144159,-842.705048
3360.768534,-9548.656652,-592.164754,-2221.676944
3360.768872,-9474.636058,-740.205942,-459.657299
3360.769209,-8660.409521,-1406.391290,-842.705048
3360.769547,-9030.512492,-1184.329507,-459.657299
3360.769884,-9992.780217,-444.123565,76.609550
3360.770221,-11029.068536,-1184.329507,306.438199
3360.770559,-10881.027347,-1850.514855,-536.266849
3360.770896,-10214.842000,-1924.535449,689.485948
3360.771233,-10288.862594,-2072.576638,1991.848295
3360.771571,-10362.883188,-2072.576638,612.876398
3360.771908,-10288.862594,-1332.370696,0.000000
3360.772245,-9548.656652,-518.144159,1149.143247
3360.772583,-9474.636058,-592.164754,842.705048
3360.772920,-10436.903782,-888.247130,1838.629195
3360.773257,-11029.068536,-370.102971,2528.115143
3360.773595,-10658.965565,0.000000,995.924147
3360.773932,-11843.295072,74.020594,153.219100
3360.774269,-10955.047942,814.226536,536.266849
3360.774607,-9622.677246,740.205942,0.000000
3360.774944,-10436.903782,-222.061783,-689.485948
3360.775281,-9918.759623,518.144159,-1302.362347
3360.775619,-10584.944971,296.082377,-76.609550
3360.775956,-10881.027347,-888.247130,-1378.971896
3360.776293,-9474.636058,-592.164754,-1685.410096
3360.776631,-9770.718434,222.061783,76.609550
3360.776968,-8734.430116,0.000000,383.047749
3360.777305,-9030.512492,-296.082377,1072.533697
3360.777643,-9400.615463,296.082377,2145.067394
3360.777980,-10436.903782,-148.041188,1378.971896
3360.778317,-11399.171507,0.000000,536.266849
3360.778655,-10140.821405,0.000000,0.000000
3360.778992,-9400.615463,0.000000,1225.752797
3360.779329,-8882.471304,0.000000,689.485948
3360.779667,-8290.306550,-148.041188,459.657299
3360.780004,-9326.594869,0.000000,1685.410096
3360.780341,-10140.821405,-666.185348,306.438199
3360.780679,-10214.842000,222.061783,-383.047749
3360.781016,-9992.780217,962.267725,-1149.143247
3360.781353,-10140.821405,74.020594,-1378.971896
3360.781691,-9844.739029,-666.185348,-229.828649
3360.782028,-10066.800811,-962.267725,383.047749
3360.782365,-10288.862594,-666.185348,842.705048
3360.782703,-10807.006753,-1776.494261,-919.314598
3360.783040,-10436.903782,-1406.391290,-612.876398
3360.783377,-10658.965565,-1850.514855,-1225.752797
3360.783715,-10658.965565,-2368.659014,-1225.752797
3360.784052,-9474.636058,-2072.576638,-536.266849
3360.784389,-9622.677246,-1924.535449,1532.190996
3360.784727,-10807.006753,-1554.432478,766.095498
3360.785064,-10732.986159,-1850.514855,-229.828649
3360.785401,-10807.006753,-370.102971,919.314598
3360.785739,-10955.047942,-1110.308913,1838.629195
3360.786076,-9918.759623,-1628.453072,1455.581446
3360.786413,-9548.656652,370.102971,2987.772442
3360.786751,-11029.068536,666.185348,2987.772442
3360.787088,-10066.800811,1554.432478,459.657299
3360.787426,-10658.965565,2146.597232,-459.657299
3360.787763,-10584.944971,1554.432478,-306.438199
3360.788100,-9252.574275,814.226536,-1302.362347
3360.788438,-8956.491898,1332.370696,0.000000
3360.788775,-9104.533087,1036.288319,919.314598
3360.789112,-8956.491898,592.164754,0.000000
3360.789450,-9548.656652,2220.617826,-919.314598
3360.789787,-10214.842000,1628.453072,-612.876398
3360.790124,-11029.068536,888.247130,-1149.143247
3360.790462,-9992.780217,-444.123565,-1532.190996
3360.790799,-8438.347739,0.000000,766.095498
3360.791136,-8734.430116,-592.164754,2374.896044
3360.791474,-9770.718434,-814.226536,0.000000
3360.791811,-10066.800811,0.000000,-1455.581446
3360.792148,-9992.780217,-592.164754,-383.047749
3360.792486,-9844.739029,-370.102971,0.000000
3360.792823,-10288.862594,0.000000,1072.533697
3360.793160,-10510.924376,0.000000,1378.971896
3360.793498,-10732.986159,-296.082377,842.705048
3360.793835,-11251.130318,-370.102971,0.000000
3360.794172,-9918.759623,888.247130,153.219100
3360.794510,-10140.821405,-592.164754,842.705048
3360.794847,-10214.842000,-1184.329507,383.047749
3360.795184,-10510.924376,-592.164754,229.828649
3360.795522,-11029.068536,-888.247130,1915.238745
3360.795859,-10288.862594,-666.185348,76.609550
3360.796196,-10214.842000,-666.185348,-995.924147
3360.796534,-10584.944971,74.020594,-766.095498
3360.796871,-10066.800811,-1258.350101,-1915.238745
3360.797208,-9474.636058,-2220.617826,-612.876398
3360.797546,-8734.430116,-2368.659014,1608.800546
3360.797883,-9326.594869,-2590.720797,1302.362347
3360.798220,-10362.883188,-962.267725,-306.438199
3360.798558,-10288.862594,-740.205942,76.609550
3360.798895,-10436.903782,-592.164754,306.438199
3360.799232,-9548.656652,-1924.535449,536.266849
3360.799570,-9178.553681,-592.164754,1991.848295
3360.799907,-9252.574275,296.082377,3294.210641
3360.800244,-9992.780217,74.020594,2681.334243
3360.800582,-10288.862594,888.247130,536.266849
3360.800919,-9918.759623,1110.308913,1532.190996
3360.801256,-10436.903782,1554.432478,1455.581446
3360.801594,-10140.821405,888.247130,995.924147
3360.801931,-9548.656652,1554.432478,1378.971896
3360.802268,-10658.965565,592.164754,766.095498
3360.802606,-11325.150913,444.123565,-1225.752797
3360.802943,-9252.574275,962.267725,-2221.676944
3360.803280,-9030.512492,1110.308913,-1838.629195
3360.803618,-8808.450710,-1406.391290,-1608.800546
3360.803955,-8512.368333,-1332.370696,-1915.238745
3360.804292,-8438.347739,-1850.514855,612.876398
3360.804630,-10584.944971,-1480.411884,1149.143247
3360.804967,-11399.171507,-1480.411884,-842.705048
3360.805304,-11843.295072,0.000000,-689.485948
3360.805642,-10584.944971,-1554.432478,-1149.143247
3360.805979,-9178.553681,-2886.803174,-383.047749
3360.806317,-8586.388927,-1702.473667,2298.286494
3360.806654,-9992.780217,-1480.411884,2221.676944
3360.806991,-10881.027347,-1258.350101,383.047749
3360.807329,-11843.295072,0.000000,-842.705048
3360.807666,-11325.150913,0.000000,0.000000
3360.808003,-10140.821405,-592.164754,-306.438199
3360.808341,-9622.677246,0.000000,1149.143247
3360.808678,-8808.450710,222.061783,1762.019645
3360.809015,-10214.842000,444.123565,1072.533697
3360.809353,-11325.150913,370.102971,-919.314598
3360.809690,-11177.109724,814.226536,-919.314598
3360.810027,-10362.883188,592.164754,0.000000
3360.810365,-9252.574275,-666.185348,0.000000
3360.810702,-8142.265362,370.102971,229.828649
3360.811039,-8660.409521,74.020594,919.314598
3360.811377,-10066.800811,-962.267725,-1378.971896
3360.811714,-9696.697840,0.000000,-1455.581446
3360.812051,-10658.965565,888.247130,229.828649
3360.812389,-10288.862594,148.041188,383.047749
3360.812726,-8956.491898,-888.247130,-306.438199
3360.813063,-8586.388927,370.102971,2221.676944
3360.813401,-9844.739029,74.020594,2068.457845
3360.813738,-10066.800811,222.061783,766.095498
3360.814075,-10362.883188,1924.535449,1072.533697
3360.814413,-11769.274478,1184.329507,1608.800546
3360.814750,-11399.171507,0.000000,612.876398
3360.815087,-9770.718434,888.247130,689.485948
3360.815425,-9622.677246,740.205942,2987.772442
3360.815762,-9622.677246,222.061783,1608.800546
3360.816099,-9548.656652,1036.288319,0.000000
3360.816437,-11029.068536,1776.494261,76.609550
3360.816774,-10658.965565,814.226536,-995.924147
3360.817111,-10510.924376,-814.226536,-1225.752797
3360.817449,-9770.718434,-814.226536,383.047749
3360.817786,-9474.636058,-1406.391290,689.485948
3360.818123,-9474.636058,-1480.411884,-689.485948
3360.818461,-9918.759623,-148.041188,-1991.848295
3360.818798,-9696.697840,-1924.535449,-2681.334243
3360.819135,-9696.697840,-3404.947333,-2068.457845
3360.819473,-8438.347739,-2442.679609,-459.657299
3360.819810,-9400.615463,-2664.741391,2221.676944
3360.820147,-10732.986159,-2812.782580,1455.581446
3360.820485,-9548.656652,-1554.432478,-689.485948
3360.820822,-10140.821405,0.000000,1685.410096
3360.821159,-11029.068536,-1480.411884,1762.019645
3360.821497,-10584.944971,-962.267725,766.095498
3360.821834,-10510.924376,-370.102971,2757.943793
3360.822171,-10658.965565,-444.123565,3830.477490
3360.822509,-11177.109724,-444.123565,842.705048
3360.822846,-10584.944971,1332.370696,229.828649
3360.823183,-9770.718434,1776.494261,0.000000
3360.823521,-9474.636058,592.164754,-689.485948
3360.823858,-10066.800811,666.185348,0.000000
3360.824196,-9474.636058,1036.288319,459.657299
3360.824533,-10362.883188,-148.041188,76.609550
3360.824870,-10288.862594,1184.329507,-1378.971896
3360.825208,-10732.986159,1776.494261,-1532.190996
3360.825545,-9992.780217,814.226536,-2068.457845
3360.825882,-9474.636058,-814.226536,-2451.505594
3360.826220,-9252.574275,-1554.432478,76.609550
3360.826557,-8956.491898,-1110.308913,689.485948
3360.826894,-9548.656652,-1702.473667,0.000000
3360.827232,-9918.759623,-740.205942,-229.828649
3360.827569,-9844.739029,-444.123565,153.219100
3360.827906,-9474.636058,-1036.288319,-383.047749
3360.828244,-9474.636058,-962.267725,919.314598
3360.828581,-9844.739029,444.123565,2451.505594
3360.828918,-11029.068536,814.226536,995.924147
3360.829256,-11547.212695,888.247130,-2451.505594
3360.829593,-11103.089130,1332.370696,-1608.800546
3360.829930,-10955.047942,518.144159,-995.924147
3360.830268,-8808.450710,-814.226536,-995.924147
3360.830605,-8438.347739,-518.144159,919.314598
3360.830942,-9770.718434,-592.164754,2374.896044
3360.831280,-10436.903782,-1258.350101,0.000000
3360.831617,-10955.047942,-222.061783,-1378.971896
3360.831954,-10732.986159,0.000000,0.000000
3360.832292,-9548.656652,-1184.329507,-1225.752797
3360.832629,-9252.574275,-1332.370696,-459.657299
3360.832966,-9400.615463,-1850.514855,1685.410096
3360.833304,-9474.636058,-2146.597232,1378.971896
3360.833641,-10214.842000,-1258.350101,689.485948
3360.833978,-10807.006753,0.000000,1302.362347
3360.834316,-11029.068536,0.000000,995.924147
3360.834653,-10436.903782,-592.164754,919.314598
3360.834990,-9252.574275,148.041188,2374.896044
3360.835328,-9474.636058,592.164754,3370.820191
3360.835665,-10436.903782,370.102971,2145.067394
3360.836002,-10066.800811,1406.391290,766.095498
3360.836340,-10362.883188,1998.556043,2374.896044
3360.836677,-11103.089130,1406.391290,766.095498
3360.837014,-9992.780217,1406.391290,229.828649
3360.837352,-9252.574275,1924.535449,612.876398
3360.837689,-9696.697840,222.061783,459.657299
3360.838026,-9918.759623,444.123565,-995.924147
3360.838364,-9770.718434,1702.473667,-1149.143247
3360.838701,-10214.842000,666.185348,-842.705048
3360.839038,-10066.800811,-592.164754,-1838.629195
3360.839376,-9326.594869,-518.144159,-1455.581446
3360.839713,-9400.615463,-592.164754,459.657299
3360.840050,-9474.636058,-1628.453072,-229.828649
3360.840388,-9474.636058,-814.226536,-1532.190996
3360.840725,-11103.089130,-296.082377,-1532.190996
3360.841062,-11251.130318,-888.247130,-1685.410096
3360.841400,-9844.739029,-1554.432478,-1378.971896
3360.841737,-9400.615463,-1776.494261,1762.019645
3360.842075,-9548.656652,-1850.514855,2451.505594
3360.842412,-10066.800811,-1406.391290,153.219100
3360.842749,-10881.027347,0.000000,766.095498
3360.843087,-11473.192101,-888.247130,459.657299
3360.843424,-10732.986159,-1332.370696,-229.828649
3360.843761,-9548.656652,-1184.329507,1378.971896
3360.844099,-9326.594869,148.041188,2681.334243
3360.844436,-10658.965565,-1036.288319,1532.190996
3360.844773,-10584.944971,-370.102971,-383.047749
3360.845111,-10140.821405,740.205942,-383.047749
3360.845448,-10658.965565,148.041188,0.000000
3360.845786,-10140.821405,-1554.432478,-612.876398
3360.846123,-8882.471304,-592.164754,0.000000
3360.846460,-9400.615463,-1702.473667,1149.143247
3360.846798,-10140.821405,-1702.473667,-536.266849
3360.847135,-8956.491898,-888.247130,-842.705048
3360.847473,-9770.718434,-518.144159,306.438199
3360.847810,-9992.780217,-222.061783,0.000000
3360.848147,-9622.677246,-592.164754,0.000000
3360.848485,-9918.759623,74.020594,1838.629195
3360.848822,-10140.821405,-962.267725,2221.676944
3360.849159,-10658.965565,592.164754,1149.143247
3360.849497,-10807.006753,1258.350101,919.314598
3360.849834,-11473.192101,1036.288319,842.705048
3360.850172,-9844.739029,518.144159,229.828649
3360.850509,-9326.594869,888.247130,1149.143247
3360.850846,-9696.697840,1554.432478,1685.410096
3360.851184,-10066.800811,0.000000,-1072.533697
3360.851521,-10362.883188,1702.473667,-1915.238745
3360.851859,-10658.965565,444.123565,-1302.362347
3360.852196,-8808.450710,0.000000,-1149.143247
3360.852533,-8512.368333,444.123565,-766.095498
3360.852871,-9992.780217,74.020594,919.314598
3360.853208,-10955.047942,-962.267725,0.000000
3360.853545,-10066.800811,-740.205942,-2221.676944
3360.853883,-9844.739029,-666.185348,-689.485948
3360.854220,-9844.739029,-1184.329507,-612.876398
3360.854558,-9918.759623,-2738.761985,-1225.752797
3360.854895,-9252.574275,-1998.556043,76.609550
3360.855232,-8956.491898,-1480.411884,2068.457845
3360.855570,-10732.986159,-1776.494261,2068.457845
3360.855907,-11177.109724,-888.247130,1149.143247
3360.856245,-11251.130318,0.000000,1991.848295
3360.856582,-11103.089130,-444.123565,2451.505594
3360.856919,-10362.883188,-370.102971,1838.629195
3360.857257,-10436.903782,370.102971,3140.991542
3360.857594,-10881.027347,74.020594,3217.601092
3360.857931,-10658.965565,1110.308913,459.657299
3360.858269,-10362.883188,1924.535449,76.609550
3360.858606,-10658.965565,2072.576638,-459.657299
3360.858944,-9326.594869,1184.329507,-1685.410096
3360.859281,-9178.553681,666.185348,-383.047749
3360.859618,-9252.574275,444.123565,153.219100
3360.859956,-8882.471304,-370.102971,-689.485948
3360.860293,-9918.759623,370.102971,-306.438199
3360.860631,-10362.883188,370.102971,229.828649
3360.860968,-10362.883188,0.000000,-1378.971896
3360.861305,-10140.821405,-1406.391290,-766.095498
3360.861643,-8512.368333,-962.267725,1072.533697
3360.861980,-8364.327145,-1628.453072,612.876398
3360.862317,-8956.491898,-1480.411884,-689.485948
3360.862655,-9992.780217,-370.102971,-1302.362347
3360.862992,-10807.006753,-444.123565,-383.047749
3360.863330,-10881.027347,-222.061783,-1149.143247
3360.863667,-9918.759623,-148.041188,766.095498
3360.864004,-10214.842000,740.205942,2374.896044
3360.864342,-10510.924376,-222.061783,1685.410096
3360.864679,-10807.006753,0.000000,536.266849
3360.865017,-10584.944971,0.000000,919.314598
3360.865354,-10510.924376,0.000000,1225.752797
3360.865691,-10881.027347,-296.082377,536.266849
3360.866029,-10732.986159,-296.082377,229.828649
3360.866366,-9844.739029,-888.247130,-76.609550
3360.866703,-10214.842000,-888.247130,-1991.848295
3360.867041,-9252.574275,0.000000,-1378.971896
3360.867378,-9770.718434,-592.164754,-1225.752797
3360.867716,-10066.800811,-1850.514855,-2221.676944
3360.868053,-9474.636058,-2146.597232,-919.314598
3360.868390,-9474.636058,-1776.494261,1225.752797
3360.868728,-9548.656652,-2664.741391,1378.971896
3360.869065,-9918.759623,-2220.617826,1302.362347
3360.869403,-10510.924376,-1184.329507,1915.238745
3360.869740,-10584.944971,-1258.350101,1225.752797
3360.870077,-10732.986159,-1406.391290,1225.752797
3360.870415,-9696.697840,-666.185348,2451.505594
3360.870752,-10214.842000,518.144159,2221.676944
3360.871089,-11029.068536,-370.102971,1302.362347
3360.871427,-9474.636058,1628.453072,-229.828649
3360.871764,-9844.739029,1702.473667,1149.143247
3360.872102,-10510.924376,1184.329507,919.314598
3360.872439,-9622.677246,1184.329507,536.266849
3360.872776,-10955.047942,1776.494261,1838.629195
3360.873114,-11177.109724,1184.329507,536.266849
3360.873451,-10584.944971,1258.350101,-1608.800546
3360.873789,-9548.656652,592.164754,-2451.505594
3360.874126,-9178.553681,888.247130,-2451.505594
3360.874463,-9252.574275,-1776.494261,-2528.115143
3360.874801,-8068.244768,-592.164754,-842.705048
3360.875138,-8438.347739,-444.123565,0.000000
3360.875475,-10881.027347,-1184.329507,-612.876398
3360.875813,-10362.883188,-370.102971,-2068.457845
3360.876150,-10436.903782,-1110.308913,-536.266849
3360.876488,-10658.965565,-1998.556043,995.924147
3360.876825,-8512.368333,-1554.432478,536.266849
3360.877162,-9178.553681,-592.164754,2451.505594
3360.877500,-10584.944971,-370.102971,919.314598
3360.877837,-10807.006753,-222.061783,-995.924147
3360.878175,-11547.212695,444.123565,0.000000
3360.878512,-10288.862594,-444.123565,229.828649
3360.878849,-9770.718434,-592.164754,689.485948
3360.879187,-9030.512492,74.020594,1838.629195
3360.879524,-9252.574275,592.164754,2451.505594
3360.879861,-10658.965565,444.123565,1225.752797
3360.880199,-11473.192101,888.247130,-76.609550
3360.880536,-11843.295072,888.247130,153.219100
3360.880874,-10214.842000,-666.185348,0.000000
3360.881211,-9474.636058,-888.247130,1072.533697
3360.881548,-9252.574275,-1036.288319,2145.067394
3360.881886,-9400.615463,-518.144159,919.314598
3360.882223,-9992.780217,-296.082377,-1378.971896
3360.882561,-11177.109724,814.226536,-1762.019645
3360.882898,-10362.883188,1110.308913,-689.485948
3360.883235,-9844.739029,-1628.453072,0.000000
3360.883573,-8734.430116,-1480.411884,1149.143247
3360.883910,-8586.388927,0.000000,2221.676944
3360.884247,-10362.883188,-888.247130,2298.286494
3360.884585,-11177.109724,444.123565,1072.533697
3360.884922,-10140.821405,444.123565,1225.752797
3360.885260,-10955.047942,888.247130,1532.190996
3360.885597,-10362.883188,-666.185348,-76.609550
3360.885934,-9992.780217,-592.164754,995.924147
3360.886272,-9474.636058,0.000000,459.657299
3360.886609,-8808.450710,0.000000,-1762.019645
3360.886947,-9474.636058,666.185348,-995.924147
3360.887284,-10955.047942,0.000000,0.000000
3360.887621,-10140.821405,-666.185348,-1072.533697
3360.887959,-9992.780217,-222.061783,-229.828649
3360.888296,-9844.739029,0.000000,612.876398
3360.888633,-10140.821405,-1332.370696,-1608.800546
3360.888971,-10362.883188,-1480.411884,-2068.457845
3360.889308,-9326.594869,-1406.391290,-1225.752797
3360.889646,-10140.821405,-2664.741391,0.000000
3360.889983,-10362.883188,-2738.761985,536.266849
3360.890320,-9474.636058,-2442.679609,689.485948
3360.890658,-10510.924376,-1406.391290,1838.629195
3360.890995,-10807.006753,-1554.432478,0.000000
3360.891333,-9992.780217,-518.144159,0.000000
3360.891670,-10658.965565,-296.082377,1838.629195
3360.892007,-10584.944971,-1110.308913,1685.410096
3360.892345,-9918.759623,148.041188,1608.800546
3360.892682,-9474.636058,296.082377,2681.334243
3360.893019,-10584.944971,444.123565,2987.772442
3360.893357,-10658.965565,1480.411884,995.924147
3360.893694,-10658.965565,2146.597232,919.314598
3360.894032,-10955.047942,1924.535449,76.609550
3360.894369,-9770.718434,148.041188,0.000000
3360.894706,-8660.409521,1480.411884,-229.828649
3360.895044,-7994.224174,888.247130,-842.705048
3360.895381,-9474.636058,74.020594,-1532.190996
3360.895719,-9474.636058,1776.494261,-2528.115143
3360.896056,-9770.718434,814.226536,-689.485948
3360.896393,-9770.718434,0.000000,-536.266849
3360.896731,-9844.739029,-740.205942,0.000000
3360.897068,-9696.697840,0.000000,1225.752797
3360.897405,-9622.677246,-962.267725,459.657299
3360.897743,-9548.656652,-1184.329507,0.000000
3360.898080,-9770.718434,-962.267725,0.000000
3360.898418,-9622.677246,-1110.308913,0.000000
3360.898755,-10288.862594,-1184.329507,459.657299
3360.899092,-10140.821405,-666.185348,1608.800546
3360.899430,-9992.780217,296.082377,1072.533697
3360.899767,-11473.192101,-222.061783,0.000000
3360.900105,-10658.965565,444.123565,0.000000
3360.900442,-10288.862594,-296.082377,689.485948
3360.900779,-10436.903782,-148.041188,612.876398
3360.901117,-10288.862594,-1184.329507,689.485948
3360.901454,-10362.883188,-370.102971,766.095498
3360.901791,-10732.986159,-1110.308913,1072.533697
3360.902129,-11103.089130,-962.267725,-306.438199
3360.902466,-9918.759623,370.102971,-1225.752797
3360.902804,-10066.800811,-222.061783,-1149.143247
3360.903141,-9992.780217,-1998.556043,-919.314598
3360.903478,-9030.512492,-1998.556043,76.609550
3360.903816,-9770.718434,-1998.556043,1608.800546
3360.904153,-9918.759623,-370.102971,1302.362347
3360.904490,-10214.842000,-740.205942,842.705048
3360.904828,-10510.924376,-666.185348,1608.800546
3360.905165,-10140.821405,-444.123565,1378.971896
3360.905503,-9400.615463,-888.247130,2451.505594
3360.905840,-9992.780217,518.144159,4213.525239
3360.906177,-10214.842000,222.061783,2528.115143
3360.906515,-10584.944971,1258.350101,919.314598
3360.906852,-9918.759623,2294.638420,689.485948
3360.907190,-10214.842000,1406.391290,919.314598
3360.907527,-9252.574275,1258.350101,-306.438199
3360.907864,-8882.471304,1998.556043,-383.047749
3360.908202,-9992.780217,2368.659014,229.828649
3360.908539,-11029.068536,1702.473667,-1915.238745
3360.908876,-10436.903782,1776.494261,-3064.381992
3360.909214,-9622.677246,370.102971,-1915.238745
3360.909551,-9252.574275,-148.041188,0.000000
3360.909889,-8734.430116,-962.267725,-383.047749
3360.910226,-9252.574275,-1628.453072,536.266849
3360.910563,-9844.739029,-1406.391290,995.924147
3360.910901,-11029.068536,-1850.514855,-689.485948
3360.911238,-10732.986159,-296.082377,-1685.410096
3360.911576,-10362.883188,-1184.329507,-689.485948
3360.911913,-9992.780217,-2442.679609,-536.266849
3360.912250,-8956.491898,-2368.659014,229.828649
3360.912588,-9696.697840,-2220.617826,1225.752797
3360.912925,-10510.924376,-1998.556043,612.876398
3360.913262,-10732.986159,-1776.494261,-1072.533697
3360.913600,-10140.821405,-740.205942,153.219100
3360.913937,-10288.862594,-1628.453072,1225.752797
3360.914275,-10066.800811,-1184.329507,1838.629195
3360.914612,-10140.821405,-1184.329507,2987.772442
3360.914949,-10881.027347,-222.061783,2911.162892
3360.915287,-10732.986159,0.000000,-229.828649
3360.915624,-10658.965565,0.000000,-689.485948
3360.915962,-9918.759623,0.000000,-306.438199
3360.916299,-8882.471304,-666.185348,-1225.752797
3360.916636,-8956.491898,-740.205942,-919.314598
3360.916974,-9696.697840,-592.164754,-306.438199
3360.917311,-10288.862594,-962.267725,-612.876398
3360.917648,-10510.924376,296.082377,-842.705048
3360.917986,-10510.924376,592.164754,0.000000
3360.918323,-10807.006753,0.000000,919.314598
3360.918661,-10140.821405,-444.123565,0.000000
3360.918998,-8290.306550,-296.082377,1762.019645
3360.919335,-8734.430116,148.041188,2757.943793
3360.919673,-10362.883188,518.144159,1225.752797
3360.920010,-11251.130318,2072.576638,-919.314598
3360.920348,-11473.192101,962.267725,76.609550
3360.920685,-10066.800811,1554.432478,306.438199
3360.921022,-8364.327145,962.267725,1455.581446
3360.921360,-9474.636058,1850.514855,2911.162892
3360.921697,-10140.821405,1406.391290,1532.190996
3360.922034,-10288.862594,1332.370696,-1608.800546
3360.922372,-10214.842000,2072.576638,-1149.143247
3360.922709,-9844.739029,740.205942,-229.828649
3360.923047,-9104.533087,-592.164754,-766.095498
3360.923384,-8956.491898,-370.102971,766.095498
3360.923721,-9474.636058,-74.020594,1302.362347
3360.924059,-10066.800811,-148.041188,-995.924147
3360.924396,-10510.924376,-444.123565,-1991.848295
3360.924734,-11325.150913,-740.205942,-1225.752797
3360.925071,-10436.903782,-1998.556043,-1378.971896
3360.925408,-9400.615463,-2220.617826,229.828649
3360.925746,-8808.450710,-1998.556043,2145.067394
3360.926083,-9326.594869,-1554.432478,1225.752797
3360.926420,-10955.047942,-1702.473667,-459.657299
3360.926758,-11251.130318,-962.267725,0.000000
3360.927095,-10955.047942,-592.164754,1685.410096
3360.927433,-10436.903782,-1258.350101,1455.581446
3360.927770,-9178.553681,-1110.308913,2604.724693
3360.928107,-9696.697840,-740.205942,3600.648841
3360.928445,-11029.068536,0.000000,1915.238745
3360.928782,-10288.862594,222.061783,459.657299
3360.929120,-10510.924376,444.123565,229.828649
3360.929457,-9696.697840,0.000000,153.219100
3360.929794,-9400.615463,222.061783,0.000000
3360.930132,-9474.636058,1036.288319,1225.752797
3360.930469,-10362.883188,592.164754,0.000000
3360.930806,-10140.821405,740.205942,-2681.334243
3360.931144,-9918.759623,888.247130,-2374.896044
3360.931481,-9474.636058,740.205942,-1149.143247
3360.931819,-9474.636058,-1554.432478,-1302.362347
3360.932156,-8438.347739,-814.226536,689.485948
3360.932493,-9474.636058,-592.164754,1915.238745
3360.932831,-11251.130318,-1406.391290,919.314598
3360.933168,-10362.883188,-666.185348,-306.438199
3360.933506,-10214.842000,-592.164754,459.657299
3360.933843,-10436.903782,-1554.432478,1072.533697
3360.934180,-9030.512492,-518.144159,842.705048
3360.934518,-9696.697840,-740.205942,2757.943793
3360.934855,-10140.821405,-444.123565,1225.752797
3360.935192,-10732.986159,-370.102971,-919.314598
3360.935530,-10955.047942,370.102971,-689.485948
3360.935867,-9548.656652,148.041188,-383.047749
3360.936205,-9474.636058,-1036.288319,306.438199
3360.936542,-9918.759623,0.000000,612.876398
3360.936879,-9400.615463,-592.164754,612.876398
3360.937217,-11029.068536,-1628.453072,-306.438199
3360.937554,-10881.027347,-1480.411884,-1225.752797
3360.937892,-10066.800811,0.000000,0.000000
3360.938229,-10140.821405,-888.247130,-919.314598
3360.938566,-9326.594869,-1850.514855,-1685.410096
3360.938904,-8660.409521,-1184.329507,0.000000
3360.939241,-9992.780217,-1702.473667,689.485948
3360.939578,-10881.027347,-1036.288319,0.000000
3360.939916,-11325.150913,-148.041188,-383.047749
3360.940253,-11325.150913,0.000000,153.219100
3360.940591,-9696.697840,-1110.308913,-306.438199
3360.940928,-9030.512492,-1036.288319,1762.019645
3360.941265,-8882.471304,-518.144159,3600.648841
3360.941603,-9770.718434,-740.205942,2681.334243
3360.941940,-10807.006753,1258.350101,1149.143247
3360.942278,-10510.924376,1776.494261,1608.800546
3360.942615,-10732.986159,2146.597232,612.876398
3360.942952,-10140.821405,1998.556043,-383.047749
3360.943290,-9178.553681,2368.659014,383.047749
3360.943627,-9474.636058,1036.288319,1072.533697
3360.943964,-9918.759623,1480.411884,-1072.533697
3360.944302,-9992.780217,1776.494261,-1072.533697
3360.944639,-10807.006753,1184.329507,-612.876398
3360.944977,-9252.574275,0.000000,-1838.629195
3360.945314,-8290.306550,74.020594,-919.314598
3360.945651,-8956.491898,-666.185348,612.876398
3360.945989,-9770.718434,-1480.411884,0.000000
3360.946326,-10214.842000,-666.185348,-229.828649
3360.946663,-10584.944971,1110.308913,-689.485948
3360.947001,-10732.986159,-666.185348,-689.485948
3360.947338,-9918.759623,-1480.411884,-459.657299
3360.947676,-8364.327145,-1554.432478,919.314598
3360.948013,-9770.718434,-1332.370696,3064.381992
3360.948350,-10584.944971,-1036.288319,2298.286494
3360.948688,-11103.089130,-444.123565,0.000000
3360.949025,-11843.295072,888.247130,1149.143247
3360.949362,-11251.130318,0.000000,383.047749
3360.949700,-9696.697840,0.000000,1072.533697
3360.950037,-9400.615463,-444.123565,2145.067394
3360.950374,-9770.718434,-518.144159,1685.410096
3360.950712,-10658.965565,0.000000,-919.314598
3360.951049,-10510.924376,518.144159,-1225.752797
3360.951387,-10658.965565,222.061783,-536.266849
3360.951724,-9474.636058,-1258.350101,-306.438199
3360.952061,-8882.471304,-666.185348,459.657299
3360.952399,-9326.594869,-1628.453072,919.314598
3360.952736,-10288.862594,-1184.329507,153.219100
3360.953073,-10214.842000,-962.267725,-76.609550
3360.953411,-9918.759623,0.000000,0.000000
3360.953748,-9696.697840,-962.267725,536.266849
3360.954085,-10214.842000,-148.041188,842.705048
3360.954423,-10066.800811,-1258.350101,2451.505594
3360.954760,-8882.471304,-740.205942,1608.800546
3360.955098,-9252.574275,-962.267725,1072.533697
3360.955435,-11473.192101,962.267725,1915.238745
3360.955772,-10658.965565,1110.308913,459.657299
3360.956110,-9992.780217,1406.391290,-1225.752797
3360.956447,-9400.615463,1332.370696,-995.924147
3360.956784,-8586.388927,444.123565,-612.876398
3360.957122,-9178.553681,0.000000,0.000000
3360.957459,-9548.656652,-148.041188,-459.657299
3360.957797,-10288.862594,740.205942,-153.219100
3360.958134,-10658.965565,74.020594,0.000000
3360.958471,-10362.883188,444.123565,-612.876398
3360.958809,-9844.739029,-444.123565,0.000000
3360.959146,-10140.821405,-888.247130,76.609550
3360.959483,-9474.636058,-1850.514855,-1608.800546
3360.959821,-9770.718434,-1554.432478,-1608.800546
3360.960158,-10362.883188,-1332.370696,-1149.143247
3360.960495,-10140.821405,-2146.597232,-2374.896044
3360.960833,-9474.636058,-1702.473667,-1838.629195
3360.961170,-9104.533087,-2294.638420,76.609550
3360.961508,-9696.697840,-2294.638420,919.314598
3360.961845,-11029.068536,-2146.597232,919.314598
3360.962182,-10732.986159,-1036.288319,1838.629195
3360.962520,-10955.047942,-1184.329507,1532.190996
3360.962857,-10214.842000,-1258.350101,1762.019645
3360.963194,-9474.636058,-962.267725,2528.115143
3360.963532,-9474.636058,-888.247130,3370.820191
3360.963869,-10066.800811,74.020594,2145.067394
3360.964207,-11399.171507,1480.411884,229.828649
3360.964544,-11177.109724,1776.494261,-1532.190996
3360.964881,-10140.821405,962.267725,-2298.286494
3360.965219,-8068.244768,370.102971,-1608.800546
3360.965556,-7994.224174,444.123565,459.657299
3360.965893,-10140.821405,0.000000,1072.533697
3360.966231,-10807.006753,296.082377,-383.047749
3360.966568,-9918.759623,1036.288319,0.000000
3360.966905,-10658.965565,888.247130,766.095498
3360.967243,-10362.883188,296.082377,0.000000
3360.967580,-9548.656652,0.000000,612.876398
3360.967918,-9622.677246,0.000000,1302.362347
3360.968255,-9400.615463,-814.226536,76.609550
3360.968592,-9918.759623,-148.041188,0.000000
3360.968930,-9770.718434,296.082377,536.266849
3360.969267,-9918.759623,-148.041188,383.047749
3360.969604,-9474.636058,592.164754,612.876398
3360.969942,-10214.842000,740.205942,2298.286494
3360.970279,-10584.944971,518.144159,612.876398
3360.970617,-10436.903782,0.000000,-536.266849
3360.970954,-9770.718434,740.205942,1532.190996
3360.971291,-10214.842000,296.082377,1378.971896
3360.971629,-10066.800811,0.000000,689.485948
3360.971966,-9326.594869,222.061783,842.705048
3360.972303,-9622.677246,-1110.308913,383.047749
3360.972641,-10807.006753,-592.164754,-1378.971896
3360.972978,-10362.883188,-518.144159,-1838.629195
3360.973315,-9252.574275,-222.061783,-1915.238745
3360.973653,-9770.718434,-1702.473667,-1838.629195
3360.973990,-10066.800811,-1406.391290,-1915.238745
3360.974328,-9104.533087,-1850.514855,536.266849
3360.974665,-9548.656652,-1776.494261,1225.752797
3360.975002,-10214.842000,-1924.535449,-229.828649
3360.975340,-10214.842000,-1184.329507,0.000000
3360.975677,-10436.903782,-1332.370696,1455.581446
3360.976014,-10584.944971,-2294.638420,0.000000
3360.976352,-8956.491898,-1702.473667,1225.752797
3360.976689,-10066.800811,-666.185348,2757.943793
3360.977027,-10140.821405,-1110.308913,1838.629195
3360.977364,-10214.842000,370.102971,612.876398
3360.977701,-9770.718434,1184.329507,1532.190996
3360.978039,-10881.027347,814.226536,766.095498
3360.978376,-11029.068536,1776.494261,-153.219100
3360.978713,-10066.800811,1110.308913,459.657299
3360.979051,-10066.800811,666.185348,306.438199
3360.979388,-10066.800811,0.000000,-995.924147
3360.979725,-9844.739029,1258.350101,-1072.533697
3360.980063,-9548.656652,444.123565,-1072.533697
3360.980400,-9918.759623,-1332.370696,-1762.019645
3360.980738,-9400.615463,-592.164754,-919.314598
3360.981075,-9770.718434,-1110.308913,689.485948
3360.981412,-9696.697840,-1036.288319,-612.876398
3360.981750,-10510.924376,-1184.329507,-689.485948
3360.982087,-10732.986159,-444.123565,842.705048
3360.982424,-10066.800811,-962.267725,-383.047749
3360.982762,-9992.780217,-1406.391290,153.219100
3360.983099,-9400.615463,-1628.453072,1838.629195
3360.983436,-9992.780217,-1036.288319,2145.067394
3360.983774,-10955.047942,-1480.411884,459.657299
3360.984111,-9548.656652,74.020594,153.219100
3360.984449,-10214.842000,-296.082377,1455.581446
3360.984786,-11251.130318,-592.164754,842.705048
3360.985123,-9178.553681,666.185348,0.000000
3360.985461,-9992.780217,444.123565,1838.629195
3360.985798,-10807.006753,222.061783,1302.362347
3360.986135,-9918.759623,518.144159,0.000000
3360.986473,-10955.047942,1036.288319,1608.800546
3360.986810,-10510.924376,592.164754,766.095498
3360.987148,-9548.656652,-370.102971,-1225.752797
3360.987485,-9622.677246,296.082377,-76.609550
3360.987822,-9770.718434,0.000000,-689.485948
3360.988160,-10066.800811,-518.144159,-1762.019645
3360.988497,-10288.862594,148.041188,-1225.752797
3360.988834,-10288.862594,0.000000,459.657299
3360.989172,-9844.739029,-666.185348,766.095498
3360.989509,-9104.533087,0.000000,842.705048
3360.989846,-9178.553681,-222.061783,2451.505594
3360.990184,-10288.862594,-1184.329507,2298.286494
3360.990521,-10510.924376,148.041188,1302.362347
3360.990859,-9474.636058,1110.308913,536.266849
3360.991196,-10362.883188,296.082377,766.095498
3360.991533,-9992.780217,518.144159,-766.095498
3360.991871,-9326.594869,74.020594,-536.266849
3360.992208,-9104.533087,518.144159,1302.362347
3360.992545,-9992.780217,0.000000,-766.095498
3360.992883,-10288.862594,888.247130,-1455.581446
3360.993220,-9696.697840,518.144159,-1225.752797
3360.993558,-9918.759623,-370.102971,-383.047749
3360.993895,-9770.718434,-1776.494261,0.000000
3360.994232,-9992.780217,148.041188,919.314598
3360.994570,-11251.130318,-148.041188,229.828649
3360.994907,-11325.150913,-1406.391290,-1302.362347
3360.995244,-10140.821405,-296.082377,-1149.143247
3360.995582,-10140.821405,-1184.329507,-459.657299
3360.995919,-10214.842000,-1924.535449,-1072.533697
3360.996256,-8808.450710,-1776.494261,-842.705048
3360.996594,-10288.862594,-1998.556043,1302.362347
3360.996931,-10881.027347,-1480.411884,76.609550
3360.997269,-10881.027347,-666.185348,0.000000
3360.997606,-10436.903782,296.082377,2145.067394
3360.997943,-10584.944971,0.000000,1838.629195
3360.998281,-10955.047942,-444.123565,2145.067394
3360.998618,-9696.697840,-592.164754,2604.724693
3360.998955,-9622.677246,-370.102971,3064.381992
3360.999293,-10510.924376,-222.061783,1532.190996
3360.999630,-9844.739029,814.226536,612.876398
3360.999968,-9474.636058,1332.370696,383.047749
3361.000305,-10066.800811,0.000000,-153.219100
3361.000642,-8882.471304,0.000000,0.000000
3361.000980,-8734.430116,740.205942,766.095498
3361.001317,-9992.780217,814.226536,-536.266849
3361.001654,-10140.821405,518.144159,-1302.362347
3361.001992,-10140.821405,-444.123565,-919.314598
3361.002329,-9548.656652,-814.226536,-153.219100
3361.002666,-8290.306550,-1702.473667,229.828649
3361.003004,-8882.471304,-370.102971,2298.286494
3361.003341,-10732.986159,-666.185348,766.095498
3361.003679,-11103.089130,-1258.350101,-1608.800546
3361.004016,-11103.089130,148.041188,-919.314598
3361.004353,-11177.109724,-148.041188,612.876398
3361.004691,-11103.089130,-148.041188,-229.828649
3361.005028,-9326.594869,-1110.308913,-536.266849
3361.005365,-9474.636058,-1332.370696,2068.457845
3361.005703,-10066.800811,-296.082377,1149.143247
3361.006040,-10362.883188,0.000000,0.000000
3361.006378,-11325.150913,814.226536,919.314598
3361.006715,-11991.336260,1110.308913,-612.876398
3361.007052,-10881.027347,-222.061783,-1915.238745
3361.007390,-9474.636058,0.000000,-536.266849
3361.007727,-8956.491898,-1850.514855,536.266849
3361.008064,-9548.656652,-1480.411884,-995.924147
3361.008402,-9918.759623,0.000000,-2298.286494
3361.008739,-10066.800811,148.041188,-1991.848295
3361.009076,-9770.718434,-2146.597232,-1608.800546
3361.009414,-8438.347739,-2294.638420,-306.438199
3361.009751,-8956.491898,-1850.514855,1608.800546
3361.010089,-10584.944971,-1406.391290,1608.800546
3361.010426,-10881.027347,-1258.350101,0.000000
3361.010763,-10436.903782,74.020594,766.095498
3361.011101,-10584.944971,-222.061783,1685.410096
3361.011438,-9992.780217,-888.247130,1149.143247
3361.011775,-9252.574275,0.000000,2374.896044
3361.012113,-10436.903782,0.000000,2834.553343
3361.012450,-10807.006753,74.020594,1378.971896
3361.012788,-9770.718434,2442.679609,689.485948
3361.013125,-9992.780217,2812.782580,1149.143247
3361.013462,-10955.047942,2072.576638,766.095498
3361.013800,-10436.903782,1554.432478,0.000000
3361.014137,-9474.636058,2368.659014,1302.362347
3361.014474,-10732.986159,814.226536,1149.143247
3361.014812,-10214.842000,592.164754,-229.828649
3361.015149,-10288.862594,1406.391290,-153.219100
3361.015486,-10288.862594,444.123565,0.000000
3361.015824,-9400.615463,-74.020594,-1302.362347
3361.016161,-8438.347739,-814.226536,-689.485948
3361.016499,-9474.636058,-1480.411884,383.047749
3361.016836,-9770.718434,-1702.473667,-1762.019645
3361.017173,-9770.718434,-814.226536,-1149.143247
3361.017511,-9400.615463,-592.164754,0.000000
3361.017848,-10288.862594,-1924.535449,536.266849
3361.018185,-9844.739029,-1628.453072,842.705048
3361.018523,-9622.677246,-1702.473667,1378.971896
3361.018860,-11177.109724,-1036.288319,2451.505594
3361.019197,-10436.903782,-1924.535449,0.000000
3361.019535,-9622.677246,-296.082377,1072.533697
3361.019872,-10658.965565,0.000000,1149.143247
3361.020210,-10881.027347,-666.185348,-536.266849
3361.020547,-10362.883188,222.061783,-612.876398
3361.020884,-10584.944971,0.000000,459.657299
3361.021222,-10732.986159,0.000000,0.000000
3361.021559,-10214.842000,888.247130,-1072.533697
3361.021896,-10510.924376,888.247130,-306.438199
3361.022234,-10436.903782,-888.247130,-229.828649
3361.022571,-9918.759623,-1184.329507,-1225.752797
3361.022909,-9622.677246,-666.185348,842.705048
3361.023246,-10214.842000,-1480.411884,1302.362347
3361.023583,-9622.677246,-1554.432478,-383.047749
3361.023921,-8956.491898,-1110.308913,-612.876398
3361.024258,-10066.800811,-592.164754,1072.533697
3361.024595,-9400.615463,-1702.473667,-536.266849
3361.024933,-9030.512492,-1258.350101,229.828649
3361.025270,-10362.883188,0.000000,2681.334243
3361.025607,-10955.047942,-370.102971,1762.019645
3361.025945,-10436.903782,370.102971,612.876398
3361.026282,-9918.759623,814.226536,1149.143247
3361.026620,-10140.821405,296.082377,1685.410096
3361.026957,-9696.697840,222.061783,1532.190996
3361.027294,-9696.697840,592.164754,1838.629195
3361.027632,-10881.027347,1036.288319,1532.190996
3361.027969,-11177.109724,814.226536,-919.314598
3361.028306,-10732.986159,1628.453072,-1302.362347
3361.028644,-10288.862594,814.226536,-1302.362347
3361.028981,-9400.615463,-740.205942,-229.828649
3361.029319,-8660.409521,-740.205942,-766.095498
3361.029656,-9548.656652,-296.082377,306.438199
3361.029993,-10807.006753,-592.164754,-766.095498
3361.030331,-10658.965565,-1628.453072,-2911.162892
3361.030668,-10066.800811,-1110.308913,-919.314598
3361.031005,-9622.677246,-2294.638420,459.657299
3361.031343,-9178.553681,-1924.535449,-689.485948
3361.031680,-8660.409521,-1480.411884,306.438199
3361.032017,-9918.759623,-1628.453072,1991.848295
3361.032355,-10955.047942,-2220.617826,-306.438199
3361.032692,-9992.780217,-370.102971,0.000000
3361.033030,-10510.924376,0.000000,1838.629195
3361.033367,-10362.883188,-444.123565,1225.752797
3361.033704,-9178.553681,-592.164754,1378.971896
3361.034042,-9474.636058,1258.350101,3217.601092
3361.034379,-11177.109724,0.000000,3524.039291
3361.034716,-11843.295072,1924.535449,842.705048
3361.035054,-11399.171507,2368.659014,0.000000
3361.035391,-9992.780217,2442.679609,-459.657299
3361.035729,-9622.677246,74.020594,-1225.752797
3361.036066,-8956.491898,370.102971,-306.438199
3361.036403,-8956.491898,0.000000,306.438199
3361.036741,-9030.512492,-444.123565,-766.095498
3361.037078,-10066.800811,444.123565,-842.705048
3361.037415,-11029.068536,1184.329507,0.000000
3361.037753,-10584.944971,-222.061783,-995.924147
3361.038090,-8512.368333,-1554.432478,-995.924147
3361.038427,-8882.471304,-592.164754,1838.629195
3361.038765,-10140.821405,-666.185348,1378.971896
3361.039102,-10362.883188,-1184.329507,-306.438199
3361.039440,-10288.862594,-148.041188,995.924147
3361.039777,-10658.965565,-1036.288319,919.314598
3361.040114,-9844.739029,-666.185348,-229.828649
3361.040452,-8882.471304,-1110.308913,766.095498
3361.040789,-9474.636058,-666.185348,2681.334243
3361.041126,-10214.842000,-444.123565,306.438199
3361.041464,-11325.150913,888.247130,-383.047749
3361.041801,-11621.233289,814.226536,1149.143247
3361.042139,-11399.171507,-296.082377,-536.266849
3361.042476,-9844.739029,-444.123565,-842.705048
3361.042813,-9104.533087,-740.205942,1149.143247
3361.043151,-9918.759623,-1554.432478,1762.019645
3361.043488,-9992.780217,-962.267725,-1532.190996
3361.043825,-10658.965565,-444.123565,-1685.410096
3361.044163,-11325.150913,0.000000,-1455.581446
3361.044500,-10436.903782,-1554.432478,-2987.772442
3361.044837,-9104.533087,-1776.494261,-229.828649
3361.045175,-8512.368333,-1924.535449,1915.238745
3361.045512,-9770.718434,-1554.432478,1762.019645
3361.045850,-11177.109724,-592.164754,689.485948
3361.046187,-10955.047942,-444.123565,1302.362347
3361.046524,-10436.903782,-962.267725,1762.019645
3361.046862,-9770.718434,-1480.411884,1608.800546
3361.047199,-9030.512492,0.000000,3217.601092
3361.047536,-9474.636058,-370.102971,2987.772442
3361.047874,-10510.924376,0.000000,306.438199
3361.048211,-10658.965565,1702.473667,229.828649
3361.048548,-10955.047942,2442.679609,459.657299
3361.048886,-9992.780217,1406.391290,-383.047749
3361.049223,-9178.553681,592.164754,-306.438199
3361.049560,-9104.533087,962.267725,1762.019645
3361.049898,-9474.636058,444.123565,383.047749
3361.050235,-9770.718434,1628.453072,-842.705048
3361.050572,-11029.068536,1850.514855,-689.485948
3361.050910,-11917.315666,74.020594,-1378.971896
3361.051247,-10288.862594,-740.205942,-2374.896044
3361.051584,-8364.327145,-1184.329507,-612.876398
3361.051922,-8734.430116,-1628.453072,1072.533697
3361.052259,-9474.636058,-2072.576638,-1532.190996
3361.052596,-9178.553681,-370.102971,-1532.190996
3361.052934,-10658.965565,-518.144159,0.000000
3361.053271,-10584.944971,-962.267725,-153.219100
3361.053609,-9992.780217,-1554.432478,383.047749
3361.053946,-10658.965565,-962.267725,1991.848295
3361.054283,-10066.800811,-888.247130,1762.019645
3361.054621,-11029.068536,-74.020594,842.705048
3361.054958,-10955.047942,148.041188,842.705048
3361.055295,-10214.842000,0.000000,383.047749
3361.055633,-10066.800811,-370.102971,0.000000
3361.055970,-10066.800811,592.164754,-689.485948
3361.056307,-9622.677246,-444.123565,306.438199
3361.056645,-10362.883188,-592.164754,459.657299
3361.056982,-9770.718434,370.102971,0.000000
3361.057319,-10807.006753,1258.350101,766.095498
3361.057657,-10881.027347,0.000000,306.438199
3361.057994,-9770.718434,-740.205942,-766.095498
3361.058331,-9252.574275,-592.164754,612.876398
3361.058669,-9474.636058,-2146.597232,229.828649
3361.059006,-9400.615463,-962.267725,229.828649
3361.059343,-9548.656652,0.000000,0.000000
3361.059681,-9992.780217,592.164754,0.000000
3361.060018,-9770.718434,0.000000,-306.438199
3361.060356,-9992.780217,-592.164754,306.438199
3361.060693,-9844.739029,444.123565,2145.067394
3361.061030,-10436.903782,-370.102971,1532.190996
3361.061368,-10214.842000,2368.659014,1225.752797
3361.061705,-10807.006753,888.247130,1378.971896
3361.062042,-10807.006753,1036.288319,1072.533697
3361.062380,-9178.553681,74.020594,766.095498
3361.062717,-10214.842000,444.123565,2528.115143
3361.063054,-9918.759623,814.226536,1762.019645
3361.063392,-10214.842000,1036.288319,-1225.752797
3361.063729,-9992.780217,1110.308913,0.000000
3361.064066,-9474.636058,888.247130,-1455.581446
3361.064404,-9178.553681,-1036.288319,-1149.143247
3361.064741,-9548.656652,-1110.308913,-383.047749
3361.065078,-9178.553681,-1480.411884,842.705048
3361.065416,-9844.739029,-1184.329507,-153.219100
3361.065753,-9844.739029,-1332.370696,-1608.800546
3361.066090,-9844.739029,-1332.370696,-1149.143247
3361.066428,-9696.697840,-1776.494261,-1302.362347
3361.066765,-8438.347739,-1850.514855,-1532.190996
3361.067102,-8882.471304,-2146.597232,0.000000
3361.067440,-9770.718434,-2368.659014,1532.190996
3361.067777,-11325.150913,-1702.473667,689.485948
3361.068115,-10881.027347,-814.226536,1072.533697
3361.068452,-11325.150913,740.205942,2298.286494
3361.068789,-10510.924376,296.082377,459.657299
3361.069127,-10807.006753,0.000000,995.924147
3361.069464,-10288.862594,296.082377,995.924147
3361.069801,-9844.739029,814.226536,612.876398
3361.070139,-10066.800811,2220.617826,-536.266849
3361.070476,-11251.130318,1258.350101,-1149.143247
3361.070813,-11843.295072,1924.535449,-1685.410096
3361.071151,-10362.883188,592.164754,-1838.629195
3361.071488,-8290.306550,1554.432478,-1149.143247
3361.071825,-8216.285956,444.123565,-306.438199
3361.072163,-10140.821405,0.000000,-1072.533697
3361.072500,-9400.615463,888.247130,-2451.505594
3361.072837,-8586.388927,1406.391290,-1378.971896
3361.073175,-10362.883188,1776.494261,-1149.143247
3361.073512,-9992.780217,296.082377,-2068.457845
3361.073849,-9844.739029,0.000000,-1149.143247
3361.074187,-9030.512492,296.082377,76.609550
3361.074524,-10214.842000,444.123565,153.219100
3361.074861,-9770.718434,1628.453072,-536.266849
3361.075199,-10066.800811,1628.453072,-842.705048
3361.075536,-11547.212695,814.226536,-536.266849
3361.075874,-10214.842000,1850.514855,-2451.505594
3361.076211,-8068.244768,2368.659014,-612.876398
3361.076548,-10436.903782,2368.659014,842.705048
3361.076886,-11251.130318,1776.494261,-1225.752797
3361.077223,-10584.944971,2738.761985,-3600.648841
3361.077560,-9770.718434,2072.576638,-2451.505594
3361.077898,-10881.027347,1110.308913,-1532.190996
3361.078235,-9844.739029,1184.329507,-2604.724693
3361.078572,-8882.471304,1776.494261,-3830.477490
3361.078910,-9548.656652,740.205942,-2221.676944
3361.079247,-11991.336260,-148.041188,-1608.800546
3361.079584,-10066.800811,666.185348,-4060.306139
3361.079922,-8364.327145,148.041188,-3600.648841
3361.080259,-9030.512492,148.041188,-536.266849
3361.080596,-10140.821405,0.000000,-919.314598
3361.080934,-10362.883188,74.020594,-2374.896044
3361.081271,-9474.636058,592.164754,-2911.162892
3361.081608,-9474.636058,592.164754,-612.876398
3361.081946,-11769.274478,962.267725,0.000000
3361.082283,-11251.130318,2146.597232,-1302.362347
3361.082620,-8364.327145,3256.906145,-1685.410096
3361.082958,-9178.553681,3849.070898,-229.828649
3361.083295,-12509.480420,3182.885551,-842.705048
3361.083633,-11325.150913,1702.473667,-2528.115143
3361.083970,-8808.450710,3330.926739,-2451.505594
3361.084307,-8290.306550,3478.967927,383.047749
3361.084645,-11843.295072,2072.576638,1762.019645
3361.084982,-12213.398043,2738.761985,-1072.533697
3361.085319,-9252.574275,4071.132681,-3140.991542
3361.085657,-9178.553681,4515.256246,-2298.286494
3361.085994,-11177.109724,3404.947333,-2911.162892
3361.086331,-11917.315666,1702.473667,-4136.915689
3361.086669,-8586.388927,2146.597232,-5822.325785
3361.087006,-6291.750507,666.185348,-3983.696590
3361.087343,-8586.388927,666.185348,-2451.505594
3361.087681,-9622.677246,-1554.432478,-1915.238745
3361.088018,-9770.718434,-1332.370696,-306.438199
3361.088355,-8586.388927,888.247130,383.047749
3361.088693,-11103.089130,2294.638420,229.828649
3361.089030,-13323.706956,2590.720797,-1455.581446
3361.089367,-11399.171507,370.102971,-2757.943793
3361.089705,-8734.430116,-296.082377,-1149.143247
3361.090042,-8364.327145,592.164754,0.000000
3361.090380,-9548.656652,1998.556043,-76.609550
3361.090717,-11473.192101,1554.432478,-2451.505594
3361.091054,-10288.862594,296.082377,-3830.477490
3361.091392,-9474.636058,0.000000,-1762.019645
3361.091729,-10584.944971,1702.473667,1302.362347
3361.092066,-12065.356855,2738.761985,383.047749
3361.092404,-11547.212695,2738.761985,-4136.915689
3361.092741,-10436.903782,2294.638420,-5209.449386
3361.093078,-8956.491898,814.226536,-2298.286494
3361.093416,-9252.574275,296.082377,919.314598
3361.093753,-10436.903782,666.185348,-536.266849
3361.094090,-10436.903782,740.205942,-4519.963438
3361.094428,-9400.615463,666.185348,-5362.668486
3361.094765,-7994.224174,74.020594,-2451.505594
3361.095102,-9030.512492,-148.041188,0.000000
3361.095440,-9474.636058,962.267725,-383.047749
3361.095777,-11399.171507,2220.617826,-1149.143247
3361.096114,-11177.109724,3552.988522,-1378.971896
3361.096452,-10362.883188,3256.906145,-1608.800546
3361.096789,-9104.533087,3404.947333,-995.924147
3361.097126,-9400.615463,1998.556043,-1225.752797
3361.097464,-9918.759623,2590.720797,-2374.896044
3361.097801,-8956.491898,1702.473667,-1455.581446
3361.098139,-9178.553681,1480.411884,-459.657299
3361.098476,-11029.068536,2812.782580,-612.876398
3361.098813,-12139.377449,3775.050304,-3064.381992
3361.099151,-11769.274478,4737.318029,-4443.353888
3361.099488,-10510.924376,3849.070898,-4596.572988
3361.099825,-9178.553681,2072.576638,-3217.601092
3361.100163,-7624.121203,1480.411884,-3753.867940
3361.100500,-7920.203579,1184.329507,-2298.286494
3361.100837,-9622.677246,222.061783,-1991.848295
3361.101175,-11695.253884,-1258.350101,-1915.238745
3361.101512,-10807.006753,74.020594,-1608.800546
3361.101849,-10584.944971,888.247130,-1762.019645
3361.102187,-10214.842000,1406.391290,-2068.457845
3361.102524,-10584.944971,666.185348,-2911.162892
3361.102861,-10288.862594,888.247130,-3064.381992
3361.103199,-8734.430116,666.185348,-2374.896044
3361.103536,-8438.347739,1628.453072,-612.876398
3361.103873,-10362.883188,1036.288319,0.000000
3361.104211,-10510.924376,1332.370696,0.000000
3361.104548,-10140.821405,1110.308913,919.314598
3361.104885,-10288.862594,2220.617826,2374.896044
3361.105223,-12361.439231,3256.906145,1838.629195
3361.105560,-12953.603985,4663.297435,-2451.505594
3361.105898,-11251.130318,4071.132681,-4060.306139
3361.106235,-9178.553681,3404.947333,-4060.306139
3361.106572,-8734.430116,1850.514855,-3064.381992
3361.106910,-8364.327145,1480.411884,-2221.676944
3361.107247,-8290.306550,2960.823768,-3294.210641
3361.107584,-9178.553681,2368.659014,-3370.820191
3361.107922,-10510.924376,2072.576638,-2987.772442
3361.108259,-10214.842000,2146.597232,-1762.019645
3361.108596,-10584.944971,2664.741391,-1225.752797
3361.108934,-10510.924376,2590.720797,-995.924147
3361.109271,-9770.718434,1924.535449,-1915.238745
3361.109608,-9178.553681,1184.329507,-995.924147
3361.109946,-8808.450710,592.164754,383.047749
3361.110283,-9252.574275,0.000000,459.657299
3361.110620,-10584.944971,1110.308913,-842.705048
