#time,accel_x,accel_y,accel_z
3193.865046,-9474.636058,-3849.070898,-766.095498
3193.865384,-9622.677246,-3108.864956,-153.219100
3193.865722,-10510.924376,-3182.885551,-459.657299
3193.866059,-10288.862594,-3034.844362,612.876398
3193.866397,-10584.944971,-3330.926739,1378.971896
3193.866735,-10066.800811,-3775.050304,1532.190996
3193.867072,-9474.636058,-3034.844362,2374.896044
3193.867410,-10140.821405,-2590.720797,2911.162892
3193.867748,-10658.965565,-370.102971,2451.505594
3193.868086,-11547.212695,-814.226536,1915.238745
3193.868423,-11695.253884,-592.164754,1072.533697
3193.868761,-9992.780217,-444.123565,536.266849
3193.869099,-9992.780217,74.020594,1762.019645
3193.869436,-9326.594869,740.205942,1991.848295
3193.869774,-10214.842000,1480.411884,612.876398
3193.870112,-9992.780217,592.164754,766.095498
3193.870450,-9548.656652,1850.514855,0.000000
3193.870787,-11029.068536,888.247130,1072.533697
3193.871125,-10584.944971,1998.556043,229.828649
3193.871463,-9104.533087,148.041188,0.000000
3193.871800,-10140.821405,-370.102971,1685.410096
3193.872138,-9474.636058,-1406.391290,1991.848295
3193.872476,-9104.533087,-814.226536,1532.190996
3193.872814,-8734.430116,-1110.308913,2145.067394
3193.873151,-9400.615463,-1258.350101,1762.019645
3193.873489,-9918.759623,-1258.350101,1915.238745
3193.873827,-9992.780217,-1554.432478,2604.724693
3193.874165,-9030.512492,-666.185348,2451.505594
3193.874502,-9474.636058,-1628.453072,2987.772442
3193.874840,-10362.883188,-888.247130,3677.258390
3193.875178,-10732.986159,-2220.617826,3600.648841
3193.875515,-10881.027347,-2072.576638,3983.696590
3193.875853,-9844.739029,-1554.432478,3370.820191
3193.876191,-10214.842000,-2294.638420,3524.039291
3193.876529,-11251.130318,-1924.535449,3140.991542
3193.876866,-10807.006753,-3256.906145,1378.971896
3193.877204,-9844.739029,-1998.556043,842.705048
3193.877542,-9918.759623,-2516.700203,1225.752797
3193.877879,-9474.636058,-2368.659014,536.266849
3193.878217,-9844.739029,-3404.947333,76.609550
3193.878555,-10584.944971,-4293.194464,689.485948
3193.878893,-9770.718434,-4885.359217,1072.533697
3193.879230,-10214.842000,-4219.173869,1838.629195
3193.879568,-10658.965565,-3256.906145,1072.533697
3193.879906,-10955.047942,-3256.906145,-306.438199
3193.880243,-10584.944971,-3330.926739,-1532.190996
3193.880581,-9252.574275,-3182.885551,-1685.410096
3193.880919,-9178.553681,-3552.988522,-383.047749
3193.881257,-8586.388927,-3404.947333,0.000000
3193.881594,-9548.656652,-1924.535449,383.047749
3193.881932,-10732.986159,-1110.308913,842.705048
3193.882270,-10658.965565,-296.082377,0.000000
3193.882607,-10584.944971,0.000000,229.828649
3193.882945,-10732.986159,740.205942,459.657299
3193.883283,-9474.636058,1628.453072,306.438199
3193.883621,-9474.636058,2886.803174,-1225.752797
3193.883958,-9770.718434,1406.391290,-1762.019645
3193.884296,-9918.759623,888.247130,-1455.581446
3193.884634,-9548.656652,-74.020594,-229.828649
3193.884971,-9104.533087,-518.144159,0.000000
3193.885309,-9622.677246,666.185348,0.000000
3193.885647,-10436.903782,296.082377,-1072.533697
3193.885985,-10510.924376,1480.411884,-2604.724693
3193.886322,-9622.677246,888.247130,-3370.820191
3193.886660,-9326.594869,1480.411884,-2451.505594
3193.886998,-9326.594869,666.185348,-2068.457845
3193.887335,-9474.636058,-666.185348,-766.095498
3193.887673,-9252.574275,-1406.391290,0.000000
3193.888011,-9844.739029,-1258.350101,1072.533697
3193.888349,-10955.047942,-740.205942,2298.286494
3193.888686,-11473.192101,-962.267725,2834.553343
3193.889024,-10732.986159,0.000000,2451.505594
3193.889362,-10140.821405,1110.308913,2528.115143
3193.889699,-9770.718434,2220.617826,2068.457845
3193.890036,-10362.883188,1184.329507,1455.581446
3193.890374,-10510.924376,1036.288319,1149.143247
3193.890711,-9844.739029,222.061783,2451.505594
3193.891049,-10214.842000,1184.329507,2911.162892
3193.891386,-10807.006753,1480.411884,2221.676944
3193.891724,-11251.130318,666.185348,1378.971896
3193.892061,-10584.944971,592.164754,306.438199
3193.892399,-9474.636058,592.164754,153.219100
3193.892736,-9474.636058,1110.308913,1225.752797
3193.893074,-9400.615463,814.226536,229.828649
3193.893411,-10288.862594,666.185348,229.828649
3193.893749,-10584.944971,1184.329507,-306.438199
3193.894086,-9844.739029,888.247130,306.438199
3193.894424,-10288.862594,814.226536,1378.971896
3193.894761,-10214.842000,444.123565,919.314598
3193.895098,-9548.656652,740.205942,536.266849
3193.895436,-9400.615463,666.185348,919.314598
3193.895773,-9548.656652,296.082377,1302.362347
3193.896111,-9474.636058,296.082377,1608.800546
3193.896448,-9474.636058,592.164754,1455.581446
3193.896786,-9992.780217,814.226536,1302.362347
3193.897123,-10584.944971,1110.308913,1302.362347
3193.897461,-11251.130318,1036.288319,536.266849
3193.897798,-10362.883188,1480.411884,-1532.190996
3193.898136,-9992.780217,1258.350101,-2068.457845
3193.898473,-9696.697840,148.041188,-2911.162892
3193.898811,-8956.491898,-1776.494261,-2757.943793
3193.899148,-8734.430116,-2738.761985,-1991.848295
3193.899486,-9030.512492,-2590.720797,-1762.019645
3193.899823,-9400.615463,-2590.720797,-1608.800546
3193.900161,-10955.047942,-2664.741391,-1991.848295
3193.900498,-11621.233289,-2886.803174,-1378.971896
3193.900835,-10732.986159,-2442.679609,-766.095498
3193.901173,-10510.924376,-1924.535449,0.000000
3193.901510,-11177.109724,-2220.617826,383.047749
3193.901848,-10436.903782,-3034.844362,0.000000
3193.902185,-10214.842000,-4367.215058,612.876398
3193.902523,-10140.821405,-4145.153275,2757.943793
3193.902860,-11103.089130,-3849.070898,3677.258390
3193.903198,-10436.903782,-2590.720797,2604.724693
3193.903535,-11103.089130,-1998.556043,919.314598
3193.903873,-10066.800811,-1036.288319,0.000000
3193.904210,-9844.739029,-740.205942,689.485948
3193.904548,-9326.594869,-74.020594,689.485948
3193.904885,-9252.574275,-74.020594,153.219100
3193.905223,-9770.718434,0.000000,153.219100
3193.905560,-10140.821405,-148.041188,766.095498
3193.905897,-9696.697840,-370.102971,995.924147
3193.906235,-10362.883188,-888.247130,1915.238745
3193.906572,-9918.759623,-888.247130,1072.533697
3193.906910,-9326.594869,592.164754,383.047749
3193.907247,-9030.512492,1110.308913,-306.438199
3193.907585,-9474.636058,148.041188,-459.657299
3193.907922,-8956.491898,296.082377,-995.924147
3193.908260,-10066.800811,296.082377,-229.828649
3193.908597,-10436.903782,518.144159,1455.581446
3193.908935,-9918.759623,518.144159,1532.190996
3193.909272,-10510.924376,1110.308913,2374.896044
3193.909610,-10658.965565,888.247130,1532.190996
3193.909947,-10066.800811,1110.308913,1149.143247
3193.910285,-10584.944971,740.205942,842.705048
3193.910622,-9770.718434,1258.350101,995.924147
3193.910959,-9622.677246,1036.288319,0.000000
3193.911297,-9696.697840,888.247130,-536.266849
3193.911634,-10066.800811,1110.308913,-995.924147
3193.911972,-10066.800811,370.102971,-536.266849
3193.912309,-10288.862594,370.102971,-612.876398
3193.912647,-9696.697840,1036.288319,0.000000
3193.912984,-10140.821405,666.185348,-1302.362347
3193.913322,-9918.759623,0.000000,-1378.971896
3193.913659,-10066.800811,-740.205942,-995.924147
3193.913997,-9918.759623,-1258.350101,0.000000
3193.914334,-10214.842000,-1776.494261,0.000000
3193.914672,-10510.924376,-1924.535449,459.657299
3193.915009,-10658.965565,-1554.432478,0.000000
3193.915347,-10658.965565,-666.185348,153.219100
3193.915684,-10436.903782,-222.061783,-1685.410096
3193.916021,-10066.800811,-518.144159,-1532.190996
3193.916359,-9992.780217,0.000000,0.000000
3193.916696,-9770.718434,-370.102971,689.485948
3193.917034,-10288.862594,296.082377,1991.848295
3193.917371,-10288.862594,74.020594,1608.800546
3193.917709,-10436.903782,222.061783,1532.190996
3193.918046,-10510.924376,1110.308913,1838.629195
3193.918384,-10436.903782,1406.391290,1455.581446
3193.918721,-9770.718434,1998.556043,995.924147
3193.919059,-9548.656652,1702.473667,-536.266849
3193.919396,-9622.677246,1702.473667,0.000000
3193.919734,-9548.656652,814.226536,-995.924147
3193.920071,-8956.491898,74.020594,-383.047749
3193.920409,-9178.553681,0.000000,459.657299
3193.920746,-8808.450710,-740.205942,995.924147
3193.921084,-9992.780217,0.000000,153.219100
3193.921421,-10436.903782,-592.164754,-1685.410096
3193.921758,-9104.533087,-222.061783,-1991.848295
3193.922096,-10066.800811,-1258.350101,-842.705048
3193.922433,-9918.759623,-1850.514855,-919.314598
3193.922771,-9178.553681,-1628.453072,-383.047749
3193.923108,-9918.759623,-2294.638420,0.000000
3193.923446,-9622.677246,-2886.803174,612.876398
3193.923783,-10066.800811,-2812.782580,1685.410096
3193.924121,-11029.068536,-2368.659014,2298.286494
3193.924458,-10881.027347,-1924.535449,1302.362347
3193.924796,-10288.862594,-1036.288319,1072.533697
3193.925133,-10140.821405,-1184.329507,1149.143247
3193.925471,-10584.944971,-1776.494261,1149.143247
3193.925808,-11029.068536,-1480.411884,842.705048
3193.926146,-10214.842000,-2664.741391,1072.533697
3193.926483,-10584.944971,-2220.617826,1991.848295
3193.926820,-10732.986159,-1776.494261,766.095498
3193.927158,-10807.006753,-1406.391290,0.000000
3193.927495,-9918.759623,-1110.308913,-1532.190996
3193.927833,-9770.718434,-1924.535449,-1378.971896
3193.928170,-9178.553681,-1110.308913,-1149.143247
3193.928508,-9178.553681,-1480.411884,-1685.410096
3193.928845,-9696.697840,-1406.391290,-536.266849
3193.929183,-9400.615463,-1184.329507,-612.876398
3193.929520,-10066.800811,-1110.308913,229.828649
3193.929858,-10732.986159,0.000000,919.314598
3193.930195,-10584.944971,-222.061783,1072.533697
3193.930533,-9252.574275,370.102971,612.876398
3193.930870,-9326.594869,814.226536,1149.143247
3193.931208,-9770.718434,1258.350101,1762.019645
3193.931545,-10288.862594,1258.350101,995.924147
3193.931882,-9918.759623,1332.370696,1149.143247
3193.932220,-10140.821405,1924.535449,1608.800546
3193.932557,-10362.883188,1998.556043,1915.238745
3193.932895,-10510.924376,2664.741391,766.095498
3193.933232,-10807.006753,2220.617826,-76.609550
3193.933570,-9770.718434,2146.597232,-1685.410096
3193.933907,-9770.718434,1776.494261,-1532.190996
3193.934245,-9326.594869,888.247130,-1302.362347
3193.934582,-9104.533087,444.123565,-1915.238745
3193.934920,-9474.636058,-370.102971,-1302.362347
3193.935257,-9252.574275,-518.144159,-919.314598
3193.935595,-10140.821405,-1406.391290,-1225.752797
3193.935932,-10436.903782,-1110.308913,229.828649
3193.936270,-10436.903782,-1258.350101,-459.657299
3193.936607,-9622.677246,-370.102971,0.000000
3193.936945,-10140.821405,-444.123565,383.047749
3193.937282,-10066.800811,-1406.391290,229.828649
3193.937619,-10362.883188,-2368.659014,1225.752797
3193.937957,-9992.780217,-2072.576638,2221.676944
3193.938294,-10955.047942,-1480.411884,2911.162892
3193.938632,-11177.109724,-888.247130,2145.067394
3193.938969,-10881.027347,0.000000,689.485948
3193.939307,-10510.924376,0.000000,383.047749
3193.939644,-10066.800811,518.144159,0.000000
3193.939982,-9474.636058,814.226536,153.219100
3193.940319,-9844.739029,444.123565,459.657299
3193.940657,-9548.656652,592.164754,0.000000
3193.940994,-9770.718434,740.205942,76.609550
3193.941332,-10214.842000,222.061783,306.438199
3193.941669,-10510.924376,962.267725,0.000000
3193.942007,-10510.924376,74.020594,76.609550
3193.942344,-9326.594869,518.144159,-995.924147
3193.942681,-8660.409521,74.020594,-995.924147
3193.943019,-9548.656652,0.000000,383.047749
3193.943356,-9326.594869,-518.144159,-229.828649
3193.943694,-9770.718434,-518.144159,459.657299
3193.944031,-9844.739029,-444.123565,1838.629195
3193.944369,-9918.759623,0.000000,1838.629195
3193.944706,-10955.047942,222.061783,2451.505594
3193.945044,-10436.903782,-592.164754,1302.362347
3193.945381,-9548.656652,962.267725,459.657299
3193.945719,-10066.800811,148.041188,153.219100
3193.946056,-9844.739029,222.061783,229.828649
3193.946394,-9696.697840,-444.123565,-153.219100
3193.946731,-9770.718434,-888.247130,76.609550
3193.947069,-9548.656652,-148.041188,76.609550
3193.947406,-10214.842000,-1628.453072,229.828649
3193.947743,-10510.924376,-888.247130,306.438199
3193.948081,-10066.800811,-1184.329507,0.000000
3193.948418,-10066.800811,-370.102971,0.000000
3193.948756,-10140.821405,-740.205942,-995.924147
3193.949093,-10955.047942,-1332.370696,-306.438199
3193.949431,-9992.780217,-2368.659014,0.000000
3193.949768,-10214.842000,-2738.761985,153.219100
3193.950106,-10066.800811,-3034.844362,1455.581446
3193.950443,-10732.986159,-2294.638420,459.657299
3193.950781,-10584.944971,-2516.700203,0.000000
3193.951118,-10658.965565,-1110.308913,-1072.533697
3193.951456,-9326.594869,-1110.308913,-919.314598
3193.951793,-9992.780217,-1036.288319,612.876398
3193.952131,-9992.780217,-1036.288319,1762.019645
3193.952468,-9770.718434,-518.144159,1915.238745
3193.952805,-10066.800811,518.144159,2298.286494
3193.953143,-10362.883188,296.082377,2145.067394
3193.953480,-10807.006753,518.144159,2374.896044
3193.953818,-10658.965565,888.247130,2298.286494
3193.954155,-9548.656652,2146.597232,612.876398
3193.954493,-9326.594869,1924.535449,0.000000
3193.954830,-9474.636058,2294.638420,-306.438199
3193.955168,-9030.512492,1258.350101,-1149.143247
3193.955505,-9252.574275,1332.370696,0.000000
3193.955843,-9178.553681,1184.329507,0.000000
3193.956180,-9770.718434,740.205942,0.000000
3193.956518,-10584.944971,1702.473667,0.000000
3193.956855,-10510.924376,518.144159,-919.314598
3193.957193,-9770.718434,1036.288319,-1838.629195
3193.957530,-9770.718434,0.000000,-689.485948
3193.957868,-9622.677246,0.000000,-76.609550
3193.958205,-9696.697840,-1110.308913,-766.095498
3193.958542,-9770.718434,-740.205942,-306.438199
3193.958880,-10140.821405,-740.205942,76.609550
3193.959217,-10658.965565,-1258.350101,536.266849
3193.959555,-10436.903782,-592.164754,1072.533697
3193.959892,-10214.842000,0.000000,1149.143247
3193.960230,-10140.821405,148.041188,153.219100
3193.960567,-9770.718434,370.102971,76.609550
3193.960905,-11251.130318,-444.123565,919.314598
3193.961242,-10362.883188,-888.247130,1455.581446
3193.961580,-10214.842000,-518.144159,1532.190996
3193.961917,-10881.027347,-666.185348,1915.238745
3193.962255,-10658.965565,-1036.288319,0.000000
3193.962592,-10140.821405,-592.164754,-1072.533697
3193.962930,-10584.944971,-592.164754,-1608.800546
3193.963267,-9326.594869,0.000000,-2068.457845
3193.963604,-9696.697840,-666.185348,-1762.019645
3193.963942,-9474.636058,-962.267725,-995.924147
3193.964279,-9474.636058,-518.144159,-383.047749
3193.964617,-10066.800811,-370.102971,689.485948
3193.964954,-10510.924376,-888.247130,1072.533697
3193.965292,-9992.780217,-592.164754,1378.971896
3193.965629,-10732.986159,-296.082377,1532.190996
3193.965967,-9770.718434,666.185348,1532.190996
3193.966304,-9400.615463,814.226536,1608.800546
3193.966642,-9918.759623,740.205942,2068.457845
3193.966979,-9844.739029,1258.350101,1378.971896
3193.967317,-9844.739029,1406.391290,2757.943793
3193.967654,-9992.780217,592.164754,2451.505594
3193.967992,-9696.697840,962.267725,2604.724693
3193.968329,-10066.800811,1258.350101,1762.019645
3193.968666,-10510.924376,1924.535449,306.438199
3193.969004,-9622.677246,1258.350101,-1455.581446
3193.969341,-9104.533087,370.102971,-1608.800546
3193.969679,-9400.615463,74.020594,-919.314598
3193.970016,-9474.636058,-888.247130,-919.314598
3193.970354,-9400.615463,-1036.288319,-1378.971896
3193.970691,-9400.615463,-1628.453072,-1072.533697
3193.971029,-10288.862594,-2146.597232,-459.657299
3193.971366,-9844.739029,-2442.679609,-306.438199
3193.971704,-10584.944971,-1850.514855,383.047749
3193.972041,-10584.944971,-888.247130,0.000000
3193.972379,-10510.924376,-1924.535449,-229.828649
3193.972716,-10658.965565,-1924.535449,1149.143247
3193.973054,-10362.883188,-2368.659014,1149.143247
3193.973391,-10436.903782,-2664.741391,2451.505594
3193.973728,-11177.109724,-2072.576638,2681.334243
3193.974066,-10658.965565,-1332.370696,1762.019645
3193.974403,-11177.109724,-444.123565,612.876398
3193.974741,-10436.903782,-592.164754,76.609550
3193.975078,-9622.677246,0.000000,-766.095498
3193.975416,-9696.697840,148.041188,-306.438199
3193.975753,-9770.718434,740.205942,0.000000
3193.976091,-9474.636058,222.061783,-842.705048
3193.976428,-10214.842000,222.061783,-689.485948
3193.976766,-10066.800811,0.000000,0.000000
3193.977103,-10214.842000,148.041188,0.000000
3193.977441,-10362.883188,518.144159,0.000000
3193.977778,-9326.594869,222.061783,-1378.971896
3193.978116,-8734.430116,370.102971,-1225.752797
3193.978453,-8956.491898,0.000000,-766.095498
3193.978791,-9548.656652,0.000000,306.438199
3193.979128,-9918.759623,0.000000,919.314598
3193.979465,-9770.718434,0.000000,1685.410096
3193.979803,-9622.677246,666.185348,1762.019645
3193.980140,-10362.883188,740.205942,1532.190996
3193.980478,-10362.883188,1628.453072,1225.752797
3193.980815,-10362.883188,888.247130,306.438199
3193.981153,-9770.718434,1332.370696,153.219100
3193.981490,-9622.677246,1332.370696,842.705048
3193.981828,-9844.739029,814.226536,536.266849
3193.982165,-9548.656652,444.123565,0.000000
3193.982503,-9770.718434,0.000000,229.828649
3193.982840,-10288.862594,74.020594,612.876398
3193.983178,-10066.800811,148.041188,229.828649
3193.983515,-10140.821405,-222.061783,229.828649
3193.983853,-9770.718434,0.000000,-459.657299
3193.984190,-10362.883188,-222.061783,-459.657299
3193.984527,-10436.903782,-888.247130,-383.047749
3193.984865,-10066.800811,-2146.597232,0.000000
3193.985202,-10066.800811,-2368.659014,1072.533697
3193.985540,-10510.924376,-2664.741391,1149.143247
3193.985877,-10732.986159,-1776.494261,612.876398
3193.986215,-10955.047942,-1628.453072,0.000000
3193.986552,-10362.883188,-1480.411884,-995.924147
3193.986890,-9400.615463,-962.267725,-1149.143247
3193.987228,-9548.656652,-888.247130,0.000000
3193.987565,-10214.842000,-666.185348,1532.190996
3193.987903,-9918.759623,-666.185348,1378.971896
3193.988240,-10140.821405,148.041188,1608.800546
3193.988578,-10436.903782,222.061783,1991.848295
3193.988915,-10510.924376,370.102971,1072.533697
3193.989253,-10732.986159,1184.329507,1149.143247
3193.989590,-9770.718434,1110.308913,383.047749
3193.989928,-9474.636058,1702.473667,-612.876398
3193.990265,-9696.697840,962.267725,-1302.362347
3193.990603,-9474.636058,1628.453072,-1072.533697
3193.990940,-9770.718434,222.061783,-459.657299
3193.991278,-9326.594869,370.102971,0.000000
3193.991615,-9400.615463,888.247130,0.000000
3193.991953,-10510.924376,444.123565,-459.657299
3193.992290,-9918.759623,148.041188,-1378.971896
3193.992628,-9844.739029,-296.082377,-1685.410096
3193.992965,-9696.697840,-148.041188,-919.314598
3193.993303,-9326.594869,-370.102971,-536.266849
3193.993640,-9622.677246,-1480.411884,-536.266849
3193.993978,-9548.656652,-1406.391290,0.000000
3193.994315,-10140.821405,-1702.473667,689.485948
3193.994653,-10214.842000,-1332.370696,1762.019645
3193.994990,-10288.862594,-1258.350101,1072.533697
3193.995328,-10214.842000,-888.247130,1838.629195
3193.995666,-9770.718434,0.000000,459.657299
3193.996003,-9548.656652,0.000000,536.266849
3193.996341,-10658.965565,-814.226536,995.924147
3193.996678,-10288.862594,-1998.556043,995.924147
3193.997016,-10288.862594,-888.247130,1838.629195
3193.997353,-10732.986159,-1184.329507,1455.581446
3193.997691,-10807.006753,-1406.391290,689.485948
3193.998028,-10362.883188,-1184.329507,-612.876398
3193.998366,-9918.759623,-1184.329507,-995.924147
3193.998703,-9770.718434,-518.144159,-1149.143247
3193.999041,-9474.636058,-1184.329507,-1838.629195
3193.999378,-9844.739029,-1110.308913,-919.314598
3193.999716,-9992.780217,-1184.329507,-689.485948
3194.000053,-9548.656652,-888.247130,306.438199
3194.000391,-10584.944971,-592.164754,919.314598
3194.000728,-10214.842000,-962.267725,842.705048
3194.001066,-9992.780217,74.020594,1072.533697
3194.001403,-10214.842000,0.000000,1532.190996
3194.001741,-9400.615463,1332.370696,995.924147
3194.002078,-9844.739029,888.247130,1455.581446
3194.002416,-10140.821405,814.226536,1378.971896
3194.002753,-9400.615463,962.267725,1378.971896
3194.003091,-10362.883188,1480.411884,2145.067394
3194.003428,-9992.780217,1776.494261,1225.752797
3194.003766,-9992.780217,1776.494261,0.000000
3194.004103,-9696.697840,2146.597232,-459.657299
3194.004441,-9622.677246,1258.350101,-1838.629195
3194.004778,-9474.636058,1924.535449,-1762.019645
3194.005116,-9548.656652,0.000000,-1532.190996
3194.005453,-9918.759623,0.000000,-1378.971896
3194.005791,-9474.636058,-222.061783,-1915.238745
3194.006128,-9696.697840,-814.226536,-1608.800546
3194.006466,-10214.842000,-1554.432478,-229.828649
3194.006803,-10140.821405,-2368.659014,0.000000
3194.007141,-10066.800811,-740.205942,1149.143247
3194.007478,-9992.780217,-888.247130,76.609550
3194.007816,-10807.006753,-1110.308913,0.000000
3194.008153,-10881.027347,-1998.556043,1149.143247
3194.008491,-10510.924376,-2294.638420,1762.019645
3194.008828,-10584.944971,-1628.453072,3140.991542
3194.009166,-11029.068536,-666.185348,2451.505594
3194.009504,-10658.965565,-962.267725,1762.019645
3194.009841,-10584.944971,-370.102971,0.000000
3194.010179,-9844.739029,0.000000,229.828649
3194.010516,-9918.759623,0.000000,383.047749
3194.010854,-9770.718434,222.061783,0.000000
3194.011191,-9844.739029,814.226536,0.000000
3194.011529,-9696.697840,148.041188,-229.828649
3194.011866,-9696.697840,444.123565,0.000000
3194.012204,-10214.842000,0.000000,536.266849
3194.012541,-10436.903782,-370.102971,-383.047749
3194.012879,-9474.636058,518.144159,-766.095498
3194.013216,-9622.677246,148.041188,-1072.533697
3194.013554,-9474.636058,222.061783,-919.314598
3194.013891,-9622.677246,-592.164754,-919.314598
3194.014229,-9918.759623,-148.041188,306.438199
3194.014566,-9696.697840,-222.061783,919.314598
3194.014904,-9992.780217,74.020594,2068.457845
3194.015241,-9992.780217,74.020594,1991.848295
3194.015579,-10140.821405,0.000000,1378.971896
3194.015916,-10584.944971,1554.432478,919.314598
3194.016254,-10066.800811,814.226536,383.047749
3194.016591,-9622.677246,1036.288319,-536.266849
3194.016929,-9548.656652,222.061783,0.000000
3194.017266,-9770.718434,222.061783,-153.219100
3194.017604,-9770.718434,-518.144159,-153.219100
3194.017941,-9992.780217,-740.205942,-306.438199
3194.018279,-10214.842000,-814.226536,0.000000
3194.018616,-9474.636058,-1258.350101,-229.828649
3194.018954,-9400.615463,-296.082377,-459.657299
3194.019291,-10584.944971,-1036.288319,153.219100
3194.019629,-10436.903782,-1110.308913,-153.219100
3194.019966,-10066.800811,-2146.597232,-689.485948
3194.020304,-10510.924376,-2664.741391,536.266849
3194.020641,-9548.656652,-2442.679609,919.314598
3194.020979,-10658.965565,-3404.947333,1762.019645
3194.021316,-10658.965565,-2812.782580,766.095498
3194.021654,-10214.842000,-1702.473667,0.000000
3194.021991,-10214.842000,-1776.494261,-76.609550
3194.022329,-10288.862594,-1258.350101,-766.095498
3194.022666,-9474.636058,-1480.411884,842.705048
3194.023004,-10658.965565,-518.144159,2068.457845
3194.023341,-9844.739029,0.000000,1608.800546
3194.023679,-10214.842000,370.102971,1608.800546
3194.024017,-10881.027347,-148.041188,2221.676944
3194.024354,-10881.027347,814.226536,1991.848295
3194.024692,-10288.862594,1850.514855,1455.581446
3194.025029,-9696.697840,1702.473667,0.000000
3194.025367,-9326.594869,1850.514855,-919.314598
3194.025704,-9548.656652,1110.308913,-1225.752797
3194.026042,-9474.636058,1480.411884,-383.047749
3194.026379,-9474.636058,444.123565,-383.047749
3194.026717,-9992.780217,888.247130,536.266849
3194.027054,-9696.697840,1036.288319,0.000000
3194.027392,-9474.636058,296.082377,-229.828649
3194.027729,-9918.759623,814.226536,-766.095498
3194.028067,-9474.636058,0.000000,-153.219100
3194.028404,-9770.718434,370.102971,-306.438199
3194.028742,-9326.594869,0.000000,-229.828649
3194.029079,-9844.739029,0.000000,-229.828649
3194.029417,-9844.739029,-1184.329507,459.657299
3194.029754,-10066.800811,-888.247130,689.485948
3194.030092,-10288.862594,-888.247130,1685.410096
3194.030429,-10288.862594,-296.082377,842.705048
3194.030767,-9992.780217,0.000000,689.485948
3194.031104,-10658.965565,444.123565,1149.143247
3194.031442,-10214.842000,222.061783,612.876398
3194.031779,-10881.027347,-592.164754,1532.190996
3194.032117,-10732.986159,-1332.370696,1685.410096
3194.032454,-10584.944971,-1110.308913,1149.143247
3194.032792,-10807.006753,-1036.288319,1378.971896
3194.033129,-10807.006753,-1036.288319,-383.047749
3194.033467,-10140.821405,-1184.329507,-1302.362347
3194.033804,-10066.800811,-814.226536,-1608.800546
3194.034142,-9548.656652,-1184.329507,-2298.286494
3194.034479,-9548.656652,-1406.391290,-1991.848295
3194.034817,-9770.718434,-1184.329507,-919.314598
3194.035154,-9474.636058,-1480.411884,-76.609550
3194.035492,-10140.821405,-1258.350101,459.657299
3194.035829,-10288.862594,-1258.350101,459.657299
3194.036167,-10066.800811,-1184.329507,919.314598
3194.036504,-10362.883188,-296.082377,1149.143247
3194.036842,-9844.739029,-74.020594,1532.190996
3194.037179,-9474.636058,592.164754,536.266849
3194.037517,-10214.842000,814.226536,1608.800546
3194.037855,-9918.759623,1036.288319,995.924147
3194.038192,-9548.656652,0.000000,1225.752797
3194.038530,-9474.636058,518.144159,1838.629195
3194.038867,-9696.697840,962.267725,1455.581446
3194.039205,-10362.883188,1406.391290,306.438199
3194.039542,-9918.759623,1406.391290,-1149.143247
3194.039880,-9400.615463,1258.350101,-1608.800546
3194.040217,-9844.739029,148.041188,-1455.581446
3194.040555,-9326.594869,222.061783,-1608.800546
3194.040892,-10066.800811,-888.247130,-919.314598
3194.041230,-9770.718434,-1776.494261,-919.314598
3194.041567,-9252.574275,-2072.576638,-1072.533697
3194.041905,-10362.883188,-2146.597232,383.047749
3194.042242,-10214.842000,-2220.617826,459.657299
3194.042580,-10066.800811,-1554.432478,0.000000
3194.042917,-10807.006753,-1776.494261,612.876398
3194.043255,-10214.842000,-1776.494261,383.047749
3194.043592,-10658.965565,-2516.700203,1455.581446
3194.043930,-10955.047942,-2886.803174,2757.943793
3194.044267,-10214.842000,-2146.597232,2911.162892
3194.044605,-10807.006753,-1924.535449,2757.943793
3194.044942,-11177.109724,-1258.350101,1685.410096
3194.045280,-10214.842000,-962.267725,0.000000
3194.045617,-10510.924376,-518.144159,153.219100
3194.045955,-9696.697840,0.000000,-306.438199
3194.046292,-9474.636058,370.102971,-383.047749
3194.046630,-10362.883188,222.061783,-459.657299
3194.046967,-10066.800811,222.061783,-459.657299
3194.047305,-9252.574275,-296.082377,-612.876398
3194.047642,-10807.006753,0.000000,383.047749
3194.047980,-10214.842000,296.082377,-383.047749
3194.048317,-9548.656652,148.041188,-1225.752797
3194.048655,-9548.656652,740.205942,-842.705048
3194.048992,-9474.636058,444.123565,-995.924147
3194.049330,-9770.718434,740.205942,0.000000
3194.049667,-9770.718434,0.000000,229.828649
3194.050005,-9622.677246,0.000000,1302.362347
3194.050342,-9992.780217,444.123565,1991.848295
3194.050680,-9992.780217,1036.288319,1608.800546
3194.051017,-10658.965565,1702.473667,1225.752797
3194.051355,-9844.739029,1332.370696,0.000000
3194.051692,-9696.697840,1702.473667,459.657299
3194.052030,-9844.739029,2516.700203,-306.438199
3194.052368,-9844.739029,1258.350101,-229.828649
3194.052705,-9770.718434,962.267725,0.000000
3194.053043,-9622.677246,592.164754,-153.219100
3194.053380,-9992.780217,0.000000,0.000000
3194.053718,-10140.821405,222.061783,0.000000
3194.054055,-9326.594869,-444.123565,-689.485948
3194.054393,-9622.677246,74.020594,-919.314598
3194.054730,-10140.821405,0.000000,0.000000
3194.055068,-9992.780217,-148.041188,-995.924147
3194.055405,-10436.903782,-1628.453072,0.000000
3194.055743,-10436.903782,-2220.617826,612.876398
3194.056080,-10066.800811,-2664.741391,995.924147
3194.056418,-11325.150913,-1850.514855,1378.971896
3194.056755,-10881.027347,-2368.659014,383.047749
3194.057093,-10658.965565,-1924.535449,-459.657299
3194.057430,-10288.862594,-1184.329507,-306.438199
3194.057768,-10214.842000,-962.267725,0.000000
3194.058105,-9844.739029,-962.267725,612.876398
3194.058443,-10140.821405,-888.247130,1072.533697
3194.058780,-10066.800811,444.123565,2681.334243
3194.059118,-10066.800811,0.000000,1915.238745
3194.059455,-10436.903782,0.000000,2145.067394
3194.059793,-10732.986159,148.041188,995.924147
3194.060130,-9622.677246,444.123565,1072.533697
3194.060468,-9326.594869,1998.556043,306.438199
3194.060805,-9918.759623,444.123565,-383.047749
3194.061143,-9400.615463,814.226536,-383.047749
3194.061480,-9400.615463,74.020594,-689.485948
3194.061818,-9696.697840,-74.020594,842.705048
3194.062155,-9400.615463,0.000000,459.657299
3194.062493,-9770.718434,-518.144159,0.000000
3194.062830,-9770.718434,-148.041188,-383.047749
3194.063168,-9030.512492,0.000000,-1378.971896
3194.063505,-9548.656652,0.000000,-612.876398
3194.063843,-9548.656652,-666.185348,-919.314598
3194.064180,-9474.636058,-444.123565,-383.047749
3194.064518,-10140.821405,-1258.350101,-229.828649
3194.064855,-10362.883188,-1036.288319,229.828649
3194.065193,-10214.842000,-1554.432478,1149.143247
3194.065530,-10881.027347,-1776.494261,1302.362347
3194.065868,-10288.862594,-888.247130,1149.143247
3194.066206,-9770.718434,0.000000,766.095498
3194.066543,-10658.965565,0.000000,1455.581446
3194.066881,-10658.965565,-518.144159,842.705048
3194.067218,-10584.944971,-1480.411884,1608.800546
3194.067556,-10881.027347,-1184.329507,2068.457845
3194.067893,-10584.944971,-1554.432478,1455.581446
3194.068231,-11029.068536,-1184.329507,1072.533697
3194.068568,-10584.944971,-1628.453072,-76.609550
3194.068906,-9696.697840,-1480.411884,-1302.362347
3194.069243,-9696.697840,-888.247130,-1762.019645
3194.069581,-9696.697840,-1406.391290,-1685.410096
3194.069918,-9622.677246,-1702.473667,-1838.629195
3194.070256,-9474.636058,-2072.576638,-1149.143247
3194.070593,-9622.677246,-592.164754,306.438199
3194.070931,-10288.862594,-1258.350101,995.924147
3194.071268,-9992.780217,-888.247130,1532.190996
3194.071606,-10140.821405,-74.020594,1378.971896
3194.071943,-10881.027347,518.144159,1762.019645
3194.072281,-9770.718434,1480.411884,1302.362347
3194.072618,-10362.883188,888.247130,1685.410096
3194.072956,-10066.800811,1702.473667,1149.143247
3194.073293,-9622.677246,1480.411884,1302.362347
3194.073631,-10066.800811,1776.494261,2298.286494
3194.073968,-10214.842000,1998.556043,2068.457845
3194.074306,-10140.821405,2146.597232,995.924147
3194.074643,-10066.800811,2590.720797,0.000000
3194.074981,-9400.615463,2294.638420,-1149.143247
3194.075318,-9326.594869,2294.638420,-995.924147
3194.075656,-9326.594869,518.144159,-1762.019645
3194.075993,-8808.450710,1258.350101,-1378.971896
3194.076331,-9474.636058,444.123565,-1225.752797
3194.076668,-9992.780217,-296.082377,-995.924147
3194.077006,-9622.677246,-666.185348,-842.705048
3194.077343,-9918.759623,-1480.411884,-383.047749
3194.077681,-9770.718434,-1258.350101,76.609550
3194.078018,-9252.574275,-592.164754,0.000000
3194.078356,-9992.780217,-444.123565,0.000000
3194.078693,-10362.883188,-1924.535449,612.876398
3194.079031,-10214.842000,-1998.556043,1072.533697
3194.079368,-10658.965565,-1776.494261,2681.334243
3194.079706,-11399.171507,-1850.514855,2451.505594
3194.080043,-10584.944971,-1776.494261,1991.848295
3194.080381,-10955.047942,-592.164754,995.924147
3194.080719,-10658.965565,-592.164754,229.828649
3194.081056,-10214.842000,-222.061783,-536.266849
3194.081394,-10436.903782,-888.247130,-383.047749
3194.081731,-9622.677246,74.020594,-995.924147
3194.082069,-9844.739029,-592.164754,-383.047749
3194.082406,-9992.780217,-370.102971,-842.705048
3194.082744,-9400.615463,-1184.329507,-536.266849
3194.083081,-10658.965565,-592.164754,229.828649
3194.083419,-10140.821405,-888.247130,-766.095498
3194.083756,-10066.800811,-222.061783,-842.705048
3194.084094,-9696.697840,-296.082377,-612.876398
3194.084431,-9844.739029,-592.164754,0.000000
3194.084769,-9474.636058,370.102971,383.047749
3194.085106,-9474.636058,-1184.329507,919.314598
3194.085444,-9844.739029,-740.205942,2757.943793
3194.085781,-10066.800811,-740.205942,2374.896044
3194.086119,-10214.842000,-296.082377,2221.676944
3194.086456,-10140.821405,814.226536,1455.581446
3194.086794,-10140.821405,592.164754,536.266849
3194.087131,-9992.780217,1776.494261,842.705048
3194.087469,-9252.574275,666.185348,459.657299
3194.087806,-9696.697840,1036.288319,383.047749
3194.088144,-9696.697840,518.144159,153.219100
3194.088481,-10140.821405,0.000000,383.047749
3194.088819,-10140.821405,148.041188,842.705048
3194.089156,-9474.636058,-370.102971,0.000000
3194.089494,-9918.759623,148.041188,-383.047749
3194.089831,-9992.780217,-74.020594,-536.266849
3194.090169,-9844.739029,222.061783,-612.876398
3194.090506,-10436.903782,-888.247130,-766.095498
3194.090843,-10214.842000,-1850.514855,-612.876398
3194.091181,-10584.944971,-2516.700203,1149.143247
3194.091518,-10584.944971,-2516.700203,1608.800546
3194.091856,-10140.821405,-2072.576638,842.705048
3194.092193,-10732.986159,-1628.453072,0.000000
3194.092531,-10436.903782,-2072.576638,-842.705048
3194.092868,-9992.780217,-1332.370696,-612.876398
3194.093206,-10066.800811,-888.247130,0.000000
3194.093543,-9770.718434,-222.061783,-229.828649
3194.093881,-9844.739029,-518.144159,229.828649
3194.094218,-10066.800811,0.000000,1608.800546
3194.094555,-10066.800811,74.020594,1762.019645
3194.094893,-10658.965565,740.205942,1838.629195
3194.095230,-10658.965565,888.247130,842.705048
3194.095568,-9770.718434,1184.329507,153.219100
3194.095905,-9770.718434,1998.556043,-612.876398
3194.096243,-9474.636058,1702.473667,-766.095498
3194.096580,-9622.677246,1998.556043,-995.924147
3194.096918,-9474.636058,370.102971,0.000000
3194.097255,-9622.677246,1036.288319,689.485948
3194.097593,-9844.739029,444.123565,383.047749
3194.097930,-9844.739029,1036.288319,-153.219100
3194.098267,-9844.739029,740.205942,-689.485948
3194.098605,-9178.553681,0.000000,-1072.533697
3194.098942,-9178.553681,1036.288319,-842.705048
3194.099280,-9474.636058,296.082377,76.609550
3194.099617,-9696.697840,148.041188,0.000000
3194.099955,-9474.636058,-296.082377,0.000000
3194.100292,-10140.821405,-666.185348,1149.143247
3194.100630,-9992.780217,-148.041188,1532.190996
3194.100967,-10436.903782,-740.205942,1608.800546
3194.101305,-9844.739029,-296.082377,1608.800546
3194.101642,-9696.697840,666.185348,689.485948
3194.101979,-10510.924376,518.144159,995.924147
3194.102317,-10732.986159,-296.082377,766.095498
3194.102654,-10288.862594,-962.267725,842.705048
3194.102992,-11029.068536,-1110.308913,2068.457845
3194.103329,-10436.903782,-1480.411884,1685.410096
3194.103667,-10362.883188,-962.267725,842.705048
3194.104004,-10807.006753,-1406.391290,-536.266849
3194.104342,-10362.883188,-1258.350101,-1915.238745
3194.104679,-9696.697840,-1184.329507,-2374.896044
3194.105017,-9992.780217,-1184.329507,-1685.410096
3194.105354,-9548.656652,-2072.576638,-1455.581446
3194.105691,-9548.656652,-1924.535449,-1225.752797
3194.106029,-9622.677246,-1702.473667,0.000000
3194.106366,-9844.739029,-1702.473667,1072.533697
3194.106704,-10362.883188,-1628.453072,1302.362347
3194.107041,-10510.924376,-740.205942,1072.533697
3194.107379,-9844.739029,-518.144159,919.314598
3194.107716,-10140.821405,222.061783,1225.752797
3194.108054,-10214.842000,1258.350101,1302.362347
3194.108391,-10362.883188,444.123565,919.314598
3194.108729,-9696.697840,518.144159,1455.581446
3194.109066,-9548.656652,1184.329507,1762.019645
3194.109403,-9918.759623,888.247130,2221.676944
3194.109741,-10288.862594,1702.473667,0.000000
3194.110078,-10140.821405,1628.453072,-536.266849
3194.110416,-9622.677246,1924.535449,-1455.581446
3194.110753,-8586.388927,1628.453072,-1532.190996
3194.111091,-9844.739029,888.247130,-1225.752797
3194.111428,-9474.636058,296.082377,-1838.629195
3194.111766,-9770.718434,0.000000,-1532.190996
3194.112103,-10288.862594,-444.123565,-919.314598
3194.112441,-9918.759623,-1332.370696,-612.876398
3194.112778,-10140.821405,-1776.494261,995.924147
3194.113115,-10288.862594,-1184.329507,689.485948
3194.113453,-9622.677246,-1110.308913,766.095498
3194.113790,-10584.944971,-370.102971,1072.533697
3194.114128,-10584.944971,-1850.514855,1608.800546
3194.114465,-10436.903782,-1850.514855,1915.238745
3194.114803,-10732.986159,-1258.350101,2757.943793
3194.115140,-10881.027347,-1258.350101,3294.210641
3194.115478,-10955.047942,-1110.308913,2221.676944
3194.115815,-11029.068536,-888.247130,689.485948
3194.116153,-10140.821405,-666.185348,76.609550
3194.116490,-9918.759623,-148.041188,-306.438199
3194.116828,-9992.780217,-74.020594,-383.047749
3194.117165,-9844.739029,-518.144159,-919.314598
3194.117502,-9548.656652,-592.164754,0.000000
3194.117840,-9696.697840,-518.144159,-459.657299
3194.118177,-9696.697840,-666.185348,0.000000
3194.118515,-10362.883188,-592.164754,-306.438199
3194.118852,-10066.800811,0.000000,-383.047749
3194.119190,-9548.656652,74.020594,-766.095498
3194.119527,-9326.594869,0.000000,-842.705048
3194.119865,-10066.800811,666.185348,0.000000
3194.120202,-10066.800811,-518.144159,766.095498
3194.120540,-9474.636058,296.082377,689.485948
3194.120877,-9474.636058,-518.144159,1685.410096
3194.121214,-10436.903782,74.020594,2451.505594
3194.121552,-9770.718434,518.144159,1608.800546
3194.121889,-10140.821405,1332.370696,536.266849
3194.122227,-10066.800811,2072.576638,229.828649
3194.122564,-9622.677246,1850.514855,-306.438199
3194.122902,-9770.718434,1184.329507,229.828649
3194.123239,-9622.677246,1554.432478,-306.438199
3194.123577,-9474.636058,1036.288319,-383.047749
3194.123914,-10140.821405,814.226536,383.047749
3194.124252,-10288.862594,148.041188,76.609550
3194.124589,-9770.718434,0.000000,0.000000
3194.124926,-9104.533087,222.061783,-612.876398
3194.125264,-9548.656652,222.061783,-459.657299
3194.125601,-10510.924376,-148.041188,-153.219100
3194.125939,-10362.883188,-1110.308913,0.000000
3194.126276,-9992.780217,-1406.391290,0.000000
3194.126614,-10658.965565,-2442.679609,1532.190996
3194.126951,-11029.068536,-1998.556043,1991.848295
3194.127289,-10658.965565,-2220.617826,689.485948
3194.127626,-11325.150913,-1924.535449,536.266849
3194.127964,-10066.800811,-1406.391290,-306.438199
3194.128301,-10066.800811,-1628.453072,-306.438199
3194.128638,-9918.759623,-1110.308913,689.485948
3194.128976,-10066.800811,-1480.411884,842.705048
3194.129313,-10436.903782,-370.102971,919.314598
3194.129651,-10140.821405,-370.102971,1149.143247
3194.129988,-10510.924376,-370.102971,2221.676944
3194.130326,-10436.903782,-814.226536,1991.848295
3194.130663,-9992.780217,592.164754,1072.533697
3194.131001,-10362.883188,1110.308913,459.657299
3194.131338,-9770.718434,1036.288319,-536.266849
3194.131676,-9474.636058,1110.308913,-689.485948
3194.132013,-9770.718434,74.020594,-459.657299
3194.132350,-9178.553681,222.061783,-459.657299
3194.132688,-9770.718434,-518.144159,536.266849
3194.133025,-10140.821405,-222.061783,76.609550
3194.133363,-9474.636058,0.000000,-689.485948
3194.133700,-9844.739029,444.123565,-1149.143247
3194.134038,-9400.615463,74.020594,-1149.143247
3194.134375,-9030.512492,222.061783,-1072.533697
3194.134713,-9992.780217,0.000000,-306.438199
3194.135050,-9474.636058,-148.041188,-536.266849
3194.135388,-9918.759623,-74.020594,306.438199
3194.135725,-10584.944971,-370.102971,995.924147
3194.136062,-10436.903782,-1110.308913,1455.581446
3194.136400,-10510.924376,-222.061783,1532.190996
3194.136737,-9770.718434,148.041188,1149.143247
3194.137075,-9770.718434,518.144159,612.876398
3194.137412,-10066.800811,-518.144159,689.485948
3194.137750,-10140.821405,-444.123565,919.314598
3194.138087,-9918.759623,-1184.329507,689.485948
3194.138425,-10362.883188,-1036.288319,1378.971896
3194.138762,-10436.903782,-1406.391290,1302.362347
3194.139100,-10584.944971,-1702.473667,76.609550
3194.139437,-10362.883188,-1184.329507,-995.924147
3194.139774,-9844.739029,-1184.329507,-2221.676944
3194.140112,-9622.677246,-1628.453072,-1915.238745
3194.140449,-9474.636058,-1258.350101,-1608.800546
3194.140787,-10436.903782,-1998.556043,-612.876398
3194.141124,-9622.677246,-1110.308913,-766.095498
3194.141462,-9770.718434,-2220.617826,229.828649
3194.141799,-10881.027347,-1776.494261,1838.629195
3194.142137,-10658.965565,-1258.350101,1302.362347
3194.142474,-10584.944971,-962.267725,1762.019645
3194.142812,-10436.903782,0.000000,1608.800546
3194.143149,-9622.677246,592.164754,1302.362347
3194.143487,-10140.821405,1110.308913,1225.752797
3194.143824,-10362.883188,962.267725,1608.800546
3194.144161,-9992.780217,1110.308913,2298.286494
3194.144499,-10288.862594,962.267725,1915.238745
3194.144836,-10140.821405,1776.494261,2145.067394
3194.145174,-10066.800811,2072.576638,536.266849
3194.145511,-10140.821405,1776.494261,-842.705048
3194.145849,-9104.533087,1702.473667,-1532.190996
3194.146186,-9030.512492,1258.350101,-919.314598
3194.146524,-9474.636058,1628.453072,-536.266849
3194.146861,-9622.677246,592.164754,-2221.676944
3194.147199,-9770.718434,592.164754,-1378.971896
3194.147536,-10140.821405,-518.144159,-229.828649
3194.147873,-10140.821405,-1110.308913,0.000000
3194.148211,-9696.697840,-666.185348,459.657299
3194.148548,-10140.821405,-592.164754,153.219100
3194.148886,-9770.718434,-666.185348,-306.438199
3194.149223,-9696.697840,-1332.370696,0.000000
3194.149561,-10436.903782,-1184.329507,1302.362347
3194.149898,-10658.965565,-1480.411884,2068.457845
3194.150236,-10881.027347,-1406.391290,2681.334243
3194.150573,-10658.965565,-370.102971,2298.286494
3194.150911,-11251.130318,-888.247130,1762.019645
3194.151248,-10807.006753,-296.082377,766.095498
3194.151585,-9992.780217,-222.061783,-612.876398
3194.151923,-10288.862594,-296.082377,-306.438199
3194.152260,-10214.842000,296.082377,-1149.143247
3194.152598,-10214.842000,-666.185348,-766.095498
3194.152935,-9770.718434,-814.226536,-612.876398
3194.153273,-9400.615463,-1554.432478,0.000000
3194.153610,-10214.842000,-1184.329507,306.438199
3194.153948,-10140.821405,-740.205942,-612.876398
3194.154285,-10066.800811,-814.226536,-919.314598
3194.154623,-9918.759623,-1258.350101,-383.047749
3194.154960,-9326.594869,-592.164754,-612.876398
3194.155297,-9918.759623,0.000000,76.609550
3194.155635,-10510.924376,-814.226536,383.047749
3194.155972,-9474.636058,-740.205942,995.924147
3194.156310,-9548.656652,-962.267725,2451.505594
3194.156647,-10362.883188,74.020594,2911.162892
3194.156985,-10288.862594,518.144159,1685.410096
3194.157322,-10510.924376,1036.288319,229.828649
3194.157660,-10066.800811,1480.411884,0.000000
3194.157997,-9178.553681,1258.350101,0.000000
3194.158335,-9400.615463,1406.391290,306.438199
3194.158672,-9474.636058,444.123565,153.219100
3194.159009,-10066.800811,1036.288319,-153.219100
3194.159347,-10436.903782,518.144159,0.000000
3194.159684,-10658.965565,148.041188,153.219100
3194.160022,-9548.656652,-370.102971,-536.266849
3194.160359,-9696.697840,-74.020594,-689.485948
3194.160697,-9474.636058,74.020594,-306.438199
3194.161034,-10140.821405,-444.123565,-919.314598
3194.161372,-9918.759623,-2072.576638,-306.438199
3194.161709,-9770.718434,-2220.617826,383.047749
3194.162047,-10658.965565,-2590.720797,1685.410096
3194.162384,-11103.089130,-1776.494261,1915.238745
3194.162721,-10732.986159,-2146.597232,612.876398
3194.163059,-10732.986159,-1554.432478,0.000000
3194.163396,-9844.739029,-1850.514855,-153.219100
3194.163734,-10140.821405,-814.226536,229.828649
3194.164071,-9844.739029,-962.267725,459.657299
3194.164409,-10436.903782,-1036.288319,536.266849
3194.164746,-9992.780217,-518.144159,612.876398
3194.165084,-9918.759623,-666.185348,995.924147
3194.165421,-10436.903782,0.000000,2451.505594
3194.165759,-10510.924376,0.000000,919.314598
3194.166096,-10140.821405,888.247130,536.266849
3194.166433,-9844.739029,1406.391290,153.219100
3194.166771,-9548.656652,1480.411884,-383.047749
3194.167108,-9992.780217,1480.411884,-766.095498
3194.167446,-10214.842000,148.041188,-459.657299
3194.167783,-9474.636058,222.061783,-383.047749
3194.168121,-9548.656652,370.102971,229.828649
3194.168458,-9918.759623,444.123565,76.609550
3194.168796,-9918.759623,-444.123565,-383.047749
3194.169133,-9548.656652,222.061783,-919.314598
3194.169471,-9474.636058,888.247130,-689.485948
3194.169808,-9696.697840,518.144159,-383.047749
3194.170145,-9696.697840,296.082377,76.609550
3194.170483,-9770.718434,-518.144159,459.657299
3194.170820,-9474.636058,148.041188,919.314598
3194.171158,-10436.903782,0.000000,1685.410096
3194.171495,-10955.047942,-370.102971,2145.067394
3194.171833,-10140.821405,148.041188,1455.581446
3194.172170,-9992.780217,592.164754,1378.971896
3194.172508,-10214.842000,1036.288319,919.314598
3194.172845,-10066.800811,74.020594,459.657299
3194.173183,-10066.800811,-370.102971,995.924147
3194.173520,-10288.862594,-962.267725,1225.752797
3194.173858,-9918.759623,-962.267725,1532.190996
3194.174195,-10214.842000,-888.247130,1455.581446
3194.174532,-10955.047942,-1110.308913,0.000000
3194.174870,-10362.883188,-518.144159,-1225.752797
3194.175207,-9844.739029,-666.185348,-2451.505594
3194.175545,-10066.800811,-888.247130,-2068.457845
3194.175882,-9548.656652,-1776.494261,-1302.362347
3194.176220,-9548.656652,-2072.576638,-612.876398
3194.176557,-9548.656652,-1776.494261,-536.266849
3194.176895,-10140.821405,-1850.514855,536.266849
3194.177232,-10584.944971,-1258.350101,1225.752797
3194.177570,-10732.986159,-1554.432478,2221.676944
3194.177907,-10066.800811,-296.082377,1225.752797
3194.178244,-9622.677246,148.041188,919.314598
3194.178582,-10140.821405,444.123565,1455.581446
3194.178919,-10214.842000,888.247130,612.876398
3194.179257,-10140.821405,592.164754,1608.800546
3194.179594,-10140.821405,592.164754,1991.848295
3194.179932,-9992.780217,1184.329507,1838.629195
3194.180269,-10584.944971,962.267725,919.314598
3194.180607,-10436.903782,2220.617826,-229.828649
3194.180944,-9770.718434,1184.329507,-1455.581446
3194.181282,-9104.533087,1258.350101,-1685.410096
3194.181619,-9178.553681,1184.329507,-1378.971896
3194.181956,-9400.615463,592.164754,-995.924147
3194.182294,-9770.718434,296.082377,-1838.629195
3194.182631,-9252.574275,74.020594,-1991.848295
3194.182969,-10436.903782,-1184.329507,-383.047749
3194.183306,-10066.800811,-1480.411884,536.266849
3194.183644,-9252.574275,-1406.391290,229.828649
3194.183981,-10066.800811,-740.205942,919.314598
3194.184319,-9918.759623,-592.164754,536.266849
3194.184656,-10140.821405,-1702.473667,689.485948
3194.184994,-10436.903782,-1850.514855,1762.019645
3194.185331,-10214.842000,-1850.514855,2911.162892
3194.185668,-10955.047942,-1406.391290,2987.772442
3194.186006,-10881.027347,-1258.350101,2374.896044
3194.186343,-10658.965565,-888.247130,1532.190996
3194.186681,-10881.027347,-518.144159,1149.143247
3194.187018,-10436.903782,0.000000,306.438199
3194.187356,-10140.821405,0.000000,229.828649
3194.187693,-10214.842000,-518.144159,-842.705048
3194.188031,-9696.697840,-148.041188,-536.266849
3194.188368,-9918.759623,-1036.288319,-76.609550
3194.188706,-10140.821405,-1110.308913,306.438199
3194.189043,-10066.800811,-1184.329507,0.000000
3194.189380,-10658.965565,-370.102971,0.000000
3194.189718,-9770.718434,-370.102971,-995.924147
3194.190055,-9474.636058,-444.123565,-306.438199
3194.190393,-10066.800811,-148.041188,0.000000
3194.190730,-9770.718434,-148.041188,-306.438199
3194.191068,-10362.883188,0.000000,766.095498
3194.191405,-9770.718434,-518.144159,1149.143247
3194.191743,-9696.697840,-592.164754,1991.848295
3194.192080,-10510.924376,0.000000,2604.724693
3194.192418,-10066.800811,814.226536,1302.362347
3194.192755,-9770.718434,1702.473667,459.657299
3194.193093,-10214.842000,1924.535449,0.000000
3194.193430,-9030.512492,1184.329507,-612.876398
3194.193768,-9474.636058,2220.617826,0.000000
3194.194105,-9400.615463,1110.308913,-459.657299
3194.194442,-9622.677246,1406.391290,-1149.143247
3194.194780,-10140.821405,0.000000,-306.438199
3194.195117,-10140.821405,148.041188,0.000000
3194.195455,-9622.677246,0.000000,-612.876398
3194.195792,-10066.800811,148.041188,-1225.752797
3194.196130,-10066.800811,-74.020594,-1378.971896
3194.196467,-9992.780217,-1110.308913,-919.314598
3194.196805,-10140.821405,-1924.535449,0.000000
3194.197142,-9770.718434,-2738.761985,0.000000
3194.197480,-10362.883188,-2368.659014,1685.410096
3194.197817,-10881.027347,-2368.659014,1455.581446
3194.198155,-10881.027347,-1776.494261,689.485948
3194.198492,-10288.862594,-1850.514855,-76.609550
3194.198830,-10510.924376,-1998.556043,0.000000
3194.199167,-9992.780217,-1554.432478,459.657299
3194.199504,-9474.636058,-1702.473667,536.266849
3194.199842,-10288.862594,-592.164754,766.095498
3194.200179,-10288.862594,-1480.411884,1149.143247
3194.200517,-9844.739029,-518.144159,1532.190996
3194.200854,-10510.924376,-1110.308913,2374.896044
3194.201192,-10807.006753,444.123565,1915.238745
3194.201529,-10140.821405,518.144159,383.047749
3194.201867,-9992.780217,666.185348,76.609550
3194.202204,-9622.677246,1110.308913,76.609550
3194.202542,-9622.677246,1110.308913,-459.657299
3194.202879,-9918.759623,74.020594,153.219100
3194.203217,-9770.718434,222.061783,0.000000
3194.203554,-9474.636058,-296.082377,459.657299
3194.203891,-9918.759623,148.041188,612.876398
3194.204229,-9918.759623,74.020594,-383.047749
3194.204566,-9696.697840,296.082377,-536.266849
3194.204904,-10066.800811,814.226536,-919.314598
3194.205241,-9252.574275,370.102971,-766.095498
3194.205579,-9770.718434,296.082377,0.000000
3194.205916,-10066.800811,-74.020594,689.485948
3194.206254,-9474.636058,0.000000,689.485948
3194.206591,-10214.842000,0.000000,1378.971896
3194.206929,-10584.944971,0.000000,1838.629195
3194.207266,-10510.924376,148.041188,842.705048
3194.207604,-10214.842000,592.164754,1302.362347
3194.207941,-9326.594869,888.247130,-229.828649
3194.208279,-9696.697840,-222.061783,-306.438199
3194.208616,-10214.842000,-518.144159,383.047749
3194.208953,-10066.800811,-1480.411884,306.438199
3194.209291,-9918.759623,-1184.329507,1378.971896
3194.209628,-10658.965565,-1406.391290,842.705048
3194.209966,-10881.027347,-814.226536,-306.438199
3194.210303,-11029.068536,-1480.411884,-1608.800546
3194.210641,-9474.636058,-888.247130,-2451.505594
3194.210978,-9696.697840,-1924.535449,-1302.362347
3194.211316,-9918.759623,-1850.514855,-612.876398
3194.211653,-9844.739029,-1480.411884,-689.485948
3194.211991,-10807.006753,-1924.535449,-229.828649
3194.212328,-9770.718434,-1406.391290,0.000000
3194.212666,-10584.944971,-1702.473667,1302.362347
3194.213003,-11029.068536,-1480.411884,1685.410096
3194.213341,-9622.677246,-444.123565,1302.362347
3194.213678,-10288.862594,888.247130,1532.190996
3194.214015,-10658.965565,1184.329507,1072.533697
3194.214353,-10288.862594,1332.370696,612.876398
3194.214690,-10658.965565,888.247130,1991.848295
3194.215028,-9992.780217,1036.288319,1838.629195
3194.215365,-9622.677246,1702.473667,2451.505594
3194.215703,-10436.903782,1850.514855,995.924147
3194.216040,-10140.821405,1998.556043,-689.485948
3194.216378,-9104.533087,1628.453072,-1608.800546
3194.216715,-8660.409521,1406.391290,-1378.971896
3194.217053,-9030.512492,1628.453072,-1532.190996
3194.217390,-9400.615463,888.247130,-995.924147
3194.217728,-9030.512492,666.185348,-1685.410096
3194.218065,-9474.636058,-296.082377,-1149.143247
3194.218402,-10214.842000,-148.041188,0.000000
3194.218740,-10140.821405,-518.144159,766.095498
3194.219077,-10140.821405,-740.205942,842.705048
3194.219415,-9844.739029,-370.102971,842.705048
3194.219752,-9844.739029,-592.164754,0.000000
3194.220090,-10140.821405,-1332.370696,536.266849
3194.220427,-9918.759623,-1480.411884,1302.362347
3194.220765,-10436.903782,-2590.720797,2604.724693
3194.221102,-10807.006753,-592.164754,2681.334243
3194.221440,-10658.965565,-1258.350101,1991.848295
3194.221777,-11695.253884,-740.205942,1762.019645
3194.222115,-10732.986159,-888.247130,459.657299
3194.222452,-10288.862594,-444.123565,-536.266849
3194.222790,-9844.739029,-74.020594,0.000000
3194.223127,-9622.677246,-666.185348,-995.924147
3194.223464,-9696.697840,-1258.350101,-689.485948
3194.223802,-10140.821405,-1258.350101,-383.047749
3194.224139,-9992.780217,-1110.308913,0.000000
3194.224477,-10658.965565,-1554.432478,-229.828649
3194.224814,-10436.903782,-962.267725,-383.047749
3194.225152,-9400.615463,-1258.350101,-1225.752797
3194.225489,-9696.697840,-148.041188,-229.828649
3194.225827,-9622.677246,-222.061783,-306.438199
3194.226164,-9992.780217,-666.185348,0.000000
3194.226502,-10066.800811,-370.102971,995.924147
3194.226839,-9770.718434,-1036.288319,1685.410096
3194.227177,-10214.842000,74.020594,3140.991542
3194.227514,-10881.027347,296.082377,2834.553343
3194.227852,-10288.862594,814.226536,919.314598
3194.228189,-9400.615463,1702.473667,153.219100
3194.228526,-9770.718434,1998.556043,383.047749
3194.228864,-9400.615463,1406.391290,153.219100
3194.229201,-9400.615463,1480.411884,0.000000
3194.229539,-9622.677246,1924.535449,-153.219100
3194.229876,-9844.739029,1554.432478,-306.438199
3194.230214,-10288.862594,444.123565,-459.657299
3194.230551,-10140.821405,740.205942,0.000000
3194.230889,-9696.697840,0.000000,-306.438199
3194.231226,-9252.574275,592.164754,-1149.143247
3194.231564,-9622.677246,0.000000,-1225.752797
3194.231901,-10288.862594,-1184.329507,-383.047749
3194.232239,-9474.636058,-1850.514855,-689.485948
3194.232576,-9770.718434,-2516.700203,766.095498
3194.232914,-10214.842000,-1850.514855,1915.238745
3194.233251,-10881.027347,-2294.638420,1302.362347
3194.233588,-10881.027347,-1628.453072,689.485948
3194.233926,-10436.903782,-1702.473667,-229.828649
3194.234263,-10214.842000,-1258.350101,0.000000
3194.234601,-10066.800811,-1702.473667,536.266849
3194.234938,-9770.718434,-1110.308913,306.438199
3194.235276,-9918.759623,-666.185348,766.095498
3194.235613,-10510.924376,-1184.329507,995.924147
3194.235951,-10140.821405,-518.144159,1378.971896
3194.236288,-10732.986159,-888.247130,1915.238745
3194.236626,-10436.903782,296.082377,1225.752797
3194.236963,-9844.739029,814.226536,-153.219100
3194.237301,-9622.677246,1628.453072,-383.047749
3194.237638,-9622.677246,370.102971,-306.438199
3194.237975,-9548.656652,148.041188,-689.485948
3194.238313,-9770.718434,370.102971,-536.266849
3194.238650,-9918.759623,0.000000,612.876398
3194.238988,-9696.697840,74.020594,383.047749
3194.239325,-9918.759623,0.000000,76.609550
3194.239663,-10066.800811,370.102971,-459.657299
3194.240000,-9400.615463,296.082377,-612.876398
3194.240338,-9770.718434,518.144159,-459.657299
3194.240675,-9400.615463,814.226536,-459.657299
3194.241013,-9696.697840,74.020594,229.828649
3194.241350,-9696.697840,296.082377,919.314598
3194.241688,-9918.759623,740.205942,919.314598
3194.242025,-10436.903782,-296.082377,1608.800546
3194.242363,-10510.924376,518.144159,1915.238745
3194.242700,-9622.677246,444.123565,1149.143247
3194.243037,-10066.800811,666.185348,919.314598
3194.243375,-9918.759623,592.164754,153.219100
3194.243712,-10066.800811,0.000000,-306.438199
3194.244050,-9770.718434,-518.144159,0.000000
3194.244387,-9696.697840,-1628.453072,995.924147
3194.244725,-9992.780217,-1332.370696,1532.190996
3194.245062,-10288.862594,-1776.494261,919.314598
3194.245400,-10658.965565,-592.164754,153.219100
3194.245737,-10510.924376,-1258.350101,-2145.067394
3194.246075,-10214.842000,-1332.370696,-1762.019645
3194.246412,-9844.739029,-2220.617826,-1532.190996
3194.246750,-9548.656652,-2664.741391,-689.485948
3194.247087,-9844.739029,-2072.576638,0.000000
3194.247425,-10436.903782,-2294.638420,0.000000
3194.247762,-10214.842000,-2072.576638,612.876398
3194.248099,-10807.006753,-2368.659014,1225.752797
3194.248437,-10658.965565,-1406.391290,1762.019645
3194.248774,-10140.821405,-148.041188,1915.238745
3194.249112,-10436.903782,296.082377,1378.971896
3194.249449,-10288.862594,888.247130,1532.190996
3194.249787,-10214.842000,666.185348,919.314598
3194.250124,-10140.821405,666.185348,2068.457845
3194.250462,-10510.924376,592.164754,2834.553343
3194.250799,-10066.800811,1258.350101,2068.457845
3194.251137,-10510.924376,1850.514855,919.314598
3194.251474,-10584.944971,1924.535449,-995.924147
3194.251812,-8808.450710,1406.391290,-2145.067394
3194.252149,-8660.409521,1110.308913,-1685.410096
3194.252487,-9030.512492,1036.288319,-1302.362347
3194.252824,-8956.491898,1036.288319,-1455.581446
3194.253161,-9474.636058,666.185348,-1608.800546
3194.253499,-9474.636058,-222.061783,-1225.752797
3194.253836,-10066.800811,-370.102971,229.828649
3194.254174,-10362.883188,-444.123565,919.314598
3194.254511,-10140.821405,-296.082377,536.266849
3194.254849,-9844.739029,0.000000,76.609550
3194.255186,-10140.821405,-444.123565,0.000000
3194.255524,-10140.821405,-1258.350101,689.485948
3194.255861,-10066.800811,-1184.329507,1685.410096
3194.256199,-10658.965565,-1776.494261,2604.724693
3194.256536,-10732.986159,-666.185348,2374.896044
3194.256874,-10510.924376,-888.247130,1762.019645
3194.257211,-11177.109724,0.000000,1225.752797
3194.257548,-10584.944971,-888.247130,0.000000
3194.257886,-9992.780217,0.000000,-842.705048
3194.258223,-9622.677246,0.000000,-612.876398
3194.258561,-9548.656652,-1258.350101,-383.047749
3194.258898,-9474.636058,-1480.411884,-1149.143247
3194.259236,-10066.800811,-1554.432478,0.000000
3194.259573,-10362.883188,-1776.494261,0.000000
3194.259911,-10214.842000,-1184.329507,-842.705048
3194.260248,-10584.944971,-1776.494261,-842.705048
3194.260586,-9474.636058,-1036.288319,-919.314598
3194.260923,-9474.636058,-814.226536,-383.047749
3194.261261,-9622.677246,-666.185348,0.000000
3194.261598,-10140.821405,-370.102971,0.000000
3194.261936,-10436.903782,-740.205942,1302.362347
3194.262273,-10436.903782,-962.267725,2145.067394
3194.262610,-9548.656652,0.000000,2528.115143
3194.262948,-10732.986159,370.102971,2451.505594
3194.263285,-10510.924376,1332.370696,1608.800546
3194.263623,-9622.677246,1702.473667,306.438199
3194.263960,-9474.636058,1998.556043,842.705048
3194.264298,-9548.656652,1924.535449,459.657299
3194.264635,-9622.677246,1554.432478,153.219100
3194.264973,-9844.739029,1924.535449,-383.047749
3194.265310,-9696.697840,1406.391290,-229.828649
3194.265648,-10436.903782,1110.308913,306.438199
3194.265985,-9844.739029,814.226536,842.705048
3194.266323,-9548.656652,74.020594,-459.657299
3194.266660,-9474.636058,444.123565,-689.485948
3194.266998,-9844.739029,148.041188,-1149.143247
3194.267335,-9622.677246,-888.247130,-1149.143247
3194.267672,-9844.739029,-2516.700203,153.219100
3194.268010,-9326.594869,-2368.659014,1608.800546
3194.268347,-10584.944971,-1924.535449,1838.629195
3194.268685,-11029.068536,-1554.432478,1149.143247
3194.269022,-10955.047942,-1554.432478,0.000000
3194.269360,-10510.924376,-2146.597232,0.000000
3194.269697,-9992.780217,-1480.411884,76.609550
3194.270035,-9992.780217,-1184.329507,536.266849
3194.270372,-10732.986159,-1036.288319,1149.143247
3194.270710,-10066.800811,-666.185348,383.047749
3194.271047,-10732.986159,-962.267725,1072.533697
3194.271385,-10436.903782,-592.164754,1072.533697
3194.271722,-10658.965565,-296.082377,919.314598
3194.272060,-11029.068536,-296.082377,1378.971896
3194.272397,-9844.739029,518.144159,-612.876398
3194.272734,-9474.636058,814.226536,-842.705048
3194.273072,-10362.883188,592.164754,-689.485948
3194.273409,-9622.677246,-370.102971,-995.924147
3194.273747,-9992.780217,0.000000,0.000000
3194.274084,-9844.739029,-518.144159,76.609550
3194.274422,-9548.656652,0.000000,-383.047749
3194.274759,-9992.780217,-592.164754,0.000000
3194.275097,-9844.739029,-666.185348,-612.876398
3194.275434,-9252.574275,0.000000,-689.485948
3194.275772,-9696.697840,518.144159,-689.485948
3194.276109,-9326.594869,296.082377,0.000000
3194.276447,-9474.636058,-370.102971,153.219100
3194.276784,-9696.697840,0.000000,1378.971896
3194.277121,-9770.718434,222.061783,1302.362347
3194.277459,-10214.842000,370.102971,1991.848295
3194.277796,-10584.944971,296.082377,1838.629195
3194.278134,-9918.759623,148.041188,1455.581446
3194.278471,-9622.677246,1258.350101,842.705048
3194.278809,-9844.739029,444.123565,459.657299
3194.279146,-9992.780217,-518.144159,153.219100
3194.279484,-9474.636058,-1184.329507,919.314598
3194.279821,-9918.759623,-888.247130,1608.800546
3194.280159,-10214.842000,-1628.453072,2068.457845
3194.280496,-10658.965565,-1258.350101,766.095498
3194.280834,-10732.986159,-1480.411884,-306.438199
3194.281171,-10807.006753,-888.247130,-1302.362347
3194.281509,-9770.718434,-1554.432478,-1762.019645
3194.281846,-10066.800811,-2220.617826,-689.485948
3194.282183,-9548.656652,-2368.659014,0.000000
3194.282521,-9474.636058,-2368.659014,-459.657299
3194.282858,-10140.821405,-2368.659014,536.266849
3194.283196,-10732.986159,-1850.514855,536.266849
3194.283533,-10732.986159,-2368.659014,1378.971896
3194.283871,-10658.965565,-962.267725,1608.800546
3194.284208,-9844.739029,74.020594,1225.752797
3194.284546,-10362.883188,518.144159,1378.971896
3194.284883,-10658.965565,814.226536,1225.752797
3194.285221,-9844.739029,370.102971,1378.971896
3194.285558,-10510.924376,888.247130,1991.848295
3194.285896,-10214.842000,888.247130,2374.896044
3194.286233,-9770.718434,1554.432478,919.314598
3194.286571,-10510.924376,1628.453072,0.000000
3194.286908,-9770.718434,1776.494261,-995.924147
3194.287245,-8956.491898,1776.494261,-2298.286494
3194.287583,-9622.677246,1406.391290,-1532.190996
3194.287920,-9400.615463,1258.350101,-2221.676944
3194.288258,-9104.533087,592.164754,-1762.019645
3194.288595,-9400.615463,1036.288319,-1608.800546
3194.288933,-9548.656652,-370.102971,-536.266849
3194.289270,-10510.924376,0.000000,689.485948
3194.289608,-10362.883188,-518.144159,689.485948
3194.289945,-10214.842000,296.082377,536.266849
3194.290283,-10214.842000,-740.205942,76.609550
3194.290620,-9622.677246,-518.144159,0.000000
3194.290957,-10066.800811,-1480.411884,1455.581446
3194.291295,-9844.739029,-1036.288319,1838.629195
3194.291632,-10214.842000,-740.205942,2451.505594
3194.291970,-11547.212695,-814.226536,2604.724693
3194.292307,-10881.027347,-518.144159,1378.971896
3194.292644,-11103.089130,-148.041188,383.047749
3194.292982,-10881.027347,-148.041188,229.828649
3194.293319,-10066.800811,0.000000,-536.266849
3194.293656,-10288.862594,-666.185348,-76.609550
3194.293994,-9696.697840,-1258.350101,-153.219100
3194.294331,-9548.656652,-888.247130,-459.657299
3194.294668,-10584.944971,-1702.473667,536.266849
3194.295006,-10288.862594,-1776.494261,-459.657299
3194.295343,-10140.821405,-1702.473667,-383.047749
3194.295680,-10510.924376,-1628.453072,-383.047749
3194.296018,-9400.615463,-1184.329507,-536.266849
3194.296355,-9474.636058,-888.247130,76.609550
3194.296692,-9622.677246,-888.247130,536.266849
3194.297030,-9844.739029,-1036.288319,689.485948
3194.297367,-9918.759623,-1332.370696,1302.362347
3194.297705,-10362.883188,-1184.329507,2987.772442
3194.298042,-10362.883188,-814.226536,2911.162892
3194.298379,-10288.862594,444.123565,1991.848295
3194.298717,-9992.780217,1258.350101,766.095498
3194.299054,-9622.677246,1110.308913,-306.438199
3194.299391,-9548.656652,962.267725,0.000000
3194.299729,-9474.636058,962.267725,0.000000
3194.300066,-9400.615463,1110.308913,0.000000
3194.300403,-9474.636058,1850.514855,-842.705048
3194.300741,-10214.842000,74.020594,-76.609550
3194.301078,-9770.718434,666.185348,0.000000
3194.301415,-9992.780217,-370.102971,76.609550
3194.301753,-10214.842000,148.041188,0.000000
3194.302090,-9548.656652,222.061783,-1608.800546
3194.302427,-10214.842000,-370.102971,-1608.800546
3194.302765,-10066.800811,-1332.370696,-459.657299
3194.303102,-9474.636058,-2516.700203,0.000000
3194.303440,-9918.759623,-2368.659014,1762.019645
3194.303777,-10955.047942,-2220.617826,1608.800546
3194.304114,-10807.006753,-1702.473667,919.314598
3194.304452,-11029.068536,-1850.514855,-459.657299
3194.304789,-10732.986159,-1480.411884,-306.438199
3194.305126,-9844.739029,-1480.411884,0.000000
3194.305464,-9992.780217,-814.226536,995.924147
3194.305801,-9770.718434,-888.247130,459.657299
3194.306138,-10066.800811,-962.267725,766.095498
3194.306476,-10362.883188,-740.205942,1378.971896
3194.306813,-9992.780217,-962.267725,1072.533697
3194.307150,-10955.047942,0.000000,1455.581446
3194.307488,-10658.965565,666.185348,919.314598
3194.307825,-10140.821405,888.247130,-306.438199
3194.308163,-9030.512492,1036.288319,-459.657299
3194.308500,-9696.697840,592.164754,-76.609550
3194.308837,-9992.780217,518.144159,0.000000
3194.309175,-9770.718434,74.020594,153.219100
3194.309512,-10140.821405,74.020594,689.485948
3194.309849,-10288.862594,148.041188,459.657299
3194.310187,-9548.656652,74.020594,0.000000
3194.310524,-9992.780217,740.205942,-383.047749
3194.310861,-9474.636058,0.000000,0.000000
3194.311199,-9400.615463,888.247130,-383.047749
3194.311536,-9400.615463,666.185348,0.000000
3194.311873,-9770.718434,370.102971,689.485948
3194.312211,-9696.697840,740.205942,689.485948
3194.312548,-10066.800811,222.061783,1455.581446
3194.312885,-10362.883188,1406.391290,1149.143247
3194.313223,-10436.903782,592.164754,1302.362347
3194.313560,-10140.821405,740.205942,766.095498
3194.313898,-9622.677246,888.247130,76.609550
3194.314235,-10066.800811,1110.308913,-229.828649
3194.314572,-10066.800811,0.000000,0.000000
3194.314910,-9548.656652,-1184.329507,229.828649
3194.315247,-9326.594869,-1258.350101,1455.581446
3194.315584,-10214.842000,-1776.494261,1608.800546
3194.315922,-10214.842000,-814.226536,-306.438199
3194.316259,-11029.068536,-1036.288319,-1838.629195
3194.316596,-10436.903782,-1184.329507,-2451.505594
3194.316934,-9844.739029,-2072.576638,-2451.505594
3194.317271,-9548.656652,-1480.411884,-1302.362347
3194.317608,-9622.677246,-2812.782580,229.828649
3194.317946,-9918.759623,-2886.803174,-153.219100
3194.318283,-10362.883188,-2220.617826,76.609550
3194.318620,-10584.944971,-2442.679609,842.705048
3194.318958,-10881.027347,-1850.514855,1149.143247
3194.319295,-10955.047942,-1110.308913,1532.190996
3194.319633,-10436.903782,-444.123565,1225.752797
3194.319970,-9622.677246,592.164754,1072.533697
3194.320307,-10510.924376,0.000000,689.485948
3194.320645,-10214.842000,592.164754,1532.190996
3194.320982,-10288.862594,-444.123565,2145.067394
3194.321319,-10362.883188,666.185348,2834.553343
3194.321657,-10214.842000,1702.473667,1225.752797
3194.321994,-10584.944971,1036.288319,153.219100
3194.322331,-9622.677246,1258.350101,-1225.752797
3194.322669,-8882.471304,962.267725,-1302.362347
3194.323006,-9326.594869,1184.329507,-766.095498
3194.323343,-9474.636058,740.205942,-1378.971896
3194.323681,-9326.594869,222.061783,-995.924147
3194.324018,-9178.553681,0.000000,-919.314598
3194.324355,-9844.739029,-740.205942,612.876398
3194.324693,-10066.800811,-222.061783,1149.143247
3194.325030,-10436.903782,-888.247130,842.705048
3194.325368,-9622.677246,222.061783,919.314598
3194.325705,-10140.821405,-518.144159,0.000000
3194.326042,-10436.903782,-296.082377,766.095498
3194.326380,-9844.739029,-1110.308913,1532.190996
3194.326717,-10288.862594,-1628.453072,2374.896044
3194.327054,-10510.924376,-444.123565,2528.115143
3194.327392,-10807.006753,-740.205942,1762.019645
3194.327729,-10658.965565,148.041188,1991.848295
3194.328066,-11029.068536,0.000000,459.657299
3194.328404,-10584.944971,0.000000,-689.485948
3194.328741,-9844.739029,148.041188,-919.314598
3194.329078,-10140.821405,-222.061783,-1302.362347
3194.329416,-9548.656652,-1036.288319,-1072.533697
3194.329753,-9622.677246,-1480.411884,-1455.581446
3194.330090,-9844.739029,-666.185348,-766.095498
3194.330428,-10658.965565,-1332.370696,-766.095498
3194.330765,-10288.862594,-1184.329507,-995.924147
3194.331103,-9844.739029,-1258.350101,-1302.362347
3194.331440,-9696.697840,-518.144159,-842.705048
3194.331777,-9104.533087,-370.102971,-612.876398
3194.332115,-10066.800811,-444.123565,-536.266849
3194.332452,-10140.821405,-962.267725,536.266849
3194.332789,-9918.759623,-666.185348,1838.629195
3194.333127,-10288.862594,-518.144159,3064.381992
3194.333464,-10658.965565,518.144159,2374.896044
3194.333801,-10732.986159,888.247130,842.705048
3194.334139,-9992.780217,1776.494261,612.876398
3194.334476,-9770.718434,2072.576638,0.000000
3194.334813,-9622.677246,2072.576638,153.219100
3194.335151,-9548.656652,1776.494261,459.657299
3194.335488,-9474.636058,1850.514855,-383.047749
3194.335826,-9252.574275,1776.494261,-459.657299
3194.336163,-9770.718434,666.185348,0.000000
3194.336500,-9770.718434,962.267725,76.609550
3194.336838,-9548.656652,74.020594,0.000000
3194.337175,-9696.697840,1258.350101,-459.657299
3194.337512,-9696.697840,148.041188,-1225.752797
3194.337850,-9992.780217,-592.164754,-1225.752797
3194.338187,-9474.636058,-1998.556043,153.219100
3194.338524,-8956.491898,-2886.803174,1225.752797
3194.338862,-9474.636058,-2590.720797,1991.848295
3194.339199,-10807.006753,-2368.659014,2298.286494
3194.339536,-11029.068536,-2072.576638,1225.752797
3194.339874,-10732.986159,-2072.576638,-306.438199
3194.340211,-10732.986159,-1554.432478,536.266849
3194.340548,-10140.821405,-1036.288319,536.266849
3194.340886,-9918.759623,-1628.453072,689.485948
3194.341223,-9844.739029,-1258.350101,1149.143247
3194.341561,-10066.800811,-962.267725,536.266849
3194.341898,-10807.006753,-962.267725,1302.362347
3194.342235,-11325.150913,-1110.308913,1608.800546
3194.342573,-10214.842000,-370.102971,536.266849
3194.342910,-10362.883188,148.041188,153.219100
3194.343247,-9992.780217,592.164754,-612.876398
3194.343585,-9474.636058,148.041188,-689.485948
3194.343922,-10140.821405,-222.061783,-612.876398
3194.344259,-9844.739029,0.000000,0.000000
3194.344597,-9844.739029,-592.164754,0.000000
3194.344934,-10288.862594,-444.123565,612.876398
3194.345271,-10066.800811,-888.247130,0.000000
3194.345609,-9770.718434,-370.102971,153.219100
3194.345946,-9548.656652,222.061783,-612.876398
3194.346283,-9326.594869,296.082377,-766.095498
3194.346621,-9400.615463,444.123565,-306.438199
3194.346958,-9696.697840,518.144159,-306.438199
3194.347296,-9844.739029,962.267725,536.266849
3194.347633,-9992.780217,666.185348,689.485948
3194.347970,-9474.636058,814.226536,1225.752797
3194.348308,-10658.965565,444.123565,1378.971896
3194.348645,-9992.780217,1036.288319,1225.752797
3194.348982,-9992.780217,1924.535449,612.876398
3194.349320,-10288.862594,1406.391290,229.828649
3194.349657,-10066.800811,1184.329507,0.000000
3194.349994,-9770.718434,0.000000,0.000000
3194.350332,-10066.800811,-814.226536,919.314598
3194.350669,-9400.615463,-444.123565,766.095498
3194.351006,-10955.047942,-1554.432478,1685.410096
3194.351344,-10658.965565,-518.144159,-229.828649
3194.351681,-10436.903782,-592.164754,-1915.238745
3194.352018,-10955.047942,-1184.329507,-1532.190996
3194.352356,-9548.656652,-1702.473667,-1991.848295
3194.352693,-9252.574275,-2220.617826,-612.876398
3194.353031,-9844.739029,-2072.576638,0.000000
3194.353368,-9770.718434,-2516.700203,0.000000
3194.353705,-10436.903782,-1406.391290,76.609550
3194.354043,-11177.109724,-2516.700203,1225.752797
3194.354380,-10436.903782,-1554.432478,1532.190996
3194.354717,-10658.965565,-666.185348,1838.629195
3194.355055,-10288.862594,222.061783,1455.581446
3194.355392,-9770.718434,222.061783,1225.752797
3194.355729,-10658.965565,444.123565,1302.362347
3194.356067,-10214.842000,444.123565,2221.676944
3194.356404,-10214.842000,370.102971,2681.334243
3194.356741,-10288.862594,888.247130,2451.505594
3194.357079,-10362.883188,1258.350101,1149.143247
3194.357416,-9770.718434,1554.432478,-306.438199
3194.357754,-9474.636058,1406.391290,-1149.143247
3194.358091,-9030.512492,1036.288319,-919.314598
3194.358428,-8882.471304,888.247130,-1532.190996
3194.358766,-9400.615463,740.205942,-1225.752797
3194.359103,-9252.574275,518.144159,-2221.676944
3194.359440,-8956.491898,-592.164754,-1302.362347
3194.359778,-9992.780217,-222.061783,229.828649
3194.360115,-9992.780217,-814.226536,1225.752797
3194.360452,-10436.903782,0.000000,459.657299
3194.360790,-9918.759623,-148.041188,306.438199
3194.361127,-10436.903782,74.020594,153.219100
3194.361464,-9696.697840,-962.267725,383.047749
3194.361802,-10066.800811,-888.247130,1302.362347
3194.362139,-10436.903782,-1480.411884,1838.629195
3194.362476,-10066.800811,-1184.329507,1455.581446
3194.362814,-10214.842000,-962.267725,1685.410096
3194.363151,-10732.986159,0.000000,612.876398
3194.363489,-10881.027347,-444.123565,-383.047749
3194.363826,-10362.883188,0.000000,-919.314598
3194.364163,-10066.800811,-296.082377,-1378.971896
3194.364501,-9918.759623,-962.267725,-995.924147
3194.364838,-9918.759623,-1036.288319,-689.485948
3194.365175,-9770.718434,-1924.535449,-1072.533697
3194.365513,-9992.780217,-1850.514855,-383.047749
3194.365850,-10732.986159,-1924.535449,-612.876398
3194.366187,-10510.924376,-1332.370696,-1225.752797
3194.366525,-10214.842000,-1554.432478,-459.657299
3194.366862,-9770.718434,-1036.288319,-76.609550
3194.367199,-9474.636058,-1036.288319,0.000000
3194.367537,-10732.986159,-666.185348,919.314598
3194.367874,-10362.883188,-1036.288319,842.705048
3194.368211,-10066.800811,-1406.391290,2298.286494
3194.368549,-10584.944971,-296.082377,3677.258390
3194.368886,-10732.986159,222.061783,2911.162892
3194.369224,-10955.047942,1554.432478,1302.362347
3194.369561,-9770.718434,1406.391290,612.876398
3194.369898,-9400.615463,2072.576638,383.047749
3194.370236,-9252.574275,1480.411884,842.705048
3194.370573,-9104.533087,2368.659014,612.876398
3194.370910,-9474.636058,1406.391290,229.828649
3194.371248,-9252.574275,1776.494261,0.000000
3194.371585,-9400.615463,1480.411884,612.876398
3194.371922,-10288.862594,592.164754,766.095498
3194.372260,-9400.615463,592.164754,-229.828649
3194.372597,-9622.677246,888.247130,-919.314598
3194.372934,-9696.697840,518.144159,-1302.362347
3194.373272,-9474.636058,-296.082377,-1608.800546
3194.373609,-9548.656652,-2146.597232,-229.828649
3194.373946,-9326.594869,-2812.782580,766.095498
3194.374284,-9770.718434,-2368.659014,2068.457845
3194.374621,-11029.068536,-2146.597232,1685.410096
3194.374959,-10807.006753,-1406.391290,0.000000
3194.375296,-10955.047942,-1776.494261,-383.047749
3194.375633,-11029.068536,-1332.370696,-459.657299
3194.375971,-9992.780217,-888.247130,-383.047749
3194.376308,-10140.821405,-962.267725,-229.828649
3194.376645,-10288.862594,-1036.288319,0.000000
3194.376983,-9696.697840,-1332.370696,229.828649
3194.377320,-10436.903782,-1036.288319,612.876398
3194.377657,-10881.027347,-740.205942,919.314598
3194.377995,-10807.006753,-666.185348,0.000000
3194.378332,-10584.944971,0.000000,-612.876398
3194.378669,-9696.697840,296.082377,-689.485948
3194.379007,-9770.718434,296.082377,-842.705048
3194.379344,-10140.821405,0.000000,-536.266849
3194.379681,-9992.780217,-888.247130,-459.657299
3194.380019,-9696.697840,-962.267725,612.876398
3194.380356,-10214.842000,0.000000,1149.143247
3194.380694,-10510.924376,-888.247130,919.314598
3194.381031,-9844.739029,0.000000,0.000000
3194.381368,-9400.615463,0.000000,0.000000
3194.381706,-9622.677246,666.185348,76.609550
3194.382043,-9326.594869,592.164754,0.000000
3194.382380,-9770.718434,518.144159,842.705048
3194.382718,-9844.739029,740.205942,1378.971896
3194.383055,-9548.656652,666.185348,1532.190996
3194.383392,-10140.821405,1110.308913,2068.457845
3194.383730,-10584.944971,1110.308913,1991.848295
3194.384067,-9770.718434,1406.391290,1455.581446
3194.384404,-9918.759623,1406.391290,842.705048
3194.384742,-10066.800811,2072.576638,306.438199
3194.385079,-9918.759623,1258.350101,459.657299
3194.385417,-10066.800811,74.020594,0.000000
3194.385754,-9326.594869,-962.267725,306.438199
3194.386091,-9474.636058,-1258.350101,1072.533697
3194.386429,-10436.903782,-740.205942,1149.143247
3194.386766,-10362.883188,-1258.350101,-612.876398
3194.387103,-10214.842000,-888.247130,-2221.676944
3194.387441,-10436.903782,-888.247130,-2145.067394
3194.387778,-10140.821405,-1850.514855,-2068.457845
3194.388115,-9326.594869,-2220.617826,-766.095498
3194.388453,-9844.739029,-2516.700203,76.609550
3194.388790,-10140.821405,-2368.659014,0.000000
3194.389127,-9918.759623,-2146.597232,-459.657299
3194.389465,-10955.047942,-2442.679609,1378.971896
3194.389802,-10955.047942,-2294.638420,919.314598
3194.390139,-9770.718434,-1036.288319,919.314598
3194.390477,-10510.924376,666.185348,995.924147
3194.390814,-10288.862594,0.000000,1072.533697
3194.391152,-10584.944971,222.061783,766.095498
3194.391489,-9992.780217,-296.082377,1225.752797
3194.391826,-10214.842000,148.041188,2298.286494
3194.392164,-10288.862594,962.267725,1838.629195
3194.392501,-11029.068536,1036.288319,459.657299
3194.392838,-10140.821405,1850.514855,-1532.190996
3194.393175,-9548.656652,1332.370696,-919.314598
3194.393513,-9474.636058,1628.453072,-1378.971896
3194.393850,-9030.512492,1036.288319,-1991.848295
3194.394187,-9252.574275,814.226536,-1302.362347
3194.394525,-9474.636058,0.000000,-1378.971896
3194.394862,-9178.553681,0.000000,-383.047749
3194.395199,-9548.656652,-296.082377,919.314598
3194.395537,-10214.842000,-518.144159,1072.533697
3194.395874,-9770.718434,518.144159,536.266849
3194.396211,-10288.862594,444.123565,306.438199
3194.396548,-10436.903782,444.123565,919.314598
3194.396886,-10140.821405,-1036.288319,919.314598
3194.397223,-9770.718434,-444.123565,1762.019645
3194.397560,-9992.780217,-1184.329507,3064.381992
3194.397898,-9918.759623,-1258.350101,2068.457845
3194.398235,-10288.862594,-1036.288319,2145.067394
3194.398572,-11029.068536,-888.247130,1302.362347
3194.398910,-10584.944971,222.061783,229.828649
3194.399247,-10436.903782,0.000000,-919.314598
3194.399584,-10436.903782,-148.041188,-919.314598
3194.399922,-9622.677246,-592.164754,-1225.752797
3194.400259,-10214.842000,-1480.411884,-995.924147
3194.400596,-9474.636058,-1184.329507,-766.095498
3194.400933,-10066.800811,-2368.659014,-689.485948
3194.401271,-10510.924376,-2368.659014,0.000000
3194.401608,-10214.842000,-1776.494261,-612.876398
3194.401945,-10288.862594,-1702.473667,0.000000
3194.402283,-9992.780217,-962.267725,153.219100
3194.402620,-9770.718434,-1332.370696,-76.609550
3194.402957,-10066.800811,-962.267725,689.485948
3194.403295,-9770.718434,-1480.411884,1225.752797
3194.403632,-10288.862594,-1776.494261,3370.820191
3194.403969,-10584.944971,-888.247130,3677.258390
3194.404306,-10362.883188,296.082377,3140.991542
3194.404644,-10510.924376,1184.329507,0.000000
3194.404981,-9992.780217,1332.370696,-689.485948
3194.405318,-9474.636058,1702.473667,306.438199
3194.405656,-9178.553681,1184.329507,76.609550
3194.405993,-9474.636058,1998.556043,-383.047749
3194.406330,-9474.636058,2146.597232,-1072.533697
3194.406668,-9548.656652,1554.432478,-766.095498
3194.407005,-9696.697840,1036.288319,-306.438199
3194.407342,-9844.739029,296.082377,612.876398
3194.407680,-9844.739029,1480.411884,0.000000
3194.408017,-9918.759623,1258.350101,-1685.410096
3194.408354,-10066.800811,814.226536,-1608.800546
3194.408691,-9844.739029,-518.144159,-995.924147
3194.409029,-10066.800811,-1554.432478,0.000000
3194.409366,-9622.677246,-1628.453072,919.314598
3194.409703,-9622.677246,-2442.679609,1225.752797
3194.410041,-10658.965565,-1332.370696,1685.410096
3194.410378,-11251.130318,-1776.494261,383.047749
3194.410715,-10732.986159,-1036.288319,-612.876398
3194.411053,-10510.924376,-1480.411884,459.657299
3194.411390,-10140.821405,-740.205942,306.438199
3194.411727,-9548.656652,-814.226536,459.657299
3194.412064,-10140.821405,-1332.370696,766.095498
3194.412402,-10362.883188,-1184.329507,612.876398
3194.412739,-10066.800811,-1332.370696,842.705048
3194.413076,-10807.006753,-666.185348,1532.190996
3194.413414,-10955.047942,-444.123565,536.266849
3194.413751,-10214.842000,222.061783,-536.266849
3194.414088,-9770.718434,0.000000,-383.047749
3194.414426,-9622.677246,-74.020594,-612.876398
3194.414763,-10066.800811,0.000000,0.000000
3194.415100,-9992.780217,-666.185348,0.000000
3194.415438,-9770.718434,-1110.308913,1072.533697
3194.415775,-9918.759623,-740.205942,1072.533697
3194.416112,-10807.006753,-518.144159,919.314598
3194.416449,-10140.821405,0.000000,-229.828649
3194.416787,-9622.677246,-296.082377,-536.266849
3194.417124,-9696.697840,814.226536,0.000000
3194.417461,-9474.636058,0.000000,76.609550
3194.417799,-9622.677246,888.247130,689.485948
3194.418136,-9474.636058,296.082377,1149.143247
3194.418473,-9622.677246,74.020594,1685.410096
3194.418811,-9992.780217,1036.288319,1838.629195
3194.419148,-9992.780217,888.247130,1685.410096
3194.419485,-10362.883188,1258.350101,1378.971896
3194.419822,-9548.656652,1480.411884,76.609550
3194.420160,-9918.759623,1406.391290,689.485948
3194.420497,-10066.800811,962.267725,-766.095498
3194.420834,-9474.636058,-666.185348,76.609550
3194.421172,-9474.636058,-962.267725,536.266849
3194.421509,-9326.594869,-1998.556043,842.705048
3194.421846,-10140.821405,-962.267725,842.705048
3194.422184,-11029.068536,-1036.288319,-995.924147
3194.422521,-10362.883188,-666.185348,-2911.162892
3194.422858,-10436.903782,-1628.453072,-2221.676944
3194.423196,-10066.800811,-1850.514855,-1762.019645
3194.423533,-9400.615463,-1924.535449,-1455.581446
3194.423870,-10584.944971,-2146.597232,0.000000
3194.424207,-10436.903782,-2368.659014,0.000000
3194.424545,-10066.800811,-2590.720797,0.000000
3194.424882,-11325.150913,-1776.494261,1455.581446
3194.425219,-10807.006753,-1850.514855,612.876398
3194.425557,-10288.862594,-740.205942,1378.971896
3194.425894,-9844.739029,296.082377,1072.533697
3194.426231,-10214.842000,740.205942,689.485948
3194.426569,-10658.965565,518.144159,1532.190996
3194.426906,-10658.965565,-74.020594,2145.067394
3194.427243,-9918.759623,518.144159,2681.334243
3194.427580,-10362.883188,740.205942,2221.676944
3194.427918,-10584.944971,1702.473667,919.314598
3194.428255,-10288.862594,888.247130,-612.876398
3194.428592,-9474.636058,1110.308913,-1225.752797
3194.428930,-8512.368333,1480.411884,-1149.143247
3194.429267,-9400.615463,1184.329507,-1149.143247
3194.429604,-8882.471304,296.082377,-1302.362347
3194.429942,-9030.512492,0.000000,-689.485948
3194.430279,-9400.615463,-222.061783,306.438199
3194.430616,-9474.636058,370.102971,459.657299
3194.430954,-10732.986159,-740.205942,1532.190996
3194.431291,-9844.739029,296.082377,1149.143247
3194.431628,-9622.677246,444.123565,612.876398
3194.431965,-10584.944971,296.082377,1762.019645
3194.432303,-10288.862594,-370.102971,919.314598
3194.432640,-9844.739029,-1332.370696,1762.019645
3194.432977,-10140.821405,-962.267725,2451.505594
3194.433315,-9918.759623,-814.226536,2221.676944
3194.433652,-10584.944971,-222.061783,1532.190996
3194.433989,-11251.130318,-666.185348,383.047749
3194.434327,-10288.862594,444.123565,-919.314598
3194.434664,-10140.821405,-370.102971,-1225.752797
3194.435001,-9992.780217,0.000000,-1378.971896
3194.435338,-9548.656652,-1036.288319,-995.924147
3194.435676,-9770.718434,-1776.494261,-995.924147
3194.436013,-9474.636058,-1776.494261,-1149.143247
3194.436350,-9992.780217,-2146.597232,-1608.800546
3194.436688,-10732.986159,-2368.659014,-536.266849
3194.437025,-10510.924376,-2442.679609,-919.314598
3194.437362,-9770.718434,-1702.473667,-842.705048
3194.437700,-9548.656652,-1258.350101,-612.876398
3194.438037,-9918.759623,-1184.329507,0.000000
3194.438374,-9844.739029,-1184.329507,-76.609550
3194.438712,-10288.862594,-1776.494261,1532.190996
3194.439049,-10140.821405,-1184.329507,2911.162892
3194.439386,-10288.862594,-444.123565,3064.381992
3194.439723,-10510.924376,740.205942,1685.410096
3194.440061,-10584.944971,666.185348,153.219100
3194.440398,-10066.800811,1998.556043,-153.219100
3194.440735,-9548.656652,1776.494261,0.000000
3194.441073,-9696.697840,1628.453072,153.219100
3194.441410,-9252.574275,1628.453072,-76.609550
3194.441747,-9178.553681,1924.535449,-229.828649
3194.442085,-10288.862594,1406.391290,229.828649
3194.442422,-9622.677246,1332.370696,612.876398
3194.442759,-9548.656652,222.061783,1149.143247
3194.443096,-9622.677246,1480.411884,-229.828649
3194.443434,-9474.636058,1258.350101,-1225.752797
3194.443771,-10140.821405,666.185348,-689.485948
3194.444108,-9918.759623,-1110.308913,-612.876398
3194.444446,-9474.636058,-1850.514855,842.705048
3194.444783,-9622.677246,-1776.494261,2145.067394
3194.445120,-9548.656652,-2442.679609,2145.067394
3194.445458,-10362.883188,-1776.494261,1838.629195
3194.445795,-11251.130318,-1850.514855,995.924147
3194.446132,-10214.842000,-814.226536,0.000000
3194.446470,-10288.862594,-888.247130,536.266849
3194.446807,-10214.842000,-962.267725,689.485948
3194.447144,-10214.842000,-814.226536,612.876398
3194.447481,-10288.862594,-740.205942,1149.143247
3194.447819,-10140.821405,-888.247130,612.876398
3194.448156,-10140.821405,-1554.432478,842.705048
3194.448493,-10807.006753,-444.123565,842.705048
3194.448831,-10658.965565,-222.061783,76.609550
3194.449168,-10288.862594,296.082377,-612.876398
3194.449505,-9622.677246,0.000000,-612.876398
3194.449843,-9992.780217,0.000000,-766.095498
3194.450180,-9918.759623,-666.185348,-919.314598
3194.450517,-9548.656652,-370.102971,-689.485948
3194.450854,-10066.800811,-1184.329507,689.485948
3194.451192,-10214.842000,-592.164754,536.266849
3194.451529,-10140.821405,0.000000,0.000000
3194.451866,-10288.862594,0.000000,-919.314598
3194.452204,-9474.636058,518.144159,-1455.581446
3194.452541,-9252.574275,370.102971,-995.924147
3194.452878,-9326.594869,74.020594,-306.438199
3194.453216,-9104.533087,370.102971,306.438199
3194.453553,-9696.697840,666.185348,1225.752797
3194.453890,-10436.903782,1258.350101,1225.752797
3194.454228,-9844.739029,1258.350101,1532.190996
3194.454565,-10288.862594,666.185348,1072.533697
3194.454902,-9622.677246,1776.494261,919.314598
3194.455239,-9844.739029,1554.432478,995.924147
3194.455577,-10214.842000,1406.391290,459.657299
3194.455914,-9918.759623,444.123565,-306.438199
3194.456251,-9770.718434,-370.102971,0.000000
3194.456589,-9400.615463,-1332.370696,689.485948
3194.456926,-9548.656652,-1924.535449,1608.800546
3194.457263,-10140.821405,-1554.432478,229.828649
3194.457601,-10436.903782,-1332.370696,-766.095498
3194.457938,-10214.842000,-1332.370696,-1762.019645
3194.458275,-10436.903782,-1628.453072,-995.924147
3194.458612,-9918.759623,-2294.638420,-689.485948
3194.458950,-10066.800811,-2146.597232,0.000000
3194.459287,-10214.842000,-2516.700203,459.657299
3194.459624,-9844.739029,-2960.823768,612.876398
3194.459962,-10140.821405,-3108.864956,612.876398
3194.460299,-10658.965565,-2368.659014,1455.581446
3194.460636,-10807.006753,-1776.494261,1455.581446
3194.460974,-10362.883188,-370.102971,1072.533697
3194.461311,-10140.821405,-296.082377,842.705048
3194.461648,-10140.821405,296.082377,842.705048
3194.461986,-10066.800811,0.000000,1225.752797
3194.462323,-10658.965565,-296.082377,2298.286494
3194.462660,-10214.842000,0.000000,2757.943793
3194.462997,-10140.821405,962.267725,1991.848295
3194.463335,-10732.986159,1776.494261,459.657299
3194.463672,-10436.903782,1628.453072,-1225.752797
3194.464009,-9252.574275,1332.370696,-1915.238745
3194.464347,-9252.574275,1406.391290,-1455.581446
3194.464684,-9252.574275,1554.432478,-1532.190996
3194.465021,-8660.409521,518.144159,-1838.629195
3194.465359,-9104.533087,148.041188,-612.876398
3194.465696,-9474.636058,0.000000,306.438199
3194.466033,-9844.739029,74.020594,995.924147
3194.466370,-9992.780217,518.144159,1378.971896
3194.466708,-10140.821405,222.061783,0.000000
3194.467045,-9992.780217,1332.370696,229.828649
3194.467382,-10214.842000,518.144159,612.876398
3194.467720,-10214.842000,0.000000,689.485948
3194.468057,-9918.759623,-444.123565,1762.019645
3194.468394,-10362.883188,-222.061783,1991.848295
3194.468732,-10288.862594,-370.102971,1608.800546
3194.469069,-9918.759623,-148.041188,536.266849
3194.469406,-10807.006753,222.061783,0.000000
3194.469743,-10732.986159,-296.082377,-1378.971896
3194.470081,-9474.636058,0.000000,-1685.410096
3194.470418,-10140.821405,148.041188,-1608.800546
3194.470755,-9770.718434,-1332.370696,-995.924147
3194.471093,-9918.759623,-1850.514855,-1532.190996
3194.471430,-10066.800811,-1850.514855,-919.314598
3194.471767,-10140.821405,-2220.617826,-689.485948
3194.472105,-10881.027347,-1998.556043,-1072.533697
3194.472442,-10732.986159,-2590.720797,-919.314598
3194.472779,-9622.677246,-1554.432478,-919.314598
3194.473117,-9548.656652,-1332.370696,-76.609550
3194.473454,-10140.821405,-1406.391290,536.266849
3194.473791,-10288.862594,-1036.288319,536.266849
3194.474128,-10214.842000,-1850.514855,2298.286494
3194.474466,-10510.924376,-1480.411884,3600.648841
3194.474803,-10510.924376,74.020594,3983.696590
3194.475140,-10955.047942,888.247130,1991.848295
3194.475478,-10881.027347,1110.308913,536.266849
3194.475815,-9548.656652,1850.514855,-229.828649
3194.476152,-9622.677246,1554.432478,306.438199
3194.476490,-9474.636058,1776.494261,919.314598
3194.476827,-9030.512492,962.267725,0.000000
3194.477164,-9474.636058,1332.370696,0.000000
3194.477501,-9622.677246,1258.350101,766.095498
3194.477839,-9548.656652,592.164754,536.266849
3194.478176,-9548.656652,518.144159,919.314598
3194.478513,-9548.656652,814.226536,229.828649
3194.478851,-9326.594869,1184.329507,-1225.752797
3194.479188,-10140.821405,74.020594,-1378.971896
3194.479525,-10214.842000,-1036.288319,0.000000
3194.479863,-9326.594869,-1702.473667,76.609550
3194.480200,-9548.656652,-2516.700203,1915.238745
3194.480537,-9992.780217,-1258.350101,2221.676944
3194.480875,-10658.965565,-2146.597232,842.705048
3194.481212,-11103.089130,-2146.597232,612.876398
3194.481549,-10658.965565,-962.267725,0.000000
3194.481886,-10807.006753,-962.267725,842.705048
3194.482224,-10658.965565,-444.123565,842.705048
3194.482561,-10140.821405,-740.205942,0.000000
3194.482898,-9844.739029,-1184.329507,459.657299
3194.483236,-9918.759623,-962.267725,229.828649
3194.483573,-10732.986159,-1184.329507,383.047749
3194.483910,-10658.965565,-1110.308913,0.000000
3194.484248,-10658.965565,-592.164754,0.000000
3194.484585,-9622.677246,-222.061783,-1532.190996
3194.484922,-9252.574275,0.000000,-1302.362347
3194.485259,-9992.780217,-148.041188,-612.876398
3194.485597,-10066.800811,-1258.350101,-1149.143247
3194.485934,-9770.718434,-666.185348,76.609550
3194.486271,-10066.800811,-962.267725,459.657299
3194.486609,-10362.883188,-888.247130,1149.143247
3194.486946,-10584.944971,-296.082377,0.000000
3194.487283,-10066.800811,0.000000,-1072.533697
3194.487621,-9622.677246,888.247130,-1378.971896
3194.487958,-9400.615463,296.082377,-1149.143247
3194.488295,-9474.636058,370.102971,153.219100
3194.488633,-9252.574275,0.000000,842.705048
3194.488970,-9696.697840,888.247130,1532.190996
3194.489307,-9918.759623,1554.432478,1915.238745
3194.489644,-10214.842000,1036.288319,842.705048
3194.489982,-10214.842000,1850.514855,1685.410096
3194.490319,-9992.780217,1702.473667,1378.971896
3194.490656,-9770.718434,2738.761985,612.876398
3194.490994,-10436.903782,1628.453072,-229.828649
3194.491331,-10732.986159,814.226536,0.000000
3194.491668,-9104.533087,-296.082377,-229.828649
3194.492005,-9474.636058,-1184.329507,1302.362347
3194.492343,-9770.718434,-1258.350101,1455.581446
3194.492680,-9770.718434,-1406.391290,0.000000
3194.493017,-9770.718434,-1184.329507,-1225.752797
3194.493355,-10140.821405,-1036.288319,-2298.286494
3194.493692,-9696.697840,-1480.411884,-1838.629195
3194.494029,-9992.780217,-1998.556043,-842.705048
3194.494367,-9622.677246,-2368.659014,229.828649
3194.494704,-9992.780217,-2146.597232,842.705048
3194.495041,-10436.903782,-2664.741391,1149.143247
3194.495378,-10658.965565,-2664.741391,1072.533697
3194.495716,-10658.965565,-2220.617826,842.705048
3194.496053,-10732.986159,-1554.432478,1608.800546
3194.496390,-10288.862594,0.000000,842.705048
3194.496728,-10140.821405,0.000000,229.828649
3194.497065,-10066.800811,148.041188,459.657299
3194.497402,-10362.883188,-296.082377,1072.533697
3194.497739,-10584.944971,296.082377,2068.457845
3194.498077,-10510.924376,370.102971,2374.896044
3194.498414,-10436.903782,888.247130,1608.800546
3194.498751,-10436.903782,962.267725,0.000000
3194.499089,-10214.842000,1480.411884,-995.924147
3194.499426,-9770.718434,888.247130,-1685.410096
3194.499763,-9030.512492,1110.308913,-1991.848295
3194.500101,-9030.512492,740.205942,-1685.410096
3194.500438,-9104.533087,222.061783,-2221.676944
3194.500775,-9178.553681,0.000000,-536.266849
3194.501112,-9474.636058,0.000000,842.705048
3194.501450,-9770.718434,-296.082377,919.314598
3194.501787,-9622.677246,740.205942,1149.143247
3194.502124,-10510.924376,666.185348,919.314598
3194.502462,-9918.759623,1110.308913,1072.533697
3194.502799,-10214.842000,0.000000,1302.362347
3194.503136,-10288.862594,0.000000,1532.190996
3194.503473,-9548.656652,-518.144159,2068.457845
3194.503811,-10288.862594,-74.020594,3064.381992
3194.504148,-10362.883188,-370.102971,1991.848295
3194.504485,-9992.780217,-740.205942,842.705048
3194.504823,-10658.965565,296.082377,306.438199
3194.505160,-10362.883188,592.164754,-229.828649
3194.505497,-10140.821405,222.061783,-1302.362347
3194.505834,-9696.697840,-518.144159,-1302.362347
3194.506172,-9992.780217,-962.267725,-1072.533697
3194.506509,-9844.739029,-1480.411884,-689.485948
3194.506846,-10140.821405,-2368.659014,-842.705048
3194.507184,-10066.800811,-1924.535449,-459.657299
3194.507521,-10807.006753,-2220.617826,-766.095498
3194.507858,-10436.903782,-1332.370696,-995.924147
3194.508196,-9770.718434,-2072.576638,-842.705048
3194.508533,-9844.739029,-1554.432478,-383.047749
3194.508870,-9770.718434,-1480.411884,-766.095498
3194.509207,-10436.903782,-1406.391290,536.266849
3194.509545,-10066.800811,-1776.494261,1762.019645
3194.509882,-10066.800811,-1184.329507,3064.381992
3194.510219,-10807.006753,-518.144159,3753.867940
3194.510557,-10362.883188,1628.453072,1762.019645
3194.510894,-11029.068536,962.267725,536.266849
3194.511231,-9770.718434,1776.494261,-1072.533697
3194.511568,-9178.553681,1628.453072,-306.438199
3194.511906,-9696.697840,1480.411884,995.924147
3194.512243,-8882.471304,1258.350101,-612.876398
3194.512580,-9252.574275,1332.370696,0.000000
3194.512918,-9770.718434,1110.308913,459.657299
3194.513255,-9178.553681,592.164754,383.047749
3194.513592,-9770.718434,740.205942,153.219100
3194.513929,-9252.574275,888.247130,-383.047749
3194.514267,-9474.636058,1628.453072,-1302.362347
3194.514604,-10214.842000,-74.020594,-1149.143247
3194.514941,-9992.780217,-592.164754,-612.876398
3194.515279,-9474.636058,-1924.535449,612.876398
3194.515616,-10214.842000,-2146.597232,1378.971896
3194.515953,-10288.862594,-1776.494261,1455.581446
3194.516291,-10658.965565,-1702.473667,459.657299
3194.516628,-10732.986159,-1036.288319,536.266849
3194.516965,-10510.924376,-1480.411884,153.219100
3194.517302,-9992.780217,-592.164754,229.828649
3194.517640,-10807.006753,-814.226536,536.266849
3194.517977,-10658.965565,-296.082377,0.000000
3194.518314,-10436.903782,-888.247130,0.000000
3194.518652,-10288.862594,-1036.288319,766.095498
3194.518989,-10362.883188,-888.247130,842.705048
3194.519326,-10436.903782,-1036.288319,536.266849
3194.519663,-10510.924376,0.000000,0.000000
3194.520001,-10214.842000,-666.185348,-1072.533697
3194.520338,-9844.739029,0.000000,-995.924147
3194.520675,-10066.800811,-296.082377,-842.705048
3194.521013,-10214.842000,-1036.288319,-612.876398
3194.521350,-9474.636058,-1480.411884,536.266849
3194.521687,-9770.718434,-1110.308913,1302.362347
3194.522024,-10510.924376,-518.144159,1762.019645
3194.522362,-10955.047942,518.144159,0.000000
3194.522699,-10436.903782,0.000000,-76.609550
3194.523036,-10066.800811,888.247130,-766.095498
3194.523374,-9252.574275,222.061783,229.828649
3194.523711,-9696.697840,962.267725,1302.362347
3194.524048,-9548.656652,370.102971,1225.752797
3194.524386,-9548.656652,1258.350101,1378.971896
3194.524723,-10214.842000,1776.494261,2374.896044
3194.525060,-10066.800811,1036.288319,1225.752797
3194.525397,-9992.780217,1776.494261,2451.505594
3194.525735,-9918.759623,1332.370696,1838.629195
3194.526072,-9474.636058,2886.803174,612.876398
3194.526409,-9918.759623,1776.494261,-383.047749
3194.526747,-10362.883188,592.164754,76.609550
3194.527084,-9326.594869,-444.123565,-612.876398
3194.527421,-9326.594869,-1332.370696,842.705048
3194.527758,-9400.615463,-888.247130,459.657299
3194.528096,-9622.677246,-1702.473667,-766.095498
3194.528433,-9918.759623,-962.267725,-1991.848295
3194.528770,-9770.718434,-2072.576638,-2374.896044
3194.529108,-9918.759623,-1554.432478,-1455.581446
3194.529445,-9844.739029,-2146.597232,-919.314598
3194.529782,-10658.965565,-2442.679609,383.047749
3194.530119,-10288.862594,-2664.741391,306.438199
3194.530457,-10066.800811,-2368.659014,383.047749
3194.530794,-11177.109724,-2886.803174,1072.533697
3194.531131,-10881.027347,-1554.432478,229.828649
3194.531469,-10362.883188,-1406.391290,459.657299
3194.531806,-10510.924376,-518.144159,383.047749
3194.532143,-10066.800811,222.061783,-306.438199
3194.532481,-10214.842000,-370.102971,536.266849
3194.532818,-10436.903782,-740.205942,1225.752797
3194.533155,-9622.677246,-370.102971,2298.286494
3194.533492,-10658.965565,444.123565,2451.505594
3194.533830,-11103.089130,1110.308913,1455.581446
3194.534167,-10362.883188,962.267725,-306.438199
3194.534504,-10214.842000,518.144159,-919.314598
3194.534842,-9474.636058,1184.329507,-1455.581446
3194.535179,-9178.553681,1406.391290,-1532.190996
3194.535516,-8734.430116,148.041188,-1378.971896
3194.535853,-8882.471304,0.000000,-1072.533697
3194.536191,-9326.594869,-370.102971,153.219100
3194.536528,-9474.636058,0.000000,1302.362347
3194.536865,-10362.883188,74.020594,1762.019645
3194.537203,-9622.677246,370.102971,1608.800546
3194.537540,-9918.759623,1110.308913,1762.019645
3194.537877,-9992.780217,666.185348,1532.190996
3194.538215,-10362.883188,370.102971,1838.629195
3194.538552,-10436.903782,-148.041188,1991.848295
3194.538889,-10214.842000,-296.082377,2145.067394
3194.539226,-10288.862594,-74.020594,2298.286494
3194.539564,-10807.006753,0.000000,1915.238745
3194.539901,-10510.924376,-370.102971,1072.533697
3194.540238,-10510.924376,222.061783,-612.876398
3194.540576,-10362.883188,592.164754,-612.876398
3194.540913,-10066.800811,222.061783,-1762.019645
3194.541250,-9696.697840,-888.247130,-766.095498
3194.541587,-10288.862594,-1406.391290,0.000000
3194.541925,-9770.718434,-1554.432478,-229.828649
3194.542262,-9918.759623,-2220.617826,-766.095498
3194.542599,-10436.903782,-2516.700203,-766.095498
3194.542937,-10288.862594,-2664.741391,-1302.362347
3194.543274,-9696.697840,-2072.576638,-1149.143247
3194.543611,-9844.739029,-1850.514855,-306.438199
3194.543948,-9622.677246,-1702.473667,-766.095498
3194.544286,-10066.800811,-1850.514855,-995.924147
3194.544623,-9844.739029,-1480.411884,306.438199
3194.544960,-9918.759623,-1480.411884,1915.238745
3194.545298,-10658.965565,-666.185348,3600.648841
3194.545635,-11103.089130,444.123565,2298.286494
3194.545972,-10955.047942,1258.350101,536.266849
3194.546310,-10881.027347,2072.576638,-612.876398
3194.546647,-10362.883188,1702.473667,-536.266849
3194.546984,-9844.739029,2220.617826,0.000000
3194.547321,-9474.636058,1998.556043,0.000000
3194.547659,-9548.656652,1998.556043,-459.657299
3194.547996,-9252.574275,1998.556043,-842.705048
3194.548333,-9622.677246,1110.308913,536.266849
3194.548671,-9992.780217,444.123565,1149.143247
3194.549008,-9474.636058,1184.329507,76.609550
3194.549345,-9696.697840,2146.597232,0.000000
3194.549682,-10066.800811,1110.308913,-383.047749
3194.550020,-9548.656652,-222.061783,-766.095498
3194.550357,-9844.739029,-888.247130,76.609550
3194.550694,-9104.533087,-1776.494261,1685.410096
3194.551032,-10066.800811,-2072.576638,2068.457845
3194.551369,-9992.780217,-2368.659014,1455.581446
3194.551706,-10436.903782,-1776.494261,612.876398
3194.552043,-10436.903782,-1184.329507,0.000000
3194.552381,-10436.903782,-1554.432478,76.609550
3194.552718,-9918.759623,-592.164754,76.609550
3194.553055,-10362.883188,-1036.288319,766.095498
3194.553393,-10214.842000,-1036.288319,536.266849
3194.553730,-10288.862594,-740.205942,383.047749
3194.554067,-10362.883188,-1628.453072,612.876398
3194.554405,-10732.986159,-1628.453072,536.266849
3194.554742,-10436.903782,-1036.288319,306.438199
3194.555079,-10288.862594,-888.247130,-842.705048
3194.555416,-10140.821405,-962.267725,-919.314598
3194.555754,-9622.677246,-1110.308913,-1378.971896
3194.556091,-9992.780217,-1110.308913,-1149.143247
3194.556428,-10140.821405,-962.267725,-612.876398
3194.556766,-9770.718434,-1998.556043,0.000000
3194.557103,-10584.944971,-1258.350101,1225.752797
3194.557440,-10510.924376,-1332.370696,1149.143247
3194.557777,-10436.903782,-74.020594,-689.485948
3194.558115,-10066.800811,0.000000,-536.266849
3194.558452,-9622.677246,-518.144159,-766.095498
3194.558789,-9104.533087,0.000000,0.000000
3194.559127,-9474.636058,74.020594,689.485948
3194.559464,-9770.718434,592.164754,1991.848295
3194.559801,-9474.636058,1554.432478,2145.067394
3194.560138,-9622.677246,1036.288319,1915.238745
3194.560476,-9992.780217,1702.473667,1685.410096
3194.560813,-9918.759623,1850.514855,2145.067394
3194.561150,-9918.759623,2664.741391,2374.896044
3194.561488,-10066.800811,2368.659014,459.657299
3194.561825,-9770.718434,1924.535449,306.438199
3194.562162,-10140.821405,1036.288319,229.828649
3194.562500,-9474.636058,296.082377,383.047749
3194.562837,-9400.615463,-1184.329507,1378.971896
3194.563174,-9474.636058,-370.102971,995.924147
3194.563511,-9992.780217,-666.185348,-995.924147
3194.563849,-10510.924376,-74.020594,-1991.848295
3194.564186,-9844.739029,-1110.308913,-1302.362347
3194.564523,-9622.677246,-1406.391290,-1378.971896
3194.564861,-9992.780217,-1036.288319,0.000000
3194.565198,-10214.842000,-1776.494261,536.266849
3194.565535,-10362.883188,-2516.700203,459.657299
3194.565872,-10288.862594,-2220.617826,459.657299
3194.566210,-10955.047942,-2072.576638,612.876398
3194.566547,-10955.047942,-1258.350101,1455.581446
3194.566884,-10807.006753,-1036.288319,383.047749
3194.567222,-10066.800811,-444.123565,0.000000
3194.567559,-9696.697840,222.061783,0.000000
3194.567896,-10362.883188,0.000000,689.485948
3194.568233,-10362.883188,0.000000,1455.581446
3194.568571,-9844.739029,-222.061783,1915.238745
3194.568908,-10510.924376,444.123565,2068.457845
3194.569245,-10881.027347,962.267725,459.657299
3194.569583,-10584.944971,962.267725,-1072.533697
3194.569920,-10066.800811,1184.329507,-1762.019645
3194.570257,-9474.636058,740.205942,-1608.800546
3194.570595,-8956.491898,1110.308913,-1762.019645
3194.570932,-8882.471304,-148.041188,-1762.019645
3194.571269,-8956.491898,0.000000,-536.266849
3194.571606,-8956.491898,-740.205942,-536.266849
3194.571944,-9474.636058,148.041188,612.876398
3194.572281,-9844.739029,0.000000,1378.971896
3194.572618,-9696.697840,74.020594,1225.752797
3194.572956,-9548.656652,962.267725,1302.362347
3194.573293,-10214.842000,592.164754,1685.410096
3194.573630,-10066.800811,888.247130,1915.238745
3194.573967,-10658.965565,-148.041188,2145.067394
3194.574305,-10140.821405,-370.102971,2451.505594
3194.574642,-9696.697840,-592.164754,2145.067394
3194.574979,-10732.986159,-296.082377,1455.581446
3194.575317,-10214.842000,-518.144159,536.266849
3194.575654,-9992.780217,-592.164754,-612.876398
3194.575991,-10214.842000,0.000000,-766.095498
3194.576329,-9992.780217,-222.061783,-1302.362347
3194.576666,-9918.759623,-814.226536,-383.047749
3194.577003,-10436.903782,-1406.391290,-689.485948
3194.577340,-9918.759623,-2294.638420,-612.876398
3194.577678,-9622.677246,-2220.617826,-689.485948
3194.578015,-10436.903782,-2664.741391,-766.095498
3194.578352,-10436.903782,-3256.906145,-612.876398
3194.578690,-10140.821405,-2812.782580,-766.095498
3194.579027,-9770.718434,-1850.514855,-766.095498
3194.579364,-10436.903782,-1776.494261,76.609550
3194.579701,-10658.965565,-1628.453072,-536.266849
3194.580039,-9992.780217,-2220.617826,1072.533697
3194.580376,-10362.883188,-1998.556043,2451.505594
3194.580713,-10288.862594,-1258.350101,3983.696590
3194.581051,-11177.109724,370.102971,2987.772442
3194.581388,-11325.150913,814.226536,689.485948
3194.581725,-10436.903782,1702.473667,-76.609550
3194.582062,-10584.944971,1850.514855,229.828649
3194.582400,-9548.656652,1776.494261,0.000000
3194.582737,-8808.450710,1110.308913,-229.828649
3194.583074,-9474.636058,1924.535449,-383.047749
3194.583412,-8882.471304,1480.411884,-842.705048
3194.583749,-9844.739029,1480.411884,689.485948
3194.584086,-9844.739029,1036.288319,919.314598
3194.584424,-9252.574275,1258.350101,153.219100
3194.584761,-9400.615463,2220.617826,-689.485948
3194.585098,-9844.739029,962.267725,-919.314598
3194.585435,-9918.759623,518.144159,383.047749
3194.585773,-9474.636058,-740.205942,383.047749
3194.586110,-9548.656652,-1184.329507,1532.190996
3194.586447,-9844.739029,-666.185348,1838.629195
3194.586785,-10584.944971,-1184.329507,1225.752797
3194.587122,-10436.903782,-962.267725,76.609550
3194.587459,-10066.800811,-1184.329507,0.000000
3194.587796,-9918.759623,296.082377,0.000000
3194.588134,-10510.924376,-370.102971,612.876398
3194.588471,-10584.944971,74.020594,842.705048
3194.588808,-10066.800811,-296.082377,459.657299
3194.589146,-10436.903782,-296.082377,306.438199
3194.589483,-10214.842000,-666.185348,459.657299
3194.589820,-10584.944971,-666.185348,0.000000
3194.590157,-10807.006753,-1036.288319,76.609550
3194.590495,-9992.780217,296.082377,-1455.581446
3194.590832,-10214.842000,-592.164754,-612.876398
3194.591169,-9992.780217,-740.205942,-1608.800546
3194.591507,-9844.739029,-1184.329507,-1762.019645
3194.591844,-9622.677246,-1036.288319,153.219100
3194.592181,-9696.697840,-1554.432478,459.657299
3194.592519,-9844.739029,-1184.329507,1532.190996
3194.592856,-10807.006753,-1184.329507,766.095498
3194.593193,-10658.965565,-296.082377,-306.438199
3194.593530,-9992.780217,0.000000,-995.924147
3194.593868,-9918.759623,296.082377,76.609550
3194.594205,-9104.533087,74.020594,153.219100
3194.594542,-9474.636058,-666.185348,1149.143247
3194.594880,-9548.656652,666.185348,2068.457845
3194.595217,-9770.718434,518.144159,1072.533697
3194.595555,-10807.006753,222.061783,1532.190996
3194.595892,-10066.800811,1554.432478,2145.067394
3194.596230,-9474.636058,1258.350101,1838.629195
3194.596567,-9992.780217,2590.720797,1991.848295
3194.596904,-10066.800811,1554.432478,612.876398
3194.597242,-9770.718434,1628.453072,306.438199
3194.597579,-10288.862594,-370.102971,229.828649
3194.597917,-9622.677246,0.000000,1072.533697
3194.598254,-9770.718434,-1110.308913,612.876398
3194.598592,-10214.842000,-1258.350101,306.438199
3194.598929,-9400.615463,-1036.288319,-1685.410096
3194.599266,-9622.677246,-1702.473667,-1991.848295
3194.599604,-10066.800811,-1110.308913,-1378.971896
3194.599941,-9918.759623,-2146.597232,-1072.533697
3194.600279,-10288.862594,-1924.535449,0.000000
3194.600616,-10288.862594,-1628.453072,229.828649
3194.600953,-10881.027347,-2664.741391,766.095498
3194.601291,-10140.821405,-2886.803174,536.266849
3194.601628,-10436.903782,-2590.720797,612.876398
3194.601966,-10732.986159,-2072.576638,1838.629195
3194.602303,-10658.965565,-962.267725,76.609550
3194.602641,-9770.718434,-962.267725,0.000000
3194.602978,-10584.944971,0.000000,-153.219100
3194.603315,-9918.759623,-592.164754,0.000000
3194.603653,-10214.842000,-148.041188,1532.190996
3194.603990,-9992.780217,-518.144159,2145.067394
3194.604328,-10066.800811,222.061783,1762.019645
3194.604665,-10881.027347,740.205942,612.876398
3194.605003,-10881.027347,1110.308913,-1378.971896
3194.605340,-10288.862594,1480.411884,-1685.410096
3194.605677,-9918.759623,296.082377,-1762.019645
3194.606015,-8734.430116,814.226536,-1838.629195
3194.606352,-8808.450710,296.082377,-1532.190996
3194.606690,-8956.491898,296.082377,-459.657299
3194.607027,-9474.636058,148.041188,-842.705048
3194.607365,-10140.821405,370.102971,1455.581446
3194.607702,-10214.842000,592.164754,1149.143247
3194.608039,-9400.615463,814.226536,1225.752797
3194.608377,-9622.677246,1480.411884,1532.190996
3194.608714,-9918.759623,962.267725,1685.410096
3194.609052,-10362.883188,1480.411884,2145.067394
3194.609389,-10066.800811,518.144159,2068.457845
3194.609727,-10658.965565,592.164754,2681.334243
3194.610064,-10066.800811,-222.061783,1991.848295
3194.610401,-10214.842000,370.102971,1378.971896
3194.610739,-9992.780217,0.000000,689.485948
3194.611076,-9918.759623,888.247130,-689.485948
3194.611414,-9474.636058,518.144159,-1455.581446
3194.611751,-10214.842000,0.000000,-919.314598
3194.612089,-9622.677246,-592.164754,-383.047749
3194.612426,-10362.883188,-1036.288319,-766.095498
3194.612763,-10140.821405,-1628.453072,-229.828649
3194.613101,-9548.656652,-2072.576638,-1225.752797
3194.613438,-10584.944971,-2812.782580,-842.705048
3194.613776,-10510.924376,-2146.597232,-995.924147
3194.614113,-10214.842000,-1850.514855,-766.095498
3194.614450,-10214.842000,-1924.535449,-536.266849
3194.614788,-10066.800811,-1702.473667,-842.705048
3194.615125,-10140.821405,-1924.535449,-229.828649
3194.615463,-10214.842000,-2294.638420,1455.581446
3194.615800,-9918.759623,-1702.473667,2374.896044
3194.616138,-10732.986159,-666.185348,3370.820191
3194.616475,-11029.068536,370.102971,2451.505594
3194.616812,-11325.150913,962.267725,306.438199
3194.617150,-10362.883188,814.226536,-76.609550
3194.617487,-10362.883188,1406.391290,153.219100
3194.617825,-9548.656652,1110.308913,229.828649
3194.618162,-9030.512492,1184.329507,-689.485948
3194.618500,-8586.388927,1258.350101,-995.924147
3194.618837,-9400.615463,666.185348,-536.266849
3194.619174,-9622.677246,1184.329507,229.828649
3194.619512,-10066.800811,814.226536,229.828649
3194.619849,-9474.636058,740.205942,0.000000
3194.620187,-9252.574275,1184.329507,-383.047749
3194.620524,-9474.636058,666.185348,-306.438199
3194.620862,-10140.821405,74.020594,76.609550
3194.621199,-9474.636058,-1406.391290,612.876398
3194.621536,-9770.718434,-1480.411884,2451.505594
3194.621874,-9992.780217,-1554.432478,2451.505594
3194.622211,-10436.903782,-1406.391290,1608.800546
3194.622549,-10436.903782,-1184.329507,383.047749
3194.622886,-9918.759623,-1258.350101,0.000000
3194.623224,-9770.718434,-222.061783,0.000000
3194.623561,-10436.903782,74.020594,1225.752797
3194.623898,-10362.883188,0.000000,459.657299
3194.624236,-10362.883188,-518.144159,0.000000
3194.624573,-10214.842000,-592.164754,306.438199
3194.624911,-10140.821405,-666.185348,383.047749
3194.625248,-11029.068536,-666.185348,459.657299
3194.625586,-10732.986159,-962.267725,0.000000
3194.625923,-9770.718434,-518.144159,-919.314598
3194.626260,-10066.800811,-222.061783,-1302.362347
3194.626598,-10288.862594,-888.247130,-1378.971896
3194.626935,-9844.739029,-962.267725,-1225.752797
3194.627273,-9474.636058,-1628.453072,-153.219100
3194.627610,-9770.718434,-1998.556043,459.657299
3194.627947,-9548.656652,-1184.329507,766.095498
3194.628285,-10807.006753,-888.247130,0.000000
3194.628622,-10436.903782,-444.123565,-995.924147
3194.628960,-9770.718434,222.061783,-1685.410096
3194.629297,-9844.739029,518.144159,-383.047749
3194.629635,-9918.759623,0.000000,306.438199
3194.629972,-9178.553681,-370.102971,842.705048
3194.630309,-9548.656652,444.123565,1608.800546
3194.630647,-9696.697840,888.247130,1608.800546
3194.630984,-10288.862594,1036.288319,1532.190996
3194.631322,-10214.842000,1332.370696,1915.238745
3194.631659,-9548.656652,1554.432478,1455.581446
3194.631997,-9548.656652,2886.803174,1455.581446
3194.632334,-9622.677246,2368.659014,536.266849
3194.632671,-9918.759623,1332.370696,0.000000
3194.633009,-9844.739029,0.000000,153.219100
3194.633346,-9622.677246,-444.123565,1225.752797
3194.633684,-9844.739029,-592.164754,842.705048
3194.634021,-10066.800811,-962.267725,-153.219100
3194.634359,-10288.862594,-666.185348,-1532.190996
3194.634696,-9622.677246,-1406.391290,-1991.848295
3194.635033,-9844.739029,-1480.411884,-1608.800546
3194.635371,-9770.718434,-1554.432478,-383.047749
3194.635708,-9918.759623,-1554.432478,-766.095498
3194.636046,-10066.800811,-2368.659014,153.219100
3194.636383,-10436.903782,-1924.535449,76.609550
3194.636721,-10288.862594,-2812.782580,459.657299
3194.637058,-10955.047942,-2368.659014,766.095498
3194.637395,-10584.944971,-1776.494261,1149.143247
3194.637733,-10436.903782,-740.205942,536.266849
3194.638070,-10140.821405,-148.041188,306.438199
3194.638408,-10881.027347,-296.082377,612.876398
3194.638745,-10807.006753,-444.123565,536.266849
3194.639083,-9770.718434,-74.020594,1302.362347
3194.639420,-9696.697840,0.000000,2604.724693
3194.639757,-10955.047942,370.102971,1608.800546
3194.640095,-10288.862594,0.000000,612.876398
3194.640432,-10214.842000,1332.370696,-842.705048
3194.640770,-10140.821405,740.205942,-1225.752797
3194.641107,-9696.697840,1258.350101,-1455.581446
3194.641444,-9474.636058,74.020594,-1991.848295
3194.641782,-8734.430116,-222.061783,-919.314598
3194.642119,-9474.636058,0.000000,-153.219100
3194.642457,-9548.656652,-370.102971,459.657299
3194.642794,-9844.739029,-518.144159,995.924147
3194.643132,-9696.697840,0.000000,919.314598
3194.643469,-9474.636058,518.144159,1532.190996
3194.643806,-9696.697840,1480.411884,1532.190996
3194.644144,-9696.697840,1036.288319,1991.848295
3194.644481,-10214.842000,222.061783,1072.533697
3194.644819,-9992.780217,518.144159,1838.629195
3194.645156,-9992.780217,0.000000,2068.457845
3194.645494,-10140.821405,-592.164754,1838.629195
3194.645831,-9992.780217,0.000000,1149.143247
3194.646168,-10214.842000,0.000000,-536.266849
3194.646506,-9918.759623,518.144159,-1378.971896
3194.646843,-9918.759623,222.061783,-2298.286494
3194.647181,-9622.677246,-444.123565,-1762.019645
3194.647518,-9918.759623,-666.185348,-1072.533697
3194.647856,-10362.883188,-962.267725,-842.705048
3194.648193,-10140.821405,-1480.411884,-1532.190996
3194.648530,-9844.739029,-2590.720797,-1149.143247
3194.648868,-10658.965565,-2516.700203,-842.705048
3194.649205,-10362.883188,-2368.659014,-612.876398
3194.649543,-10288.862594,-1850.514855,-995.924147
3194.649880,-10288.862594,-1184.329507,-1072.533697
3194.650218,-10436.903782,-1702.473667,-459.657299
3194.650555,-10362.883188,-1406.391290,-612.876398
3194.650892,-10140.821405,-1998.556043,1378.971896
3194.651230,-10658.965565,-740.205942,4213.525239
3194.651567,-10140.821405,-592.164754,3753.867940
3194.651905,-10955.047942,296.082377,2145.067394
3194.652242,-10955.047942,1406.391290,459.657299
3194.652580,-10436.903782,1554.432478,-153.219100
3194.652917,-9992.780217,1702.473667,306.438199
3194.653254,-9622.677246,1480.411884,612.876398
3194.653592,-8586.388927,1924.535449,0.000000
3194.653929,-9178.553681,1258.350101,-1225.752797
3194.654267,-9622.677246,1184.329507,229.828649
3194.654604,-9178.553681,518.144159,383.047749
3194.654941,-9622.677246,1332.370696,1149.143247
3194.655279,-9326.594869,1406.391290,689.485948
3194.655616,-8956.491898,1184.329507,-459.657299
3194.655954,-9770.718434,962.267725,383.047749
3194.656291,-9770.718434,-444.123565,612.876398
3194.656629,-9918.759623,-444.123565,2298.286494
3194.656966,-10362.883188,-1258.350101,2451.505594
3194.657303,-10214.842000,-1406.391290,1991.848295
3194.657641,-10732.986159,-1480.411884,1072.533697
3194.657978,-10510.924376,-1110.308913,229.828649
3194.658316,-10214.842000,-666.185348,0.000000
3194.658653,-9844.739029,-1406.391290,-459.657299
3194.658991,-9992.780217,0.000000,76.609550
3194.659328,-10362.883188,-814.226536,0.000000
3194.659665,-10436.903782,-888.247130,0.000000
3194.660003,-10214.842000,-1332.370696,0.000000
3194.660340,-10881.027347,-962.267725,76.609550
3194.660678,-10288.862594,-962.267725,0.000000
3194.661015,-10510.924376,-1110.308913,-995.924147
3194.661353,-9992.780217,-1332.370696,-1608.800546
3194.661690,-9548.656652,-962.267725,-2451.505594
3194.662027,-10288.862594,-1332.370696,-1455.581446
3194.662365,-10140.821405,-1332.370696,-1991.848295
3194.662702,-9326.594869,-2442.679609,-1072.533697
3194.663040,-9844.739029,-1850.514855,383.047749
3194.663377,-9474.636058,-1850.514855,689.485948
3194.663715,-10732.986159,-592.164754,612.876398
3194.664052,-10881.027347,-296.082377,-536.266849
3194.664389,-9918.759623,0.000000,-1149.143247
3194.664727,-10066.800811,518.144159,-612.876398
3194.665064,-9918.759623,-296.082377,766.095498
3194.665402,-9252.574275,740.205942,1608.800546
3194.665739,-9326.594869,370.102971,1302.362347
3194.666077,-9844.739029,1332.370696,1991.848295
3194.666414,-9918.759623,1850.514855,1378.971896
3194.666751,-10584.944971,1702.473667,1991.848295
3194.667089,-9770.718434,2516.700203,1685.410096
3194.667426,-9252.574275,2146.597232,1302.362347
3194.667764,-9548.656652,2886.803174,612.876398
3194.668101,-9844.739029,1036.288319,842.705048
3194.668438,-9844.739029,518.144159,1532.190996
3194.668776,-9548.656652,-518.144159,1455.581446
3194.669113,-10066.800811,0.000000,1302.362347
3194.669451,-10066.800811,-370.102971,153.219100
3194.669788,-10066.800811,-888.247130,-1532.190996
3194.670126,-9474.636058,-1480.411884,-1608.800546
3194.670463,-9474.636058,-962.267725,-1455.581446
3194.670800,-9474.636058,-1850.514855,153.219100
3194.671138,-10510.924376,-1258.350101,-612.876398
3194.671475,-10066.800811,-1998.556043,-536.266849
3194.671813,-10362.883188,-2368.659014,689.485948
3194.672150,-11029.068536,-2294.638420,1149.143247
3194.672488,-10362.883188,-2072.576638,1378.971896
3194.672825,-10807.006753,-1628.453072,1378.971896
3194.673162,-10584.944971,-370.102971,612.876398
3194.673500,-10214.842000,-444.123565,-459.657299
3194.673837,-10807.006753,-370.102971,0.000000
3194.674175,-10288.862594,-518.144159,0.000000
3194.674512,-9844.739029,-1554.432478,766.095498
3194.674850,-10140.821405,148.041188,2298.286494
3194.675187,-10140.821405,0.000000,995.924147
3194.675524,-10955.047942,444.123565,-536.266849
3194.675862,-10066.800811,740.205942,-1838.629195
3194.676199,-9622.677246,592.164754,-2451.505594
3194.676537,-9474.636058,1184.329507,-2145.067394
3194.676874,-9252.574275,-592.164754,-1685.410096
3194.677212,-8438.347739,296.082377,-842.705048
3194.677549,-9474.636058,-666.185348,-383.047749
3194.677886,-9474.636058,222.061783,306.438199
3194.678224,-9992.780217,-296.082377,229.828649
3194.678561,-10436.903782,148.041188,1072.533697
3194.678899,-9696.697840,962.267725,1072.533697
3194.679236,-9696.697840,1258.350101,1762.019645
3194.679574,-10214.842000,1702.473667,2145.067394
3194.679911,-10214.842000,296.082377,2145.067394
3194.680248,-10140.821405,0.000000,2834.553343
3194.680586,-9992.780217,444.123565,2757.943793
3194.680923,-11029.068536,296.082377,3064.381992
3194.681261,-10362.883188,0.000000,1838.629195
3194.681598,-9770.718434,148.041188,-766.095498
3194.681935,-9918.759623,444.123565,-919.314598
3194.682273,-10140.821405,370.102971,-1608.800546
3194.682610,-9178.553681,-222.061783,-1072.533697
3194.682948,-9918.759623,-1628.453072,-995.924147
3194.683285,-9326.594869,-1258.350101,-1149.143247
3194.683623,-10436.903782,-1776.494261,-842.705048
3194.683960,-10658.965565,-2886.803174,-229.828649
3194.684297,-10362.883188,-2738.761985,-995.924147
3194.684635,-10214.842000,-2738.761985,-306.438199
3194.684972,-10214.842000,-2072.576638,0.000000
3194.685310,-9918.759623,-1628.453072,689.485948
3194.685647,-10436.903782,-2368.659014,-306.438199
3194.685985,-9992.780217,-2368.659014,-459.657299
3194.686322,-9918.759623,-2072.576638,1685.410096
3194.686659,-10436.903782,-1554.432478,3830.477490
3194.686997,-10955.047942,-592.164754,3064.381992
3194.687334,-10584.944971,296.082377,1608.800546
3194.687672,-10584.944971,1110.308913,0.000000
3194.688009,-10214.842000,1702.473667,0.000000
3194.688347,-9918.759623,1628.453072,306.438199
3194.688684,-9326.594869,1332.370696,0.000000
3194.689021,-8956.491898,1554.432478,-689.485948
3194.689359,-9104.533087,1850.514855,-919.314598
3194.689696,-9918.759623,1554.432478,-689.485948
3194.690034,-9622.677246,296.082377,383.047749
3194.690371,-9400.615463,1110.308913,0.000000
3194.690709,-9104.533087,1776.494261,612.876398
3194.691046,-9918.759623,1628.453072,-383.047749
3194.691383,-9474.636058,814.226536,-459.657299
3194.691721,-10140.821405,0.000000,536.266849
3194.692058,-9622.677246,0.000000,1838.629195
3194.692396,-10140.821405,-1110.308913,2221.676944
3194.692733,-10436.903782,-1036.288319,2298.286494
3194.693071,-10362.883188,-1110.308913,383.047749
