#time,accel_x,accel_y,accel_z
3309.286577,-10436.903782,-1110.308913,306.438199
3309.286915,-9400.615463,-1998.556043,0.000000
3309.287252,-8438.347739,-2220.617826,153.219100
3309.287590,-8956.491898,-3330.926739,0.000000
3309.287928,-9326.594869,-3478.967927,1072.533697
3309.288265,-10066.800811,-3108.864956,995.924147
3309.288603,-9770.718434,-2886.803174,1455.581446
3309.288941,-10362.883188,-2294.638420,1378.971896
3309.289278,-10732.986159,-2146.597232,1225.752797
3309.289616,-11029.068536,-1702.473667,1532.190996
3309.289954,-10362.883188,-1702.473667,229.828649
3309.290292,-9696.697840,-444.123565,306.438199
3309.290629,-10288.862594,-444.123565,919.314598
3309.290967,-10732.986159,0.000000,1685.410096
3309.291305,-10140.821405,74.020594,842.705048
3309.291642,-10584.944971,-370.102971,2145.067394
3309.291980,-9770.718434,222.061783,2911.162892
3309.292318,-10214.842000,370.102971,4060.306139
3309.292655,-11251.130318,1110.308913,3600.648841
3309.292993,-10436.903782,666.185348,2528.115143
3309.293331,-10584.944971,518.144159,3370.820191
3309.293668,-10140.821405,444.123565,2911.162892
3309.294006,-9770.718434,-296.082377,3217.601092
3309.294344,-10066.800811,-814.226536,3447.429741
3309.294681,-9178.553681,-1850.514855,2374.896044
3309.295019,-8586.388927,-2368.659014,2911.162892
3309.295357,-9030.512492,-2368.659014,2987.772442
3309.295695,-8808.450710,-3478.967927,2068.457845
3309.296032,-9030.512492,-1924.535449,1915.238745
3309.296370,-9474.636058,-3034.844362,1762.019645
3309.296708,-9770.718434,-2516.700203,2374.896044
3309.297045,-10288.862594,-3478.967927,3524.039291
3309.297383,-10214.842000,-3552.988522,4136.915689
3309.297721,-10584.944971,-4367.215058,4749.792088
3309.298058,-11473.192101,-4293.194464,5439.278036
3309.298396,-10807.006753,-4219.173869,5439.278036
3309.298734,-10510.924376,-4515.256246,4749.792088
3309.299071,-10140.821405,-3627.009116,4213.525239
3309.299409,-10510.924376,-4737.318029,3370.820191
3309.299747,-10955.047942,-4663.297435,4596.572988
3309.300084,-11177.109724,-4959.379811,3600.648841
3309.300422,-10510.924376,-3849.070898,2298.286494
3309.300760,-9992.780217,-3627.009116,536.266849
3309.301098,-10066.800811,-4811.338623,76.609550
3309.301435,-9770.718434,-5625.565159,383.047749
3309.301773,-8512.368333,-6735.874072,1072.533697
3309.302111,-9030.512492,-5033.400406,2221.676944
3309.302448,-10214.842000,-5181.441594,1685.410096
3309.302786,-10362.883188,-4589.276840,229.828649
3309.303124,-9844.739029,-5699.585753,1072.533697
3309.303461,-10140.821405,-5403.503377,3217.601092
3309.303799,-9548.656652,-4515.256246,2604.724693
3309.304137,-9918.759623,-2516.700203,919.314598
3309.304474,-9326.594869,-2590.720797,459.657299
3309.304812,-9696.697840,-3404.947333,612.876398
3309.305150,-10214.842000,-4071.132681,3064.381992
3309.305488,-9326.594869,-2294.638420,3294.210641
3309.305825,-8068.244768,-1258.350101,3370.820191
3309.306163,-9770.718434,-1036.288319,4826.401637
3309.306501,-12213.398043,-1184.329507,3830.477490
3309.306838,-11029.068536,0.000000,2757.943793
3309.307176,-10066.800811,1480.411884,1762.019645
3309.307514,-10214.842000,1480.411884,1072.533697
3309.307851,-11103.089130,518.144159,0.000000
3309.308189,-8956.491898,-1924.535449,-1378.971896
3309.308527,-6513.812290,-2146.597232,536.266849
3309.308864,-8734.430116,-2812.782580,3753.867940
3309.309202,-11769.274478,-1850.514855,2757.943793
3309.309539,-11473.192101,-1258.350101,-1455.581446
3309.309877,-9770.718434,-1184.329507,153.219100
3309.310214,-8956.491898,-1776.494261,2374.896044
3309.310552,-9696.697840,-2960.823768,3677.258390
3309.310889,-10584.944971,-1332.370696,4826.401637
3309.311227,-10807.006753,-1110.308913,3447.429741
3309.311564,-12213.398043,-888.247130,3447.429741
3309.311902,-12139.377449,-1406.391290,2451.505594
3309.312239,-10362.883188,-888.247130,2528.115143
3309.312577,-8512.368333,-2368.659014,2911.162892
3309.312914,-8660.409521,-1480.411884,3217.601092
3309.313252,-10658.965565,-1184.329507,4673.182538
3309.313589,-10510.924376,-370.102971,3370.820191
3309.313927,-9400.615463,1776.494261,2221.676944
3309.314264,-11251.130318,1258.350101,2834.553343
3309.314602,-11547.212695,814.226536,3140.991542
3309.314939,-10140.821405,-296.082377,3677.258390
3309.315277,-9326.594869,1110.308913,3983.696590
3309.315614,-9400.615463,1332.370696,2068.457845
3309.315952,-11473.192101,-666.185348,459.657299
3309.316289,-10955.047942,-1776.494261,-383.047749
3309.316627,-8290.306550,-2294.638420,536.266849
3309.316964,-7772.162391,-1850.514855,2145.067394
3309.317301,-7105.977043,0.000000,383.047749
3309.317639,-9104.533087,666.185348,0.000000
3309.317976,-11399.171507,0.000000,-153.219100
3309.318314,-11991.336260,-1258.350101,1225.752797
3309.318651,-11029.068536,1184.329507,3217.601092
3309.318989,-9030.512492,814.226536,3447.429741
3309.319326,-10436.903782,0.000000,2911.162892
3309.319664,-10362.883188,-1702.473667,1762.019645
3309.320001,-9622.677246,-3330.926739,2068.457845
3309.320339,-9474.636058,-2368.659014,3447.429741
3309.320676,-7846.182985,-1036.288319,1455.581446
3309.321014,-10955.047942,-444.123565,-766.095498
3309.321351,-11843.295072,-1110.308913,-3064.381992
3309.321689,-9548.656652,-3552.988522,-2451.505594
3309.322026,-9252.574275,-1184.329507,229.828649
3309.322364,-8290.306550,-74.020594,-1225.752797
3309.322701,-11103.089130,-148.041188,-3064.381992
3309.323039,-12953.603985,-3330.926739,-3524.039291
3309.323376,-9252.574275,-5477.523971,-2451.505594
3309.323714,-9252.574275,-6439.791695,0.000000
3309.324051,-8882.471304,-4737.318029,2221.676944
3309.324389,-9548.656652,-5107.421000,612.876398
3309.324726,-11769.274478,-5033.400406,-459.657299
3309.325064,-10214.842000,-4959.379811,383.047749
3309.325401,-11029.068536,-2146.597232,2145.067394
3309.325739,-10732.986159,-296.082377,2528.115143
3309.326076,-11917.315666,-444.123565,0.000000
3309.326414,-11769.274478,-1036.288319,-919.314598
3309.326751,-9400.615463,-2886.803174,0.000000
3309.327089,-7772.162391,-1480.411884,2528.115143
3309.327426,-7328.038826,-1480.411884,3600.648841
3309.327764,-10436.903782,-1850.514855,2987.772442
3309.328101,-11325.150913,-1480.411884,1762.019645
3309.328439,-10362.883188,222.061783,1762.019645
3309.328776,-9992.780217,2368.659014,2528.115143
3309.329114,-9696.697840,2146.597232,383.047749
3309.329451,-11473.192101,1776.494261,-306.438199
3309.329789,-10732.986159,814.226536,-1072.533697
3309.330126,-7920.203579,0.000000,-919.314598
3309.330464,-7550.100608,0.000000,1685.410096
3309.330801,-9622.677246,-1332.370696,2374.896044
3309.331139,-9992.780217,-3330.926739,919.314598
3309.331476,-8882.471304,-2368.659014,1072.533697
3309.331814,-8364.327145,666.185348,2068.457845
3309.332151,-9548.656652,2516.700203,1685.410096
3309.332489,-12213.398043,1702.473667,-766.095498
3309.332826,-12879.583391,888.247130,-2451.505594
3309.333164,-11029.068536,1036.288319,-306.438199
3309.333501,-8438.347739,1554.432478,1302.362347
3309.333839,-9770.718434,740.205942,2911.162892
3309.334176,-10807.006753,-1850.514855,1915.238745
3309.334514,-9918.759623,-1480.411884,-153.219100
3309.334851,-9252.574275,0.000000,0.000000
3309.335189,-8882.471304,2294.638420,306.438199
3309.335526,-11399.171507,814.226536,-229.828649
3309.335864,-11695.253884,-296.082377,-2221.676944
3309.336201,-10140.821405,1406.391290,-2145.067394
3309.336539,-9474.636058,2590.720797,-1685.410096
3309.336876,-10881.027347,1554.432478,-995.924147
3309.337213,-12065.356855,-888.247130,-2374.896044
3309.337551,-10288.862594,-1924.535449,-3140.991542
3309.337888,-9178.553681,-1258.350101,-2145.067394
3309.338226,-7846.182985,-222.061783,-689.485948
3309.338563,-9622.677246,-814.226536,536.266849
3309.338901,-10066.800811,-1776.494261,-306.438199
3309.339238,-9252.574275,-592.164754,-995.924147
3309.339576,-10510.924376,1480.411884,689.485948
3309.339913,-11399.171507,1036.288319,2451.505594
3309.340251,-11843.295072,-148.041188,1302.362347
3309.340588,-10807.006753,0.000000,1991.848295
3309.340926,-9696.697840,1924.535449,3524.039291
3309.341263,-8808.450710,2368.659014,1838.629195
3309.341601,-10584.944971,1924.535449,1915.238745
3309.341938,-10807.006753,-370.102971,76.609550
3309.342276,-8882.471304,222.061783,-76.609550
3309.342613,-8512.368333,1776.494261,1225.752797
3309.342951,-8364.327145,2072.576638,2221.676944
3309.343288,-11029.068536,0.000000,76.609550
3309.343626,-10955.047942,-1110.308913,-919.314598
3309.343963,-10436.903782,1628.453072,-383.047749
3309.344301,-10140.821405,444.123565,306.438199
3309.344638,-10584.944971,0.000000,-306.438199
3309.344976,-9770.718434,-2960.823768,-2528.115143
3309.345313,-8142.265362,-3108.864956,-1532.190996
3309.345651,-7179.997637,-2590.720797,0.000000
3309.345988,-8438.347739,-3330.926739,1302.362347
3309.346326,-11399.171507,-4145.153275,1149.143247
3309.346663,-11103.089130,-5403.503377,153.219100
3309.347001,-10881.027347,-2368.659014,995.924147
3309.347338,-9992.780217,-888.247130,1149.143247
3309.347676,-10955.047942,-74.020594,1378.971896
3309.348013,-11473.192101,-2220.617826,-766.095498
3309.348351,-9992.780217,-2442.679609,-612.876398
3309.348688,-8882.471304,-1850.514855,536.266849
3309.349026,-8808.450710,-2442.679609,2145.067394
3309.349363,-11547.212695,-2220.617826,2374.896044
3309.349701,-10807.006753,-4663.297435,1072.533697
3309.350038,-9400.615463,-2590.720797,689.485948
3309.350376,-8956.491898,-296.082377,995.924147
3309.350713,-11177.109724,740.205942,0.000000
3309.351051,-12065.356855,0.000000,-2298.286494
3309.351388,-10732.986159,-1036.288319,-3370.820191
3309.351726,-9252.574275,444.123565,-1225.752797
3309.352063,-7846.182985,0.000000,0.000000
3309.352401,-10732.986159,-518.144159,1532.190996
3309.352738,-11325.150913,-3182.885551,229.828649
3309.353076,-9178.553681,-2072.576638,-383.047749
3309.353413,-8142.265362,0.000000,1608.800546
3309.353751,-9918.759623,888.247130,3294.210641
3309.354088,-11769.274478,222.061783,1532.190996
3309.354426,-10362.883188,0.000000,-842.705048
3309.354763,-8882.471304,2220.617826,153.219100
3309.355101,-8364.327145,2590.720797,1838.629195
3309.355438,-11399.171507,1924.535449,2604.724693
3309.355776,-11769.274478,-296.082377,459.657299
3309.356113,-9548.656652,-814.226536,459.657299
3309.356451,-8956.491898,1628.453072,1455.581446
3309.356788,-8956.491898,2072.576638,919.314598
3309.357126,-10881.027347,444.123565,-459.657299
3309.357463,-9696.697840,-962.267725,-2757.943793
3309.357800,-8364.327145,518.144159,-2145.067394
3309.358138,-8808.450710,1776.494261,-536.266849
3309.358475,-10807.006753,0.000000,229.828649
3309.358813,-11991.336260,-2072.576638,-1608.800546
3309.359150,-11029.068536,-2738.761985,-1072.533697
3309.359488,-9918.759623,0.000000,0.000000
3309.359825,-10140.821405,-148.041188,536.266849
3309.360163,-11843.295072,-962.267725,-383.047749
3309.360500,-10436.903782,-3182.885551,-1991.848295
3309.360838,-9104.533087,-2294.638420,0.000000
3309.361175,-8882.471304,-666.185348,1302.362347
3309.361513,-10955.047942,-814.226536,2757.943793
3309.361850,-12583.501014,-1924.535449,1455.581446
3309.362188,-10881.027347,-740.205942,229.828649
3309.362525,-9844.739029,1628.453072,2374.896044
3309.362863,-9104.533087,2664.741391,1838.629195
3309.363200,-11325.150913,1258.350101,1225.752797
3309.363538,-9696.697840,222.061783,-459.657299
3309.363875,-8586.388927,1998.556043,-766.095498
3309.364213,-8586.388927,2294.638420,1455.581446
3309.364550,-9326.594869,1036.288319,1149.143247
3309.364888,-10066.800811,-370.102971,0.000000
3309.365225,-9844.739029,-592.164754,-536.266849
3309.365563,-8956.491898,1628.453072,0.000000
3309.365900,-8808.450710,1628.453072,153.219100
3309.366238,-11029.068536,444.123565,-459.657299
3309.366575,-10288.862594,-1110.308913,-2374.896044
3309.366913,-8660.409521,592.164754,-1302.362347
3309.367250,-8734.430116,592.164754,536.266849
3309.367588,-9252.574275,-370.102971,1685.410096
3309.367925,-11029.068536,-2220.617826,919.314598
3309.368263,-11251.130318,-2442.679609,1072.533697
3309.368600,-11029.068536,-814.226536,1838.629195
3309.368938,-10288.862594,592.164754,2451.505594
3309.369275,-11843.295072,518.144159,1762.019645
3309.369613,-11399.171507,-1480.411884,-383.047749
3309.369950,-10140.821405,-1480.411884,-842.705048
3309.370288,-8808.450710,222.061783,-153.219100
3309.370625,-9770.718434,-148.041188,536.266849
3309.370963,-11251.130318,-1850.514855,612.876398
3309.371300,-10362.883188,-3552.988522,-919.314598
3309.371638,-9400.615463,-2516.700203,153.219100
3309.371975,-8956.491898,-1110.308913,612.876398
3309.372313,-10214.842000,-666.185348,842.705048
3309.372650,-11769.274478,-2220.617826,-1302.362347
3309.372988,-9252.574275,-1924.535449,-2374.896044
3309.373325,-9400.615463,-1702.473667,-536.266849
3309.373663,-9548.656652,-1110.308913,0.000000
3309.374000,-11029.068536,-2738.761985,76.609550
3309.374338,-10066.800811,-4441.235652,689.485948
3309.374675,-8660.409521,-2294.638420,919.314598
3309.375013,-8660.409521,-296.082377,2145.067394
3309.375350,-11251.130318,592.164754,2451.505594
3309.375688,-11547.212695,-444.123565,306.438199
3309.376025,-10732.986159,740.205942,0.000000
3309.376363,-9178.553681,2516.700203,1455.581446
3309.376700,-9252.574275,2812.782580,2374.896044
3309.377038,-11251.130318,1036.288319,2681.334243
3309.377375,-10584.944971,-666.185348,919.314598
3309.377712,-8956.491898,1702.473667,1532.190996
3309.378050,-9326.594869,2590.720797,1838.629195
3309.378387,-10140.821405,2294.638420,1378.971896
3309.378725,-10584.944971,1184.329507,-1225.752797
3309.379062,-9104.533087,518.144159,-1608.800546
3309.379400,-7772.162391,1924.535449,-612.876398
3309.379737,-8216.285956,1258.350101,459.657299
3309.380075,-11177.109724,296.082377,612.876398
3309.380412,-11473.192101,-2960.823768,-919.314598
3309.380750,-9696.697840,-1332.370696,689.485948
3309.381087,-9474.636058,-370.102971,1378.971896
3309.381425,-9770.718434,-222.061783,1225.752797
3309.381762,-10955.047942,-1184.329507,-383.047749
3309.382100,-10214.842000,-1184.329507,-1915.238745
3309.382437,-9252.574275,-518.144159,-689.485948
3309.382775,-9252.574275,0.000000,919.314598
3309.383112,-11251.130318,-592.164754,2298.286494
3309.383450,-11251.130318,-1850.514855,536.266849
3309.383787,-9992.780217,-592.164754,0.000000
3309.384125,-9918.759623,1332.370696,766.095498
3309.384462,-10510.924376,518.144159,689.485948
3309.384800,-11695.253884,296.082377,-689.485948
3309.385137,-11103.089130,-888.247130,-1532.190996
3309.385475,-9030.512492,518.144159,-766.095498
3309.385812,-8216.285956,0.000000,1072.533697
3309.386150,-10362.883188,0.000000,1838.629195
3309.386487,-11473.192101,-1480.411884,-766.095498
3309.386825,-9696.697840,-1554.432478,-1149.143247
3309.387162,-9400.615463,296.082377,-306.438199
3309.387500,-8734.430116,444.123565,0.000000
3309.387837,-11029.068536,370.102971,-766.095498
3309.388175,-10214.842000,-962.267725,-2681.334243
3309.388512,-8882.471304,296.082377,-842.705048
3309.388850,-8586.388927,666.185348,1149.143247
3309.389187,-9992.780217,296.082377,3140.991542
3309.389525,-11621.233289,-888.247130,2528.115143
3309.389862,-11029.068536,-814.226536,2528.115143
3309.390200,-9474.636058,1554.432478,2681.334243
3309.390537,-9622.677246,1850.514855,3294.210641
3309.390875,-11029.068536,2664.741391,2068.457845
3309.391212,-9770.718434,518.144159,-689.485948
3309.391550,-9548.656652,1998.556043,76.609550
3309.391887,-9178.553681,1998.556043,0.000000
3309.392225,-10140.821405,1406.391290,842.705048
3309.392562,-11103.089130,-1628.453072,-306.438199
3309.392900,-9474.636058,-1702.473667,-995.924147
3309.393237,-9178.553681,-814.226536,383.047749
3309.393575,-8512.368333,148.041188,612.876398
3309.393912,-10436.903782,-740.205942,-306.438199
3309.394250,-11621.233289,-2664.741391,-1225.752797
3309.394587,-9622.677246,-2220.617826,-1991.848295
3309.394925,-8956.491898,-740.205942,0.000000
3309.395262,-10066.800811,-1184.329507,1072.533697
3309.395600,-11029.068536,-2886.803174,306.438199
3309.395937,-10436.903782,-3997.112087,-995.924147
3309.396275,-9474.636058,-2072.576638,383.047749
3309.396612,-9326.594869,-1332.370696,1762.019645
3309.396950,-11251.130318,-1850.514855,2068.457845
3309.397287,-10955.047942,-2516.700203,-306.438199
3309.397625,-9474.636058,-1776.494261,76.609550
3309.397962,-9326.594869,370.102971,1225.752797
3309.398299,-9696.697840,740.205942,1915.238745
3309.398637,-11695.253884,-370.102971,1608.800546
3309.398974,-10807.006753,-962.267725,689.485948
3309.399312,-9770.718434,1110.308913,306.438199
3309.399649,-9770.718434,1554.432478,306.438199
3309.399987,-10140.821405,1406.391290,0.000000
3309.400324,-10955.047942,666.185348,-2145.067394
3309.400662,-9474.636058,740.205942,-2834.553343
3309.400999,-8808.450710,1850.514855,-1838.629195
3309.401337,-9178.553681,888.247130,0.000000
3309.401674,-10658.965565,-444.123565,383.047749
3309.402012,-10510.924376,-888.247130,-383.047749
3309.402349,-9474.636058,1110.308913,612.876398
3309.402687,-9770.718434,2072.576638,1302.362347
3309.403024,-10732.986159,1110.308913,1455.581446
3309.403362,-11251.130318,666.185348,306.438199
3309.403699,-10214.842000,74.020594,0.000000
3309.404037,-8956.491898,1036.288319,689.485948
3309.404374,-8438.347739,740.205942,1225.752797
3309.404712,-10214.842000,-444.123565,1685.410096
3309.405049,-10140.821405,-1850.514855,383.047749
3309.405387,-8660.409521,-592.164754,459.657299
3309.405724,-9696.697840,962.267725,1532.190996
3309.406062,-10436.903782,1776.494261,919.314598
3309.406399,-11399.171507,222.061783,-766.095498
3309.406737,-9992.780217,-1406.391290,-1532.190996
3309.407074,-8882.471304,0.000000,76.609550
3309.407412,-8956.491898,74.020594,919.314598
3309.407750,-10658.965565,-814.226536,1225.752797
3309.408087,-11325.150913,-2960.823768,-689.485948
3309.408425,-10584.944971,-1998.556043,-995.924147
3309.408762,-9918.759623,-740.205942,76.609550
3309.409100,-10362.883188,-148.041188,229.828649
3309.409437,-12287.418637,-1110.308913,-536.266849
3309.409775,-10881.027347,-1924.535449,-1072.533697
3309.410112,-9252.574275,0.000000,-919.314598
3309.410450,-8660.409521,148.041188,1762.019645
3309.410788,-10584.944971,-370.102971,3064.381992
3309.411125,-11843.295072,-2146.597232,1455.581446
3309.411463,-10140.821405,-962.267725,1072.533697
3309.411800,-9178.553681,1258.350101,2604.724693
3309.412138,-9252.574275,2738.761985,2604.724693
3309.412475,-11029.068536,1554.432478,536.266849
3309.412813,-10362.883188,1110.308913,-1532.190996
3309.413150,-8512.368333,2072.576638,-1302.362347
3309.413488,-7994.224174,3256.906145,-76.609550
3309.413826,-9326.594869,1924.535449,383.047749
3309.414163,-10288.862594,-1110.308913,-689.485948
3309.414501,-9252.574275,-518.144159,-1072.533697
3309.414838,-8586.388927,1332.370696,-229.828649
3309.415176,-9104.533087,2294.638420,536.266849
3309.415513,-11547.212695,222.061783,-536.266849
3309.415851,-10732.986159,-2516.700203,-2221.676944
3309.416189,-9400.615463,-666.185348,-1455.581446
3309.416526,-9326.594869,444.123565,459.657299
3309.416864,-10066.800811,-518.144159,1149.143247
3309.417201,-11547.212695,-2442.679609,-689.485948
3309.417539,-10732.986159,-3404.947333,153.219100
3309.417876,-9474.636058,-1776.494261,995.924147
3309.418214,-9474.636058,-148.041188,2374.896044
3309.418551,-11473.192101,-666.185348,2451.505594
3309.418889,-11843.295072,-1850.514855,-536.266849
3309.419227,-9696.697840,-666.185348,-766.095498
3309.419564,-8956.491898,814.226536,1072.533697
3309.419902,-10436.903782,-592.164754,2374.896044
3309.420239,-11251.130318,-2072.576638,306.438199
3309.420577,-10436.903782,-2368.659014,-383.047749
3309.420914,-9548.656652,-296.082377,0.000000
3309.421252,-8660.409521,0.000000,76.609550
3309.421589,-10658.965565,-222.061783,689.485948
3309.421927,-10584.944971,-2368.659014,-1149.143247
3309.422265,-8882.471304,-1036.288319,-1608.800546
3309.422602,-8364.327145,-148.041188,459.657299
3309.422940,-9104.533087,0.000000,1149.143247
3309.423277,-11769.274478,-1554.432478,229.828649
3309.423615,-10510.924376,-1998.556043,-459.657299
3309.423952,-8882.471304,1110.308913,0.000000
3309.424290,-9178.553681,1184.329507,1762.019645
3309.424627,-10584.944971,592.164754,1225.752797
3309.424965,-10881.027347,-962.267725,-766.095498
3309.425303,-9844.739029,0.000000,229.828649
3309.425640,-8660.409521,2368.659014,1991.848295
3309.425978,-9252.574275,2368.659014,2604.724693
3309.426315,-11621.233289,1406.391290,2145.067394
3309.426653,-10732.986159,222.061783,153.219100
3309.426990,-10066.800811,2368.659014,612.876398
3309.427328,-9844.739029,2590.720797,459.657299
3309.427666,-10436.903782,2960.823768,0.000000
3309.428003,-11325.150913,0.000000,-2757.943793
3309.428341,-9178.553681,-518.144159,-2911.162892
3309.428678,-7402.059420,518.144159,-2145.067394
3309.429016,-7920.203579,518.144159,-306.438199
3309.429353,-11103.089130,-1110.308913,-995.924147
3309.429691,-10732.986159,-3923.091493,-2604.724693
3309.430028,-9400.615463,-2294.638420,-689.485948
3309.430366,-9400.615463,-148.041188,995.924147
3309.430704,-10881.027347,-592.164754,1225.752797
3309.431041,-12213.398043,-2368.659014,-229.828649
3309.431379,-10436.903782,-2738.761985,-1915.238745
3309.431716,-9030.512492,-1332.370696,459.657299
3309.432054,-9326.594869,-296.082377,2145.067394
3309.432391,-11917.315666,-518.144159,2604.724693
3309.432729,-12361.439231,-2960.823768,-459.657299
3309.433066,-9474.636058,-814.226536,0.000000
3309.433404,-9030.512492,1628.453072,1378.971896
3309.433742,-10807.006753,1850.514855,2604.724693
3309.434079,-11843.295072,148.041188,0.000000
3309.434417,-9770.718434,0.000000,-1225.752797
3309.434754,-8734.430116,2220.617826,536.266849
3309.435092,-9252.574275,2294.638420,1915.238745
3309.435429,-11843.295072,888.247130,1762.019645
3309.435767,-10881.027347,-888.247130,-1302.362347
3309.436104,-9104.533087,296.082377,-1378.971896
3309.436442,-8734.430116,1924.535449,612.876398
3309.436780,-9030.512492,2072.576638,-306.438199
3309.437117,-10732.986159,74.020594,-1302.362347
3309.437455,-9992.780217,-1258.350101,-3217.601092
3309.437792,-8586.388927,1110.308913,-1302.362347
3309.438130,-8290.306550,1110.308913,842.705048
3309.438467,-9474.636058,-518.144159,2451.505594
3309.438805,-10140.821405,-2072.576638,1072.533697
3309.439143,-10066.800811,-1628.453072,1302.362347
3309.439480,-9992.780217,1110.308913,2145.067394
3309.439818,-10362.883188,888.247130,2681.334243
3309.440155,-11991.336260,-296.082377,995.924147
3309.440493,-10584.944971,-1850.514855,-919.314598
3309.440830,-8808.450710,-444.123565,0.000000
3309.441168,-7846.182985,0.000000,842.705048
3309.441505,-10066.800811,-888.247130,1915.238745
3309.441843,-11547.212695,-2664.741391,-153.219100
3309.442181,-10288.862594,-2368.659014,-1532.190996
3309.442518,-9844.739029,-888.247130,0.000000
3309.442856,-9918.759623,222.061783,0.000000
3309.443193,-11843.295072,-2368.659014,0.000000
3309.443531,-11029.068536,-3478.967927,-1838.629195
3309.443868,-8734.430116,-2516.700203,-1455.581446
3309.444206,-9030.512492,-2368.659014,1072.533697
3309.444543,-10732.986159,-2664.741391,1762.019645
3309.444881,-11547.212695,-3997.112087,0.000000
3309.445219,-10955.047942,-3478.967927,-612.876398
3309.445556,-9400.615463,-1258.350101,76.609550
3309.445894,-9104.533087,0.000000,2298.286494
3309.446231,-11325.150913,-296.082377,1685.410096
3309.446569,-10881.027347,-1258.350101,229.828649
3309.446906,-9770.718434,148.041188,842.705048
3309.447244,-9252.574275,1628.453072,2374.896044
3309.447582,-9770.718434,1924.535449,2911.162892
3309.447919,-11843.295072,296.082377,1762.019645
3309.448257,-10436.903782,814.226536,612.876398
3309.448594,-9178.553681,2072.576638,536.266849
3309.448932,-9030.512492,3775.050304,1378.971896
3309.449269,-10214.842000,2294.638420,-612.876398
3309.449607,-9548.656652,518.144159,-3217.601092
3309.449944,-8216.285956,740.205942,-2451.505594
3309.450282,-7402.059420,2442.679609,-689.485948
3309.450620,-9622.677246,1702.473667,153.219100
3309.450957,-11103.089130,-444.123565,-1378.971896
3309.451295,-10584.944971,-962.267725,-2068.457845
3309.451632,-10066.800811,296.082377,-76.609550
3309.451970,-9474.636058,888.247130,1225.752797
3309.452307,-11103.089130,0.000000,919.314598
3309.452645,-10955.047942,-2220.617826,-1072.533697
3309.452982,-8068.244768,-2072.576638,-995.924147
3309.453320,-9252.574275,-1554.432478,1915.238745
3309.453658,-9326.594869,-1110.308913,2757.943793
3309.453995,-12139.377449,-2220.617826,1302.362347
3309.454333,-11177.109724,-2886.803174,459.657299
3309.454670,-9474.636058,-222.061783,1149.143247
3309.455008,-9918.759623,888.247130,2451.505594
3309.455345,-11917.315666,370.102971,1378.971896
3309.455683,-11177.109724,-2072.576638,-1225.752797
3309.456020,-10140.821405,-1702.473667,-229.828649
3309.456358,-8956.491898,-296.082377,689.485948
3309.456696,-8660.409521,0.000000,2451.505594
3309.457033,-11843.295072,-2072.576638,1685.410096
3309.457371,-11029.068536,-2664.741391,-1532.190996
3309.457708,-9548.656652,222.061783,76.609550
3309.458046,-9770.718434,518.144159,76.609550
3309.458383,-10362.883188,74.020594,536.266849
3309.458721,-11769.274478,-1184.329507,-1762.019645
3309.459059,-9622.677246,-666.185348,-766.095498
3309.459396,-8438.347739,1036.288319,0.000000
3309.459734,-9104.533087,444.123565,1532.190996
3309.460071,-10955.047942,0.000000,1838.629195
3309.460409,-10807.006753,-1924.535449,76.609550
3309.460746,-9696.697840,1184.329507,1225.752797
3309.461084,-9252.574275,2442.679609,1225.752797
3309.461421,-9252.574275,2590.720797,306.438199
3309.461759,-10732.986159,1554.432478,-689.485948
3309.462097,-9918.759623,1036.288319,-1762.019645
3309.462434,-8290.306550,1480.411884,0.000000
3309.462772,-8882.471304,1480.411884,919.314598
3309.463109,-10955.047942,592.164754,1762.019645
3309.463447,-11325.150913,-1480.411884,-1378.971896
3309.463784,-9178.553681,-518.144159,-1762.019645
3309.464122,-9104.533087,74.020594,0.000000
3309.464459,-10362.883188,-74.020594,306.438199
3309.464797,-11251.130318,-1184.329507,-2374.896044
3309.465135,-10214.842000,-3404.947333,-2757.943793
3309.465472,-9030.512492,-1406.391290,-1302.362347
3309.465810,-9104.533087,-2072.576638,306.438199
3309.466147,-11473.192101,-2146.597232,689.485948
3309.466485,-11325.150913,-3997.112087,-919.314598
3309.466822,-10362.883188,-3330.926739,-536.266849
3309.467160,-10066.800811,-1702.473667,689.485948
3309.467498,-9770.718434,-1406.391290,1685.410096
3309.467835,-11991.336260,-1406.391290,1302.362347
3309.468173,-10881.027347,-3182.885551,-306.438199
3309.468510,-9326.594869,-518.144159,1072.533697
3309.468848,-9326.594869,0.000000,2757.943793
3309.469185,-10807.006753,-74.020594,3294.210641
3309.469523,-11843.295072,-962.267725,1762.019645
3309.469860,-10584.944971,-1036.288319,1915.238745
3309.470198,-9400.615463,1776.494261,1608.800546
3309.470536,-9178.553681,2072.576638,1149.143247
3309.470873,-10807.006753,1850.514855,0.000000
3309.471211,-10214.842000,-888.247130,-2604.724693
3309.471548,-8734.430116,296.082377,-1302.362347
3309.471886,-7476.080014,1110.308913,0.000000
3309.472223,-9030.512492,666.185348,1302.362347
3309.472561,-10881.027347,-1998.556043,383.047749
3309.472898,-9474.636058,-814.226536,76.609550
3309.473236,-9326.594869,592.164754,1455.581446
3309.473574,-9548.656652,1332.370696,1302.362347
3309.473911,-11325.150913,814.226536,1532.190996
3309.474249,-10881.027347,-370.102971,0.000000
3309.474586,-8734.430116,0.000000,612.876398
3309.474924,-8660.409521,1258.350101,1762.019645
3309.475261,-10140.821405,740.205942,1915.238745
3309.475599,-11547.212695,-740.205942,383.047749
3309.475936,-11177.109724,-1850.514855,-689.485948
3309.476274,-9474.636058,222.061783,-229.828649
3309.476612,-8734.430116,1702.473667,0.000000
3309.476949,-10955.047942,0.000000,-459.657299
3309.477287,-10732.986159,-666.185348,-2681.334243
3309.477624,-9548.656652,-1332.370696,-2298.286494
3309.477962,-9474.636058,-222.061783,-612.876398
3309.478299,-9474.636058,-1110.308913,306.438199
3309.478637,-12065.356855,-3182.885551,229.828649
3309.478975,-10881.027347,-3330.926739,-1685.410096
3309.479312,-9400.615463,-2294.638420,-1838.629195
3309.479650,-9622.677246,-888.247130,-612.876398
3309.479987,-10584.944971,-1776.494261,-1072.533697
3309.480325,-10955.047942,-2590.720797,-1685.410096
3309.480662,-9400.615463,-2294.638420,-1685.410096
3309.481000,-8216.285956,-1110.308913,842.705048
3309.481337,-9474.636058,-962.267725,2451.505594
3309.481675,-12361.439231,-1998.556043,2528.115143
3309.482013,-11029.068536,-2294.638420,1762.019645
3309.482350,-9030.512492,-222.061783,2374.896044
3309.482688,-9326.594869,1702.473667,3524.039291
3309.483025,-11029.068536,2368.659014,2834.553343
3309.483363,-11695.253884,962.267725,0.000000
3309.483700,-9622.677246,1554.432478,-842.705048
3309.484038,-8290.306550,2072.576638,536.266849
3309.484375,-8216.285956,2812.782580,2145.067394
3309.484713,-10584.944971,1110.308913,1225.752797
3309.485051,-10658.965565,0.000000,-689.485948
3309.485388,-9326.594869,1924.535449,-1378.971896
3309.485726,-8882.471304,1998.556043,0.000000
3309.486063,-9918.759623,2590.720797,229.828649
3309.486401,-10658.965565,222.061783,-1302.362347
3309.486738,-9918.759623,-740.205942,-1838.629195
3309.487076,-9030.512492,-592.164754,0.000000
3309.487414,-8882.471304,-370.102971,2145.067394
3309.487751,-11029.068536,-1036.288319,2451.505594
3309.488089,-10955.047942,-3478.967927,-766.095498
3309.488426,-9548.656652,-1998.556043,0.000000
3309.488764,-9178.553681,-666.185348,842.705048
3309.489101,-9992.780217,370.102971,1915.238745
3309.489439,-12213.398043,-1258.350101,-766.095498
3309.489776,-10732.986159,-1850.514855,-919.314598
3309.490114,-8586.388927,-592.164754,-229.828649
3309.490452,-8882.471304,222.061783,2068.457845
3309.490789,-11695.253884,-1110.308913,2298.286494
3309.491127,-11843.295072,-3552.988522,-383.047749
3309.491464,-10214.842000,-1628.453072,-842.705048
3309.491802,-9400.615463,-74.020594,306.438199
3309.492139,-9918.759623,740.205942,0.000000
3309.492477,-11325.150913,-1184.329507,-1838.629195
3309.492814,-10436.903782,-2146.597232,-3064.381992
3309.493152,-8068.244768,-814.226536,-2221.676944
3309.493490,-8512.368333,0.000000,-306.438199
3309.493827,-10807.006753,-962.267725,1302.362347
3309.494165,-11991.336260,-3108.864956,766.095498
3309.494502,-10214.842000,-1480.411884,842.705048
3309.494840,-8364.327145,518.144159,1149.143247
3309.495177,-9252.574275,1184.329507,1991.848295
3309.495515,-11843.295072,148.041188,919.314598
3309.495852,-10436.903782,-1554.432478,-1149.143247
3309.496190,-8512.368333,2146.597232,689.485948
3309.496528,-8956.491898,2072.576638,1991.848295
3309.496865,-10140.821405,1406.391290,1915.238745
3309.497203,-10955.047942,296.082377,689.485948
3309.497540,-9474.636058,0.000000,1149.143247
3309.497878,-9030.512492,2516.700203,1991.848295
3309.498215,-9400.615463,2812.782580,1608.800546
3309.498553,-11843.295072,2368.659014,0.000000
3309.498891,-11325.150913,222.061783,-3217.601092
3309.499228,-9326.594869,814.226536,-2068.457845
3309.499566,-7550.100608,666.185348,0.000000
3309.499903,-9178.553681,-1036.288319,1608.800546
3309.500241,-10807.006753,-2368.659014,-766.095498
3309.500578,-11029.068536,-3256.906145,-1225.752797
3309.500916,-9770.718434,-1480.411884,-76.609550
3309.501253,-9474.636058,-666.185348,536.266849
3309.501591,-11843.295072,-1110.308913,383.047749
3309.501929,-11325.150913,-3256.906145,-1608.800546
3309.502266,-8438.347739,-2368.659014,-1378.971896
3309.502604,-8364.327145,-1628.453072,1455.581446
3309.502941,-10288.862594,-1184.329507,2681.334243
3309.503279,-12657.521608,-3108.864956,2068.457845
3309.503616,-11547.212695,-2812.782580,842.705048
3309.503954,-9178.553681,666.185348,1455.581446
3309.504291,-9696.697840,1110.308913,2757.943793
3309.504629,-11695.253884,592.164754,1532.190996
3309.504967,-11547.212695,-888.247130,-1072.533697
3309.505304,-9992.780217,0.000000,0.000000
3309.505642,-7846.182985,1776.494261,1532.190996
3309.505979,-8882.471304,1036.288319,2451.505594
3309.506317,-11843.295072,-74.020594,383.047749
3309.506654,-10807.006753,-1258.350101,-1149.143247
3309.506992,-8734.430116,444.123565,-689.485948
3309.507329,-8216.285956,2294.638420,459.657299
3309.507667,-10584.944971,1702.473667,-459.657299
3309.508005,-11769.274478,-222.061783,-2298.286494
3309.508342,-8882.471304,444.123565,-2757.943793
3309.508680,-7105.977043,1480.411884,-536.266849
3309.509017,-8660.409521,1702.473667,2145.067394
3309.509355,-11843.295072,-592.164754,1455.581446
3309.509693,-10658.965565,-1850.514855,0.000000
3309.510030,-8956.491898,0.000000,766.095498
3309.510368,-9178.553681,2664.741391,2451.505594
3309.510705,-11769.274478,1776.494261,1455.581446
3309.511043,-12213.398043,0.000000,-1302.362347
3309.511380,-9326.594869,-370.102971,-2374.896044
3309.511718,-7624.121203,1110.308913,76.609550
3309.512056,-8808.450710,1036.288319,1838.629195
3309.512393,-11769.274478,-1554.432478,1225.752797
3309.512731,-11325.150913,-3701.029710,-459.657299
3309.513068,-8512.368333,-962.267725,0.000000
3309.513406,-8808.450710,296.082377,1302.362347
3309.513744,-11325.150913,222.061783,229.828649
3309.514081,-12287.418637,-1998.556043,-3140.991542
3309.514419,-11325.150913,-1998.556043,-2374.896044
3309.514756,-9252.574275,-518.144159,-383.047749
3309.515094,-8586.388927,-1036.288319,1072.533697
3309.515431,-12435.459826,-3330.926739,1378.971896
3309.515769,-11177.109724,-4811.338623,-689.485948
3309.516107,-9474.636058,-3256.906145,536.266849
3309.516444,-8734.430116,-296.082377,2757.943793
3309.516782,-10288.862594,296.082377,1915.238745
3309.517119,-13101.645173,-518.144159,0.000000
3309.517457,-11473.192101,0.000000,-1685.410096
3309.517795,-8882.471304,1702.473667,842.705048
3309.518132,-9326.594869,1406.391290,3677.258390
3309.518470,-10510.924376,74.020594,3600.648841
3309.518807,-10955.047942,-962.267725,1225.752797
3309.519145,-9400.615463,222.061783,1608.800546
3309.519482,-8438.347739,2368.659014,1991.848295
3309.519820,-8956.491898,2738.761985,842.705048
3309.520158,-10658.965565,740.205942,-1608.800546
3309.520495,-9178.553681,74.020594,-2987.772442
3309.520833,-7254.018232,2146.597232,-1302.362347
3309.521170,-6735.874072,2072.576638,-459.657299
3309.521508,-9770.718434,296.082377,229.828649
3309.521846,-11325.150913,-1850.514855,-1302.362347
3309.522183,-9696.697840,-1110.308913,-536.266849
3309.522521,-9400.615463,74.020594,1225.752797
3309.522858,-9474.636058,740.205942,1608.800546
3309.523196,-11843.295072,-1406.391290,306.438199
3309.523534,-11621.233289,-1776.494261,-1455.581446
3309.523871,-9326.594869,-444.123565,-459.657299
3309.524209,-9474.636058,-666.185348,1838.629195
3309.524546,-11621.233289,-740.205942,2374.896044
3309.524884,-12213.398043,-2590.720797,459.657299
3309.525221,-10732.986159,-1850.514855,689.485948
3309.525559,-8882.471304,444.123565,1149.143247
3309.525897,-9992.780217,592.164754,1685.410096
3309.526234,-13027.624579,74.020594,0.000000
3309.526572,-11547.212695,-1702.473667,-2221.676944
3309.526909,-9474.636058,-296.082377,-536.266849
3309.527247,-8956.491898,518.144159,1302.362347
3309.527585,-9696.697840,0.000000,689.485948
3309.527922,-11547.212695,-2368.659014,-459.657299
3309.528260,-9844.739029,-2368.659014,-1302.362347
3309.528597,-7846.182985,-592.164754,-842.705048
3309.528935,-9474.636058,592.164754,1149.143247
3309.529272,-11399.171507,-370.102971,0.000000
3309.529610,-10658.965565,-1184.329507,-2068.457845
3309.529948,-9030.512492,444.123565,-1225.752797
3309.530285,-8068.244768,1628.453072,1378.971896
3309.530623,-10066.800811,888.247130,2451.505594
3309.530960,-11399.171507,-1036.288319,1762.019645
3309.531298,-9992.780217,-1332.370696,1302.362347
3309.531636,-9178.553681,1184.329507,3370.820191
3309.531973,-9474.636058,2442.679609,3753.867940
3309.532311,-11695.253884,3330.926739,1838.629195
3309.532648,-11843.295072,1332.370696,-766.095498
3309.532986,-9474.636058,3627.009116,-536.266849
3309.533323,-9178.553681,3775.050304,229.828649
3309.533661,-9548.656652,3034.844362,306.438199
3309.533999,-11177.109724,740.205942,-842.705048
3309.534336,-10140.821405,-1480.411884,-1532.190996
3309.534674,-7846.182985,592.164754,-689.485948
3309.535011,-9030.512492,518.144159,1149.143247
3309.535349,-11769.274478,0.000000,306.438199
3309.535687,-10807.006753,-1850.514855,-2834.553343
3309.536024,-9548.656652,-1554.432478,-1608.800546
3309.536362,-8586.388927,-1258.350101,229.828649
3309.536699,-8808.450710,-2220.617826,1532.190996
3309.537037,-10658.965565,-4219.173869,689.485948
3309.537374,-10140.821405,-4663.297435,-689.485948
3309.537712,-9104.533087,-2442.679609,0.000000
3309.538050,-9400.615463,-1776.494261,536.266849
3309.538387,-10955.047942,-1628.453072,1072.533697
3309.538725,-11917.315666,-2664.741391,-1149.143247
3309.539062,-9844.739029,-1628.453072,-76.609550
3309.539400,-8512.368333,-592.164754,1838.629195
3309.539738,-10140.821405,-1184.329507,3524.039291
3309.540075,-11843.295072,-2146.597232,3064.381992
3309.540413,-11325.150913,-2442.679609,1455.581446
3309.540750,-10214.842000,0.000000,1762.019645
3309.541088,-9326.594869,1110.308913,2221.676944
3309.541425,-10881.027347,962.267725,766.095498
3309.541763,-11843.295072,222.061783,-919.314598
3309.542101,-10732.986159,814.226536,-1838.629195
3309.542438,-8882.471304,1332.370696,-1225.752797
3309.542776,-9178.553681,1702.473667,-766.095498
3309.543113,-10140.821405,0.000000,-689.485948
3309.543451,-10140.821405,-2368.659014,-612.876398
3309.543789,-8290.306550,-1036.288319,-153.219100
3309.544126,-7994.224174,740.205942,1685.410096
3309.544464,-10214.842000,1036.288319,2374.896044
3309.544801,-11843.295072,0.000000,0.000000
3309.545139,-10140.821405,-444.123565,-153.219100
3309.545476,-8438.347739,1480.411884,1225.752797
3309.545814,-8734.430116,1406.391290,2451.505594
3309.546152,-11029.068536,740.205942,1915.238745
3309.546489,-10436.903782,-1480.411884,76.609550
3309.546827,-8882.471304,-1110.308913,306.438199
3309.547164,-7624.121203,666.185348,1225.752797
3309.547502,-9400.615463,1110.308913,919.314598
3309.547840,-12435.459826,888.247130,-459.657299
3309.548177,-11103.089130,-370.102971,-3294.210641
3309.548515,-8734.430116,1036.288319,-1762.019645
3309.548852,-9104.533087,444.123565,229.828649
3309.549190,-11029.068536,-962.267725,766.095498
3309.549527,-11991.336260,-2960.823768,-842.705048
3309.549865,-10436.903782,-2812.782580,-919.314598
3309.550203,-9400.615463,-1184.329507,-153.219100
3309.550540,-10584.944971,-962.267725,536.266849
3309.550878,-12361.439231,-1110.308913,306.438199
3309.551215,-11473.192101,-2442.679609,-2298.286494
3309.551553,-9622.677246,0.000000,-1072.533697
3309.551891,-8956.491898,296.082377,306.438199
3309.552228,-10214.842000,-518.144159,1302.362347
3309.552566,-10732.986159,-3182.885551,1455.581446
3309.552903,-9548.656652,-1628.453072,2451.505594
3309.553241,-8808.450710,518.144159,3294.210641
3309.553578,-9770.718434,2442.679609,2604.724693
3309.553916,-12139.377449,1480.411884,1072.533697
3309.554254,-11843.295072,1036.288319,-1455.581446
3309.554591,-8734.430116,1998.556043,-612.876398
3309.554929,-8068.244768,3256.906145,1378.971896
3309.555266,-8956.491898,1924.535449,689.485948
3309.555604,-10066.800811,666.185348,-1072.533697
3309.555942,-9252.574275,222.061783,-1225.752797
3309.556279,-8290.306550,1702.473667,-383.047749
3309.556617,-9474.636058,2960.823768,919.314598
3309.556954,-11621.233289,1110.308913,-612.876398
3309.557292,-10658.965565,148.041188,-2374.896044
3309.557629,-9178.553681,222.061783,-1455.581446
3309.557967,-8956.491898,1406.391290,612.876398
3309.558305,-10066.800811,222.061783,1225.752797
3309.558642,-11769.274478,-2146.597232,76.609550
3309.558980,-9918.759623,-2664.741391,-306.438199
3309.559317,-8808.450710,-1184.329507,1149.143247
3309.559655,-9474.636058,74.020594,2757.943793
3309.559993,-11695.253884,-666.185348,919.314598
3309.560330,-11991.336260,-1258.350101,-1072.533697
3309.560668,-10732.986159,-814.226536,-689.485948
3309.561005,-8660.409521,296.082377,919.314598
3309.561343,-9104.533087,-814.226536,1838.629195
3309.561680,-11177.109724,-2812.782580,1149.143247
3309.562018,-10658.965565,-3552.988522,0.000000
3309.562356,-9252.574275,-1850.514855,459.657299
3309.562693,-8808.450710,-666.185348,1302.362347
3309.563031,-10288.862594,-814.226536,0.000000
3309.563368,-11695.253884,-2368.659014,-2298.286494
3309.563706,-10140.821405,-1998.556043,-2451.505594
3309.564044,-7772.162391,-1110.308913,-995.924147
3309.564381,-8586.388927,-666.185348,842.705048
3309.564719,-11029.068536,-2368.659014,842.705048
3309.565056,-11177.109724,-3404.947333,0.000000
3309.565394,-9474.636058,-1628.453072,995.924147
3309.565731,-8956.491898,74.020594,2145.067394
3309.566069,-10955.047942,740.205942,1685.410096
3309.566407,-12065.356855,-814.226536,153.219100
3309.566744,-10362.883188,0.000000,306.438199
3309.567082,-7994.224174,1776.494261,1378.971896
3309.567419,-8956.491898,2072.576638,2681.334243
3309.567757,-11399.171507,1332.370696,2145.067394
3309.568095,-11695.253884,-518.144159,306.438199
3309.568432,-9252.574275,1258.350101,-229.828649
3309.568770,-7846.182985,2442.679609,612.876398
3309.569107,-9400.615463,3182.885551,1378.971896
3309.569445,-12139.377449,740.205942,-1532.190996
3309.569782,-10362.883188,888.247130,-2145.067394
3309.570120,-7550.100608,1480.411884,-2145.067394
3309.570458,-8364.327145,1776.494261,153.219100
3309.570795,-10732.986159,-370.102971,459.657299
3309.571133,-10436.903782,-3404.947333,-1455.581446
3309.571470,-8586.388927,-1776.494261,-842.705048
3309.571808,-7994.224174,-592.164754,766.095498
3309.572146,-9992.780217,222.061783,1302.362347
3309.572483,-12509.480420,-2220.617826,-536.266849
3309.572821,-11325.150913,-2220.617826,-1762.019645
3309.573158,-8660.409521,-962.267725,-306.438199
3309.573496,-9030.512492,-296.082377,2068.457845
3309.573834,-10955.047942,-1554.432478,2528.115143
3309.574171,-11251.130318,-3108.864956,0.000000
3309.574509,-9918.759623,-1480.411884,459.657299
3309.574846,-9400.615463,148.041188,689.485948
3309.575184,-10288.862594,740.205942,2145.067394
3309.575521,-12731.542202,-444.123565,459.657299
3309.575859,-10732.986159,-962.267725,-919.314598
3309.576197,-9252.574275,1850.514855,306.438199
3309.576534,-8586.388927,1554.432478,2145.067394
3309.576872,-10732.986159,74.020594,1378.971896
3309.577209,-11991.336260,-1406.391290,-689.485948
3309.577547,-10066.800811,-1258.350101,-766.095498
3309.577885,-8216.285956,1184.329507,-306.438199
3309.578222,-9104.533087,1184.329507,689.485948
3309.578560,-11621.233289,222.061783,-229.828649
3309.578897,-10658.965565,-888.247130,-1762.019645
3309.579235,-8734.430116,370.102971,-76.609550
3309.579572,-8216.285956,1406.391290,1225.752797
3309.579910,-9622.677246,0.000000,2528.115143
3309.580248,-10955.047942,-1850.514855,459.657299
3309.580585,-9622.677246,-1702.473667,1455.581446
3309.580923,-8290.306550,888.247130,2681.334243
3309.581260,-8438.347739,1702.473667,1685.410096
3309.581598,-11621.233289,1110.308913,536.266849
3309.581936,-10881.027347,-666.185348,-1532.190996
3309.582273,-8586.388927,370.102971,-1302.362347
3309.582611,-7846.182985,888.247130,689.485948
3309.582948,-9770.718434,1480.411884,766.095498
3309.583286,-11917.315666,-1480.411884,-536.266849
3309.583623,-10732.986159,-2072.576638,-2145.067394
3309.583961,-7920.203579,444.123565,-1685.410096
3309.584299,-9178.553681,444.123565,0.000000
3309.584636,-12509.480420,-814.226536,-1378.971896
3309.584974,-12361.439231,-2886.803174,-3753.867940
3309.585311,-9474.636058,-1998.556043,-2604.724693
3309.585649,-7920.203579,-1332.370696,153.219100
3309.585987,-9696.697840,-2294.638420,1915.238745
3309.586324,-12879.583391,-4219.173869,995.924147
3309.586662,-10807.006753,-4589.276840,-1378.971896
3309.586999,-7994.224174,-2442.679609,0.000000
3309.587337,-8734.430116,-1036.288319,2528.115143
3309.587674,-11843.295072,-1258.350101,1838.629195
3309.588012,-12509.480420,-2294.638420,-536.266849
3309.588350,-9104.533087,-1258.350101,-229.828649
3309.588687,-7698.141797,296.082377,2604.724693
3309.589025,-9474.636058,962.267725,4060.306139
3309.589362,-12065.356855,-814.226536,2374.896044
3309.589700,-10658.965565,-962.267725,-153.219100
3309.590038,-9178.553681,1110.308913,1302.362347
3309.590375,-8734.430116,3701.029710,2374.896044
3309.590713,-11177.109724,2368.659014,766.095498
3309.591050,-11621.233289,740.205942,-1915.238745
3309.591388,-8882.471304,1110.308913,-2681.334243
3309.591725,-7698.141797,2886.803174,383.047749
3309.592063,-9474.636058,3034.844362,1302.362347
3309.592401,-12287.418637,666.185348,229.828649
3309.592738,-11325.150913,-1184.329507,-1608.800546
3309.593076,-8512.368333,1332.370696,-459.657299
3309.593413,-8660.409521,1776.494261,1762.019645
3309.593751,-10584.944971,888.247130,1302.362347
3309.594089,-11695.253884,-1036.288319,-1608.800546
3309.594426,-9918.759623,-1036.288319,-995.924147
3309.594764,-8142.265362,814.226536,612.876398
3309.595101,-8586.388927,1184.329507,1991.848295
3309.595439,-12509.480420,-1184.329507,1225.752797
3309.595776,-10881.027347,-2590.720797,-383.047749
3309.596114,-8956.491898,-888.247130,842.705048
3309.596452,-8364.327145,148.041188,2145.067394
3309.596789,-10584.944971,592.164754,1532.190996
3309.597127,-12657.521608,-1110.308913,-1685.410096
3309.597464,-10732.986159,-1480.411884,-3064.381992
3309.597802,-7476.080014,-296.082377,-612.876398
3309.598140,-8660.409521,-666.185348,2145.067394
3309.598477,-11029.068536,-2368.659014,766.095498
3309.598815,-11473.192101,-3701.029710,-1455.581446
3309.599152,-9918.759623,-1998.556043,-689.485948
3309.599490,-8956.491898,0.000000,842.705048
3309.599827,-10510.924376,0.000000,153.219100
3309.600165,-12583.501014,-2294.638420,-2374.896044
3309.600503,-10066.800811,-2294.638420,-2221.676944
3309.600840,-7994.224174,-222.061783,0.000000
3309.601178,-8586.388927,222.061783,2681.334243
3309.601515,-12287.418637,-592.164754,1762.019645
3309.601853,-12361.439231,-2294.638420,766.095498
3309.602191,-10436.903782,-444.123565,1915.238745
3309.602528,-7846.182985,2220.617826,3447.429741
3309.602866,-9400.615463,2516.700203,3217.601092
3309.603203,-11547.212695,592.164754,1685.410096
3309.603541,-11029.068536,222.061783,0.000000
3309.603878,-7920.203579,2220.617826,689.485948
3309.604216,-8142.265362,2220.617826,2298.286494
3309.604554,-10362.883188,1850.514855,1149.143247
3309.604891,-11621.233289,-1110.308913,-2374.896044
3309.605229,-8586.388927,-444.123565,-1685.410096
3309.605566,-6809.894666,222.061783,306.438199
3309.605904,-8586.388927,666.185348,1838.629195
3309.606242,-11991.336260,0.000000,-1302.362347
3309.606579,-11325.150913,-2368.659014,-3907.087040
3309.606917,-8364.327145,-1184.329507,-1685.410096
3309.607254,-7846.182985,-1036.288319,1532.190996
3309.607592,-9992.780217,-1702.473667,2145.067394
3309.607929,-12361.439231,-3627.009116,612.876398
3309.608267,-10732.986159,-2812.782580,-459.657299
3309.608605,-9178.553681,-962.267725,1455.581446
3309.608942,-11029.068536,-666.185348,2451.505594
3309.609280,-12435.459826,-1332.370696,766.095498
3309.609617,-11399.171507,-2442.679609,-1225.752797
3309.609955,-9474.636058,-592.164754,229.828649
3309.610292,-8216.285956,0.000000,1378.971896
3309.610630,-10436.903782,0.000000,2451.505594
3309.610968,-12509.480420,-1776.494261,153.219100
3309.611305,-10658.965565,-1628.453072,-306.438199
3309.611643,-9030.512492,1036.288319,1608.800546
3309.611980,-9474.636058,1184.329507,1838.629195
3309.612318,-11325.150913,148.041188,-153.219100
3309.612655,-10955.047942,-1184.329507,-2911.162892
3309.612993,-8364.327145,74.020594,-1915.238745
3309.613330,-8068.244768,814.226536,-536.266849
3309.613668,-9104.533087,0.000000,0.000000
3309.614006,-11029.068536,-1332.370696,-1149.143247
3309.614343,-9696.697840,-2220.617826,-1455.581446
3309.614681,-8290.306550,0.000000,0.000000
3309.615018,-8364.327145,1850.514855,1378.971896
3309.615356,-11399.171507,962.267725,229.828649
3309.615693,-11621.233289,74.020594,-2145.067394
3309.616031,-9918.759623,592.164754,-919.314598
3309.616368,-8364.327145,2220.617826,2068.457845
3309.616706,-10214.842000,1628.453072,3217.601092
3309.617043,-12435.459826,666.185348,1608.800546
3309.617381,-10658.965565,-370.102971,-612.876398
3309.617719,-9474.636058,1554.432478,1378.971896
3309.618056,-9844.739029,2146.597232,2374.896044
3309.618394,-11251.130318,1924.535449,536.266849
3309.618731,-11177.109724,1110.308913,-1991.848295
3309.619069,-9104.533087,74.020594,-2911.162892
3309.619406,-8068.244768,1702.473667,76.609550
3309.619744,-9474.636058,0.000000,1072.533697
3309.620081,-11621.233289,-1850.514855,-153.219100
3309.620419,-10214.842000,-1924.535449,-2068.457845
3309.620757,-9474.636058,-666.185348,-1072.533697
3309.621094,-9252.574275,-666.185348,229.828649
3309.621432,-10362.883188,-1184.329507,-689.485948
3309.621769,-11399.171507,-2220.617826,-1378.971896
3309.622107,-10140.821405,-2812.782580,-766.095498
3309.622444,-7920.203579,-2072.576638,766.095498
3309.622782,-9104.533087,-1776.494261,3140.991542
3309.623119,-11547.212695,-2738.761985,3524.039291
3309.623457,-11843.295072,-2960.823768,2068.457845
3309.623795,-9918.759623,-962.267725,1762.019645
3309.624132,-9622.677246,962.267725,2757.943793
3309.624470,-10955.047942,1776.494261,2145.067394
3309.624807,-12435.459826,-74.020594,0.000000
3309.625145,-10362.883188,0.000000,-536.266849
3309.625482,-8734.430116,666.185348,1072.533697
3309.625820,-8734.430116,1702.473667,1991.848295
3309.626157,-10955.047942,444.123565,459.657299
3309.626495,-11177.109724,-1184.329507,-1302.362347
3309.626833,-8808.450710,-222.061783,-766.095498
3309.627170,-8142.265362,888.247130,306.438199
3309.627508,-9696.697840,2072.576638,306.438199
3309.627845,-11547.212695,-444.123565,-2298.286494
3309.628183,-9918.759623,-1554.432478,-2987.772442
3309.628520,-7698.141797,-1554.432478,-383.047749
3309.628858,-7846.182985,-74.020594,1838.629195
3309.629195,-10214.842000,-1702.473667,1225.752797
3309.629533,-11621.233289,-3034.844362,-689.485948
3309.629871,-9770.718434,-2664.741391,-306.438199
3309.630208,-8808.450710,-1332.370696,536.266849
3309.630546,-9696.697840,740.205942,2374.896044
3309.630883,-11843.295072,-592.164754,995.924147
3309.631221,-10881.027347,-1036.288319,-1532.190996
3309.631558,-8512.368333,0.000000,-689.485948
3309.631896,-8956.491898,666.185348,2298.286494
3309.632233,-11103.089130,-518.144159,2145.067394
3309.632571,-11843.295072,-2812.782580,459.657299
3309.632908,-11103.089130,-1036.288319,0.000000
3309.633246,-9474.636058,222.061783,689.485948
3309.633584,-10584.944971,1702.473667,306.438199
3309.633921,-12139.377449,0.000000,-1838.629195
3309.634259,-10955.047942,-1036.288319,-2681.334243
3309.634596,-8808.450710,-370.102971,-1915.238745
3309.634934,-8586.388927,74.020594,0.000000
3309.635271,-9548.656652,-888.247130,1685.410096
3309.635609,-11843.295072,-3256.906145,229.828649
3309.635946,-9844.739029,-2516.700203,383.047749
3309.636284,-7772.162391,222.061783,1915.238745
3309.636622,-8808.450710,1406.391290,2528.115143
3309.636959,-11547.212695,148.041188,612.876398
3309.637297,-11473.192101,-1184.329507,-1072.533697
3309.637634,-8956.491898,740.205942,76.609550
3309.637972,-7920.203579,1110.308913,3140.991542
3309.638309,-9770.718434,1776.494261,4060.306139
3309.638647,-11251.130318,740.205942,1685.410096
3309.638984,-10881.027347,296.082377,612.876398
3309.639322,-9474.636058,2590.720797,1762.019645
3309.639660,-10066.800811,3552.988522,2681.334243
3309.639997,-11843.295072,3627.009116,689.485948
3309.640335,-11991.336260,1184.329507,-2834.553343
3309.640672,-9252.574275,1776.494261,-2298.286494
3309.641010,-7254.018232,1332.370696,-459.657299
3309.641347,-8660.409521,666.185348,459.657299
3309.641685,-11325.150913,-888.247130,-689.485948
3309.642022,-10510.924376,-2220.617826,-2451.505594
3309.642360,-9030.512492,0.000000,-842.705048
3309.642698,-9844.739029,296.082377,76.609550
3309.643035,-11103.089130,1110.308913,-383.047749
3309.643373,-11325.150913,-1998.556043,-2834.553343
3309.643710,-8956.491898,-1258.350101,-2068.457845
3309.644048,-7402.059420,-1480.411884,766.095498
3309.644385,-9400.615463,-1776.494261,2604.724693
3309.644723,-12213.398043,-2442.679609,1532.190996
3309.645060,-11843.295072,-2812.782580,-383.047749
3309.645398,-9696.697840,-666.185348,919.314598
3309.645736,-9104.533087,1036.288319,1225.752797
3309.646073,-10584.944971,1628.453072,995.924147
3309.646411,-11991.336260,-370.102971,-1378.971896
3309.646748,-10436.903782,-814.226536,-995.924147
3309.647086,-8808.450710,222.061783,1685.410096
3309.647423,-9474.636058,666.185348,2681.334243
3309.647761,-11843.295072,-888.247130,1302.362347
3309.648098,-11251.130318,-2664.741391,-383.047749
3309.648436,-9326.594869,-592.164754,689.485948
3309.648773,-8512.368333,1480.411884,612.876398
3309.649111,-10436.903782,1184.329507,153.219100
3309.649449,-11991.336260,-666.185348,-1915.238745
3309.649786,-10066.800811,-2220.617826,-2451.505594
3309.650124,-7179.997637,592.164754,0.000000
3309.650461,-6883.915261,1184.329507,1685.410096
3309.650799,-9770.718434,-962.267725,612.876398
3309.651136,-10955.047942,-2886.803174,-306.438199
3309.651474,-8956.491898,-592.164754,76.609550
3309.651811,-8660.409521,1258.350101,2451.505594
3309.652149,-10436.903782,1406.391290,2374.896044
3309.652487,-11991.336260,74.020594,306.438199
3309.652824,-10807.006753,-370.102971,-842.705048
3309.653162,-7698.141797,444.123565,536.266849
3309.653499,-8068.244768,888.247130,2374.896044
3309.653837,-10510.924376,-1184.329507,1225.752797
3309.654174,-11843.295072,-2812.782580,-842.705048
3309.654512,-10214.842000,-1850.514855,-689.485948
3309.654849,-7920.203579,296.082377,0.000000
3309.655187,-9622.677246,296.082377,76.609550
3309.655525,-12879.583391,-814.226536,-2451.505594
3309.655862,-10881.027347,-1332.370696,-4290.134789
3309.656200,-8808.450710,-740.205942,-1685.410096
3309.656537,-8586.388927,-1184.329507,1455.581446
3309.656875,-11251.130318,-1850.514855,1991.848295
3309.657212,-13027.624579,-3701.029710,536.266849
3309.657550,-10658.965565,-3404.947333,0.000000
3309.657887,-8956.491898,-740.205942,2451.505594
3309.658225,-10436.903782,0.000000,3294.210641
3309.658563,-12435.459826,-888.247130,1149.143247
3309.658900,-11251.130318,-1036.288319,-1532.190996
3309.659238,-8438.347739,222.061783,229.828649
3309.659575,-8216.285956,1332.370696,3064.381992
3309.659913,-10066.800811,222.061783,4213.525239
3309.660250,-11473.192101,-740.205942,1532.190996
3309.660588,-10436.903782,-296.082377,1149.143247
3309.660925,-8586.388927,2368.659014,2221.676944
3309.661263,-8956.491898,4071.132681,1838.629195
3309.661601,-11843.295072,2072.576638,-306.438199
3309.661938,-10584.944971,518.144159,-3064.381992
3309.662276,-7624.121203,1776.494261,-2374.896044
3309.662613,-6883.915261,1332.370696,0.000000
3309.662951,-8734.430116,1406.391290,1149.143247
3309.663288,-11547.212695,-1924.535449,-383.047749
3309.663626,-10362.883188,-592.164754,-1302.362347
3309.663963,-7994.224174,444.123565,76.609550
3309.664301,-10066.800811,2664.741391,2374.896044
3309.664638,-11843.295072,518.144159,-842.705048
3309.664976,-11991.336260,-1332.370696,-2987.772442
3309.665314,-8660.409521,-592.164754,-995.924147
3309.665651,-7994.224174,148.041188,1838.629195
3309.665989,-10955.047942,888.247130,2528.115143
3309.666326,-13619.789333,-1850.514855,0.000000
3309.666664,-10658.965565,-1406.391290,-1838.629195
3309.667001,-8660.409521,-444.123565,0.000000
3309.667339,-9030.512492,1406.391290,1838.629195
3309.667676,-11769.274478,296.082377,76.609550
3309.668014,-12583.501014,-1332.370696,-2298.286494
3309.668352,-8956.491898,0.000000,-2451.505594
3309.668689,-7920.203579,222.061783,306.438199
3309.669027,-10066.800811,0.000000,2451.505594
3309.669364,-11917.315666,-3404.947333,383.047749
3309.669702,-10140.821405,-3034.844362,-919.314598
3309.670039,-8364.327145,-814.226536,383.047749
3309.670377,-9252.574275,296.082377,1762.019645
3309.670714,-11325.150913,-814.226536,-153.219100
3309.671052,-11695.253884,-2516.700203,-2451.505594
3309.671390,-8512.368333,-1258.350101,-1532.190996
3309.671727,-7402.059420,148.041188,842.705048
3309.672065,-9252.574275,370.102971,2528.115143
3309.672402,-11843.295072,-2220.617826,1838.629195
3309.672740,-11843.295072,-2516.700203,1072.533697
3309.673077,-9252.574275,592.164754,2834.553343
3309.673415,-9252.574275,1702.473667,4443.353888
3309.673752,-10510.924376,1998.556043,3370.820191
3309.674090,-11843.295072,888.247130,229.828649
3309.674428,-10140.821405,592.164754,0.000000
3309.674765,-8512.368333,3108.864956,1302.362347
3309.675103,-9844.739029,2442.679609,2221.676944
3309.675440,-12509.480420,962.267725,76.609550
3309.675778,-10362.883188,-1480.411884,-1915.238745
3309.676115,-8216.285956,74.020594,76.609550
3309.676453,-7624.121203,740.205942,842.705048
3309.676790,-10140.821405,1110.308913,-76.609550
3309.677128,-12139.377449,-888.247130,-3600.648841
3309.677466,-9844.739029,-2146.597232,-4136.915689
3309.677803,-7846.182985,-592.164754,-995.924147
3309.678141,-9030.512492,-1554.432478,1991.848295
3309.678478,-10658.965565,-2294.638420,842.705048
3309.678816,-11029.068536,-4145.153275,-612.876398
3309.679153,-9178.553681,-2072.576638,76.609550
3309.679491,-9252.574275,-814.226536,1149.143247
3309.679828,-11621.233289,-888.247130,1762.019645
3309.680166,-12657.521608,-1998.556043,-689.485948
3309.680503,-9844.739029,-1480.411884,-2221.676944
3309.680841,-7994.224174,592.164754,229.828649
3309.681179,-8882.471304,74.020594,2451.505594
3309.681516,-11029.068536,-666.185348,1455.581446
3309.681854,-11695.253884,-2220.617826,-919.314598
3309.682191,-10214.842000,-222.061783,842.705048
3309.682529,-9474.636058,962.267725,2374.896044
3309.682866,-11029.068536,2442.679609,1608.800546
3309.683204,-12213.398043,74.020594,-1608.800546
3309.683541,-10362.883188,814.226536,-2451.505594
3309.683879,-8142.265362,1406.391290,-536.266849
3309.684217,-8660.409521,1924.535449,612.876398
3309.684554,-11251.130318,296.082377,76.609550
3309.684892,-11621.233289,-1406.391290,-1532.190996
3309.685229,-8956.491898,-1332.370696,0.000000
3309.685567,-7698.141797,148.041188,2451.505594
3309.685904,-8586.388927,1702.473667,2911.162892
3309.686242,-11695.253884,148.041188,383.047749
3309.686579,-10658.965565,-148.041188,-1225.752797
3309.686917,-8882.471304,814.226536,766.095498
3309.687255,-8438.347739,2442.679609,2681.334243
3309.687592,-11029.068536,1554.432478,2145.067394
3309.687930,-12139.377449,-592.164754,536.266849
3309.688267,-9178.553681,-962.267725,-919.314598
3309.688605,-7920.203579,888.247130,1838.629195
3309.688942,-9252.574275,1406.391290,2911.162892
3309.689280,-12139.377449,0.000000,76.609550
3309.689617,-11251.130318,-444.123565,-3217.601092
3309.689955,-8586.388927,518.144159,-2298.286494
3309.690293,-8660.409521,1184.329507,766.095498
3309.690630,-10584.944971,-666.185348,1072.533697
3309.690968,-11843.295072,-3108.864956,-1378.971896
3309.691305,-9548.656652,-2516.700203,-1378.971896
3309.691643,-9400.615463,-1332.370696,612.876398
3309.691980,-10066.800811,-444.123565,1455.581446
3309.692318,-11769.274478,-1850.514855,-995.924147
3309.692655,-11769.274478,-2368.659014,-2451.505594
3309.692993,-10140.821405,-1554.432478,-1149.143247
3309.693330,-8586.388927,-592.164754,689.485948
3309.693668,-10066.800811,-1480.411884,1608.800546
3309.694006,-11843.295072,-2664.741391,1302.362347
3309.694343,-9696.697840,-2368.659014,1225.752797
3309.694681,-9030.512492,-222.061783,2681.334243
3309.695018,-10066.800811,814.226536,3370.820191
3309.695356,-11843.295072,592.164754,1302.362347
3309.695693,-11843.295072,-370.102971,-612.876398
3309.696031,-9178.553681,814.226536,76.609550
3309.696368,-7698.141797,1998.556043,1302.362347
3309.696706,-8956.491898,1406.391290,1532.190996
3309.697044,-10955.047942,-592.164754,-766.095498
3309.697381,-10066.800811,-370.102971,-1378.971896
3309.697719,-8438.347739,740.205942,0.000000
3309.698056,-8142.265362,1110.308913,536.266849
3309.698394,-10066.800811,1110.308913,-229.828649
3309.698731,-11473.192101,-888.247130,-1991.848295
3309.699069,-9474.636058,0.000000,-1608.800546
3309.699406,-8142.265362,370.102971,842.705048
3309.699744,-10362.883188,814.226536,2374.896044
3309.700082,-12435.459826,-2368.659014,689.485948
3309.700419,-11399.171507,-2146.597232,689.485948
3309.700757,-9474.636058,-1184.329507,1838.629195
3309.701094,-8734.430116,-666.185348,2681.334243
3309.701432,-10510.924376,444.123565,1378.971896
3309.701769,-12731.542202,-962.267725,-306.438199
3309.702107,-10658.965565,-148.041188,-1149.143247
3309.702444,-8660.409521,296.082377,76.609550
3309.702782,-9770.718434,518.144159,2298.286494
3309.703120,-11029.068536,-592.164754,536.266849
3309.703457,-10955.047942,-2220.617826,-1225.752797
3309.703795,-8512.368333,-962.267725,153.219100
3309.704132,-8882.471304,222.061783,1149.143247
3309.704470,-10807.006753,222.061783,383.047749
3309.704807,-12065.356855,-1554.432478,-2911.162892
3309.705145,-9400.615463,-1036.288319,-3524.039291
3309.705482,-7994.224174,296.082377,-995.924147
3309.705820,-8216.285956,-296.082377,842.705048
3309.706158,-10584.944971,-1406.391290,0.000000
3309.706495,-11547.212695,-2664.741391,-842.705048
3309.706833,-10140.821405,-888.247130,306.438199
3309.707170,-9622.677246,888.247130,1685.410096
3309.707508,-10658.965565,1554.432478,766.095498
3309.707845,-11991.336260,-148.041188,-612.876398
3309.708183,-10881.027347,0.000000,-689.485948
3309.708520,-8438.347739,1850.514855,1532.190996
3309.708858,-9178.553681,2220.617826,3370.820191
3309.709195,-11843.295072,962.267725,2298.286494
3309.709533,-11843.295072,296.082377,153.219100
3309.709871,-9548.656652,444.123565,459.657299
3309.710208,-7772.162391,2220.617826,2221.676944
3309.710546,-9400.615463,3330.926739,2451.505594
3309.710883,-11917.315666,962.267725,-383.047749
3309.711221,-10436.903782,148.041188,-2911.162892
3309.711558,-8512.368333,1406.391290,-1149.143247
3309.711895,-8364.327145,1110.308913,919.314598
3309.712233,-9548.656652,-444.123565,-383.047749
3309.712570,-9992.780217,-3034.844362,-1608.800546
3309.712908,-8956.491898,-2516.700203,-1378.971896
3309.713245,-8364.327145,-1406.391290,1455.581446
3309.713583,-10584.944971,-888.247130,2145.067394
3309.713920,-12065.356855,-1628.453072,-229.828649
3309.714258,-11325.150913,-2738.761985,-1378.971896
3309.714595,-9326.594869,-1554.432478,536.266849
3309.714933,-8512.368333,-1110.308913,2298.286494
3309.715270,-10584.944971,-1850.514855,2451.505594
3309.715608,-12287.418637,-3182.885551,459.657299
3309.715945,-10881.027347,-2664.741391,459.657299
3309.716282,-9992.780217,148.041188,2068.457845
3309.716620,-10510.924376,740.205942,2451.505594
3309.716957,-12139.377449,148.041188,0.000000
3309.717295,-11917.315666,-592.164754,-2451.505594
3309.717632,-8882.471304,666.185348,-1838.629195
3309.717970,-7402.059420,962.267725,229.828649
3309.718307,-9548.656652,0.000000,919.314598
3309.718645,-11399.171507,-2294.638420,-536.266849
3309.718982,-9770.718434,-1998.556043,-689.485948
3309.719320,-8512.368333,-518.144159,766.095498
3309.719657,-8882.471304,222.061783,1302.362347
3309.719995,-11029.068536,-814.226536,306.438199
3309.720332,-11695.253884,-2146.597232,-1762.019645
3309.720669,-8290.306550,-296.082377,-1608.800546
3309.721007,-6661.853478,888.247130,612.876398
3309.721344,-9474.636058,0.000000,1455.581446
3309.721682,-11399.171507,-1776.494261,-383.047749
3309.722019,-9918.759623,-1924.535449,-536.266849
3309.722357,-8660.409521,0.000000,2374.896044
3309.722694,-9252.574275,1480.411884,3677.258390
3309.723032,-11325.150913,2294.638420,1378.971896
3309.723369,-13101.645173,0.000000,-229.828649
3309.723707,-10066.800811,222.061783,0.000000
3309.724044,-8512.368333,1258.350101,2298.286494
3309.724382,-10362.883188,666.185348,3217.601092
3309.724719,-12287.418637,-1184.329507,995.924147
3309.725057,-10807.006753,-1184.329507,-1532.190996
3309.725394,-8512.368333,-296.082377,0.000000
3309.725731,-9474.636058,1924.535449,842.705048
3309.726069,-11621.233289,592.164754,-689.485948
3309.726406,-12139.377449,-1554.432478,-3140.991542
3309.726744,-9400.615463,-1406.391290,-3524.039291
3309.727081,-7994.224174,-666.185348,383.047749
3309.727419,-8512.368333,-1110.308913,2145.067394
3309.727756,-10881.027347,-3108.864956,536.266849
3309.728094,-10658.965565,-3256.906145,-842.705048
3309.728431,-8956.491898,-1036.288319,229.828649
3309.728769,-9030.512492,0.000000,1838.629195
3309.729106,-11399.171507,-444.123565,1532.190996
3309.729444,-12139.377449,-1258.350101,-766.095498
3309.729781,-9104.533087,-592.164754,-766.095498
3309.730118,-7846.182985,518.144159,2298.286494
3309.730456,-8512.368333,1554.432478,3370.820191
3309.730793,-11399.171507,-148.041188,2145.067394
3309.731131,-11547.212695,-1110.308913,766.095498
3309.731468,-9770.718434,1406.391290,1225.752797
3309.731806,-9622.677246,3775.050304,2374.896044
3309.732143,-11769.274478,3108.864956,689.485948
3309.732481,-12657.521608,1110.308913,-2451.505594
3309.732818,-9770.718434,962.267725,-3294.210641
3309.733156,-7105.977043,1998.556043,-995.924147
3309.733493,-8364.327145,2368.659014,612.876398
3309.733831,-11103.089130,370.102971,-842.705048
3309.734168,-11399.171507,-1776.494261,-2451.505594
3309.734505,-9474.636058,-814.226536,-1302.362347
3309.734843,-8142.265362,74.020594,1149.143247
3309.735180,-10658.965565,518.144159,2145.067394
3309.735518,-12139.377449,-1332.370696,-842.705048
3309.735855,-10066.800811,-1776.494261,-1149.143247
3309.736193,-8808.450710,-518.144159,919.314598
3309.736530,-8660.409521,-370.102971,2604.724693
3309.736868,-10807.006753,-1184.329507,1685.410096
3309.737205,-11621.233289,-3404.947333,-383.047749
3309.737543,-8364.327145,-1850.514855,-919.314598
3309.737880,-7772.162391,-370.102971,1685.410096
3309.738218,-10214.842000,74.020594,1991.848295
3309.738555,-12287.418637,-1184.329507,-1378.971896
3309.738892,-11251.130318,-1332.370696,-2374.896044
3309.739230,-8660.409521,-370.102971,-383.047749
3309.739567,-8734.430116,-222.061783,1838.629195
3309.739905,-11843.295072,-1554.432478,995.924147
3309.740242,-12065.356855,-3034.844362,-1685.410096
3309.740580,-9474.636058,-2442.679609,-1532.190996
3309.740917,-7994.224174,-592.164754,919.314598
3309.741255,-9770.718434,-222.061783,2145.067394
3309.741592,-12583.501014,-1628.453072,-459.657299
3309.741930,-11695.253884,-2294.638420,-1762.019645
3309.742267,-8882.471304,-222.061783,-995.924147
3309.742605,-8216.285956,74.020594,2145.067394
3309.742942,-10510.924376,0.000000,2528.115143
3309.743279,-12361.439231,-2812.782580,919.314598
3309.743617,-9400.615463,-592.164754,1149.143247
3309.743954,-8142.265362,1406.391290,2987.772442
3309.744292,-10066.800811,2664.741391,4213.525239
3309.744629,-12509.480420,1406.391290,995.924147
3309.744967,-11991.336260,-296.082377,-1225.752797
3309.745304,-7994.224174,1776.494261,0.000000
3309.745642,-6439.791695,2886.803174,2221.676944
3309.745979,-9622.677246,1776.494261,2604.724693
3309.746317,-10807.006753,-518.144159,-1225.752797
3309.746654,-9178.553681,-740.205942,-1302.362347
3309.746992,-8216.285956,740.205942,612.876398
3309.747329,-9326.594869,1850.514855,842.705048
3309.747667,-11621.233289,666.185348,-1378.971896
3309.748004,-10955.047942,-1702.473667,-4213.525239
3309.748341,-8808.450710,-1332.370696,-2374.896044
3309.748679,-8216.285956,-592.164754,383.047749
3309.749016,-9992.780217,-1184.329507,2298.286494
3309.749354,-11695.253884,-3627.009116,-1149.143247
3309.749691,-10510.924376,-3330.926739,-1378.971896
3309.750029,-9030.512492,-1258.350101,1838.629195
3309.750366,-9548.656652,222.061783,2145.067394
3309.750704,-12435.459826,-740.205942,919.314598
3309.751041,-12879.583391,-1924.535449,-1149.143247
3309.751379,-9918.759623,-814.226536,-995.924147
3309.751716,-8290.306550,518.144159,1838.629195
3309.752054,-9918.759623,222.061783,3524.039291
3309.752391,-11991.336260,-1480.411884,536.266849
3309.752728,-11325.150913,-1776.494261,-689.485948
3309.753066,-8882.471304,1480.411884,536.266849
3309.753403,-9770.718434,1702.473667,1685.410096
3309.753741,-10881.027347,962.267725,-229.828649
3309.754078,-11177.109724,-296.082377,-3217.601092
3309.754416,-9030.512492,444.123565,-2451.505594
3309.754753,-6735.874072,1332.370696,0.000000
3309.755091,-9104.533087,444.123565,1378.971896
3309.755428,-11325.150913,-962.267725,-919.314598
3309.755766,-10362.883188,-2220.617826,-1838.629195
3309.756103,-8290.306550,0.000000,306.438199
3309.756441,-7698.141797,1776.494261,2681.334243
3309.756778,-10510.924376,1554.432478,2374.896044
3309.757115,-12361.439231,-962.267725,-995.924147
3309.757453,-9548.656652,74.020594,-612.876398
3309.757790,-8290.306550,1184.329507,2681.334243
3309.758128,-9770.718434,1110.308913,4596.572988
3309.758465,-11695.253884,222.061783,2068.457845
3309.758803,-10807.006753,-370.102971,76.609550
3309.759140,-9252.574275,518.144159,612.876398
3309.759478,-9104.533087,1702.473667,1838.629195
3309.759815,-11177.109724,962.267725,1149.143247
3309.760153,-11917.315666,-1480.411884,-1302.362347
3309.760490,-9252.574275,-1406.391290,-1915.238745
3309.760828,-8142.265362,-222.061783,1455.581446
3309.761165,-9326.594869,-962.267725,2374.896044
3309.761502,-11621.233289,-1850.514855,-76.609550
3309.761840,-11695.253884,-3330.926739,-1915.238745
3309.762177,-9400.615463,-2368.659014,229.828649
3309.762515,-8956.491898,-1924.535449,1532.190996
3309.762852,-10732.986159,-740.205942,842.705048
3309.763190,-11843.295072,-2812.782580,-1991.848295
3309.763527,-9918.759623,-3182.885551,-2681.334243
3309.763865,-8068.244768,-2590.720797,0.000000
3309.764202,-7920.203579,-1332.370696,2221.676944
3309.764540,-11325.150913,-2812.782580,2145.067394
3309.764877,-11917.315666,-3034.844362,766.095498
3309.765215,-9252.574275,-962.267725,919.314598
3309.765552,-9844.739029,1554.432478,3370.820191
3309.765889,-10658.965565,1702.473667,2604.724693
3309.766227,-12509.480420,888.247130,-153.219100
3309.766564,-11547.212695,740.205942,-919.314598
3309.766902,-8660.409521,1850.514855,306.438199
3309.767239,-8586.388927,3404.947333,1149.143247
3309.767577,-10436.903782,1554.432478,-1225.752797
3309.767914,-10732.986159,-296.082377,-2451.505594
3309.768252,-8808.450710,222.061783,-1838.629195
3309.768589,-8364.327145,2590.720797,459.657299
3309.768927,-10214.842000,3256.906145,459.657299
3309.769264,-11843.295072,814.226536,-2528.115143
3309.769602,-10362.883188,296.082377,-3447.429741
3309.769939,-7846.182985,444.123565,-536.266849
3309.770276,-8068.244768,1036.288319,3140.991542
3309.770614,-10362.883188,0.000000,2451.505594
3309.770951,-11621.233289,-2146.597232,-1378.971896
3309.771289,-9474.636058,-1406.391290,-1225.752797
3309.771626,-8808.450710,-666.185348,1762.019645
3309.771964,-9770.718434,222.061783,3064.381992
3309.772301,-10658.965565,-592.164754,-306.438199
3309.772639,-10510.924376,-592.164754,-842.705048
3309.772976,-9178.553681,-444.123565,153.219100
3309.773314,-9400.615463,74.020594,2604.724693
3309.773651,-11177.109724,-444.123565,2681.334243
3309.773989,-11621.233289,-2442.679609,612.876398
3309.774326,-10362.883188,-1406.391290,229.828649
3309.774664,-9252.574275,0.000000,1149.143247
3309.775001,-9992.780217,148.041188,1378.971896
3309.775338,-11621.233289,-296.082377,-1532.190996
3309.775676,-12065.356855,-1850.514855,-2757.943793
3309.776013,-9622.677246,-296.082377,-1915.238745
3309.776351,-8364.327145,-814.226536,306.438199
3309.776688,-9474.636058,-1184.329507,1608.800546
3309.777026,-10955.047942,-2664.741391,0.000000
3309.777363,-10584.944971,-2220.617826,536.266849
3309.777701,-9548.656652,-666.185348,1149.143247
3309.778038,-9548.656652,444.123565,2528.115143
3309.778376,-11547.212695,444.123565,1149.143247
3309.778713,-11399.171507,-1332.370696,-766.095498
3309.779051,-8586.388927,0.000000,0.000000
3309.779388,-7846.182985,814.226536,2221.676944
3309.779725,-9474.636058,1332.370696,3524.039291
3309.780063,-10955.047942,-888.247130,1455.581446
3309.780400,-10658.965565,-222.061783,306.438199
3309.780738,-9030.512492,1554.432478,1532.190996
3309.781075,-9474.636058,2220.617826,2757.943793
3309.781413,-10140.821405,3182.885551,0.000000
3309.781750,-11325.150913,592.164754,-2834.553343
3309.782088,-9326.594869,740.205942,-2451.505594
3309.782425,-7846.182985,296.082377,-153.219100
3309.782763,-9622.677246,0.000000,1532.190996
3309.783100,-10510.924376,-1184.329507,-1149.143247
3309.783438,-10807.006753,-2960.823768,-2528.115143
3309.783775,-9030.512492,-1480.411884,-1378.971896
3309.784112,-8882.471304,148.041188,0.000000
3309.784450,-11029.068536,0.000000,153.219100
3309.784787,-12213.398043,-2220.617826,-3064.381992
3309.785125,-9844.739029,-2368.659014,-2604.724693
3309.785462,-8586.388927,-1628.453072,536.266849
3309.785800,-8734.430116,-2072.576638,2221.676944
3309.786137,-11695.253884,-3182.885551,1378.971896
3309.786475,-11325.150913,-4367.215058,0.000000
3309.786812,-9474.636058,-1332.370696,1838.629195
3309.787150,-9252.574275,370.102971,2834.553343
3309.787487,-11843.295072,444.123565,2451.505594
3309.787825,-12805.562797,-888.247130,-1225.752797
3309.788162,-10214.842000,-1184.329507,-2068.457845
3309.788499,-7179.997637,370.102971,1455.581446
3309.788837,-8364.327145,0.000000,3217.601092
3309.789174,-11399.171507,-592.164754,1762.019645
3309.789512,-11473.192101,-1554.432478,-1378.971896
3309.789849,-9326.594869,0.000000,-766.095498
3309.790187,-8364.327145,2146.597232,689.485948
3309.790524,-10436.903782,2072.576638,995.924147
3309.790862,-11843.295072,-148.041188,-1532.190996
3309.791199,-10140.821405,-962.267725,-2298.286494
3309.791537,-8216.285956,1184.329507,1532.190996
3309.791874,-8734.430116,1406.391290,4213.525239
3309.792212,-10955.047942,518.144159,2221.676944
3309.792549,-11177.109724,-888.247130,153.219100
3309.792886,-9918.759623,1036.288319,995.924147
3309.793224,-8808.450710,2368.659014,2987.772442
3309.793561,-10807.006753,3182.885551,2451.505594
3309.793899,-11843.295072,2072.576638,-995.924147
3309.794236,-10955.047942,1406.391290,-2068.457845
3309.794574,-8290.306550,1702.473667,-459.657299
3309.794911,-7846.182985,1998.556043,2145.067394
3309.795249,-9696.697840,-148.041188,2451.505594
3309.795586,-11769.274478,-1332.370696,-459.657299
3309.795924,-9326.594869,-814.226536,-1685.410096
3309.796261,-8586.388927,1036.288319,383.047749
3309.796599,-9770.718434,888.247130,-153.219100
3309.796936,-11251.130318,-592.164754,-3217.601092
3309.797274,-10658.965565,-1702.473667,-4596.572988
3309.797611,-7920.203579,-2072.576638,-3064.381992
3309.797948,-7994.224174,-1924.535449,1225.752797
3309.798286,-10288.862594,-2738.761985,842.705048
3309.798623,-12583.501014,-3849.070898,-1149.143247
3309.798961,-11103.089130,-3256.906145,-1915.238745
3309.799298,-9474.636058,-1924.535449,536.266849
3309.799636,-9992.780217,74.020594,1378.971896
3309.799973,-12065.356855,-1480.411884,153.219100
3309.800311,-11991.336260,-1480.411884,-1685.410096
3309.800648,-9474.636058,-1480.411884,-612.876398
3309.800986,-8512.368333,148.041188,3600.648841
3309.801323,-10066.800811,-296.082377,3447.429741
3309.801661,-12361.439231,-2072.576638,1072.533697
3309.801998,-11325.150913,-740.205942,536.266849
3309.802335,-9178.553681,1702.473667,2451.505594
3309.802673,-10214.842000,2960.823768,3294.210641
3309.803010,-11399.171507,1702.473667,-689.485948
3309.803348,-11473.192101,74.020594,-2451.505594
3309.803685,-8142.265362,962.267725,-1378.971896
3309.804023,-6513.812290,1702.473667,459.657299
3309.804360,-8438.347739,592.164754,1455.581446
3309.804698,-10584.944971,-1554.432478,-995.924147
3309.805035,-9030.512492,-2442.679609,-1378.971896
3309.805373,-8290.306550,-518.144159,1149.143247
3309.805710,-8364.327145,1554.432478,2221.676944
3309.806048,-11399.171507,740.205942,612.876398
3309.806385,-12065.356855,-1332.370696,-1685.410096
3309.806722,-9178.553681,-888.247130,-459.657299
3309.807060,-7476.080014,-1036.288319,2987.772442
3309.807397,-9252.574275,222.061783,5132.839837
3309.807735,-11991.336260,-1924.535449,1915.238745
3309.808072,-12509.480420,-2368.659014,306.438199
3309.808410,-9474.636058,222.061783,689.485948
3309.808747,-9844.739029,2220.617826,2374.896044
3309.809084,-11917.315666,1628.453072,919.314598
3309.809422,-12583.501014,-1406.391290,-2451.505594
3309.809759,-9844.739029,-222.061783,-2528.115143
3309.810097,-7846.182985,-296.082377,459.657299
3309.810434,-8808.450710,0.000000,2604.724693
3309.810771,-12805.562797,-2812.782580,76.609550
3309.811109,-12139.377449,-3034.844362,-1838.629195
3309.811446,-8068.244768,-1480.411884,-1532.190996
3309.811784,-8660.409521,0.000000,919.314598
3309.812121,-11103.089130,-148.041188,76.609550
3309.812458,-11547.212695,-3108.864956,-2604.724693
3309.812796,-9474.636058,-1332.370696,-2757.943793
3309.813133,-7031.956449,222.061783,612.876398
3309.813471,-8956.491898,74.020594,3370.820191
3309.813808,-11695.253884,-1406.391290,1608.800546
3309.814145,-10955.047942,-2368.659014,76.609550
3309.814483,-8882.471304,1110.308913,1149.143247
3309.814820,-8512.368333,2442.679609,2987.772442
3309.815158,-11029.068536,3034.844362,2834.553343
3309.815495,-12657.521608,1776.494261,-1149.143247
3309.815832,-9474.636058,2072.576638,-2604.724693
3309.816170,-7179.997637,3256.906145,0.000000
3309.816507,-9104.533087,3108.864956,2834.553343
3309.816844,-11843.295072,2442.679609,1072.533697
3309.817182,-12139.377449,-222.061783,-2068.457845
3309.817519,-9030.512492,1332.370696,0.000000
3309.817857,-8586.388927,2146.597232,2374.896044
3309.818194,-10214.842000,2442.679609,919.314598
3309.818531,-11991.336260,518.144159,-2987.772442
3309.818869,-10732.986159,-1184.329507,-4213.525239
3309.819206,-7105.977043,-962.267725,-1072.533697
3309.819544,-7402.059420,-1110.308913,2911.162892
3309.819881,-11029.068536,-2368.659014,2298.286494
3309.820218,-12065.356855,-4145.153275,-1149.143247
3309.820556,-9622.677246,-2516.700203,-919.314598
3309.820893,-8438.347739,-1332.370696,1532.190996
3309.821231,-10881.027347,-444.123565,2834.553343
3309.821568,-12509.480420,-1924.535449,-689.485948
3309.821905,-11251.130318,-2442.679609,-2374.896044
3309.822243,-7920.203579,-1332.370696,459.657299
3309.822580,-7772.162391,-592.164754,3677.258390
3309.822917,-10881.027347,-1332.370696,3677.258390
3309.823255,-12583.501014,-3478.967927,383.047749
3309.823592,-10658.965565,-2368.659014,-229.828649
3309.823930,-8956.491898,592.164754,2528.115143
3309.824267,-10807.006753,1258.350101,3217.601092
3309.824604,-12879.583391,0.000000,-383.047749
3309.824942,-10881.027347,-592.164754,-3753.867940
3309.825279,-8068.244768,74.020594,-2068.457845
3309.825617,-8364.327145,1332.370696,1149.143247
3309.825954,-10658.965565,-740.205942,689.485948
3309.826291,-11843.295072,-2442.679609,-1072.533697
3309.826629,-9770.718434,-1924.535449,-383.047749
3309.826966,-8438.347739,222.061783,1915.238745
3309.827304,-8882.471304,2220.617826,2298.286494
3309.827641,-11177.109724,74.020594,-612.876398
3309.827978,-10732.986159,-1110.308913,-2298.286494
3309.828316,-7402.059420,0.000000,-612.876398
3309.828653,-7476.080014,2220.617826,2757.943793
3309.828991,-10214.842000,592.164754,2987.772442
3309.829328,-11547.212695,-740.205942,-383.047749
3309.829665,-9548.656652,0.000000,-1608.800546
3309.830003,-8216.285956,1406.391290,689.485948
3309.830340,-9252.574275,2664.741391,1915.238745
3309.830677,-11769.274478,962.267725,-1072.533697
3309.831015,-11917.315666,74.020594,-3217.601092
3309.831352,-8660.409521,0.000000,-3447.429741
3309.831690,-7846.182985,1110.308913,919.314598
3309.832027,-10140.821405,-666.185348,2298.286494
3309.832364,-12139.377449,-2220.617826,-919.314598
3309.832702,-10362.883188,-2738.761985,-2298.286494
3309.833039,-8734.430116,-592.164754,-229.828649
3309.833377,-10066.800811,-444.123565,2068.457845
3309.833714,-11843.295072,-1554.432478,-536.266849
3309.834051,-11621.233289,-2146.597232,-3217.601092
3309.834389,-9178.553681,-1184.329507,-2145.067394
3309.834726,-7772.162391,-888.247130,1378.971896
3309.835064,-10066.800811,-592.164754,2145.067394
3309.835401,-12139.377449,-2812.782580,1455.581446
3309.835738,-11029.068536,-2368.659014,919.314598
3309.836076,-9252.574275,-444.123565,3064.381992
3309.836413,-9844.739029,1184.329507,5132.839837
3309.836751,-11621.233289,1702.473667,2451.505594
3309.837088,-11843.295072,148.041188,-1762.019645
3309.837425,-9474.636058,1776.494261,-1378.971896
3309.837763,-8068.244768,1628.453072,2145.067394
3309.838100,-9326.594869,1776.494261,2834.553343
3309.838437,-10436.903782,296.082377,229.828649
3309.838775,-9918.759623,-296.082377,-1532.190996
3309.839112,-8438.347739,962.267725,0.000000
3309.839450,-8586.388927,2220.617826,2068.457845
3309.839787,-10732.986159,2442.679609,383.047749
3309.840124,-11177.109724,0.000000,-3217.601092
3309.840462,-8586.388927,1406.391290,-3370.820191
3309.840799,-7698.141797,666.185348,612.876398
3309.841137,-8882.471304,444.123565,2374.896044
3309.841474,-11177.109724,-1036.288319,229.828649
3309.841811,-11399.171507,-1998.556043,-612.876398
3309.842149,-9400.615463,-1332.370696,689.485948
3309.842486,-9400.615463,-370.102971,2911.162892
3309.842824,-10584.944971,1184.329507,1532.190996
3309.843161,-11695.253884,0.000000,-1762.019645
3309.843498,-10955.047942,-518.144159,-1838.629195
3309.843836,-9400.615463,-222.061783,76.609550
3309.844173,-9252.574275,518.144159,2145.067394
3309.844510,-11399.171507,-1776.494261,995.924147
3309.844848,-11325.150913,-3034.844362,-995.924147
3309.845185,-8808.450710,-1406.391290,-229.828649
3309.845523,-9622.677246,-592.164754,1302.362347
3309.845860,-10658.965565,-814.226536,-612.876398
3309.846197,-12065.356855,-2442.679609,-3140.991542
3309.846535,-10436.903782,-3256.906145,-3217.601092
3309.846872,-6957.935855,-1480.411884,-842.705048
3309.847210,-8290.306550,-1554.432478,1532.190996
3309.847547,-10732.986159,-3108.864956,536.266849
3309.847884,-11325.150913,-4515.256246,-842.705048
3309.848222,-10140.821405,-2368.659014,383.047749
3309.848559,-9178.553681,-888.247130,3064.381992
3309.848897,-10732.986159,0.000000,2604.724693
3309.849234,-12583.501014,-592.164754,76.609550
3309.849571,-10510.924376,-666.185348,-766.095498
3309.849909,-8734.430116,1554.432478,1302.362347
3309.850246,-9178.553681,1554.432478,3370.820191
3309.850584,-11325.150913,1184.329507,2911.162892
3309.850921,-11325.150913,-444.123565,229.828649
3309.851258,-9622.677246,518.144159,459.657299
3309.851596,-8142.265362,2368.659014,1991.848295
3309.851933,-9326.594869,2812.782580,2681.334243
3309.852270,-11399.171507,2072.576638,0.000000
3309.852608,-10214.842000,1110.308913,-2451.505594
3309.852945,-8364.327145,1776.494261,-1532.190996
3309.853283,-7994.224174,1110.308913,1149.143247
3309.853620,-10066.800811,444.123565,1302.362347
3309.853957,-10066.800811,-2220.617826,-1225.752797
3309.854295,-8438.347739,-2294.638420,-995.924147
3309.854632,-7920.203579,-1110.308913,1532.190996
3309.854970,-9622.677246,-518.144159,2068.457845
3309.855307,-11917.315666,-740.205942,-919.314598
3309.855644,-11769.274478,-1702.473667,-2757.943793
3309.855982,-8586.388927,-592.164754,-2068.457845
3309.856319,-8438.347739,-222.061783,1455.581446
3309.856657,-10436.903782,-1332.370696,1915.238745
3309.856994,-11843.295072,-2590.720797,0.000000
3309.857331,-10807.006753,-1628.453072,153.219100
3309.857669,-9918.759623,-740.205942,1532.190996
3309.858006,-10807.006753,666.185348,2221.676944
3309.858344,-12435.459826,370.102971,459.657299
3309.858681,-12509.480420,-370.102971,-1838.629195
3309.859018,-9548.656652,888.247130,-1302.362347
3309.859356,-9178.553681,1110.308913,689.485948
3309.859693,-9992.780217,1110.308913,689.485948
3309.860030,-11251.130318,-1184.329507,-1072.533697
3309.860368,-9992.780217,-962.267725,-1685.410096
3309.860705,-8364.327145,74.020594,-766.095498
3309.861043,-8882.471304,666.185348,536.266849
3309.861380,-10732.986159,592.164754,-1149.143247
3309.861717,-11029.068536,-1258.350101,-2298.286494
3309.862055,-8512.368333,-518.144159,-1608.800546
3309.862392,-7476.080014,518.144159,1302.362347
3309.862730,-9474.636058,148.041188,2451.505594
3309.863067,-10658.965565,-1110.308913,76.609550
3309.863404,-10436.903782,-1628.453072,0.000000
3309.863742,-7994.224174,296.082377,2068.457845
3309.864079,-8660.409521,2368.659014,3907.087040
3309.864417,-12139.377449,1776.494261,3140.991542
3309.864754,-12361.439231,814.226536,-612.876398
3309.865091,-10436.903782,1258.350101,-766.095498
3309.865429,-9178.553681,2146.597232,995.924147
3309.865766,-9030.512492,1554.432478,1072.533697
3309.866103,-11251.130318,-370.102971,-459.657299
3309.866441,-10510.924376,-1850.514855,-1149.143247
3309.866778,-8438.347739,-1036.288319,153.219100
3309.867116,-9400.615463,444.123565,2374.896044
3309.867453,-11769.274478,0.000000,229.828649
3309.867790,-12657.521608,-1036.288319,-2911.162892
3309.868128,-11029.068536,-1702.473667,-2374.896044
3309.868465,-8216.285956,-1258.350101,229.828649
3309.868803,-8734.430116,-2072.576638,1455.581446
3309.869140,-10881.027347,-4145.153275,612.876398
3309.869477,-10807.006753,-4959.379811,-612.876398
3309.869815,-8364.327145,-3701.029710,229.828649
3309.870152,-8438.347739,-1702.473667,2298.286494
3309.870490,-11251.130318,-1406.391290,2145.067394
3309.870827,-12805.562797,-2738.761985,-306.438199
3309.871164,-10436.903782,-2146.597232,-1072.533697
3309.871502,-7846.182985,370.102971,1149.143247
3309.871839,-8808.450710,370.102971,3370.820191
3309.872177,-10584.944971,-1258.350101,1532.190996
3309.872514,-11473.192101,-2516.700203,0.000000
3309.872851,-9326.594869,148.041188,689.485948
3309.873189,-8956.491898,1258.350101,2757.943793
3309.873526,-11029.068536,2368.659014,1378.971896
3309.873863,-11843.295072,222.061783,-1838.629195
3309.874201,-9992.780217,1036.288319,-1762.019645
3309.874538,-8586.388927,2146.597232,-689.485948
3309.874876,-8734.430116,2442.679609,306.438199
3309.875213,-10881.027347,740.205942,-459.657299
3309.875550,-11473.192101,-1036.288319,-2298.286494
3309.875888,-8438.347739,222.061783,-689.485948
3309.876225,-7846.182985,1924.535449,1302.362347
3309.876563,-9696.697840,2072.576638,1225.752797
3309.876900,-13175.665768,148.041188,-1378.971896
3309.877237,-11547.212695,444.123565,-2604.724693
3309.877575,-7994.224174,222.061783,-612.876398
3309.877912,-8438.347739,962.267725,3677.258390
3309.878250,-10362.883188,74.020594,2451.505594
3309.878587,-10807.006753,-1998.556043,-383.047749
3309.878924,-9400.615463,-666.185348,-306.438199
3309.879262,-8290.306550,-296.082377,2451.505594
3309.879599,-9622.677246,1332.370696,2911.162892
3309.879937,-12583.501014,-444.123565,0.000000
3309.880274,-11621.233289,-222.061783,-2987.772442
3309.880611,-8364.327145,148.041188,-1991.848295
3309.880949,-8216.285956,666.185348,842.705048
3309.881286,-10436.903782,-1184.329507,229.828649
3309.881623,-11547.212695,-3330.926739,-2145.067394
3309.881961,-9770.718434,-2146.597232,-1915.238745
3309.882298,-8956.491898,-296.082377,842.705048
3309.882636,-9918.759623,-370.102971,1532.190996
3309.882973,-12361.439231,-1480.411884,-919.314598
3309.883310,-11991.336260,-2368.659014,-1532.190996
3309.883648,-8290.306550,-814.226536,0.000000
3309.883985,-7846.182985,74.020594,2451.505594
3309.884323,-11029.068536,-666.185348,2681.334243
3309.884660,-12805.562797,-2442.679609,536.266849
3309.884997,-10732.986159,-2220.617826,536.266849
3309.885335,-8586.388927,666.185348,2604.724693
3309.885672,-9474.636058,2590.720797,3907.087040
3309.886010,-12139.377449,1258.350101,1225.752797
3309.886347,-11917.315666,0.000000,-1685.410096
3309.886684,-7920.203579,1110.308913,-229.828649
3309.887022,-7031.956449,2072.576638,2221.676944
3309.887359,-9326.594869,2220.617826,1838.629195
3309.887696,-11473.192101,-148.041188,-1991.848295
3309.888034,-9548.656652,-1332.370696,-1915.238745
3309.888371,-7105.977043,962.267725,306.438199
3309.888709,-7994.224174,2072.576638,1915.238745
3309.889046,-11251.130318,1480.411884,-536.266849
3309.889383,-12435.459826,-1480.411884,-4519.963438
3309.889721,-9696.697840,-518.144159,-3677.258390
3309.890058,-7254.018232,-444.123565,459.657299
3309.890396,-9030.512492,0.000000,3217.601092
3309.890733,-12731.542202,-2146.597232,229.828649
3309.891070,-11695.253884,-2812.782580,-1838.629195
3309.891408,-8808.450710,-592.164754,-383.047749
3309.891745,-10066.800811,0.000000,3294.210641
3309.892083,-12139.377449,0.000000,2451.505594
3309.892420,-12879.583391,-2812.782580,-1532.190996
3309.892757,-9770.718434,-1628.453072,-1455.581446
3309.893095,-7031.956449,296.082377,1608.800546
3309.893432,-9474.636058,0.000000,3217.601092
3309.893770,-11769.274478,-2368.659014,229.828649
3309.894107,-11029.068536,-3108.864956,-1685.410096
3309.894444,-8290.306550,-666.185348,383.047749
3309.894782,-9104.533087,0.000000,2681.334243
3309.895119,-11251.130318,-222.061783,1149.143247
3309.895456,-11473.192101,-1924.535449,-2298.286494
3309.895794,-9030.512492,-1184.329507,-2451.505594
3309.896131,-7476.080014,0.000000,-306.438199
3309.896469,-8882.471304,74.020594,1149.143247
3309.896806,-11769.274478,-1406.391290,-383.047749
3309.897143,-11547.212695,-2590.720797,-2834.553343
3309.897481,-8512.368333,-592.164754,-612.876398
3309.897818,-8586.388927,370.102971,2604.724693
3309.898156,-10362.883188,-296.082377,2604.724693
3309.898493,-11991.336260,-1258.350101,0.000000
3309.898830,-10807.006753,370.102971,-153.219100
3309.899168,-8882.471304,1628.453072,2451.505594
3309.899505,-9770.718434,1850.514855,4060.306139
3309.899843,-12361.439231,888.247130,2298.286494
3309.900180,-11917.315666,222.061783,-459.657299
3309.900517,-8438.347739,1184.329507,842.705048
3309.900855,-8290.306550,2664.741391,2911.162892
3309.901192,-9770.718434,2886.803174,1685.410096
3309.901530,-12509.480420,1184.329507,-1762.019645
3309.901867,-10584.944971,222.061783,-2987.772442
3309.902204,-7624.121203,444.123565,-995.924147
3309.902542,-7772.162391,592.164754,2068.457845
3309.902879,-10288.862594,-1036.288319,1225.752797
3309.903216,-10732.986159,-2146.597232,-2068.457845
3309.903554,-8142.265362,-1480.411884,-2145.067394
3309.903891,-8364.327145,-296.082377,1378.971896
3309.904229,-10436.903782,-222.061783,1455.581446
3309.904566,-12361.439231,-2220.617826,-1608.800546
3309.904903,-10881.027347,-1998.556043,-2834.553343
3309.905241,-7476.080014,-1184.329507,-459.657299
3309.905578,-8290.306550,-296.082377,3447.429741
3309.905916,-11177.109724,-1776.494261,1608.800546
3309.906253,-11991.336260,-2590.720797,-229.828649
3309.906590,-10362.883188,-1258.350101,229.828649
3309.906928,-9252.574275,888.247130,2604.724693
3309.907265,-11029.068536,1554.432478,2757.943793
3309.907603,-13397.727550,0.000000,0.000000
3309.907940,-11621.233289,-370.102971,-1455.581446
3309.908277,-8290.306550,888.247130,0.000000
3309.908615,-8808.450710,1036.288319,3064.381992
3309.908952,-10955.047942,148.041188,842.705048
3309.909289,-12361.439231,-1850.514855,-1532.190996
3309.909627,-9178.553681,-814.226536,-1915.238745
3309.909964,-7624.121203,0.000000,76.609550
3309.910302,-8882.471304,1628.453072,995.924147
3309.910639,-11177.109724,-296.082377,-1532.190996
3309.910977,-10288.862594,-1850.514855,-2604.724693
3309.911314,-7476.080014,-740.205942,-1225.752797
3309.911651,-8068.244768,592.164754,2911.162892
3309.911989,-10732.986159,-814.226536,2681.334243
3309.912326,-11251.130318,-2738.761985,-153.219100
3309.912664,-8956.491898,-1776.494261,-459.657299
3309.913001,-7846.182985,370.102971,2068.457845
3309.913338,-9770.718434,444.123565,3677.258390
3309.913676,-12213.398043,-296.082377,1455.581446
3309.914013,-11991.336260,-962.267725,-1685.410096
3309.914351,-9474.636058,962.267725,-306.438199
3309.914688,-8734.430116,1036.288319,1915.238745
3309.915025,-9326.594869,1110.308913,2298.286494
3309.915363,-12287.418637,-2146.597232,306.438199
3309.915700,-10955.047942,-1184.329507,-612.876398
3309.916038,-9178.553681,518.144159,766.095498
3309.916375,-10288.862594,1110.308913,1838.629195
3309.916712,-12139.377449,74.020594,-1149.143247
3309.917050,-11473.192101,-1480.411884,-4060.306139
3309.917387,-8290.306550,-370.102971,-2374.896044
3309.917725,-7624.121203,-666.185348,919.314598
3309.918062,-9252.574275,-1480.411884,1915.238745
3309.918400,-11473.192101,-3552.988522,-612.876398
3309.918737,-10881.027347,-2812.782580,-842.705048
3309.919074,-8586.388927,-814.226536,459.657299
3309.919412,-8734.430116,0.000000,1838.629195
3309.919749,-10140.821405,-222.061783,459.657299
3309.920087,-10955.047942,-2368.659014,-1378.971896
3309.920424,-8438.347739,-296.082377,-383.047749
3309.920761,-9030.512492,-222.061783,2451.505594
3309.921099,-10214.842000,740.205942,4213.525239
3309.921436,-11843.295072,-740.205942,1685.410096
3309.921774,-10955.047942,-740.205942,612.876398
3309.922111,-8586.388927,1258.350101,919.314598
3309.922448,-9326.594869,1998.556043,1991.848295
3309.922786,-11843.295072,2368.659014,995.924147
3309.923123,-11843.295072,1406.391290,-3217.601092
3309.923461,-9622.677246,740.205942,-3370.820191
3309.923798,-8068.244768,1628.453072,-1072.533697
3309.924135,-9474.636058,740.205942,842.705048
3309.924473,-11621.233289,0.000000,-459.657299
3309.924810,-10436.903782,-1554.432478,-2987.772442
3309.925148,-8956.491898,-888.247130,153.219100
3309.925485,-10214.842000,222.061783,2068.457845
3309.925822,-10881.027347,0.000000,689.485948
3309.926160,-12065.356855,-962.267725,-1532.190996
3309.926497,-9844.739029,-1628.453072,-1149.143247
3309.926835,-7624.121203,-444.123565,1225.752797
3309.927172,-9252.574275,-666.185348,3217.601092
3309.927510,-10955.047942,-962.267725,1455.581446
3309.927847,-10807.006753,-1998.556043,-536.266849
3309.928184,-9474.636058,-444.123565,229.828649
3309.928522,-9178.553681,1110.308913,1532.190996
3309.928859,-10214.842000,814.226536,1072.533697
3309.929197,-11177.109724,-296.082377,-1072.533697
3309.929534,-9400.615463,-962.267725,-1455.581446
3309.929871,-7772.162391,296.082377,842.705048
3309.930209,-9548.656652,148.041188,1608.800546
3309.930546,-11177.109724,-740.205942,459.657299
3309.930884,-11325.150913,-2146.597232,-689.485948
3309.931221,-9844.739029,-222.061783,153.219100
3309.931558,-9030.512492,740.205942,1608.800546
3309.931896,-10881.027347,518.144159,306.438199
3309.932233,-12139.377449,-444.123565,-2221.676944
3309.932571,-10807.006753,-1480.411884,-2834.553343
3309.932908,-8290.306550,0.000000,-919.314598
3309.933245,-8438.347739,-592.164754,1455.581446
3309.933583,-11103.089130,-1480.411884,1532.190996
3309.933920,-11843.295072,-2812.782580,0.000000
3309.934258,-9474.636058,-814.226536,1762.019645
3309.934595,-9400.615463,666.185348,3600.648841
3309.934932,-11103.089130,1924.535449,3600.648841
3309.935270,-12435.459826,148.041188,919.314598
3309.935607,-11177.109724,592.164754,-229.828649
3309.935945,-7994.224174,148.041188,383.047749
3309.936282,-8438.347739,1110.308913,2528.115143
3309.936620,-9844.739029,-148.041188,995.924147
3309.936957,-11251.130318,-1628.453072,-842.705048
3309.937294,-9474.636058,-444.123565,-1455.581446
3309.937632,-8142.265362,444.123565,0.000000
3309.937969,-9844.739029,1332.370696,459.657299
3309.938307,-11769.274478,-592.164754,-1991.848295
3309.938644,-10140.821405,-1110.308913,-3907.087040
3309.938981,-8438.347739,-1110.308913,-1455.581446
3309.939319,-8364.327145,-962.267725,1991.848295
3309.939656,-10362.883188,-1554.432478,1072.533697
3309.939994,-12435.459826,-2960.823768,-919.314598
3309.940331,-10140.821405,-1850.514855,-1608.800546
3309.940668,-8660.409521,-888.247130,306.438199
3309.941006,-10066.800811,296.082377,2374.896044
3309.941343,-11991.336260,-1110.308913,-153.219100
3309.941681,-12065.356855,-296.082377,-1302.362347
3309.942018,-9474.636058,-148.041188,0.000000
3309.942355,-8956.491898,370.102971,3217.601092
3309.942693,-10066.800811,-296.082377,3600.648841
3309.943030,-11769.274478,-518.144159,1532.190996
3309.943368,-11251.130318,-370.102971,1149.143247
3309.943705,-9326.594869,1110.308913,1378.971896
3309.944042,-9622.677246,2368.659014,1991.848295
3309.944380,-12139.377449,1776.494261,229.828649
3309.944717,-11251.130318,0.000000,-2298.286494
3309.945055,-8068.244768,222.061783,-2068.457845
3309.945392,-7772.162391,148.041188,459.657299
3309.945730,-8586.388927,222.061783,1225.752797
3309.946067,-10807.006753,-1554.432478,-689.485948
3309.946404,-9992.780217,-1776.494261,-995.924147
3309.946742,-8142.265362,148.041188,153.219100
3309.947079,-9326.594869,1184.329507,2681.334243
3309.947417,-11325.150913,1480.411884,689.485948
3309.947754,-11769.274478,-1184.329507,-1915.238745
3309.948091,-9178.553681,-592.164754,-995.924147
3309.948429,-7624.121203,0.000000,1608.800546
3309.948766,-9474.636058,444.123565,3064.381992
3309.949104,-11843.295072,-962.267725,842.705048
3309.949441,-10881.027347,-1850.514855,-766.095498
3309.949778,-9326.594869,1036.288319,1149.143247
3309.950116,-10066.800811,2146.597232,1838.629195
3309.950453,-11843.295072,2294.638420,-153.219100
3309.950791,-12435.459826,0.000000,-2604.724693
3309.951128,-9252.574275,0.000000,-2145.067394
3309.951465,-7402.059420,518.144159,153.219100
3309.951803,-9474.636058,370.102971,2068.457845
3309.952140,-11695.253884,-1998.556043,0.000000
3309.952478,-11547.212695,-3034.844362,-2374.896044
3309.952815,-8586.388927,-888.247130,-1378.971896
3309.953152,-9030.512492,-1184.329507,1302.362347
3309.953490,-10584.944971,-444.123565,229.828649
3309.953827,-11843.295072,-2442.679609,-2374.896044
3309.954165,-9400.615463,-1850.514855,-2374.896044
3309.954502,-7328.038826,-1332.370696,1149.143247
3309.954840,-8734.430116,-814.226536,2757.943793
3309.955177,-11621.233289,-2146.597232,2451.505594
3309.955514,-11843.295072,-2442.679609,153.219100
3309.955852,-9548.656652,0.000000,1915.238745
3309.956189,-9104.533087,1776.494261,2911.162892
3309.956527,-10955.047942,1702.473667,1991.848295
3309.956864,-12657.521608,-148.041188,-383.047749
3309.957201,-10362.883188,0.000000,-1149.143247
3309.957539,-7254.018232,1924.535449,1149.143247
3309.957876,-8660.409521,2072.576638,3370.820191
3309.958214,-10955.047942,592.164754,1149.143247
3309.958551,-11917.315666,-740.205942,-1608.800546
3309.958888,-9326.594869,0.000000,-766.095498
3309.959226,-8142.265362,1406.391290,459.657299
3309.959563,-9992.780217,740.205942,1225.752797
3309.959901,-11769.274478,-296.082377,-1532.190996
3309.960238,-9844.739029,-1184.329507,-4596.572988
3309.960575,-7254.018232,-296.082377,-1072.533697
3309.960913,-8216.285956,-370.102971,1762.019645
3309.961250,-10510.924376,-2220.617826,842.705048
3309.961588,-11695.253884,-2812.782580,-1378.971896
3309.961925,-9178.553681,-2368.659014,0.000000
3309.962262,-8438.347739,-666.185348,2451.505594
3309.962600,-10362.883188,-296.082377,3370.820191
3309.962937,-13027.624579,-296.082377,383.047749
3309.963275,-10955.047942,-1628.453072,-1762.019645
3309.963612,-7846.182985,-222.061783,-995.924147
3309.963950,-7624.121203,148.041188,2068.457845
3309.964287,-10510.924376,-296.082377,2145.067394
3309.964624,-12139.377449,-1554.432478,-229.828649
3309.964962,-10362.883188,-1258.350101,-1302.362347
3309.965299,-8808.450710,814.226536,1455.581446
3309.965637,-10658.965565,1406.391290,2298.286494
3309.965974,-12731.542202,444.123565,-383.047749
3309.966311,-11621.233289,-518.144159,-2911.162892
3309.966649,-8364.327145,-592.164754,-1685.410096
3309.966986,-7772.162391,296.082377,1455.581446
3309.967324,-9844.739029,0.000000,1225.752797
3309.967661,-12435.459826,-2072.576638,-612.876398
3309.967998,-9992.780217,-1924.535449,-612.876398
3309.968336,-8438.347739,444.123565,1455.581446
3309.968673,-9474.636058,1924.535449,2987.772442
3309.969011,-12065.356855,370.102971,153.219100
3309.969348,-12139.377449,-1480.411884,-1532.190996
3309.969685,-7846.182985,592.164754,-612.876398
3309.970023,-6957.935855,888.247130,2987.772442
3309.970360,-9770.718434,888.247130,3830.477490
3309.970698,-11843.295072,-1110.308913,536.266849
3309.971035,-10214.842000,-1110.308913,-229.828649
3309.971372,-7402.059420,1480.411884,919.314598
3309.971710,-9622.677246,2812.782580,3140.991542
3309.972047,-11991.336260,1110.308913,0.000000
3309.972385,-11695.253884,-296.082377,-4366.744339
3309.972722,-8068.244768,-518.144159,-2987.772442
3309.973060,-7031.956449,740.205942,842.705048
3309.973397,-9770.718434,-148.041188,2374.896044
3309.973734,-12509.480420,-2590.720797,-995.924147
3309.974072,-10362.883188,-1480.411884,-3140.991542
3309.974409,-9104.533087,-888.247130,-995.924147
3309.974747,-9918.759623,0.000000,1685.410096
3309.975084,-11325.150913,-1110.308913,-383.047749
3309.975421,-12805.562797,-2738.761985,-2221.676944
3309.975759,-9326.594869,-1776.494261,-1455.581446
3309.976096,-7994.224174,-1184.329507,1225.752797
3309.976434,-10214.842000,-740.205942,3753.867940
3309.976771,-12879.583391,-2960.823768,1608.800546
3309.977108,-11103.089130,-2960.823768,536.266849
3309.977446,-8512.368333,-888.247130,2451.505594
3309.977783,-9178.553681,1036.288319,4903.011187
3309.978121,-11843.295072,1110.308913,2298.286494
3309.978458,-12509.480420,0.000000,-1838.629195
3309.978795,-9400.615463,296.082377,-1991.848295
3309.979133,-7476.080014,1628.453072,1225.752797
3309.979470,-9326.594869,1480.411884,2298.286494
3309.979808,-11029.068536,-814.226536,-536.266849
3309.980145,-10214.842000,-1998.556043,-1915.238745
3309.980482,-8364.327145,444.123565,229.828649
3309.980820,-8438.347739,1332.370696,1149.143247
3309.981157,-10214.842000,1406.391290,229.828649
3309.981495,-12139.377449,-888.247130,-3447.429741
3309.981832,-9622.677246,222.061783,-3370.820191
3309.982170,-7476.080014,592.164754,76.609550
3309.982507,-9326.594869,666.185348,2987.772442
3309.982844,-11769.274478,-740.205942,842.705048
3309.983182,-11621.233289,-1628.453072,-1149.143247
3309.983519,-9030.512492,0.000000,306.438199
3309.983857,-9252.574275,814.226536,3524.039291
3309.984194,-11029.068536,1332.370696,2911.162892
3309.984531,-13323.706956,148.041188,-766.095498
3309.984869,-11325.150913,592.164754,-2451.505594
3309.985206,-7179.997637,1406.391290,-842.705048
3309.985544,-8808.450710,888.247130,2221.676944
3309.985881,-11029.068536,370.102971,612.876398
3309.986218,-11769.274478,-1776.494261,-2374.896044
3309.986556,-8882.471304,-962.267725,-1838.629195
3309.986893,-8216.285956,74.020594,536.266849
3309.987231,-10288.862594,370.102971,842.705048
3309.987568,-11991.336260,-1554.432478,-2681.334243
3309.987905,-10214.842000,-1998.556043,-4136.915689
3309.988243,-8068.244768,-740.205942,-1608.800546
3309.988580,-8142.265362,-1036.288319,1149.143247
3309.988918,-10955.047942,-2368.659014,995.924147
3309.989255,-11695.253884,-4515.256246,-536.266849
3309.989593,-9474.636058,-2368.659014,0.000000
3309.989930,-7920.203579,-666.185348,2987.772442
3309.990267,-10510.924376,666.185348,2298.286494
3309.990605,-12583.501014,-666.185348,-459.657299
3309.990942,-11177.109724,-888.247130,-1685.410096
3309.991280,-8290.306550,814.226536,842.705048
3309.991617,-9178.553681,1332.370696,4136.915689
3309.991954,-11769.274478,666.185348,2834.553343
3309.992292,-12361.439231,-740.205942,383.047749
3309.992629,-9548.656652,0.000000,1302.362347
3309.992967,-8586.388927,2072.576638,3677.258390
3309.993304,-10214.842000,1776.494261,3753.867940
3309.993641,-12213.398043,1628.453072,0.000000
3309.993979,-10732.986159,296.082377,-3677.258390
3309.994316,-8068.244768,666.185348,-1762.019645
3309.994654,-7624.121203,1184.329507,612.876398
3309.994991,-9252.574275,-296.082377,306.438199
3309.995328,-11251.130318,-2220.617826,-766.095498
3309.995666,-8512.368333,-2294.638420,-1991.848295
3309.996003,-7105.977043,-962.267725,1225.752797
3309.996341,-9548.656652,-592.164754,2757.943793
3309.996678,-12509.480420,-1924.535449,153.219100
3309.997015,-11917.315666,-1332.370696,-2451.505594
3309.997353,-9104.533087,0.000000,-689.485948
3309.997690,-8438.347739,296.082377,1302.362347
3309.998028,-10584.944971,-1110.308913,1838.629195
3309.998365,-12065.356855,-2516.700203,306.438199
3309.998703,-9548.656652,-2368.659014,0.000000
3309.999040,-8956.491898,518.144159,1838.629195
3309.999377,-10584.944971,1628.453072,2145.067394
3309.999715,-12583.501014,444.123565,-1762.019645
3310.000052,-12731.542202,-518.144159,-3447.429741
3310.000390,-9030.512492,666.185348,-2374.896044
3310.000727,-8216.285956,814.226536,919.314598
3310.001064,-9992.780217,-296.082377,1608.800546
3310.001402,-11991.336260,-1776.494261,-689.485948
3310.001739,-10584.944971,-1554.432478,-1455.581446
3310.002077,-8660.409521,-666.185348,0.000000
3310.002414,-8808.450710,-370.102971,1532.190996
3310.002751,-10732.986159,-814.226536,76.609550
3310.003089,-10732.986159,-1702.473667,-1991.848295
3310.003426,-8808.450710,-592.164754,-1532.190996
3310.003764,-7994.224174,74.020594,1302.362347
3310.004101,-10214.842000,296.082377,2528.115143
3310.004438,-11991.336260,-2294.638420,306.438199
3310.004776,-10140.821405,-2368.659014,-76.609550
3310.005113,-7624.121203,0.000000,3064.381992
3310.005451,-9030.512492,888.247130,4443.353888
3310.005788,-11103.089130,1702.473667,2757.943793
3310.006125,-12509.480420,370.102971,-459.657299
3310.006463,-9992.780217,2146.597232,-919.314598
3310.006800,-8512.368333,2146.597232,842.705048
3310.007138,-10140.821405,2368.659014,2451.505594
3310.007475,-11473.192101,74.020594,-766.095498
3310.007813,-10881.027347,-962.267725,-1762.019645
3310.008150,-8068.244768,-370.102971,76.609550
3310.008487,-8068.244768,0.000000,1915.238745
3310.008825,-11103.089130,370.102971,995.924147
3310.009162,-12805.562797,-1184.329507,-2145.067394
3310.009500,-9770.718434,-148.041188,-2987.772442
3310.009837,-8512.368333,-592.164754,-612.876398
3310.010174,-9252.574275,-1184.329507,1762.019645
3310.010512,-10658.965565,-2220.617826,-306.438199
3310.010849,-11177.109724,-3108.864956,-919.314598
3310.011187,-8882.471304,-2368.659014,229.828649
3310.011524,-8068.244768,-1554.432478,1838.629195
3310.011861,-10807.006753,0.000000,1915.238745
3310.012199,-12509.480420,-1332.370696,-689.485948
3310.012536,-10732.986159,-1110.308913,-1225.752797
3310.012874,-8512.368333,518.144159,459.657299
3310.013211,-8364.327145,1332.370696,3140.991542
3310.013548,-10658.965565,666.185348,919.314598
3310.013886,-11695.253884,-1406.391290,-1149.143247
3310.014223,-9548.656652,0.000000,229.828649
3310.014561,-8882.471304,2294.638420,1762.019645
3310.014898,-10584.944971,2072.576638,1225.752797
3310.015236,-12065.356855,370.102971,-1685.410096
3310.015573,-10955.047942,148.041188,-3447.429741
3310.015910,-7772.162391,1406.391290,-1455.581446
3310.016248,-8660.409521,1480.411884,995.924147
3310.016585,-10658.965565,222.061783,919.314598
3310.016923,-11399.171507,-1850.514855,-995.924147
3310.017260,-9104.533087,-962.267725,-995.924147
3310.017597,-8216.285956,296.082377,1532.190996
3310.017935,-9992.780217,518.144159,2451.505594
3310.018272,-11695.253884,-222.061783,-766.095498
3310.018610,-10881.027347,-1406.391290,-1685.410096
3310.018947,-8734.430116,814.226536,0.000000
3310.019284,-8660.409521,666.185348,2068.457845
3310.019622,-10881.027347,-148.041188,2451.505594
3310.019959,-12065.356855,-2072.576638,766.095498
3310.020297,-8364.327145,-1184.329507,0.000000
3310.020634,-7550.100608,0.000000,2451.505594
3310.020971,-10436.903782,592.164754,3677.258390
3310.021309,-12287.418637,222.061783,-459.657299
3310.021646,-11991.336260,-296.082377,-3064.381992
3310.021984,-9400.615463,444.123565,-1685.410096
3310.022321,-8290.306550,370.102971,1072.533697
3310.022659,-10140.821405,-592.164754,766.095498
3310.022996,-11103.089130,-1998.556043,-1225.752797
3310.023333,-10288.862594,-2738.761985,-1149.143247
3310.023671,-8956.491898,-1332.370696,153.219100
3310.024008,-10066.800811,-1258.350101,1149.143247
3310.024346,-11325.150913,-888.247130,229.828649
3310.024683,-11325.150913,-2368.659014,-1762.019645
3310.025020,-9178.553681,-1776.494261,-1149.143247
3310.025358,-7698.141797,-888.247130,1991.848295
3310.025695,-9992.780217,-592.164754,2757.943793
3310.026033,-12361.439231,-2368.659014,1608.800546
3310.026370,-11103.089130,-1628.453072,536.266849
3310.026707,-8882.471304,0.000000,2757.943793
3310.027045,-9474.636058,1036.288319,4673.182538
3310.027382,-11251.130318,1406.391290,1762.019645
3310.027720,-12213.398043,370.102971,-1608.800546
3310.028057,-9474.636058,962.267725,-2068.457845
3310.028394,-7624.121203,1924.535449,689.485948
3310.028732,-9252.574275,1776.494261,2374.896044
3310.029069,-11695.253884,-74.020594,-76.609550
3310.029407,-10510.924376,-740.205942,-1608.800546
3310.029744,-7920.203579,592.164754,76.609550
3310.030082,-8290.306550,1702.473667,1072.533697
3310.030419,-10807.006753,1036.288319,0.000000
3310.030756,-11917.315666,-518.144159,-2451.505594
3310.031094,-9474.636058,-740.205942,-3064.381992
3310.031431,-7772.162391,0.000000,229.828649
3310.031769,-9326.594869,148.041188,2451.505594
3310.032106,-11621.233289,-1776.494261,306.438199
3310.032443,-10658.965565,-2516.700203,-1608.800546
3310.032781,-8586.388927,-1184.329507,153.219100
3310.033118,-8956.491898,814.226536,2834.553343
3310.033456,-11769.274478,296.082377,1991.848295
3310.033793,-13323.706956,-1258.350101,-612.876398
3310.034130,-10288.862594,-222.061783,-1685.410096
3310.034468,-8290.306550,444.123565,1455.581446
3310.034805,-9844.739029,1406.391290,3140.991542
3310.035143,-11991.336260,-888.247130,842.705048
3310.035480,-11103.089130,-1998.556043,-1302.362347
3310.035817,-8734.430116,-666.185348,-536.266849
3310.036155,-8290.306550,1110.308913,1532.190996
3310.036492,-11103.089130,518.144159,612.876398
3310.036830,-12509.480420,-1184.329507,-2298.286494
3310.037167,-9474.636058,-592.164754,-3600.648841
3310.037505,-7772.162391,666.185348,0.000000
3310.037842,-8956.491898,0.000000,2374.896044
3310.038179,-11621.233289,-1850.514855,919.314598
3310.038517,-11917.315666,-2960.823768,0.000000
3310.038854,-8586.388927,-1184.329507,0.000000
3310.039192,-8956.491898,444.123565,3294.210641
3310.039529,-10214.842000,814.226536,1991.848295
3310.039866,-11473.192101,-1184.329507,-229.828649
3310.040204,-10214.842000,-1184.329507,-1225.752797
3310.040541,-7550.100608,1998.556043,1072.533697
3310.040879,-9178.553681,2294.638420,2834.553343
3310.041216,-11917.315666,518.144159,1225.752797
3310.041553,-12065.356855,-222.061783,-842.705048
3310.041891,-9474.636058,740.205942,383.047749
3310.042228,-8808.450710,2442.679609,2451.505594
3310.042566,-10140.821405,2146.597232,2451.505594
3310.042903,-11843.295072,222.061783,-1378.971896
3310.043240,-10288.862594,-666.185348,-2604.724693
3310.043578,-7402.059420,592.164754,-1225.752797
3310.043915,-7846.182985,444.123565,842.705048
3310.044253,-10066.800811,-518.144159,0.000000
3310.044590,-12287.418637,-2664.741391,-2528.115143
3310.044928,-9474.636058,-1480.411884,-2298.286494
3310.045265,-7846.182985,-888.247130,76.609550
3310.045602,-10584.944971,-222.061783,1455.581446
3310.045940,-12065.356855,-1998.556043,-1072.533697
3310.046277,-12139.377449,-1776.494261,-2068.457845
3310.046615,-8364.327145,-1702.473667,-459.657299
3310.046952,-8586.388927,-1702.473667,2451.505594
3310.047289,-11251.130318,-888.247130,2221.676944
3310.047627,-12879.583391,-2664.741391,-1225.752797
3310.047964,-10732.986159,-1110.308913,-995.924147
3310.048302,-8660.409521,148.041188,1608.800546
3310.048639,-9474.636058,1332.370696,3217.601092
3310.048976,-12139.377449,296.082377,0.000000
3310.049314,-12065.356855,-666.185348,-1762.019645
3310.049651,-9030.512492,666.185348,0.000000
3310.049989,-8068.244768,592.164754,3294.210641
3310.050326,-9918.759623,1036.288319,3064.381992
3310.050663,-11917.315666,-1776.494261,0.000000
3310.051001,-9696.697840,-1036.288319,-842.705048
3310.051338,-7698.141797,148.041188,0.000000
3310.051676,-9474.636058,1480.411884,2221.676944
3310.052013,-11621.233289,-370.102971,-612.876398
3310.052351,-11473.192101,-1480.411884,-3140.991542
3310.052688,-8290.306550,74.020594,-995.924147
3310.053025,-7031.956449,1332.370696,1685.410096
3310.053363,-10288.862594,-740.205942,3140.991542
3310.053700,-11843.295072,-1702.473667,229.828649
3310.054038,-10214.842000,-1702.473667,-689.485948
3310.054375,-9178.553681,222.061783,2604.724693
3310.054712,-8956.491898,1554.432478,3217.601092
3310.055050,-11399.171507,888.247130,1072.533697
3310.055387,-12435.459826,-296.082377,-995.924147
3310.055725,-9030.512492,370.102971,-1302.362347
3310.056062,-8290.306550,1332.370696,1455.581446
3310.056399,-10288.862594,1036.288319,2681.334243
3310.056737,-11843.295072,-592.164754,153.219100
3310.057074,-11177.109724,-1480.411884,-1532.190996
3310.057412,-8586.388927,592.164754,0.000000
3310.057749,-8586.388927,888.247130,1532.190996
3310.058086,-11621.233289,370.102971,-689.485948
3310.058424,-11843.295072,-1776.494261,-3830.477490
3310.058761,-8882.471304,-1480.411884,-3524.039291
3310.059099,-7920.203579,-888.247130,153.219100
3310.059436,-9770.718434,-1184.329507,1685.410096
3310.059774,-11177.109724,-2294.638420,306.438199
3310.060111,-11029.068536,-3404.947333,-1225.752797
3310.060448,-7994.224174,-962.267725,-459.657299
3310.060786,-8808.450710,74.020594,2145.067394
3310.061123,-11473.192101,-444.123565,2528.115143
3310.061461,-12435.459826,-2072.576638,-306.438199
3310.061798,-9252.574275,-444.123565,-383.047749
3310.062135,-8216.285956,1702.473667,2528.115143
3310.062473,-10140.821405,1110.308913,4290.134789
3310.062810,-12361.439231,0.000000,1608.800546
3310.063148,-11399.171507,-592.164754,-459.657299
3310.063485,-9252.574275,1184.329507,919.314598
3310.063822,-8882.471304,2738.761985,1991.848295
3310.064160,-11029.068536,2812.782580,459.657299
3310.064497,-12583.501014,592.164754,-2451.505594
3310.064835,-9622.677246,888.247130,-3677.258390
3310.065172,-7772.162391,592.164754,0.000000
3310.065509,-9030.512492,740.205942,1838.629195
3310.065847,-10584.944971,-1110.308913,459.657299
3310.066184,-11399.171507,-1850.514855,-842.705048
3310.066522,-8586.388927,-1110.308913,-1072.533697
3310.066859,-8364.327145,-296.082377,1608.800546
3310.067197,-10362.883188,-666.185348,2145.067394
3310.067534,-11991.336260,-2220.617826,-689.485948
3310.067871,-9992.780217,-1258.350101,-1378.971896
3310.068209,-8290.306550,-1258.350101,459.657299
3310.068546,-8882.471304,-370.102971,3294.210641
3310.068884,-11177.109724,-1776.494261,1915.238745
3310.069221,-11843.295072,-2146.597232,306.438199
3310.069558,-9326.594869,-1110.308913,0.000000
3310.069896,-8956.491898,0.000000,3064.381992
3310.070233,-10732.986159,666.185348,2145.067394
3310.070571,-12879.583391,-296.082377,-306.438199
3310.070908,-11843.295072,74.020594,-1991.848295
3310.071245,-8808.450710,0.000000,-459.657299
3310.071583,-8660.409521,296.082377,1838.629195
3310.071920,-10436.903782,-1258.350101,1532.190996
3310.072258,-11843.295072,-2072.576638,-459.657299
3310.072595,-9326.594869,-1776.494261,-1225.752797
3310.072932,-8586.388927,296.082377,0.000000
3310.073270,-9844.739029,148.041188,919.314598
3310.073607,-11695.253884,-444.123565,-2298.286494
3310.073945,-9770.718434,-1184.329507,-2681.334243
3310.074282,-7772.162391,-296.082377,-1149.143247
3310.074620,-8216.285956,74.020594,1915.238745
3310.074957,-10732.986159,-740.205942,1225.752797
3310.075294,-11325.150913,-2220.617826,229.828649
3310.075632,-9474.636058,-296.082377,995.924147
3310.075969,-7698.141797,888.247130,2987.772442
3310.076307,-9696.697840,2072.576638,2451.505594
3310.076644,-11917.315666,1702.473667,229.828649
3310.076981,-11843.295072,592.164754,-1762.019645
3310.077319,-8512.368333,2220.617826,-1608.800546
3310.077656,-7624.121203,1258.350101,1149.143247
3310.077994,-10362.883188,1406.391290,1991.848295
3310.078331,-11843.295072,-888.247130,-995.924147
3310.078668,-9770.718434,-370.102971,-1225.752797
3310.079006,-7994.224174,518.144159,536.266849
3310.079343,-9770.718434,296.082377,1225.752797
3310.079681,-11621.233289,-296.082377,-1302.362347
3310.080018,-11695.253884,-1554.432478,-2681.334243
3310.080355,-8808.450710,-740.205942,-2374.896044
3310.080693,-8956.491898,-1184.329507,842.705048
3310.081030,-10436.903782,-1036.288319,1838.629195
3310.081368,-11103.089130,-3330.926739,0.000000
3310.081705,-9696.697840,-2590.720797,0.000000
3310.082043,-8586.388927,-814.226536,612.876398
3310.082380,-10066.800811,0.000000,1915.238745
3310.082717,-11473.192101,-740.205942,612.876398
3310.083055,-11991.336260,-1776.494261,-536.266849
3310.083392,-9104.533087,-592.164754,612.876398
3310.083730,-8660.409521,74.020594,2834.553343
3310.084067,-10584.944971,222.061783,4060.306139
3310.084404,-11843.295072,-962.267725,1762.019645
3310.084742,-10658.965565,-1110.308913,612.876398
3310.085079,-8956.491898,1332.370696,1532.190996
3310.085417,-9696.697840,2442.679609,2145.067394
3310.085754,-10955.047942,1924.535449,306.438199
3310.086091,-11769.274478,0.000000,-3140.991542
3310.086429,-8586.388927,888.247130,-3064.381992
3310.086766,-7402.059420,740.205942,229.828649
3310.087104,-9178.553681,0.000000,2374.896044
3310.087441,-10732.986159,-1332.370696,0.000000
3310.087778,-10807.006753,-2294.638420,-995.924147
3310.088116,-8808.450710,0.000000,1149.143247
3310.088453,-9326.594869,148.041188,2451.505594
3310.088791,-11029.068536,740.205942,1991.848295
3310.089128,-11843.295072,148.041188,-995.924147
3310.089466,-9844.739029,296.082377,-1302.362347
3310.089803,-8438.347739,1110.308913,1072.533697
3310.090140,-9474.636058,0.000000,2451.505594
3310.090478,-10732.986159,-370.102971,1762.019645
3310.090815,-11177.109724,-1184.329507,-536.266849
3310.091153,-8586.388927,0.000000,0.000000
3310.091490,-8512.368333,814.226536,919.314598
3310.091827,-11399.171507,1258.350101,995.924147
3310.092165,-12361.439231,222.061783,-2298.286494
3310.092502,-9918.759623,-1110.308913,-3447.429741
3310.092840,-7846.182985,-222.061783,-229.828649
3310.093177,-8586.388927,-296.082377,2145.067394
3310.093514,-11325.150913,-1850.514855,229.828649
3310.093852,-11695.253884,-3182.885551,-1685.410096
3310.094189,-9252.574275,-1998.556043,-1608.800546
3310.094527,-9252.574275,-518.144159,536.266849
3310.094864,-11325.150913,-1184.329507,459.657299
3310.095201,-11399.171507,-1924.535449,-1532.190996
3310.095539,-10140.821405,-2146.597232,-1991.848295
3310.095876,-7624.121203,-1332.370696,-76.609550
3310.096214,-9252.574275,-592.164754,2757.943793
3310.096551,-11251.130318,-1776.494261,2145.067394
3310.096889,-11843.295072,-2516.700203,842.705048
3310.097226,-9252.574275,-814.226536,1455.581446
3310.097563,-9326.594869,1332.370696,4213.525239
3310.097901,-10881.027347,2220.617826,3294.210641
3310.098238,-12509.480420,1332.370696,0.000000
3310.098576,-11029.068536,740.205942,-1455.581446
3310.098913,-8068.244768,1184.329507,0.000000
3310.099250,-8068.244768,1406.391290,2604.724693
3310.099588,-9696.697840,888.247130,1378.971896
3310.099925,-10732.986159,-1110.308913,-612.876398
3310.100263,-8882.471304,370.102971,-1455.581446
3310.100600,-8364.327145,1850.514855,689.485948
3310.100937,-10881.027347,2590.720797,612.876398
3310.101275,-11769.274478,518.144159,-2451.505594
3310.101612,-10732.986159,-814.226536,-2757.943793
3310.101950,-7698.141797,-1184.329507,-842.705048
3310.102287,-7476.080014,0.000000,2145.067394
3310.102625,-9252.574275,-2220.617826,2528.115143
3310.102962,-11325.150913,-3182.885551,383.047749
3310.103299,-9770.718434,-2516.700203,76.609550
3310.103637,-9326.594869,0.000000,2221.676944
3310.103974,-10881.027347,1924.535449,2374.896044
3310.104312,-13323.706956,-296.082377,-229.828649
3310.104649,-11843.295072,-1110.308913,-2451.505594
3310.104986,-7550.100608,-444.123565,-1915.238745
3310.105324,-7476.080014,0.000000,2374.896044
3310.105661,-9992.780217,-592.164754,1762.019645
3310.105999,-11769.274478,-2960.823768,-995.924147
3310.106336,-10881.027347,-1850.514855,-1532.190996
3310.106673,-9030.512492,-518.144159,-76.609550
3310.107011,-10066.800811,888.247130,1532.190996
3310.107348,-12361.439231,222.061783,-1072.533697
3310.107686,-12139.377449,-740.205942,-3753.867940
3310.108023,-8512.368333,-518.144159,-3294.210641
