#time,accel_x,accel_y,accel_z
2969.935399,-9474.636058,1036.288319,-306.438199
2969.935736,-9918.759623,-370.102971,0.000000
2969.936074,-10066.800811,0.000000,-229.828649
2969.936412,-8512.368333,-296.082377,-306.438199
2969.936750,-9104.533087,148.041188,0.000000
2969.937087,-9770.718434,148.041188,0.000000
2969.937425,-10955.047942,0.000000,-919.314598
2969.937763,-9918.759623,-1036.288319,-1149.143247
2969.938101,-8882.471304,-888.247130,-766.095498
2969.938438,-9030.512492,-740.205942,229.828649
2969.938776,-9992.780217,-518.144159,0.000000
2969.939114,-10140.821405,-2146.597232,-612.876398
2969.939452,-9400.615463,-962.267725,-689.485948
2969.939790,-9844.739029,148.041188,-383.047749
2969.940127,-10584.944971,-444.123565,-766.095498
2969.940465,-10732.986159,-592.164754,-766.095498
2969.940803,-10362.883188,-1036.288319,0.000000
2969.941141,-9696.697840,666.185348,0.000000
2969.941478,-10140.821405,74.020594,-383.047749
2969.941816,-11473.192101,-444.123565,-689.485948
2969.942154,-9992.780217,-1258.350101,-1991.848295
2969.942492,-9474.636058,-1480.411884,-842.705048
2969.942829,-9030.512492,-962.267725,306.438199
2969.943167,-10288.862594,-1924.535449,-306.438199
2969.943505,-10288.862594,-1258.350101,-2757.943793
2969.943843,-10658.965565,-2442.679609,-3217.601092
2969.944180,-9770.718434,-2960.823768,-1685.410096
2969.944518,-9474.636058,-2886.803174,-1685.410096
2969.944856,-9992.780217,-2516.700203,-2068.457845
2969.945194,-9918.759623,-3330.926739,-2987.772442
2969.945531,-9548.656652,-3552.988522,-2987.772442
2969.945869,-9622.677246,-3997.112087,-1302.362347
2969.946207,-9844.739029,-3182.885551,-919.314598
2969.946545,-11029.068536,-2664.741391,-2068.457845
2969.946882,-11769.274478,-3108.864956,-3677.258390
2969.947220,-10066.800811,-2516.700203,-4290.134789
2969.947558,-9030.512492,-3552.988522,-1302.362347
2969.947896,-9326.594869,-3849.070898,0.000000
2969.948233,-8216.285956,-2738.761985,536.266849
2969.948571,-10140.821405,-1480.411884,76.609550
2969.948909,-11029.068536,148.041188,-383.047749
2969.949247,-11251.130318,-370.102971,-536.266849
2969.949584,-11991.336260,-814.226536,-1149.143247
2969.949922,-10066.800811,-888.247130,-3140.991542
2969.950260,-9400.615463,-3256.906145,-2528.115143
2969.950598,-8882.471304,-3997.112087,-2451.505594
2969.950935,-7698.141797,-4367.215058,-1991.848295
2969.951273,-7920.203579,-3478.967927,-2145.067394
2969.951611,-8586.388927,-2442.679609,-1608.800546
2969.951949,-10732.986159,-2294.638420,-2757.943793
2969.952286,-10807.006753,-2294.638420,-3447.429741
2969.952624,-9844.739029,-2812.782580,-3064.381992
2969.952962,-11103.089130,-3330.926739,-1608.800546
2969.953300,-11399.171507,-4737.318029,-1149.143247
2969.953638,-9326.594869,-4145.153275,-536.266849
2969.953975,-9474.636058,-4589.276840,-612.876398
2969.954313,-9400.615463,-4219.173869,-306.438199
2969.954651,-9474.636058,-4367.215058,-1225.752797
2969.954989,-9844.739029,-4293.194464,-842.705048
2969.955326,-9696.697840,-1924.535449,-229.828649
2969.955664,-10584.944971,0.000000,0.000000
2969.956002,-11621.233289,518.144159,-1378.971896
2969.956340,-11917.315666,-1258.350101,-2604.724693
2969.956677,-11843.295072,-2368.659014,-2298.286494
2969.957015,-10214.842000,-3034.844362,-995.924147
2969.957353,-9104.533087,-2812.782580,-1455.581446
2969.957691,-8290.306550,-3108.864956,-2451.505594
2969.958028,-9252.574275,-3701.029710,-3677.258390
2969.958366,-9918.759623,-2516.700203,-3677.258390
2969.958704,-10288.862594,-962.267725,-3370.820191
2969.959042,-9474.636058,-148.041188,-4060.306139
2969.959379,-10362.883188,-1036.288319,-3447.429741
2969.959717,-11399.171507,-1924.535449,-2221.676944
2969.960055,-10955.047942,-1332.370696,-1838.629195
2969.960393,-8808.450710,-1702.473667,-536.266849
2969.960730,-8142.265362,-3701.029710,1455.581446
2969.961068,-9622.677246,-3182.885551,1991.848295
2969.961406,-10807.006753,-1406.391290,0.000000
2969.961744,-8956.491898,-518.144159,-1838.629195
2969.962081,-9474.636058,-444.123565,-1762.019645
2969.962419,-11177.109724,-222.061783,-1991.848295
2969.962757,-10510.924376,962.267725,-4136.915689
2969.963095,-9252.574275,740.205942,-1991.848295
2969.963432,-8660.409521,444.123565,-842.705048
2969.963770,-9548.656652,0.000000,-1149.143247
2969.964108,-11177.109724,-296.082377,-1608.800546
2969.964446,-10140.821405,-1184.329507,-919.314598
2969.964783,-9622.677246,-1776.494261,0.000000
2969.965121,-9548.656652,-2294.638420,0.000000
2969.965459,-10510.924376,-1332.370696,-612.876398
2969.965797,-10658.965565,-1850.514855,-2528.115143
2969.966134,-10214.842000,-2146.597232,-4903.011187
2969.966472,-10732.986159,-3997.112087,-4443.353888
2969.966810,-9770.718434,-4219.173869,-3830.477490
2969.967148,-8956.491898,-4219.173869,-4060.306139
2969.967486,-9030.512492,-4737.318029,-3217.601092
2969.967823,-8364.327145,-4737.318029,-3370.820191
2969.968161,-9844.739029,-5477.523971,-919.314598
2969.968499,-9918.759623,-4737.318029,306.438199
2969.968837,-9474.636058,-3256.906145,1378.971896
2969.969174,-11547.212695,-2442.679609,1378.971896
2969.969512,-11473.192101,-1702.473667,-995.924147
2969.969850,-11917.315666,-1480.411884,-1302.362347
2969.970188,-10732.986159,-2220.617826,-2834.553343
2969.970525,-10510.924376,-3182.885551,-2374.896044
2969.970863,-9252.574275,-2664.741391,-3217.601092
2969.971201,-8956.491898,-3627.009116,-3830.477490
2969.971539,-9548.656652,-3478.967927,-3140.991542
2969.971876,-8956.491898,-3775.050304,-3524.039291
2969.972214,-10362.883188,-2368.659014,-383.047749
2969.972552,-9844.739029,-296.082377,-459.657299
2969.972890,-10436.903782,296.082377,-919.314598
2969.973227,-12213.398043,0.000000,-1762.019645
2969.973565,-11473.192101,-1998.556043,-2681.334243
2969.973903,-11695.253884,-3923.091493,-1838.629195
2969.974241,-8512.368333,-4441.235652,-1991.848295
2969.974578,-7476.080014,-5107.421000,-919.314598
2969.974916,-6661.853478,-4959.379811,-842.705048
2969.975254,-8216.285956,-4219.173869,-1225.752797
2969.975592,-8808.450710,-2368.659014,-536.266849
2969.975929,-9918.759623,0.000000,-536.266849
2969.976267,-10732.986159,1406.391290,153.219100
2969.976605,-13249.686362,1702.473667,-995.924147
2969.976943,-11621.233289,666.185348,-1838.629195
2969.977280,-10362.883188,-666.185348,0.000000
2969.977618,-9770.718434,-3775.050304,1685.410096
2969.977956,-9474.636058,-4293.194464,1532.190996
2969.978294,-9622.677246,-3330.926739,383.047749
2969.978631,-9178.553681,-2886.803174,-2374.896044
2969.978969,-8956.491898,-2738.761985,-2987.772442
2969.979307,-10732.986159,-2146.597232,-3064.381992
2969.979645,-10214.842000,-148.041188,-3983.696590
2969.979982,-11621.233289,444.123565,-3753.867940
2969.980320,-10436.903782,-740.205942,-3140.991542
2969.980658,-10807.006753,-2590.720797,-1455.581446
2969.980996,-10362.883188,-2442.679609,1455.581446
2969.981334,-10066.800811,-2812.782580,1455.581446
2969.981671,-10436.903782,-3034.844362,612.876398
2969.982009,-10436.903782,-4071.132681,-1225.752797
2969.982347,-10214.842000,-5033.400406,-1302.362347
2969.982685,-8216.285956,-2220.617826,-536.266849
2969.983022,-8660.409521,-888.247130,842.705048
2969.983360,-10881.027347,1776.494261,-536.266849
2969.983698,-10214.842000,2368.659014,-1455.581446
2969.984036,-9178.553681,2294.638420,766.095498
2969.984373,-12361.439231,1406.391290,3907.087040
2969.984711,-12435.459826,888.247130,2221.676944
2969.985049,-11695.253884,444.123565,0.000000
2969.985387,-9252.574275,-1702.473667,459.657299
2969.985724,-7105.977043,-2442.679609,1991.848295
2969.986062,-7254.018232,0.000000,2451.505594
2969.986400,-8290.306550,888.247130,1991.848295
2969.986738,-10955.047942,2368.659014,-689.485948
2969.987075,-11621.233289,3478.967927,-4826.401637
2969.987413,-11843.295072,2368.659014,-4443.353888
2969.987751,-9622.677246,740.205942,-1378.971896
2969.988089,-8586.388927,-518.144159,1149.143247
2969.988426,-8808.450710,-592.164754,2911.162892
2969.988764,-9474.636058,-222.061783,2298.286494
2969.989102,-10140.821405,-1480.411884,1762.019645
2969.989440,-10955.047942,-1480.411884,1149.143247
2969.989777,-11325.150913,-1406.391290,1149.143247
2969.990114,-10955.047942,-1184.329507,1302.362347
2969.990451,-9844.739029,148.041188,1225.752797
2969.990789,-8660.409521,666.185348,76.609550
2969.991126,-10658.965565,1406.391290,306.438199
2969.991463,-11103.089130,1110.308913,-1149.143247
2969.991801,-11399.171507,592.164754,-536.266849
2969.992138,-12213.398043,-518.144159,-306.438199
2969.992475,-10658.965565,-2442.679609,-1225.752797
2969.992812,-9326.594869,-2664.741391,459.657299
2969.993150,-8438.347739,-3849.070898,1838.629195
2969.993487,-8438.347739,-2146.597232,76.609550
2969.993824,-9918.759623,-740.205942,-1072.533697
2969.994161,-11103.089130,444.123565,-1072.533697
2969.994499,-12287.418637,-518.144159,-3064.381992
2969.994836,-11399.171507,-370.102971,-2221.676944
2969.995173,-8734.430116,-1924.535449,-306.438199
2969.995511,-7772.162391,-2368.659014,612.876398
2969.995848,-7772.162391,-3108.864956,995.924147
2969.996185,-8068.244768,-2220.617826,1378.971896
2969.996522,-10584.944971,-2368.659014,2451.505594
2969.996860,-11103.089130,-962.267725,2068.457845
2969.997197,-11547.212695,888.247130,689.485948
2969.997534,-11991.336260,1332.370696,1072.533697
2969.997871,-10066.800811,1406.391290,1302.362347
2969.998209,-8512.368333,2072.576638,1225.752797
2969.998546,-9622.677246,2220.617826,2451.505594
2969.998883,-11103.089130,2220.617826,1608.800546
2969.999221,-11991.336260,814.226536,-612.876398
2969.999558,-10807.006753,148.041188,-153.219100
2969.999895,-9474.636058,-1110.308913,1532.190996
2970.000232,-8808.450710,-1628.453072,1762.019645
2970.000570,-9326.594869,-444.123565,842.705048
2970.000907,-9474.636058,0.000000,-612.876398
2970.001244,-10066.800811,0.000000,-2451.505594
2970.001581,-9992.780217,296.082377,-2145.067394
2970.001919,-9474.636058,-592.164754,-1838.629195
2970.002256,-9770.718434,-1110.308913,-536.266849
2970.002593,-8808.450710,-2516.700203,0.000000
2970.002930,-8364.327145,-3034.844362,1225.752797
2970.003268,-9326.594869,-2886.803174,2374.896044
2970.003605,-10362.883188,-2072.576638,2834.553343
2970.003942,-11769.274478,-1924.535449,842.705048
2970.004280,-11769.274478,-1258.350101,-842.705048
2970.004617,-10436.903782,-1036.288319,-689.485948
2970.004954,-10140.821405,-666.185348,919.314598
2970.005291,-9178.553681,0.000000,306.438199
2970.005629,-9474.636058,740.205942,229.828649
2970.005966,-11547.212695,148.041188,842.705048
2970.006303,-11917.315666,0.000000,-229.828649
2970.006640,-11251.130318,-296.082377,-536.266849
2970.006978,-10807.006753,-814.226536,612.876398
2970.007315,-10214.842000,-1998.556043,919.314598
2970.007652,-9400.615463,-1184.329507,229.828649
2970.007990,-9326.594869,148.041188,-306.438199
2970.008327,-8882.471304,0.000000,-842.705048
2970.008664,-9918.759623,814.226536,-1455.581446
2970.009001,-10362.883188,592.164754,-2221.676944
2970.009339,-9918.759623,222.061783,-1455.581446
2970.009676,-9844.739029,0.000000,306.438199
2970.010013,-8956.491898,0.000000,1302.362347
2970.010350,-9252.574275,-222.061783,1378.971896
2970.010688,-9548.656652,-296.082377,3140.991542
2970.011025,-10584.944971,222.061783,3370.820191
2970.011362,-10288.862594,518.144159,1455.581446
2970.011700,-9770.718434,1258.350101,995.924147
2970.012037,-10362.883188,592.164754,1225.752797
2970.012374,-9696.697840,1628.453072,229.828649
2970.012711,-9474.636058,2072.576638,229.828649
2970.013049,-10288.862594,1776.494261,842.705048
2970.013386,-11103.089130,1850.514855,0.000000
2970.013723,-11029.068536,222.061783,-1149.143247
2970.014060,-10436.903782,74.020594,-153.219100
2970.014398,-9474.636058,-1998.556043,459.657299
2970.014735,-9104.533087,-740.205942,459.657299
2970.015072,-8882.471304,-1332.370696,-536.266849
2970.015409,-8660.409521,-1110.308913,-1072.533697
2970.015747,-9918.759623,-1406.391290,-1149.143247
2970.016084,-10881.027347,-888.247130,-1838.629195
2970.016421,-10732.986159,-1554.432478,-1378.971896
2970.016759,-10955.047942,-1702.473667,0.000000
2970.017096,-10066.800811,-2146.597232,612.876398
2970.017433,-9696.697840,-2960.823768,1072.533697
2970.017770,-10584.944971,-3108.864956,2681.334243
2970.018108,-10362.883188,-2146.597232,1991.848295
2970.018445,-10214.842000,-1924.535449,689.485948
2970.018782,-10584.944971,-592.164754,76.609550
2970.019119,-10066.800811,-888.247130,0.000000
2970.019457,-9918.759623,666.185348,919.314598
2970.019794,-9918.759623,518.144159,459.657299
2970.020131,-10362.883188,1480.411884,919.314598
2970.020469,-11473.192101,2146.597232,689.485948
2970.020806,-11695.253884,1332.370696,-383.047749
2970.021143,-9770.718434,518.144159,-919.314598
2970.021480,-8734.430116,-1184.329507,229.828649
2970.021818,-9030.512492,-740.205942,842.705048
2970.022155,-8364.327145,-888.247130,-689.485948
2970.022492,-8068.244768,-296.082377,-612.876398
2970.022829,-9252.574275,444.123565,-459.657299
2970.023167,-10732.986159,518.144159,-153.219100
2970.023504,-10807.006753,1332.370696,-1072.533697
2970.023841,-10436.903782,-592.164754,0.000000
2970.024179,-9548.656652,0.000000,689.485948
2970.024516,-8882.471304,-1776.494261,766.095498
2970.024853,-10362.883188,-1554.432478,2528.115143
2970.025190,-9622.677246,-2368.659014,1991.848295
2970.025528,-10066.800811,-1332.370696,1532.190996
2970.025865,-11769.274478,-444.123565,1149.143247
2970.026202,-9918.759623,518.144159,-612.876398
2970.026539,-9844.739029,-148.041188,459.657299
2970.026877,-10436.903782,518.144159,229.828649
2970.027214,-10436.903782,592.164754,306.438199
2970.027551,-10584.944971,0.000000,1225.752797
2970.027888,-10436.903782,-518.144159,766.095498
2970.028226,-10066.800811,-1184.329507,-229.828649
2970.028563,-10584.944971,-1702.473667,383.047749
2970.028900,-9992.780217,-1702.473667,612.876398
2970.029238,-9696.697840,-2368.659014,-766.095498
2970.029575,-9844.739029,-1998.556043,-1532.190996
2970.029912,-9770.718434,-1258.350101,-1915.238745
2970.030249,-9326.594869,-1258.350101,-1072.533697
2970.030587,-9178.553681,-740.205942,-536.266849
2970.030924,-9992.780217,-148.041188,383.047749
2970.031261,-10584.944971,0.000000,842.705048
2970.031598,-10140.821405,-666.185348,153.219100
2970.031936,-10362.883188,-666.185348,1455.581446
2970.032273,-9992.780217,-222.061783,2528.115143
2970.032610,-10362.883188,-148.041188,2528.115143
2970.032948,-9104.533087,444.123565,1991.848295
2970.033285,-9326.594869,592.164754,1991.848295
2970.033622,-10436.903782,2368.659014,2145.067394
2970.033959,-10732.986159,2294.638420,0.000000
2970.034297,-10436.903782,3034.844362,0.000000
2970.034634,-10436.903782,2220.617826,0.000000
2970.034971,-9622.677246,2146.597232,536.266849
2970.035308,-9548.656652,2072.576638,229.828649
2970.035646,-9474.636058,666.185348,919.314598
2970.035983,-9844.739029,592.164754,-306.438199
2970.036320,-10066.800811,370.102971,-1225.752797
2970.036658,-10584.944971,0.000000,-766.095498
2970.036995,-9030.512492,-1036.288319,-1532.190996
2970.037332,-8586.388927,-518.144159,-2221.676944
2970.037669,-9696.697840,-814.226536,-766.095498
2970.038007,-9030.512492,-962.267725,-919.314598
2970.038344,-9104.533087,-1332.370696,459.657299
2970.038681,-10214.842000,-888.247130,612.876398
2970.039018,-10881.027347,-814.226536,1455.581446
2970.039356,-11843.295072,-740.205942,1991.848295
2970.039693,-10955.047942,-1628.453072,1302.362347
2970.040030,-10658.965565,-814.226536,1149.143247
2970.040367,-10214.842000,-888.247130,919.314598
2970.040705,-10362.883188,-1184.329507,229.828649
2970.041042,-10214.842000,-592.164754,459.657299
2970.041379,-10362.883188,222.061783,-153.219100
2970.041717,-10658.965565,740.205942,-536.266849
2970.042054,-10807.006753,222.061783,-612.876398
2970.042391,-10140.821405,-370.102971,0.000000
2970.042728,-10288.862594,-814.226536,-229.828649
2970.043066,-9844.739029,-74.020594,919.314598
2970.043403,-9474.636058,-74.020594,-306.438199
2970.043740,-9474.636058,-814.226536,-1455.581446
2970.044077,-9548.656652,-1406.391290,-995.924147
2970.044415,-9474.636058,-1480.411884,-153.219100
2970.044752,-9474.636058,-1036.288319,383.047749
2970.045089,-8882.471304,-592.164754,689.485948
2970.045427,-9252.574275,444.123565,1302.362347
2970.045764,-9474.636058,0.000000,1225.752797
2970.046101,-10436.903782,1406.391290,689.485948
2970.046438,-10955.047942,666.185348,1455.581446
2970.046776,-10140.821405,222.061783,1072.533697
2970.047113,-9326.594869,666.185348,1532.190996
2970.047450,-10362.883188,444.123565,2451.505594
2970.047787,-9770.718434,1184.329507,1762.019645
2970.048125,-10658.965565,1258.350101,919.314598
2970.048462,-11103.089130,1554.432478,0.000000
2970.048799,-11399.171507,2368.659014,-1149.143247
2970.049136,-10732.986159,0.000000,-919.314598
2970.049474,-9992.780217,0.000000,-306.438199
2970.049811,-8882.471304,-888.247130,-383.047749
2970.050148,-9178.553681,-740.205942,-153.219100
2970.050486,-9252.574275,-222.061783,-383.047749
2970.050823,-9474.636058,-592.164754,-1378.971896
2970.051160,-10288.862594,-1776.494261,-1378.971896
2970.051497,-10436.903782,-1776.494261,-995.924147
2970.051835,-9844.739029,-1480.411884,229.828649
2970.052172,-9474.636058,-2072.576638,612.876398
2970.052509,-9918.759623,-1924.535449,1149.143247
2970.052846,-9770.718434,-1776.494261,1685.410096
2970.053184,-10214.842000,-1554.432478,1608.800546
2970.053521,-10510.924376,-370.102971,842.705048
2970.053858,-10955.047942,-740.205942,919.314598
2970.054196,-11029.068536,-518.144159,1072.533697
2970.054533,-10214.842000,0.000000,459.657299
2970.054870,-9326.594869,444.123565,1762.019645
2970.055207,-10955.047942,444.123565,2451.505594
2970.055545,-11177.109724,1480.411884,0.000000
2970.055882,-10510.924376,2368.659014,-1762.019645
2970.056219,-9844.739029,1184.329507,-536.266849
2970.056556,-10362.883188,814.226536,0.000000
2970.056894,-9622.677246,-148.041188,-306.438199
2970.057231,-8808.450710,370.102971,0.000000
2970.057568,-9474.636058,-296.082377,153.219100
2970.057906,-9474.636058,148.041188,-689.485948
2970.058243,-8586.388927,0.000000,-612.876398
2970.058580,-9474.636058,-666.185348,0.000000
2970.058917,-9622.677246,148.041188,76.609550
2970.059255,-10214.842000,-370.102971,-536.266849
2970.059592,-9104.533087,-518.144159,-306.438199
2970.059929,-9326.594869,-888.247130,1685.410096
2970.060266,-9992.780217,296.082377,1762.019645
2970.060604,-10362.883188,148.041188,229.828649
2970.060941,-11325.150913,-518.144159,1072.533697
2970.061278,-11029.068536,-296.082377,536.266849
2970.061615,-9548.656652,-1110.308913,229.828649
2970.061953,-9548.656652,-444.123565,1455.581446
2970.062290,-9548.656652,-444.123565,2221.676944
2970.062627,-9770.718434,962.267725,1072.533697
2970.062965,-11325.150913,1554.432478,-766.095498
2970.063302,-11621.233289,592.164754,-1532.190996
2970.063639,-10807.006753,296.082377,-1225.752797
2970.063976,-10658.965565,-1110.308913,-1225.752797
2970.064314,-9696.697840,-1184.329507,0.000000
2970.064651,-9030.512492,-1776.494261,229.828649
2970.064988,-9326.594869,-814.226536,536.266849
2970.065325,-9918.759623,-1480.411884,-459.657299
2970.065663,-10510.924376,-1480.411884,-76.609550
2970.066000,-10658.965565,-592.164754,-689.485948
2970.066337,-10436.903782,-740.205942,0.000000
2970.066675,-9326.594869,-370.102971,-76.609550
2970.067012,-8660.409521,-1258.350101,1149.143247
2970.067349,-9474.636058,0.000000,2451.505594
2970.067686,-9844.739029,1406.391290,2604.724693
2970.068024,-11325.150913,592.164754,1838.629195
2970.068361,-11325.150913,740.205942,919.314598
2970.068698,-10732.986159,962.267725,383.047749
2970.069035,-9400.615463,1110.308913,689.485948
2970.069373,-8808.450710,888.247130,1762.019645
2970.069710,-8660.409521,1628.453072,1532.190996
2970.070047,-10066.800811,2590.720797,76.609550
2970.070385,-10584.944971,2516.700203,0.000000
2970.070722,-10881.027347,1406.391290,-229.828649
2970.071059,-11325.150913,222.061783,153.219100
2970.071396,-9548.656652,0.000000,-1302.362347
2970.071734,-8068.244768,-888.247130,0.000000
2970.072071,-8660.409521,-222.061783,229.828649
2970.072408,-8290.306550,-1184.329507,-1225.752797
2970.072745,-9918.759623,-222.061783,-919.314598
2970.073083,-11473.192101,-1480.411884,-229.828649
2970.073420,-11177.109724,-1776.494261,-1149.143247
2970.073757,-9992.780217,-2294.638420,-689.485948
2970.074094,-8660.409521,-2590.720797,1225.752797
2970.074432,-8364.327145,-2072.576638,2451.505594
2970.074769,-9252.574275,-814.226536,1608.800546
2970.075106,-11325.150913,0.000000,1378.971896
2970.075444,-12213.398043,-296.082377,0.000000
2970.075781,-12435.459826,-962.267725,0.000000
2970.076118,-11177.109724,-1110.308913,229.828649
2970.076455,-10288.862594,-1924.535449,1838.629195
2970.076793,-9252.574275,-740.205942,2145.067394
2970.077130,-8956.491898,0.000000,1149.143247
2970.077467,-10140.821405,74.020594,229.828649
2970.077804,-11473.192101,-444.123565,-536.266849
2970.078142,-11251.130318,0.000000,-1225.752797
2970.078479,-10214.842000,-592.164754,-1072.533697
2970.078816,-9844.739029,-444.123565,-306.438199
2970.079154,-9252.574275,-814.226536,-842.705048
2970.079491,-8512.368333,-296.082377,-306.438199
2970.079828,-8882.471304,-888.247130,612.876398
2970.080165,-9918.759623,-1110.308913,1149.143247
2970.080503,-10066.800811,222.061783,306.438199
2970.080840,-10881.027347,-370.102971,76.609550
2970.081177,-9696.697840,-444.123565,612.876398
2970.081514,-8438.347739,444.123565,2451.505594
2970.081852,-8808.450710,2146.597232,2221.676944
2970.082189,-10436.903782,2294.638420,1838.629195
2970.082526,-11991.336260,2590.720797,919.314598
2970.082864,-11251.130318,1554.432478,153.219100
2970.083201,-10510.924376,1332.370696,0.000000
2970.083538,-9918.759623,0.000000,1378.971896
2970.083875,-9030.512492,0.000000,1762.019645
2970.084213,-8734.430116,740.205942,536.266849
2970.084550,-9696.697840,1184.329507,-995.924147
2970.084887,-10214.842000,1184.329507,-689.485948
2970.085224,-11177.109724,518.144159,-2068.457845
2970.085562,-10807.006753,444.123565,-2528.115143
2970.085899,-10658.965565,-962.267725,-1915.238745
2970.086236,-8734.430116,-1554.432478,-1149.143247
2970.086573,-7846.182985,-2442.679609,612.876398
2970.086911,-8216.285956,-2072.576638,919.314598
2970.087248,-9474.636058,-1406.391290,383.047749
2970.087585,-11473.192101,-1332.370696,-383.047749
2970.087923,-11621.233289,-2146.597232,-1455.581446
2970.088260,-10955.047942,-2294.638420,-689.485948
2970.088598,-9326.594869,-2368.659014,995.924147
2970.088935,-8882.471304,-1110.308913,1608.800546
2970.089273,-9178.553681,-518.144159,1455.581446
2970.089610,-10658.965565,-296.082377,1762.019645
2970.089948,-10732.986159,-370.102971,995.924147
2970.090285,-11769.274478,0.000000,306.438199
2970.090622,-10732.986159,370.102971,766.095498
2970.090960,-10066.800811,-296.082377,689.485948
2970.091297,-9400.615463,592.164754,1762.019645
2970.091635,-9622.677246,1480.411884,1455.581446
2970.091972,-10881.027347,1702.473667,0.000000
2970.092310,-11769.274478,592.164754,-766.095498
2970.092647,-11473.192101,296.082377,-1838.629195
2970.092985,-9918.759623,0.000000,-1532.190996
2970.093322,-8364.327145,-1628.453072,153.219100
2970.093659,-7624.121203,-1406.391290,2451.505594
2970.093997,-7920.203579,-814.226536,995.924147
2970.094334,-9400.615463,296.082377,689.485948
2970.094672,-10436.903782,444.123565,383.047749
2970.095009,-11251.130318,0.000000,-689.485948
2970.095347,-10881.027347,-888.247130,-1225.752797
2970.095684,-9252.574275,-1702.473667,766.095498
2970.096022,-8216.285956,-1184.329507,2221.676944
2970.096359,-7994.224174,-962.267725,1915.238745
2970.096696,-9548.656652,370.102971,1608.800546
2970.097034,-10955.047942,74.020594,766.095498
2970.097371,-11843.295072,222.061783,0.000000
2970.097709,-12287.418637,0.000000,0.000000
2970.098046,-10807.006753,0.000000,-842.705048
2970.098384,-9178.553681,-444.123565,459.657299
2970.098721,-8586.388927,222.061783,0.000000
2970.099059,-9252.574275,296.082377,-842.705048
2970.099396,-11621.233289,148.041188,-689.485948
2970.099733,-12139.377449,-1110.308913,-2374.896044
2970.100071,-11177.109724,-1998.556043,-2757.943793
2970.100408,-9844.739029,-1850.514855,-919.314598
2970.100746,-8734.430116,-3182.885551,1225.752797
2970.101083,-7846.182985,-1628.453072,2374.896044
2970.101421,-9104.533087,-1332.370696,1149.143247
2970.101758,-11177.109724,-222.061783,0.000000
2970.102096,-11769.274478,-444.123565,-995.924147
2970.102433,-10881.027347,-1480.411884,-306.438199
2970.102770,-9178.553681,-1406.391290,1072.533697
2970.103108,-8216.285956,-1480.411884,3677.258390
2970.103445,-8956.491898,666.185348,3524.039291
2970.103783,-9770.718434,888.247130,1838.629195
2970.104120,-11399.171507,1628.453072,1149.143247
2970.104458,-11547.212695,1332.370696,0.000000
2970.104795,-11621.233289,1184.329507,229.828649
2970.105133,-9844.739029,888.247130,153.219100
2970.105470,-8660.409521,740.205942,1072.533697
2970.105807,-8142.265362,666.185348,842.705048
2970.106145,-8734.430116,2368.659014,-153.219100
2970.106482,-11177.109724,1628.453072,0.000000
2970.106820,-12065.356855,2072.576638,-1225.752797
2970.107157,-11399.171507,518.144159,-1991.848295
2970.107495,-10288.862594,-592.164754,-1225.752797
2970.107832,-8512.368333,-1924.535449,153.219100
2970.108170,-8290.306550,-2072.576638,1532.190996
2970.108507,-9104.533087,-1554.432478,1149.143247
2970.108844,-9844.739029,-666.185348,229.828649
2970.109182,-10955.047942,-592.164754,-536.266849
2970.109519,-12583.501014,-1406.391290,-766.095498
2970.109857,-10732.986159,-1184.329507,-1532.190996
2970.110194,-8956.491898,-2368.659014,153.219100
2970.110532,-8438.347739,-296.082377,2145.067394
2970.110869,-9178.553681,-296.082377,995.924147
2970.111207,-11325.150913,-222.061783,1455.581446
2970.111544,-11547.212695,-296.082377,0.000000
2970.111881,-11843.295072,-1110.308913,0.000000
2970.112219,-11251.130318,-370.102971,76.609550
2970.112556,-9252.574275,-1554.432478,766.095498
2970.112894,-8512.368333,-444.123565,766.095498
2970.113231,-9474.636058,-1332.370696,76.609550
2970.113569,-10362.883188,74.020594,76.609550
2970.113906,-11251.130318,-592.164754,-1378.971896
2970.114244,-11177.109724,-518.144159,-1762.019645
2970.114581,-10066.800811,-740.205942,-2221.676944
2970.114918,-9400.615463,-1480.411884,0.000000
2970.115256,-8882.471304,-1258.350101,1072.533697
2970.115593,-8734.430116,-1480.411884,1685.410096
2970.115931,-9918.759623,-370.102971,1455.581446
2970.116268,-10658.965565,0.000000,612.876398
2970.116606,-12139.377449,0.000000,689.485948
2970.116943,-10140.821405,-370.102971,536.266849
2970.117281,-8808.450710,0.000000,1302.362347
2970.117618,-9474.636058,1110.308913,2451.505594
2970.117955,-9252.574275,1332.370696,1225.752797
2970.118293,-9844.739029,1406.391290,1072.533697
2970.118630,-10881.027347,1332.370696,536.266849
2970.118968,-10955.047942,1184.329507,153.219100
2970.119305,-11029.068536,888.247130,-536.266849
2970.119643,-9252.574275,-370.102971,-1072.533697
2970.119980,-8956.491898,-222.061783,-153.219100
2970.120318,-8142.265362,-148.041188,0.000000
2970.120655,-8882.471304,-148.041188,0.000000
2970.120992,-10584.944971,-444.123565,-612.876398
2970.121330,-11917.315666,-592.164754,-1225.752797
2970.121667,-11399.171507,-518.144159,-2757.943793
2970.122005,-10140.821405,-2072.576638,-1378.971896
2970.122342,-8438.347739,-2442.679609,1302.362347
2970.122680,-8512.368333,-2664.741391,919.314598
2970.123017,-9474.636058,-2146.597232,1532.190996
2970.123355,-10362.883188,-2368.659014,536.266849
2970.123692,-11029.068536,-1776.494261,383.047749
2970.124029,-11695.253884,-1628.453072,0.000000
2970.124367,-10955.047942,-1258.350101,612.876398
2970.124704,-10214.842000,-814.226536,1685.410096
2970.125042,-9326.594869,-74.020594,1762.019645
2970.125379,-9992.780217,592.164754,1455.581446
2970.125717,-10362.883188,0.000000,1532.190996
2970.126054,-11325.150913,444.123565,919.314598
2970.126392,-11325.150913,0.000000,383.047749
2970.126729,-10955.047942,666.185348,-76.609550
2970.127066,-9178.553681,518.144159,-459.657299
2970.127404,-8512.368333,-444.123565,76.609550
2970.127741,-8364.327145,0.000000,153.219100
2970.128079,-9770.718434,74.020594,-536.266849
2970.128416,-9918.759623,592.164754,-459.657299
2970.128754,-9918.759623,0.000000,-2374.896044
2970.129091,-9252.574275,-1184.329507,-1838.629195
2970.129428,-8660.409521,-888.247130,229.828649
2970.129766,-8068.244768,-814.226536,1225.752797
2970.130103,-9326.594869,-592.164754,1378.971896
2970.130441,-10214.842000,148.041188,919.314598
2970.130778,-11769.274478,74.020594,689.485948
2970.131116,-11991.336260,148.041188,689.485948
2970.131453,-11177.109724,-888.247130,459.657299
2970.131791,-10436.903782,-888.247130,1225.752797
2970.132128,-9696.697840,-370.102971,1685.410096
2970.132465,-9104.533087,-296.082377,1455.581446
2970.132803,-10066.800811,222.061783,919.314598
2970.133140,-11103.089130,962.267725,0.000000
2970.133478,-11843.295072,1036.288319,-1225.752797
2970.133815,-11621.233289,592.164754,-1455.581446
2970.134153,-10510.924376,-370.102971,-766.095498
2970.134490,-9104.533087,-370.102971,-612.876398
2970.134828,-8734.430116,-222.061783,-1149.143247
2970.135165,-9252.574275,-1628.453072,-919.314598
2970.135502,-9622.677246,-2220.617826,-689.485948
2970.135840,-9770.718434,-1850.514855,-766.095498
2970.136177,-9548.656652,-1480.411884,0.000000
2970.136515,-10066.800811,-2146.597232,459.657299
2970.136852,-10288.862594,-1924.535449,919.314598
2970.137190,-9622.677246,-740.205942,536.266849
2970.137527,-9474.636058,-444.123565,842.705048
2970.137865,-10510.924376,-370.102971,1532.190996
2970.138202,-10881.027347,0.000000,689.485948
2970.138539,-10288.862594,-518.144159,229.828649
2970.138877,-9622.677246,74.020594,1608.800546
2970.139214,-10140.821405,370.102971,2374.896044
2970.139552,-10066.800811,962.267725,1685.410096
2970.139889,-10436.903782,740.205942,1532.190996
2970.140227,-10214.842000,1480.411884,1532.190996
2970.140564,-10510.924376,1850.514855,306.438199
2970.140902,-10436.903782,1036.288319,0.000000
2970.141239,-9622.677246,0.000000,-306.438199
2970.141576,-8808.450710,-592.164754,153.219100
2970.141914,-8660.409521,222.061783,0.000000
2970.142251,-9030.512492,296.082377,-536.266849
2970.142589,-9770.718434,518.144159,-766.095498
2970.142926,-10658.965565,-148.041188,-1149.143247
2970.143264,-11251.130318,-1554.432478,-1378.971896
2970.143601,-9474.636058,-1110.308913,0.000000
2970.143939,-9400.615463,-2294.638420,612.876398
2970.144276,-9252.574275,-2516.700203,766.095498
2970.144613,-9400.615463,-2368.659014,536.266849
2970.144951,-10140.821405,-1850.514855,2145.067394
2970.145288,-11695.253884,-1480.411884,1532.190996
2970.145626,-10732.986159,-888.247130,612.876398
2970.145963,-10732.986159,-1036.288319,459.657299
2970.146301,-10436.903782,-370.102971,459.657299
2970.146638,-9992.780217,-740.205942,153.219100
2970.146976,-10066.800811,-592.164754,919.314598
2970.147313,-10362.883188,-814.226536,612.876398
2970.147650,-10807.006753,222.061783,689.485948
2970.147988,-10362.883188,-740.205942,-536.266849
2970.148325,-9178.553681,-666.185348,-459.657299
2970.148663,-9178.553681,-1406.391290,-612.876398
2970.149000,-9178.553681,-296.082377,-689.485948
2970.149338,-9474.636058,-370.102971,-1685.410096
2970.149675,-9696.697840,-888.247130,-1685.410096
2970.150013,-9992.780217,-518.144159,-612.876398
2970.150350,-9844.739029,-370.102971,-229.828649
2970.150687,-9844.739029,148.041188,459.657299
2970.151025,-10066.800811,0.000000,1455.581446
2970.151362,-10584.944971,518.144159,1455.581446
2970.151700,-10140.821405,444.123565,1149.143247
2970.152037,-10807.006753,444.123565,2145.067394
2970.152375,-11251.130318,518.144159,2528.115143
2970.152712,-10436.903782,666.185348,1225.752797
2970.153050,-9030.512492,1850.514855,1762.019645
2970.153387,-9030.512492,1184.329507,995.924147
2970.153724,-9474.636058,1850.514855,1532.190996
2970.154062,-10510.924376,1554.432478,229.828649
2970.154399,-10881.027347,1036.288319,0.000000
2970.154737,-10362.883188,666.185348,0.000000
2970.155074,-9474.636058,74.020594,76.609550
2970.155412,-8364.327145,-444.123565,306.438199
2970.155749,-8956.491898,-2220.617826,1149.143247
2970.156087,-9326.594869,-518.144159,-612.876398
2970.156424,-9548.656652,-666.185348,-2451.505594
2970.156761,-10140.821405,-1184.329507,-1762.019645
2970.157099,-9770.718434,-1850.514855,-2451.505594
2970.157436,-10288.862594,-1776.494261,-1149.143247
2970.157774,-8808.450710,-1110.308913,-689.485948
2970.158111,-8956.491898,-1776.494261,-306.438199
2970.158449,-11473.192101,-1554.432478,919.314598
2970.158786,-12213.398043,-1184.329507,153.219100
2970.159124,-11843.295072,-1480.411884,229.828649
2970.159461,-10807.006753,-1480.411884,2451.505594
2970.159798,-10732.986159,-1702.473667,3600.648841
2970.160136,-9770.718434,-740.205942,2528.115143
2970.160473,-10214.842000,0.000000,2068.457845
2970.160811,-10881.027347,518.144159,1455.581446
2970.161148,-11843.295072,666.185348,0.000000
2970.161486,-10955.047942,888.247130,-842.705048
2970.161823,-9844.739029,666.185348,-689.485948
2970.162161,-8438.347739,666.185348,153.219100
2970.162498,-8586.388927,444.123565,919.314598
2970.162835,-8956.491898,-74.020594,995.924147
2970.163173,-9622.677246,740.205942,459.657299
2970.163510,-10288.862594,592.164754,-842.705048
2970.163848,-10584.944971,0.000000,-612.876398
2970.164185,-9400.615463,-888.247130,0.000000
2970.164523,-8734.430116,-296.082377,459.657299
2970.164860,-8512.368333,296.082377,612.876398
2970.165198,-8142.265362,-444.123565,76.609550
2970.165535,-9918.759623,296.082377,995.924147
2970.165872,-10510.924376,0.000000,459.657299
2970.166210,-10510.924376,740.205942,0.000000
2970.166547,-10584.944971,74.020594,383.047749
2970.166885,-10807.006753,0.000000,1302.362347
2970.167222,-9844.739029,-370.102971,995.924147
2970.167560,-9474.636058,-222.061783,1532.190996
2970.167897,-9992.780217,0.000000,2451.505594
2970.168235,-10658.965565,222.061783,1072.533697
2970.168572,-11103.089130,74.020594,383.047749
2970.168909,-10732.986159,888.247130,-842.705048
2970.169247,-10584.944971,74.020594,-995.924147
2970.169584,-10066.800811,-592.164754,-1302.362347
2970.169922,-9474.636058,-888.247130,-1608.800546
2970.170259,-9178.553681,-1258.350101,-919.314598
2970.170597,-9474.636058,-1554.432478,-1149.143247
2970.170934,-10140.821405,-1480.411884,-1378.971896
2970.171272,-10214.842000,-1998.556043,-919.314598
2970.171609,-10066.800811,-2368.659014,229.828649
2970.171946,-9548.656652,-2294.638420,383.047749
2970.172284,-9844.739029,-1406.391290,689.485948
2970.172621,-9844.739029,-1036.288319,1762.019645
2970.172959,-9104.533087,-1036.288319,1149.143247
2970.173296,-10584.944971,-518.144159,1225.752797
2970.173634,-10288.862594,74.020594,1378.971896
2970.173971,-10881.027347,444.123565,1685.410096
2970.174309,-10658.965565,74.020594,2145.067394
2970.174646,-9030.512492,814.226536,1532.190996
2970.174983,-9844.739029,1110.308913,2451.505594
2970.175321,-10140.821405,2072.576638,1225.752797
2970.175658,-10288.862594,2516.700203,383.047749
2970.175996,-10732.986159,2368.659014,-536.266849
2970.176333,-9992.780217,1850.514855,0.000000
2970.176671,-10362.883188,1036.288319,0.000000
2970.177008,-9474.636058,666.185348,0.000000
2970.177346,-9030.512492,74.020594,383.047749
2970.177683,-9622.677246,-296.082377,536.266849
2970.178020,-9252.574275,74.020594,-995.924147
2970.178358,-9400.615463,-592.164754,-689.485948
2970.178695,-10436.903782,-888.247130,-995.924147
2970.179033,-9474.636058,-740.205942,-1685.410096
2970.179370,-9844.739029,-666.185348,-766.095498
2970.179708,-9030.512492,-1850.514855,536.266849
2970.180045,-8512.368333,-1776.494261,1072.533697
2970.180383,-9770.718434,-592.164754,1149.143247
2970.180720,-10807.006753,-740.205942,229.828649
2970.181057,-10881.027347,-1776.494261,536.266849
2970.181395,-11177.109724,-1554.432478,383.047749
2970.181732,-9770.718434,-962.267725,766.095498
2970.182070,-9992.780217,-222.061783,1762.019645
2970.182407,-11029.068536,0.000000,1532.190996
2970.182745,-11029.068536,74.020594,-689.485948
2970.183082,-11621.233289,0.000000,-766.095498
2970.183419,-10436.903782,-592.164754,-689.485948
2970.183757,-9992.780217,-1702.473667,0.000000
2970.184094,-10362.883188,-1480.411884,306.438199
2970.184432,-9400.615463,-888.247130,-459.657299
2970.184769,-9474.636058,0.000000,-153.219100
2970.185107,-10362.883188,74.020594,-689.485948
2970.185444,-11177.109724,370.102971,-995.924147
2970.185782,-11769.274478,-222.061783,-689.485948
2970.186119,-10362.883188,1184.329507,-1378.971896
2970.186456,-9252.574275,-1184.329507,383.047749
2970.186794,-8364.327145,-740.205942,1072.533697
2970.187131,-7920.203579,-1184.329507,2145.067394
2970.187469,-9104.533087,0.000000,2987.772442
2970.187806,-9770.718434,814.226536,1838.629195
2970.188144,-10807.006753,888.247130,1455.581446
2970.188481,-10510.924376,1702.473667,1915.238745
2970.188819,-9400.615463,1628.453072,1302.362347
2970.189156,-10066.800811,1554.432478,2145.067394
2970.189493,-9992.780217,2146.597232,1608.800546
2970.189831,-9030.512492,2812.782580,-766.095498
2970.190168,-9104.533087,1036.288319,-919.314598
2970.190506,-9770.718434,370.102971,-766.095498
2970.190843,-9474.636058,0.000000,-306.438199
2970.191181,-10955.047942,-222.061783,-306.438199
2970.191518,-9844.739029,-222.061783,0.000000
2970.191856,-9918.759623,-518.144159,-536.266849
2970.192193,-10140.821405,0.000000,-995.924147
2970.192530,-10436.903782,-1406.391290,-1149.143247
2970.192868,-10288.862594,-1258.350101,0.000000
2970.193205,-10584.944971,-2220.617826,-612.876398
2970.193543,-10436.903782,-2220.617826,-689.485948
2970.193880,-9918.759623,-3182.885551,0.000000
2970.194218,-10066.800811,-2886.803174,1685.410096
2970.194555,-9622.677246,-1628.453072,1532.190996
2970.194893,-10140.821405,-296.082377,1532.190996
2970.195230,-12287.418637,0.000000,1915.238745
2970.195567,-12657.521608,-1110.308913,689.485948
2970.195905,-10436.903782,-1480.411884,229.828649
2970.196242,-7624.121203,-592.164754,1608.800546
2970.196580,-8660.409521,0.000000,2911.162892
2970.196917,-8660.409521,74.020594,689.485948
2970.197255,-9622.677246,1036.288319,-612.876398
2970.197592,-11103.089130,666.185348,-153.219100
2970.197930,-10807.006753,1110.308913,-1072.533697
2970.198267,-10807.006753,888.247130,-612.876398
2970.198604,-10066.800811,222.061783,-459.657299
2970.198942,-8808.450710,0.000000,306.438199
2970.199279,-9400.615463,814.226536,0.000000
2970.199617,-8734.430116,74.020594,153.219100
2970.199954,-9770.718434,148.041188,995.924147
2970.200292,-11251.130318,0.000000,383.047749
2970.200629,-11325.150913,592.164754,0.000000
2970.200967,-10214.842000,518.144159,76.609550
2970.201304,-9400.615463,-444.123565,1302.362347
2970.201641,-9178.553681,814.226536,766.095498
2970.201979,-9844.739029,888.247130,383.047749
2970.202316,-10955.047942,814.226536,536.266849
2970.202654,-10658.965565,-148.041188,-383.047749
2970.202991,-10214.842000,-444.123565,0.000000
2970.203329,-9252.574275,-148.041188,0.000000
2970.203666,-8586.388927,-370.102971,766.095498
2970.204004,-9178.553681,0.000000,306.438199
2970.204341,-9696.697840,0.000000,0.000000
2970.204678,-10066.800811,296.082377,0.000000
2970.205016,-11103.089130,-370.102971,-842.705048
2970.205353,-11843.295072,-592.164754,-1991.848295
2970.205691,-9474.636058,-1850.514855,-2757.943793
2970.206028,-9030.512492,-2368.659014,-1225.752797
2970.206366,-8586.388927,-2072.576638,-306.438199
2970.206703,-9400.615463,-1332.370696,-1225.752797
2970.207041,-10584.944971,-1258.350101,-689.485948
2970.207378,-11843.295072,-1702.473667,-612.876398
2970.207715,-11843.295072,-1258.350101,76.609550
2970.208053,-11177.109724,-1554.432478,536.266849
2970.208390,-9770.718434,-2072.576638,2528.115143
2970.208728,-9474.636058,-1406.391290,3524.039291
2970.209065,-9474.636058,222.061783,2911.162892
2970.209403,-10362.883188,888.247130,2145.067394
2970.209740,-11103.089130,518.144159,1378.971896
2970.210077,-11621.233289,1184.329507,612.876398
2970.210415,-10066.800811,1702.473667,-153.219100
2970.210752,-9770.718434,740.205942,1378.971896
2970.211090,-9030.512492,1332.370696,1838.629195
2970.211427,-8438.347739,1480.411884,1302.362347
2970.211765,-8882.471304,1184.329507,689.485948
2970.212102,-10436.903782,888.247130,919.314598
2970.212440,-10955.047942,666.185348,766.095498
2970.212777,-10288.862594,888.247130,-995.924147
2970.213114,-9474.636058,0.000000,0.000000
2970.213452,-9030.512492,0.000000,-459.657299
2970.213789,-8882.471304,-370.102971,-689.485948
2970.214127,-8734.430116,0.000000,-919.314598
2970.214464,-9326.594869,-740.205942,-919.314598
2970.214802,-10658.965565,-592.164754,-689.485948
2970.215139,-10955.047942,-1628.453072,-919.314598
2970.215477,-9918.759623,-2368.659014,229.828649
2970.215814,-10066.800811,-2368.659014,2451.505594
2970.216151,-10288.862594,-962.267725,3447.429741
2970.216489,-10214.842000,592.164754,2221.676944
2970.216826,-11177.109724,296.082377,612.876398
2970.217164,-11917.315666,-814.226536,0.000000
2970.217501,-11843.295072,-1036.288319,-1225.752797
2970.217839,-10066.800811,0.000000,-1532.190996
2970.218176,-8808.450710,-74.020594,-536.266849
2970.218514,-8808.450710,-518.144159,-1302.362347
2970.218851,-9696.697840,0.000000,-1378.971896
2970.219188,-11177.109724,-814.226536,-689.485948
2970.219526,-10955.047942,-592.164754,-229.828649
2970.219863,-11029.068536,-1628.453072,0.000000
2970.220201,-10288.862594,-1776.494261,76.609550
2970.220538,-9400.615463,-2072.576638,1072.533697
2970.220876,-8438.347739,-1480.411884,919.314598
2970.221213,-8586.388927,-888.247130,306.438199
2970.221551,-9696.697840,-74.020594,-383.047749
2970.221888,-11251.130318,-148.041188,-689.485948
2970.222225,-11325.150913,-740.205942,-1225.752797
2970.222563,-10066.800811,-518.144159,306.438199
2970.222900,-9400.615463,0.000000,2298.286494
2970.223238,-9400.615463,222.061783,3217.601092
2970.223575,-8882.471304,1258.350101,2451.505594
2970.223913,-10214.842000,1776.494261,1991.848295
2970.224250,-11325.150913,1480.411884,1455.581446
2970.224588,-10881.027347,1998.556043,76.609550
2970.224925,-11251.130318,2590.720797,306.438199
2970.225262,-10510.924376,1776.494261,0.000000
2970.225600,-9548.656652,1258.350101,-689.485948
2970.225937,-9178.553681,1184.329507,0.000000
2970.226275,-8956.491898,814.226536,0.000000
2970.226612,-9918.759623,-518.144159,0.000000
2970.226950,-10362.883188,-1184.329507,-306.438199
2970.227287,-9918.759623,-1036.288319,-689.485948
2970.227625,-9622.677246,-2146.597232,-76.609550
2970.227962,-9696.697840,-2146.597232,0.000000
2970.228299,-8290.306550,-1184.329507,-459.657299
2970.228637,-9548.656652,-1554.432478,0.000000
2970.228974,-10658.965565,-1702.473667,0.000000
2970.229312,-10658.965565,-1850.514855,-1072.533697
2970.229649,-10658.965565,-2442.679609,-766.095498
2970.229987,-9548.656652,-2664.741391,612.876398
2970.230324,-9104.533087,-1480.411884,1532.190996
2970.230661,-9548.656652,0.000000,1991.848295
2970.230999,-10807.006753,0.000000,1302.362347
2970.231336,-11473.192101,74.020594,842.705048
2970.231674,-11917.315666,0.000000,229.828649
2970.232011,-11399.171507,0.000000,-153.219100
2970.232349,-10362.883188,-592.164754,459.657299
2970.232686,-9474.636058,-296.082377,842.705048
2970.233024,-8882.471304,148.041188,229.828649
2970.233361,-9030.512492,518.144159,-766.095498
2970.233698,-10288.862594,1110.308913,-689.485948
2970.234036,-11103.089130,518.144159,-2221.676944
2970.234373,-10362.883188,74.020594,-2374.896044
2970.234711,-9474.636058,-666.185348,-1072.533697
2970.235048,-8882.471304,-1110.308913,766.095498
2970.235386,-8586.388927,-370.102971,1608.800546
2970.235723,-8882.471304,-888.247130,2374.896044
2970.236061,-10140.821405,-444.123565,2451.505594
2970.236398,-10436.903782,-296.082377,2221.676944
2970.236735,-11251.130318,0.000000,1762.019645
2970.237073,-10140.821405,370.102971,612.876398
2970.237410,-9696.697840,74.020594,919.314598
2970.237748,-10362.883188,1776.494261,383.047749
2970.238085,-8956.491898,1184.329507,-1455.581446
2970.238423,-8660.409521,518.144159,0.000000
2970.238760,-10436.903782,370.102971,0.000000
2970.239098,-9844.739029,296.082377,-919.314598
2970.239435,-10362.883188,370.102971,-536.266849
2970.239772,-11103.089130,-1110.308913,459.657299
2970.240110,-9770.718434,-296.082377,766.095498
2970.240447,-10140.821405,296.082377,1302.362347
2970.240785,-10510.924376,0.000000,1149.143247
2970.241122,-10732.986159,-444.123565,-306.438199
2970.241460,-11695.253884,-888.247130,-2298.286494
2970.241797,-10066.800811,-2146.597232,-2834.553343
2970.242135,-9252.574275,-2886.803174,-1762.019645
2970.242472,-8956.491898,-2664.741391,-459.657299
2970.242809,-8216.285956,-2664.741391,0.000000
2970.243147,-8956.491898,-1554.432478,1149.143247
2970.243484,-10436.903782,-1258.350101,383.047749
2970.243822,-11695.253884,-1036.288319,842.705048
2970.244159,-11029.068536,-1776.494261,1302.362347
2970.244497,-11029.068536,-2146.597232,2834.553343
2970.244834,-9696.697840,-444.123565,3140.991542
2970.245172,-8364.327145,0.000000,1991.848295
2970.245509,-9474.636058,888.247130,2298.286494
2970.245846,-10214.842000,0.000000,1302.362347
2970.246184,-11103.089130,1332.370696,-689.485948
2970.246521,-10955.047942,2072.576638,-612.876398
2970.246859,-11103.089130,1332.370696,766.095498
2970.247196,-9474.636058,444.123565,76.609550
2970.247534,-8660.409521,518.144159,-459.657299
2970.247871,-7994.224174,1110.308913,536.266849
2970.248209,-9400.615463,666.185348,1302.362347
2970.248546,-11325.150913,0.000000,76.609550
2970.248883,-10955.047942,0.000000,-1838.629195
2970.249221,-10214.842000,-1480.411884,229.828649
2970.249558,-10066.800811,-518.144159,1072.533697
2970.249896,-9030.512492,-518.144159,-383.047749
2970.250233,-9030.512492,-518.144159,383.047749
2970.250571,-9770.718434,-740.205942,0.000000
2970.250908,-10732.986159,-370.102971,-306.438199
2970.251246,-10807.006753,-370.102971,-1149.143247
2970.251583,-9770.718434,-1332.370696,0.000000
2970.251920,-9474.636058,-222.061783,919.314598
2970.252258,-9844.739029,74.020594,1149.143247
2970.252595,-10214.842000,148.041188,2068.457845
2970.252933,-10436.903782,-370.102971,612.876398
2970.253270,-10658.965565,74.020594,153.219100
2970.253608,-10362.883188,814.226536,-1532.190996
2970.253945,-10510.924376,-888.247130,-1838.629195
2970.254282,-9474.636058,-1924.535449,-1302.362347
2970.254620,-8808.450710,-1258.350101,-1915.238745
2970.254957,-9178.553681,-222.061783,-766.095498
2970.255295,-9844.739029,-592.164754,-766.095498
2970.255632,-10436.903782,-444.123565,-995.924147
2970.255970,-10807.006753,-962.267725,-995.924147
2970.256307,-10214.842000,-962.267725,612.876398
2970.256645,-11325.150913,-1924.535449,1762.019645
2970.256982,-10658.965565,-1702.473667,306.438199
2970.257319,-9474.636058,-592.164754,-229.828649
2970.257657,-9696.697840,-888.247130,1225.752797
2970.257994,-9030.512492,-740.205942,1532.190996
2970.258332,-9400.615463,0.000000,1072.533697
2970.258669,-10807.006753,0.000000,1838.629195
2970.259007,-11177.109724,1110.308913,1915.238745
2970.259344,-11251.130318,1554.432478,1762.019645
2970.259682,-9770.718434,888.247130,1532.190996
2970.260019,-9474.636058,1702.473667,2987.772442
2970.260356,-10066.800811,1776.494261,2451.505594
2970.260694,-9918.759623,1628.453072,-229.828649
2970.261031,-10066.800811,222.061783,-766.095498
2970.261369,-9992.780217,-296.082377,-383.047749
2970.261706,-9548.656652,-592.164754,-1072.533697
2970.262044,-9474.636058,666.185348,-995.924147
2970.262381,-9400.615463,0.000000,-995.924147
2970.262719,-8882.471304,-444.123565,-1378.971896
2970.263056,-9326.594869,-1702.473667,-383.047749
2970.263393,-10288.862594,-1406.391290,306.438199
2970.263731,-11325.150913,-1628.453072,995.924147
2970.264068,-11103.089130,-1332.370696,612.876398
2970.264406,-10214.842000,-1036.288319,0.000000
2970.264743,-9622.677246,-1702.473667,229.828649
2970.265081,-9770.718434,-1480.411884,766.095498
2970.265418,-10362.883188,-888.247130,689.485948
2970.265756,-10066.800811,-1998.556043,229.828649
2970.266093,-10140.821405,-1036.288319,612.876398
2970.266430,-11325.150913,-962.267725,1378.971896
2970.266768,-10066.800811,296.082377,0.000000
2970.267105,-10881.027347,-666.185348,1532.190996
2970.267443,-10066.800811,-296.082377,2145.067394
2970.267780,-9770.718434,0.000000,919.314598
2970.268118,-10955.047942,0.000000,1149.143247
2970.268455,-10881.027347,-296.082377,995.924147
2970.268793,-10955.047942,0.000000,-1149.143247
2970.269130,-10362.883188,0.000000,-1915.238745
2970.269467,-9104.533087,0.000000,-1608.800546
2970.269805,-8216.285956,-444.123565,-1378.971896
2970.270142,-9104.533087,-1036.288319,-1225.752797
2970.270480,-9474.636058,-592.164754,-995.924147
2970.270817,-10658.965565,-1110.308913,0.000000
2970.271155,-10214.842000,-1036.288319,689.485948
2970.271492,-10288.862594,-296.082377,1302.362347
2970.271830,-9696.697840,-814.226536,2145.067394
2970.272167,-10362.883188,-444.123565,3294.210641
2970.272504,-9918.759623,222.061783,1532.190996
2970.272842,-10140.821405,148.041188,1378.971896
2970.273179,-10881.027347,1036.288319,1532.190996
2970.273517,-9918.759623,1258.350101,-766.095498
2970.273854,-10214.842000,1554.432478,-612.876398
2970.274192,-10510.924376,296.082377,-459.657299
2970.274529,-8956.491898,0.000000,-766.095498
2970.274866,-9178.553681,518.144159,0.000000
2970.275204,-10362.883188,296.082377,-153.219100
2970.275541,-10066.800811,74.020594,-536.266849
2970.275879,-10436.903782,-370.102971,-459.657299
2970.276216,-10510.924376,0.000000,-842.705048
2970.276554,-10140.821405,-1184.329507,-612.876398
2970.276891,-10510.924376,-1332.370696,0.000000
2970.277229,-9770.718434,-814.226536,-459.657299
2970.277566,-10436.903782,-1036.288319,-459.657299
2970.277903,-9918.759623,-592.164754,-536.266849
2970.278241,-9918.759623,-1628.453072,229.828649
2970.278578,-9844.739029,-1480.411884,612.876398
2970.278916,-9400.615463,-1776.494261,689.485948
2970.279253,-9992.780217,-1406.391290,1225.752797
2970.279591,-9844.739029,-518.144159,1455.581446
2970.279928,-10658.965565,0.000000,1991.848295
2970.280266,-10214.842000,296.082377,2145.067394
2970.280603,-9474.636058,1036.288319,2145.067394
2970.280940,-10658.965565,1258.350101,2451.505594
2970.281278,-11473.192101,592.164754,1378.971896
2970.281615,-10362.883188,592.164754,0.000000
2970.281953,-9474.636058,1036.288319,153.219100
2970.282290,-8882.471304,1406.391290,-229.828649
2970.282628,-8808.450710,1036.288319,-229.828649
2970.282965,-9918.759623,222.061783,0.000000
2970.283303,-9992.780217,0.000000,-536.266849
2970.283640,-10362.883188,740.205942,-76.609550
2970.283977,-11325.150913,444.123565,-612.876398
2970.284315,-10140.821405,-296.082377,0.000000
2970.284652,-9178.553681,-296.082377,-612.876398
2970.284990,-9548.656652,-666.185348,842.705048
2970.285327,-9548.656652,-1776.494261,919.314598
2970.285665,-9548.656652,-1776.494261,0.000000
2970.286002,-9770.718434,-1480.411884,-459.657299
2970.286340,-9844.739029,-1110.308913,-459.657299
2970.286677,-10807.006753,-962.267725,76.609550
2970.287014,-10214.842000,-1628.453072,1072.533697
2970.287352,-9326.594869,-444.123565,1532.190996
2970.287689,-9770.718434,-1184.329507,2451.505594
2970.288027,-11177.109724,-740.205942,2604.724693
2970.288364,-10732.986159,-888.247130,689.485948
2970.288702,-11103.089130,-814.226536,459.657299
2970.289039,-10214.842000,-444.123565,229.828649
2970.289377,-10436.903782,74.020594,-995.924147
2970.289714,-10214.842000,-518.144159,-1532.190996
2970.290051,-9992.780217,-814.226536,-1149.143247
2970.290389,-9548.656652,-518.144159,-1302.362347
2970.290726,-9696.697840,-814.226536,-1915.238745
2970.291064,-10140.821405,-814.226536,-689.485948
2970.291401,-9548.656652,-1702.473667,-766.095498
2970.291739,-9844.739029,-1184.329507,612.876398
2970.292076,-10955.047942,-814.226536,1915.238745
2970.292413,-10288.862594,-666.185348,2374.896044
2970.292751,-10658.965565,0.000000,1838.629195
2970.293088,-10955.047942,0.000000,919.314598
2970.293426,-10362.883188,74.020594,842.705048
2970.293763,-9474.636058,0.000000,1302.362347
2970.294100,-9696.697840,148.041188,1225.752797
2970.294438,-8512.368333,1258.350101,1455.581446
2970.294775,-9326.594869,1258.350101,1685.410096
2970.295113,-9326.594869,1554.432478,1072.533697
2970.295450,-9400.615463,1628.453072,306.438199
2970.295788,-9992.780217,1628.453072,536.266849
2970.296125,-10436.903782,962.267725,536.266849
2970.296462,-9770.718434,518.144159,229.828649
2970.296800,-10066.800811,222.061783,689.485948
2970.297137,-9844.739029,-370.102971,1991.848295
2970.297475,-9474.636058,-296.082377,459.657299
2970.297812,-9770.718434,148.041188,-1378.971896
2970.298150,-10066.800811,-592.164754,-1685.410096
2970.298487,-10288.862594,-888.247130,-1838.629195
2970.298824,-10584.944971,-1480.411884,-842.705048
2970.299162,-10214.842000,-370.102971,-766.095498
2970.299499,-9622.677246,-666.185348,0.000000
2970.299837,-9992.780217,-444.123565,536.266849
2970.300174,-10732.986159,-740.205942,459.657299
2970.300512,-11325.150913,-1258.350101,995.924147
2970.300849,-11029.068536,-1406.391290,842.705048
2970.301186,-10214.842000,-1036.288319,1225.752797
2970.301524,-10066.800811,-814.226536,1608.800546
2970.301861,-9770.718434,-888.247130,2298.286494
2970.302199,-9474.636058,444.123565,1149.143247
2970.302536,-9844.739029,1110.308913,383.047749
2970.302873,-10955.047942,740.205942,0.000000
2970.303211,-10955.047942,222.061783,-536.266849
2970.303548,-9770.718434,592.164754,-995.924147
2970.303886,-9252.574275,-370.102971,-383.047749
2970.304223,-9030.512492,-518.144159,842.705048
2970.304561,-8956.491898,74.020594,612.876398
2970.304898,-10584.944971,740.205942,0.000000
2970.305235,-10140.821405,222.061783,-919.314598
2970.305573,-9918.759623,-518.144159,-536.266849
2970.305910,-10584.944971,-1110.308913,76.609550
2970.306248,-9400.615463,-296.082377,-306.438199
2970.306585,-9030.512492,0.000000,229.828649
2970.306923,-9326.594869,0.000000,1532.190996
2970.307260,-9178.553681,518.144159,842.705048
2970.307597,-10658.965565,1406.391290,1685.410096
2970.307935,-11547.212695,444.123565,1225.752797
2970.308272,-10584.944971,888.247130,306.438199
2970.308610,-11399.171507,888.247130,1072.533697
2970.308947,-10140.821405,296.082377,995.924147
2970.309284,-8956.491898,74.020594,1378.971896
2970.309622,-9622.677246,74.020594,459.657299
2970.309959,-9992.780217,0.000000,-612.876398
2970.310297,-9770.718434,-222.061783,-689.485948
2970.310634,-9030.512492,-444.123565,-766.095498
2970.310972,-10362.883188,-888.247130,-1225.752797
2970.311309,-10436.903782,-1480.411884,-383.047749
2970.311646,-9992.780217,-518.144159,0.000000
2970.311984,-9252.574275,-666.185348,-229.828649
2970.312321,-9696.697840,-962.267725,-995.924147
2970.312659,-10362.883188,-1850.514855,-919.314598
2970.312996,-10066.800811,-2590.720797,-1608.800546
2970.313334,-9770.718434,-2960.823768,-842.705048
2970.313671,-9474.636058,-1776.494261,383.047749
2970.314008,-9918.759623,-2146.597232,995.924147
2970.314346,-10066.800811,-1036.288319,1762.019645
2970.314683,-9622.677246,-370.102971,1455.581446
2970.315021,-10881.027347,0.000000,2911.162892
2970.315358,-12509.480420,444.123565,2987.772442
2970.315696,-11473.192101,592.164754,1455.581446
2970.316033,-10881.027347,814.226536,2145.067394
2970.316370,-10510.924376,888.247130,2757.943793
2970.316708,-10140.821405,814.226536,2068.457845
2970.317045,-9400.615463,1776.494261,229.828649
2970.317383,-9326.594869,1332.370696,0.000000
2970.317720,-10584.944971,592.164754,-153.219100
2970.318057,-10362.883188,518.144159,-1608.800546
2970.318395,-9252.574275,370.102971,-1225.752797
2970.318732,-8808.450710,0.000000,0.000000
2970.319070,-7994.224174,370.102971,0.000000
2970.319407,-8956.491898,888.247130,0.000000
2970.319745,-9326.594869,-666.185348,536.266849
2970.320082,-10288.862594,-1110.308913,229.828649
2970.320419,-11177.109724,-814.226536,0.000000
2970.320757,-10584.944971,-1184.329507,-536.266849
2970.321094,-9104.533087,-1480.411884,306.438199
2970.321432,-8438.347739,-1776.494261,536.266849
2970.321769,-8512.368333,-444.123565,76.609550
2970.322107,-9770.718434,0.000000,-306.438199
2970.322444,-11399.171507,-296.082377,-766.095498
2970.322781,-11547.212695,-296.082377,-2068.457845
2970.323119,-10807.006753,-222.061783,-536.266849
2970.323456,-10807.006753,0.000000,1455.581446
2970.323794,-10140.821405,-296.082377,2374.896044
2970.324131,-10436.903782,814.226536,536.266849
2970.324469,-11029.068536,0.000000,0.000000
2970.324806,-11695.253884,0.000000,-689.485948
2970.325143,-10658.965565,-592.164754,-1762.019645
2970.325481,-10807.006753,222.061783,-1915.238745
2970.325818,-9622.677246,-1258.350101,-1838.629195
2970.326156,-8512.368333,0.000000,-1072.533697
2970.326493,-8586.388927,0.000000,-995.924147
2970.326830,-9992.780217,-148.041188,76.609550
2970.327168,-10955.047942,-592.164754,153.219100
2970.327505,-10732.986159,-444.123565,229.828649
2970.327843,-10362.883188,-518.144159,766.095498
2970.328180,-9474.636058,-666.185348,1608.800546
2970.328518,-8882.471304,-740.205942,3294.210641
2970.328855,-8586.388927,888.247130,3064.381992
2970.329192,-8882.471304,1258.350101,2298.286494
2970.329530,-11251.130318,2368.659014,2451.505594
2970.329867,-11029.068536,2294.638420,229.828649
2970.330205,-10510.924376,888.247130,229.828649
2970.330542,-9178.553681,1406.391290,1608.800546
2970.330880,-8660.409521,1628.453072,2911.162892
2970.331217,-9104.533087,2368.659014,2604.724693
2970.331554,-10214.842000,1998.556043,766.095498
2970.331892,-10807.006753,1850.514855,0.000000
2970.332229,-12361.439231,666.185348,-306.438199
2970.332567,-11251.130318,-222.061783,-1225.752797
2970.332904,-9030.512492,-814.226536,-1608.800546
2970.333242,-9474.636058,-1554.432478,459.657299
2970.333579,-9030.512492,-666.185348,-995.924147
2970.333916,-9030.512492,-1258.350101,-1455.581446
2970.334254,-9844.739029,-1924.535449,-1149.143247
2970.334591,-10658.965565,-2886.803174,-1378.971896
2970.334929,-12139.377449,-1702.473667,-612.876398
2970.335266,-10881.027347,-2368.659014,-689.485948
2970.335603,-9326.594869,-3034.844362,1149.143247
2970.335941,-9696.697840,-3552.988522,1991.848295
2970.336278,-9474.636058,-1480.411884,1608.800546
2970.336616,-10214.842000,-1554.432478,1532.190996
2970.336953,-10510.924376,-1850.514855,689.485948
2970.337291,-10955.047942,-1850.514855,0.000000
2970.337628,-10732.986159,-1702.473667,0.000000
2970.337965,-9178.553681,-888.247130,689.485948
2970.338303,-9252.574275,-222.061783,842.705048
2970.338640,-10066.800811,518.144159,0.000000
2970.338978,-9252.574275,814.226536,-995.924147
2970.339315,-9844.739029,370.102971,-1685.410096
2970.339653,-10807.006753,0.000000,-1225.752797
2970.339990,-10807.006753,-444.123565,-1455.581446
2970.340327,-10732.986159,-1258.350101,-306.438199
2970.340665,-8660.409521,-1110.308913,766.095498
2970.341002,-8068.244768,370.102971,1762.019645
2970.341340,-10140.821405,740.205942,2451.505594
2970.341677,-11177.109724,962.267725,766.095498
2970.342015,-11621.233289,1110.308913,-766.095498
2970.342352,-11251.130318,370.102971,-459.657299
2970.342689,-9918.759623,0.000000,459.657299
2970.343027,-8068.244768,74.020594,2145.067394
2970.343364,-7772.162391,1332.370696,2145.067394
2970.343702,-9104.533087,1850.514855,995.924147
2970.344039,-11177.109724,1480.411884,76.609550
2970.344376,-11029.068536,1036.288319,0.000000
2970.344714,-9844.739029,0.000000,383.047749
2970.345051,-9918.759623,0.000000,1532.190996
2970.345389,-9474.636058,444.123565,1532.190996
2970.345726,-8438.347739,370.102971,459.657299
2970.346064,-9252.574275,592.164754,76.609550
2970.346401,-10140.821405,-814.226536,-383.047749
2970.346738,-10510.924376,-370.102971,-1455.581446
2970.347076,-10955.047942,-814.226536,-1685.410096
2970.347413,-9622.677246,-1332.370696,-1455.581446
2970.347751,-9252.574275,-1554.432478,-536.266849
2970.348088,-10436.903782,-1110.308913,-766.095498
2970.348426,-9474.636058,-1184.329507,-459.657299
2970.348763,-10436.903782,-1480.411884,153.219100
2970.349100,-11399.171507,-1406.391290,536.266849
2970.349438,-11991.336260,-1480.411884,76.609550
2970.349775,-11325.150913,-1702.473667,842.705048
2970.350113,-9918.759623,-1628.453072,2221.676944
2970.350450,-9400.615463,444.123565,2451.505594
2970.350787,-10066.800811,1480.411884,2374.896044
2970.351125,-11177.109724,222.061783,1915.238745
2970.351462,-11399.171507,444.123565,612.876398
2970.351800,-10510.924376,962.267725,-76.609550
2970.352137,-9696.697840,1184.329507,1378.971896
2970.352475,-10214.842000,518.144159,1378.971896
2970.352812,-9622.677246,962.267725,229.828649
2970.353149,-8808.450710,1184.329507,153.219100
2970.353487,-8882.471304,518.144159,229.828649
2970.353824,-9474.636058,444.123565,0.000000
2970.354162,-10362.883188,148.041188,-1225.752797
2970.354499,-9326.594869,-666.185348,-2068.457845
2970.354837,-8882.471304,-296.082377,0.000000
2970.355174,-9326.594869,0.000000,919.314598
2970.355511,-9252.574275,740.205942,0.000000
2970.355849,-9400.615463,-370.102971,0.000000
2970.356186,-10955.047942,222.061783,0.000000
2970.356524,-11251.130318,-1258.350101,-536.266849
2970.356861,-10658.965565,-1184.329507,-459.657299
2970.357199,-9918.759623,-1628.453072,459.657299
2970.357536,-8882.471304,-1184.329507,1302.362347
2970.357873,-9030.512492,148.041188,919.314598
2970.358211,-10436.903782,-222.061783,459.657299
2970.358548,-10436.903782,814.226536,842.705048
2970.358886,-11399.171507,222.061783,-229.828649
2970.359223,-12139.377449,-592.164754,-1072.533697
2970.359560,-10881.027347,-666.185348,-459.657299
2970.359898,-9326.594869,-740.205942,842.705048
2970.360235,-9030.512492,-1036.288319,612.876398
2970.360573,-8734.430116,-1036.288319,76.609550
2970.360910,-10140.821405,-888.247130,-536.266849
2970.361248,-10955.047942,-1776.494261,-1762.019645
2970.361585,-11029.068536,-1776.494261,-2221.676944
2970.361922,-10066.800811,-2368.659014,-766.095498
2970.362260,-8660.409521,-1850.514855,383.047749
2970.362597,-8438.347739,-962.267725,919.314598
2970.362935,-9400.615463,-592.164754,1302.362347
2970.363272,-10881.027347,-1036.288319,1378.971896
2970.363610,-10955.047942,-740.205942,919.314598
2970.363947,-11473.192101,-740.205942,1302.362347
2970.364284,-10881.027347,-962.267725,2298.286494
2970.364622,-9252.574275,-148.041188,2298.286494
2970.364959,-9178.553681,888.247130,2451.505594
2970.365297,-8660.409521,888.247130,2145.067394
2970.365634,-9844.739029,1258.350101,1378.971896
2970.365972,-11029.068536,1110.308913,766.095498
2970.366309,-10066.800811,2146.597232,0.000000
2970.366646,-10881.027347,2072.576638,153.219100
2970.366984,-10140.821405,1110.308913,1149.143247
2970.367321,-9622.677246,1998.556043,229.828649
2970.367659,-9696.697840,222.061783,229.828649
2970.367996,-10066.800811,370.102971,383.047749
2970.368333,-9992.780217,-370.102971,-766.095498
2970.368671,-10288.862594,-814.226536,-1455.581446
2970.369008,-9548.656652,-1702.473667,-1532.190996
2970.369346,-9696.697840,-2072.576638,-1225.752797
2970.369683,-9474.636058,-1110.308913,-842.705048
2970.370021,-9030.512492,-1776.494261,-766.095498
2970.370358,-9326.594869,-962.267725,-383.047749
2970.370695,-9400.615463,-1480.411884,-229.828649
2970.371033,-10732.986159,-1480.411884,229.828649
2970.371370,-11695.253884,-2442.679609,919.314598
2970.371708,-11325.150913,-2368.659014,1685.410096
2970.372045,-10362.883188,-592.164754,1302.362347
2970.372383,-9770.718434,-814.226536,1532.190996
2970.372720,-10881.027347,222.061783,1608.800546
2970.373057,-10436.903782,-518.144159,0.000000
2970.373395,-10436.903782,592.164754,-612.876398
2970.373732,-10510.924376,592.164754,-1225.752797
2970.374070,-10214.842000,0.000000,-1378.971896
2970.374407,-9474.636058,222.061783,-995.924147
2970.374745,-9622.677246,962.267725,-306.438199
2970.375082,-10436.903782,1110.308913,919.314598
2970.375419,-10658.965565,814.226536,-1072.533697
2970.375757,-10732.986159,666.185348,-766.095498
2970.376094,-9696.697840,-444.123565,-459.657299
2970.376432,-9548.656652,-370.102971,842.705048
2970.376769,-9400.615463,148.041188,919.314598
2970.377106,-9326.594869,-370.102971,1225.752797
2970.377444,-8882.471304,148.041188,1378.971896
2970.377781,-9326.594869,370.102971,919.314598
2970.378119,-9918.759623,1110.308913,1685.410096
2970.378456,-9770.718434,296.082377,1149.143247
2970.378794,-10658.965565,-148.041188,1838.629195
2970.379131,-9992.780217,1998.556043,536.266849
2970.379468,-9548.656652,1332.370696,995.924147
2970.379806,-9844.739029,1406.391290,1302.362347
2970.380143,-9770.718434,888.247130,153.219100
2970.380481,-9622.677246,962.267725,0.000000
2970.380818,-9770.718434,518.144159,-689.485948
2970.381156,-10214.842000,-296.082377,0.000000
2970.381493,-10140.821405,-370.102971,0.000000
2970.381830,-9918.759623,-962.267725,-306.438199
2970.382168,-9770.718434,-740.205942,459.657299
2970.382505,-10955.047942,-1406.391290,1072.533697
2970.382843,-11103.089130,-1258.350101,-459.657299
2970.383180,-10288.862594,-2294.638420,-689.485948
2970.383518,-10584.944971,-2368.659014,-1225.752797
2970.383855,-9844.739029,-2960.823768,-383.047749
2970.384192,-9918.759623,-2738.761985,-229.828649
2970.384530,-9474.636058,-2664.741391,0.000000
2970.384867,-9844.739029,-2960.823768,1072.533697
2970.385205,-10732.986159,-1998.556043,1455.581446
2970.385542,-10807.006753,-1924.535449,842.705048
2970.385879,-10510.924376,-1850.514855,1685.410096
2970.386217,-9474.636058,-888.247130,1838.629195
2970.386554,-10510.924376,-592.164754,2451.505594
2970.386892,-10436.903782,222.061783,1991.848295
2970.387229,-9474.636058,962.267725,229.828649
2970.387567,-9548.656652,1110.308913,612.876398
2970.387904,-10140.821405,1184.329507,-459.657299
2970.388241,-10140.821405,666.185348,-536.266849
2970.388579,-10066.800811,74.020594,76.609550
2970.388916,-9252.574275,296.082377,-919.314598
2970.389254,-9252.574275,0.000000,0.000000
2970.389591,-9844.739029,888.247130,306.438199
2970.389929,-9104.533087,222.061783,-689.485948
2970.390266,-9770.718434,-222.061783,-383.047749
2970.390603,-10732.986159,-296.082377,76.609550
2970.390941,-9770.718434,0.000000,-383.047749
2970.391278,-9474.636058,-666.185348,-536.266849
2970.391615,-9252.574275,-740.205942,0.000000
2970.391953,-8808.450710,-1924.535449,229.828649
2970.392290,-9252.574275,-1184.329507,842.705048
2970.392627,-9548.656652,-962.267725,1225.752797
2970.392965,-10436.903782,-518.144159,1685.410096
2970.393302,-11843.295072,-592.164754,1455.581446
2970.393639,-11029.068536,370.102971,229.828649
2970.393976,-10955.047942,296.082377,306.438199
2970.394314,-9770.718434,0.000000,536.266849
2970.394651,-9178.553681,-370.102971,229.828649
2970.394988,-10214.842000,0.000000,76.609550
2970.395326,-10584.944971,0.000000,-536.266849
2970.395663,-10881.027347,-296.082377,-842.705048
2970.396000,-10881.027347,-296.082377,-1608.800546
2970.396337,-9918.759623,148.041188,-1455.581446
2970.396675,-11177.109724,-1258.350101,-1225.752797
2970.397012,-9548.656652,-1110.308913,-1225.752797
2970.397349,-9548.656652,-1184.329507,-842.705048
2970.397687,-9548.656652,-1850.514855,0.000000
2970.398024,-8734.430116,-1258.350101,306.438199
2970.398361,-9918.759623,-1110.308913,766.095498
2970.398698,-10214.842000,-592.164754,1072.533697
2970.399036,-9622.677246,-296.082377,689.485948
2970.399373,-10510.924376,0.000000,1225.752797
2970.399710,-10140.821405,0.000000,1072.533697
2970.400048,-9622.677246,370.102971,1225.752797
2970.400385,-9178.553681,666.185348,2298.286494
2970.400722,-9474.636058,1036.288319,2374.896044
2970.401059,-10214.842000,1702.473667,995.924147
2970.401397,-10510.924376,1406.391290,1072.533697
2970.401734,-10362.883188,1406.391290,842.705048
2970.402071,-9770.718434,1924.535449,919.314598
2970.402409,-10140.821405,1998.556043,995.924147
2970.402746,-10066.800811,1702.473667,-459.657299
2970.403083,-9918.759623,0.000000,-766.095498
2970.403421,-9992.780217,444.123565,-842.705048
2970.403758,-9622.677246,-666.185348,-1072.533697
2970.404095,-10362.883188,-1110.308913,-536.266849
2970.404432,-9844.739029,-1628.453072,-766.095498
2970.404770,-8734.430116,-1554.432478,-1378.971896
2970.405107,-9474.636058,-1480.411884,842.705048
2970.405444,-10436.903782,-1776.494261,1072.533697
2970.405782,-10584.944971,-1554.432478,306.438199
2970.406119,-10732.986159,-1480.411884,0.000000
2970.406456,-10807.006753,-1776.494261,1072.533697
2970.406793,-10584.944971,-1406.391290,1149.143247
2970.407131,-9918.759623,-1850.514855,612.876398
2970.407468,-9400.615463,-1110.308913,1225.752797
2970.407805,-9770.718434,-666.185348,1991.848295
2970.408143,-11029.068536,592.164754,153.219100
2970.408480,-11177.109724,-592.164754,0.000000
2970.408817,-10436.903782,-370.102971,-459.657299
2970.409154,-9474.636058,0.000000,0.000000
2970.409492,-10066.800811,296.082377,0.000000
2970.409829,-9400.615463,74.020594,76.609550
2970.410166,-9696.697840,-222.061783,153.219100
2970.410504,-9844.739029,740.205942,-383.047749
2970.410841,-9918.759623,-74.020594,-995.924147
2970.411178,-10732.986159,-444.123565,0.000000
2970.411515,-10436.903782,-1184.329507,-306.438199
2970.411853,-9252.574275,-370.102971,766.095498
2970.412190,-9252.574275,222.061783,1302.362347
2970.412527,-9622.677246,-296.082377,919.314598
2970.412865,-9992.780217,666.185348,0.000000
2970.413202,-10140.821405,-888.247130,306.438199
2970.413539,-10214.842000,-148.041188,1072.533697
2970.413876,-9252.574275,-444.123565,1455.581446
2970.414214,-9252.574275,888.247130,2604.724693
2970.414551,-9400.615463,592.164754,2298.286494
2970.414888,-10066.800811,1258.350101,1302.362347
2970.415226,-10436.903782,1628.453072,76.609550
2970.415563,-10881.027347,74.020594,-689.485948
2970.415900,-10436.903782,-814.226536,-383.047749
2970.416238,-9622.677246,-444.123565,-536.266849
2970.416575,-9474.636058,-1184.329507,0.000000
2970.416912,-8734.430116,-888.247130,-229.828649
2970.417249,-9400.615463,-888.247130,76.609550
2970.417587,-10510.924376,-518.144159,-459.657299
2970.417924,-10955.047942,-1628.453072,-1149.143247
2970.418261,-11029.068536,-1850.514855,-689.485948
2970.418599,-10436.903782,-2146.597232,-536.266849
2970.418936,-11029.068536,-2220.617826,0.000000
2970.419273,-10584.944971,-1480.411884,-229.828649
2970.419610,-9474.636058,-1554.432478,0.000000
2970.419948,-11103.089130,-592.164754,229.828649
2970.420285,-11177.109724,-1628.453072,0.000000
2970.420622,-10436.903782,-1332.370696,-459.657299
2970.420960,-10288.862594,-1110.308913,536.266849
2970.421297,-10140.821405,-444.123565,1225.752797
2970.421634,-9252.574275,0.000000,1685.410096
2970.421971,-9400.615463,370.102971,2298.286494
2970.422309,-10140.821405,1702.473667,2145.067394
2970.422646,-11029.068536,1850.514855,1072.533697
2970.422983,-11103.089130,888.247130,1149.143247
2970.423321,-10436.903782,666.185348,689.485948
2970.423658,-9844.739029,1480.411884,76.609550
2970.423995,-8808.450710,1036.288319,76.609550
2970.424332,-8808.450710,1036.288319,229.828649
2970.424670,-8586.388927,1110.308913,-689.485948
2970.425007,-9548.656652,1184.329507,-1225.752797
2970.425344,-10066.800811,592.164754,-995.924147
2970.425682,-9918.759623,74.020594,-1532.190996
2970.426019,-10066.800811,-222.061783,-612.876398
2970.426356,-9326.594869,-370.102971,0.000000
2970.426693,-9400.615463,0.000000,1838.629195
2970.427031,-9992.780217,296.082377,2145.067394
2970.427368,-10288.862594,0.000000,842.705048
2970.427705,-10436.903782,-592.164754,842.705048
2970.428043,-10658.965565,-296.082377,459.657299
2970.428380,-11103.089130,0.000000,-76.609550
2970.428717,-9770.718434,-296.082377,-536.266849
2970.429055,-9252.574275,-740.205942,1532.190996
2970.429392,-9252.574275,592.164754,842.705048
2970.429729,-10066.800811,148.041188,76.609550
2970.430066,-11399.171507,148.041188,612.876398
2970.430404,-12065.356855,-518.144159,-536.266849
2970.430741,-11547.212695,-1332.370696,-536.266849
2970.431078,-9622.677246,-1332.370696,-76.609550
2970.431416,-8438.347739,-2294.638420,842.705048
2970.431753,-9252.574275,-1776.494261,0.000000
2970.432090,-9844.739029,-1332.370696,-1685.410096
2970.432427,-9770.718434,-1776.494261,-2298.286494
2970.432765,-10881.027347,-2516.700203,-1149.143247
2970.433102,-9992.780217,-2442.679609,0.000000
2970.433439,-9770.718434,-2146.597232,0.000000
2970.433777,-9326.594869,-1184.329507,1685.410096
2970.434114,-9474.636058,-1110.308913,2298.286494
2970.434451,-9844.739029,-888.247130,1685.410096
2970.434788,-10288.862594,0.000000,1991.848295
2970.435126,-10584.944971,0.000000,2451.505594
2970.435463,-11843.295072,222.061783,1225.752797
2970.435800,-10362.883188,74.020594,919.314598
2970.436138,-9918.759623,1258.350101,1455.581446
2970.436475,-8438.347739,1258.350101,1225.752797
2970.436812,-8734.430116,2368.659014,0.000000
2970.437149,-10362.883188,1776.494261,-306.438199
2970.437487,-11251.130318,1702.473667,-459.657299
2970.437824,-10288.862594,518.144159,-766.095498
2970.438161,-9844.739029,74.020594,-612.876398
2970.438499,-9104.533087,-296.082377,1455.581446
2970.438836,-9844.739029,0.000000,1455.581446
2970.439173,-8734.430116,0.000000,-612.876398
2970.439510,-9770.718434,-814.226536,-1225.752797
2970.439848,-10066.800811,-1776.494261,-1072.533697
2970.440185,-9104.533087,-2220.617826,-1838.629195
2970.440522,-9030.512492,-1332.370696,-1302.362347
2970.440860,-9178.553681,-1850.514855,-306.438199
2970.441197,-9400.615463,-1184.329507,383.047749
2970.441534,-10584.944971,-888.247130,459.657299
2970.441872,-10288.862594,148.041188,1762.019645
2970.442209,-11325.150913,-518.144159,1685.410096
2970.442546,-12139.377449,0.000000,1072.533697
2970.442883,-10658.965565,0.000000,0.000000
2970.443221,-9474.636058,-666.185348,1378.971896
2970.443558,-9474.636058,0.000000,1455.581446
2970.443895,-10140.821405,666.185348,689.485948
2970.444233,-11177.109724,1110.308913,0.000000
2970.444570,-11103.089130,1480.411884,-383.047749
2970.444907,-11399.171507,1998.556043,-1149.143247
2970.445244,-11251.130318,666.185348,-1149.143247
2970.445582,-9622.677246,-518.144159,-766.095498
2970.445919,-8734.430116,-1850.514855,1225.752797
2970.446256,-8586.388927,-222.061783,842.705048
2970.446594,-8956.491898,0.000000,995.924147
2970.446931,-10584.944971,-592.164754,842.705048
2970.447268,-10510.924376,370.102971,-459.657299
2970.447605,-10955.047942,-296.082377,-536.266849
2970.447943,-10140.821405,-444.123565,459.657299
2970.448280,-8882.471304,-592.164754,1455.581446
2970.448617,-8734.430116,222.061783,1608.800546
2970.448955,-8660.409521,1110.308913,1225.752797
2970.449292,-9474.636058,962.267725,383.047749
2970.449629,-10732.986159,1184.329507,536.266849
2970.449966,-11325.150913,814.226536,0.000000
2970.450304,-10214.842000,296.082377,459.657299
2970.450641,-9474.636058,592.164754,2068.457845
2970.450978,-9400.615463,1480.411884,1685.410096
2970.451316,-10362.883188,1998.556043,689.485948
2970.451653,-10807.006753,592.164754,-306.438199
2970.451990,-10510.924376,-296.082377,-459.657299
2970.452327,-10214.842000,-592.164754,-1302.362347
2970.452665,-9400.615463,-814.226536,-612.876398
2970.453002,-9696.697840,-1702.473667,-306.438199
2970.453339,-10362.883188,-1184.329507,0.000000
2970.453677,-10362.883188,0.000000,-1302.362347
2970.454014,-10140.821405,-962.267725,-1762.019645
2970.454351,-10584.944971,-1036.288319,-383.047749
2970.454689,-11325.150913,-1998.556043,-842.705048
2970.455026,-10510.924376,-2146.597232,-1225.752797
2970.455363,-9548.656652,-2664.741391,76.609550
2970.455700,-9474.636058,-2368.659014,2528.115143
2970.456038,-9992.780217,-1776.494261,2911.162892
2970.456375,-9474.636058,-296.082377,2374.896044
2970.456712,-11177.109724,74.020594,1608.800546
2970.457050,-11103.089130,-666.185348,766.095498
2970.457387,-10584.944971,-148.041188,536.266849
2970.457724,-10066.800811,0.000000,1378.971896
2970.458061,-9326.594869,0.000000,1225.752797
2970.458399,-9252.574275,1406.391290,0.000000
2970.458736,-9770.718434,1110.308913,-459.657299
2970.459073,-9104.533087,1036.288319,-612.876398
2970.459411,-9622.677246,0.000000,0.000000
2970.459748,-10881.027347,-592.164754,459.657299
2970.460085,-9918.759623,-296.082377,153.219100
2970.460422,-9918.759623,74.020594,842.705048
2970.460760,-9474.636058,444.123565,536.266849
2970.461097,-9326.594869,0.000000,383.047749
2970.461434,-10066.800811,0.000000,0.000000
2970.461772,-9770.718434,-888.247130,-459.657299
2970.462109,-9474.636058,-148.041188,-536.266849
2970.462446,-9992.780217,-1036.288319,76.609550
2970.462783,-10732.986159,-666.185348,842.705048
2970.463121,-10066.800811,-518.144159,612.876398
2970.463458,-9844.739029,0.000000,919.314598
2970.463795,-10066.800811,74.020594,1302.362347
2970.464133,-10436.903782,-296.082377,1072.533697
2970.464470,-10658.965565,-444.123565,0.000000
2970.464807,-10288.862594,-1110.308913,0.000000
2970.465145,-10288.862594,-740.205942,612.876398
2970.465482,-10214.842000,0.000000,0.000000
2970.465819,-9474.636058,-74.020594,76.609550
2970.466156,-8882.471304,0.000000,-383.047749
2970.466494,-10584.944971,-888.247130,-536.266849
2970.466831,-11399.171507,-740.205942,-1302.362347
2970.467168,-10288.862594,-1332.370696,-2604.724693
2970.467506,-9696.697840,-2220.617826,-919.314598
2970.467843,-9326.594869,-1258.350101,-1072.533697
2970.468180,-9400.615463,-1184.329507,-766.095498
2970.468517,-9844.739029,-962.267725,153.219100
2970.468855,-10362.883188,-1184.329507,-536.266849
2970.469192,-10732.986159,-1184.329507,-459.657299
2970.469529,-11029.068536,-888.247130,536.266849
2970.469867,-9918.759623,-1110.308913,2145.067394
2970.470204,-9622.677246,-740.205942,3447.429741
2970.470541,-10066.800811,296.082377,3753.867940
2970.470878,-10436.903782,1480.411884,2604.724693
2970.471216,-10436.903782,1258.350101,2145.067394
2970.471553,-11251.130318,1702.473667,1225.752797
2970.471890,-10436.903782,1628.453072,842.705048
2970.472228,-9918.759623,2368.659014,919.314598
2970.472565,-9030.512492,2146.597232,536.266849
2970.472902,-9178.553681,2220.617826,153.219100
2970.473239,-9252.574275,2072.576638,229.828649
2970.473577,-9178.553681,1184.329507,-383.047749
2970.473914,-9992.780217,666.185348,-766.095498
2970.474251,-10140.821405,-296.082377,-1302.362347
2970.474589,-9918.759623,-296.082377,-536.266849
2970.474926,-9030.512492,-1554.432478,612.876398
2970.475263,-8660.409521,-592.164754,689.485948
2970.475600,-9400.615463,-740.205942,842.705048
2970.475938,-10955.047942,-814.226536,766.095498
2970.476275,-10881.027347,-148.041188,-383.047749
2970.476612,-11325.150913,-1110.308913,-1302.362347
2970.476950,-9770.718434,-1554.432478,-689.485948
2970.477287,-9548.656652,-1406.391290,536.266849
2970.477624,-9844.739029,-962.267725,1455.581446
2970.477962,-9474.636058,-666.185348,612.876398
2970.478299,-10732.986159,-592.164754,1149.143247
2970.478636,-11769.274478,0.000000,612.876398
2970.478973,-10955.047942,-666.185348,0.000000
2970.479311,-10955.047942,-666.185348,306.438199
2970.479648,-9770.718434,-814.226536,0.000000
2970.479985,-10066.800811,0.000000,-306.438199
2970.480323,-9474.636058,-370.102971,-766.095498
2970.480660,-9474.636058,-814.226536,-689.485948
2970.480997,-10510.924376,0.000000,-689.485948
2970.481334,-10214.842000,-1258.350101,-1991.848295
2970.481672,-9918.759623,-1924.535449,-1149.143247
2970.482009,-9622.677246,-1702.473667,76.609550
2970.482346,-9548.656652,-1110.308913,766.095498
2970.482684,-9400.615463,0.000000,153.219100
2970.483021,-9474.636058,-1184.329507,842.705048
2970.483358,-10362.883188,-296.082377,1072.533697
2970.483695,-10362.883188,-370.102971,0.000000
2970.484033,-10140.821405,-74.020594,766.095498
2970.484370,-9696.697840,-222.061783,2145.067394
2970.484707,-9770.718434,0.000000,1455.581446
2970.485045,-9326.594869,1184.329507,2374.896044
2970.485382,-10288.862594,1480.411884,3064.381992
2970.485719,-10732.986159,1036.288319,1838.629195
2970.486056,-10584.944971,1110.308913,76.609550
2970.486394,-10658.965565,1406.391290,995.924147
2970.486731,-10658.965565,592.164754,229.828649
2970.487068,-9918.759623,444.123565,-919.314598
2970.487406,-9400.615463,222.061783,-612.876398
2970.487743,-8882.471304,-592.164754,-153.219100
2970.488080,-9178.553681,0.000000,-229.828649
2970.488417,-9548.656652,-666.185348,-1149.143247
2970.488755,-10584.944971,-1554.432478,-842.705048
2970.489092,-10362.883188,-2220.617826,-842.705048
2970.489429,-10066.800811,-1628.453072,-536.266849
2970.489767,-9548.656652,-1258.350101,306.438199
2970.490104,-10584.944971,-1998.556043,459.657299
2970.490441,-10807.006753,-1776.494261,153.219100
2970.490779,-10214.842000,-1480.411884,-383.047749
2970.491116,-9622.677246,-1702.473667,995.924147
2970.491453,-9770.718434,-1924.535449,1072.533697
2970.491791,-10288.862594,-1332.370696,1455.581446
2970.492128,-10362.883188,-222.061783,919.314598
2970.492465,-10362.883188,-518.144159,1072.533697
2970.492803,-10510.924376,370.102971,1455.581446
2970.493140,-9992.780217,740.205942,995.924147
2970.493477,-10140.821405,888.247130,153.219100
2970.493815,-10436.903782,444.123565,612.876398
2970.494152,-11103.089130,962.267725,536.266849
2970.494489,-10066.800811,444.123565,-536.266849
2970.494827,-9474.636058,444.123565,0.000000
2970.495164,-8734.430116,1184.329507,-306.438199
2970.495501,-9252.574275,592.164754,-1685.410096
2970.495839,-9030.512492,74.020594,-1302.362347
2970.496176,-9474.636058,592.164754,-229.828649
2970.496513,-10362.883188,740.205942,76.609550
2970.496851,-10955.047942,1850.514855,-306.438199
2970.497188,-10955.047942,518.144159,0.000000
2970.497525,-10214.842000,444.123565,1378.971896
2970.497863,-9252.574275,-592.164754,995.924147
2970.498200,-9252.574275,-888.247130,2145.067394
2970.498537,-9252.574275,-1258.350101,2298.286494
2970.498874,-10066.800811,-666.185348,1762.019645
2970.499212,-10732.986159,1258.350101,919.314598
2970.499549,-11103.089130,1110.308913,0.000000
2970.499886,-10732.986159,1184.329507,306.438199
2970.500224,-9992.780217,370.102971,-919.314598
2970.500561,-8660.409521,1036.288319,-1455.581446
2970.500898,-9770.718434,0.000000,-306.438199
2970.501236,-10658.965565,-74.020594,-689.485948
2970.501573,-10510.924376,-74.020594,-1838.629195
2970.501910,-10140.821405,-1332.370696,-995.924147
2970.502248,-9770.718434,-1110.308913,0.000000
2970.502585,-10066.800811,-1850.514855,-612.876398
2970.502922,-10140.821405,-2146.597232,-383.047749
2970.503260,-9252.574275,-3108.864956,153.219100
2970.503597,-10140.821405,-2146.597232,383.047749
2970.503934,-10510.924376,-888.247130,-383.047749
2970.504272,-10362.883188,-1776.494261,-229.828649
2970.504609,-10362.883188,-2294.638420,995.924147
2970.504946,-9918.759623,-2146.597232,1072.533697
2970.505284,-9326.594869,-1184.329507,1378.971896
2970.505621,-9770.718434,-962.267725,2374.896044
2970.505958,-11621.233289,-444.123565,2681.334243
2970.506296,-11177.109724,370.102971,1072.533697
2970.506633,-9992.780217,0.000000,1072.533697
2970.506970,-10140.821405,0.000000,2298.286494
2970.507308,-9548.656652,0.000000,1915.238745
2970.507645,-9252.574275,666.185348,612.876398
2970.507982,-9548.656652,1332.370696,1072.533697
2970.508320,-10140.821405,740.205942,306.438199
2970.508657,-10658.965565,888.247130,-766.095498
2970.508994,-10214.842000,74.020594,-766.095498
2970.509332,-9326.594869,814.226536,-689.485948
2970.509669,-9474.636058,0.000000,-689.485948
2970.510006,-9770.718434,0.000000,-306.438199
2970.510344,-9400.615463,-1702.473667,-842.705048
2970.510681,-9548.656652,-2442.679609,-842.705048
2970.511018,-8882.471304,-1406.391290,-459.657299
2970.511356,-9252.574275,-1406.391290,153.219100
2970.511693,-10436.903782,-1036.288319,1302.362347
2970.512030,-10510.924376,-1332.370696,306.438199
2970.512367,-9992.780217,-518.144159,229.828649
2970.512705,-10510.924376,-814.226536,842.705048
2970.513042,-11029.068536,-740.205942,1149.143247
2970.513379,-10732.986159,-740.205942,306.438199
2970.513717,-9844.739029,0.000000,0.000000
2970.514054,-10436.903782,-370.102971,536.266849
2970.514391,-10436.903782,-592.164754,612.876398
2970.514729,-10584.944971,370.102971,0.000000
2970.515066,-10658.965565,148.041188,-536.266849
2970.515403,-10732.986159,222.061783,0.000000
2970.515741,-9918.759623,-740.205942,-306.438199
2970.516078,-9992.780217,-222.061783,-306.438199
2970.516415,-9474.636058,-740.205942,-383.047749
2970.516753,-10140.821405,-592.164754,-1302.362347
2970.517090,-10066.800811,-1184.329507,-1532.190996
2970.517427,-9104.533087,-1480.411884,-612.876398
2970.517765,-9252.574275,-1332.370696,1072.533697
2970.518102,-9474.636058,74.020594,383.047749
2970.518439,-10140.821405,0.000000,153.219100
2970.518777,-10955.047942,74.020594,0.000000
2970.519114,-9770.718434,0.000000,459.657299
2970.519451,-9770.718434,592.164754,1762.019645
2970.519789,-9548.656652,74.020594,1838.629195
2970.520126,-9030.512492,0.000000,1225.752797
2970.520463,-9696.697840,1924.535449,1838.629195
2970.520801,-10140.821405,1258.350101,1072.533697
2970.521138,-10066.800811,1480.411884,689.485948
2970.521475,-10140.821405,296.082377,536.266849
2970.521813,-10510.924376,888.247130,1302.362347
2970.522150,-9992.780217,962.267725,919.314598
2970.522487,-9696.697840,888.247130,842.705048
2970.522825,-9918.759623,740.205942,0.000000
2970.523162,-10881.027347,74.020594,-536.266849
2970.523499,-10510.924376,740.205942,-1302.362347
2970.523837,-10436.903782,-444.123565,-1072.533697
2970.524174,-10436.903782,-592.164754,-919.314598
2970.524511,-9326.594869,-1554.432478,-1302.362347
2970.524848,-9622.677246,-1258.350101,0.000000
2970.525186,-9770.718434,-1184.329507,306.438199
2970.525523,-9918.759623,-888.247130,-919.314598
2970.525860,-10732.986159,-2368.659014,0.000000
2970.526198,-9844.739029,-1554.432478,0.000000
2970.526535,-9770.718434,-1998.556043,1762.019645
2970.526872,-10584.944971,-1480.411884,2145.067394
2970.527210,-8734.430116,-1406.391290,1838.629195
2970.527547,-9918.759623,-888.247130,2987.772442
2970.527884,-9918.759623,-518.144159,1915.238745
2970.528222,-10658.965565,-296.082377,612.876398
2970.528559,-11177.109724,-370.102971,995.924147
2970.528896,-9770.718434,-296.082377,0.000000
2970.529234,-9400.615463,222.061783,-306.438199
2970.529571,-9770.718434,0.000000,-306.438199
2970.529908,-9400.615463,222.061783,-842.705048
2970.530246,-10288.862594,-296.082377,-919.314598
2970.530583,-10807.006753,444.123565,-766.095498
2970.530920,-10436.903782,-444.123565,-995.924147
2970.531258,-9918.759623,-962.267725,0.000000
2970.531595,-8956.491898,-296.082377,766.095498
2970.531932,-8956.491898,-1036.288319,766.095498
2970.532270,-10066.800811,222.061783,766.095498
2970.532607,-10732.986159,-444.123565,76.609550
2970.532944,-10658.965565,518.144159,-459.657299
2970.533282,-11177.109724,-1110.308913,306.438199
2970.533619,-10658.965565,-444.123565,919.314598
2970.533956,-9326.594869,-222.061783,306.438199
2970.534294,-9326.594869,-888.247130,1072.533697
2970.534631,-9252.574275,-296.082377,1838.629195
2970.534968,-8734.430116,-296.082377,689.485948
2970.535306,-10436.903782,888.247130,919.314598
2970.535643,-11251.130318,518.144159,229.828649
2970.535980,-10584.944971,370.102971,-383.047749
2970.536318,-9178.553681,592.164754,-1225.752797
2970.536655,-9770.718434,-888.247130,-76.609550
2970.536992,-8956.491898,-962.267725,0.000000
2970.537329,-9252.574275,-888.247130,-383.047749
2970.537667,-10140.821405,0.000000,-612.876398
2970.538004,-10584.944971,-740.205942,-1378.971896
2970.538341,-10658.965565,-1702.473667,-536.266849
2970.538679,-10955.047942,-1628.453072,-766.095498
2970.539016,-9252.574275,-1850.514855,229.828649
2970.539353,-9918.759623,-962.267725,1225.752797
2970.539691,-10436.903782,-962.267725,689.485948
2970.540028,-10510.924376,0.000000,-76.609550
2970.540365,-10807.006753,-666.185348,383.047749
2970.540703,-10807.006753,-1480.411884,995.924147
2970.541040,-10140.821405,-296.082377,1149.143247
2970.541377,-9918.759623,0.000000,1838.629195
2970.541715,-8882.471304,148.041188,2987.772442
2970.542052,-10140.821405,74.020594,3140.991542
2970.542389,-10584.944971,1554.432478,2451.505594
2970.542727,-10214.842000,1110.308913,1149.143247
2970.543064,-10584.944971,592.164754,1302.362347
2970.543401,-10436.903782,1036.288319,-153.219100
2970.543739,-9252.574275,1110.308913,-383.047749
2970.544076,-8438.347739,1184.329507,-153.219100
2970.544413,-8660.409521,888.247130,0.000000
2970.544751,-9622.677246,1776.494261,-1991.848295
2970.545088,-9770.718434,888.247130,-2604.724693
2970.545425,-10732.986159,0.000000,-1838.629195
2970.545763,-9844.739029,-1998.556043,-919.314598
2970.546100,-9178.553681,-1480.411884,-612.876398
2970.546437,-8734.430116,-1110.308913,1838.629195
2970.546775,-10066.800811,-592.164754,1455.581446
2970.547112,-10436.903782,296.082377,-612.876398
2970.547449,-11325.150913,-1406.391290,-766.095498
2970.547787,-10881.027347,-1184.329507,153.219100
2970.548124,-10584.944971,-666.185348,153.219100
2970.548461,-10214.842000,-592.164754,536.266849
2970.548799,-9474.636058,0.000000,536.266849
2970.549136,-9696.697840,-666.185348,612.876398
2970.549473,-10288.862594,0.000000,459.657299
2970.549810,-9918.759623,-814.226536,-229.828649
2970.550148,-10510.924376,-1332.370696,919.314598
2970.550485,-11103.089130,-1406.391290,536.266849
2970.550822,-10436.903782,-1036.288319,306.438199
2970.551160,-9992.780217,-666.185348,919.314598
2970.551497,-9992.780217,-518.144159,536.266849
2970.551834,-9918.759623,444.123565,-1302.362347
2970.552172,-10362.883188,74.020594,-1991.848295
2970.552509,-11029.068536,-1776.494261,-1378.971896
2970.552846,-9992.780217,-1702.473667,-1838.629195
2970.553184,-8438.347739,-962.267725,-612.876398
2970.553521,-8660.409521,-1110.308913,383.047749
2970.553858,-9104.533087,-814.226536,1149.143247
2970.554196,-9844.739029,-370.102971,1378.971896
2970.554533,-10658.965565,-592.164754,2145.067394
2970.554870,-10584.944971,0.000000,2834.553343
2970.555208,-10955.047942,592.164754,2374.896044
2970.555545,-10362.883188,666.185348,1762.019645
2970.555882,-9400.615463,444.123565,2221.676944
2970.556220,-9474.636058,370.102971,3294.210641
2970.556557,-9770.718434,1184.329507,2374.896044
2970.556894,-9474.636058,1258.350101,1149.143247
2970.557232,-10214.842000,1480.411884,536.266849
2970.557569,-10140.821405,148.041188,-842.705048
2970.557906,-10214.842000,296.082377,-536.266849
2970.558244,-9178.553681,222.061783,-459.657299
2970.558581,-9474.636058,-814.226536,229.828649
2970.558918,-9844.739029,0.000000,-536.266849
2970.559256,-10288.862594,-370.102971,-1608.800546
2970.559593,-9548.656652,-1554.432478,-766.095498
2970.559930,-9844.739029,-2664.741391,-153.219100
2970.560268,-10214.842000,-2220.617826,383.047749
2970.560605,-9770.718434,-1702.473667,-306.438199
2970.560942,-10362.883188,-1554.432478,766.095498
2970.561280,-10658.965565,-1850.514855,0.000000
2970.561617,-10658.965565,-1480.411884,-306.438199
2970.561954,-10066.800811,-1110.308913,229.828649
2970.562291,-10436.903782,-1628.453072,995.924147
2970.562629,-10436.903782,-592.164754,229.828649
2970.562966,-10140.821405,-296.082377,229.828649
2970.563303,-10955.047942,-74.020594,2298.286494
2970.563641,-10658.965565,1702.473667,1532.190996
2970.563978,-10881.027347,1924.535449,383.047749
2970.564315,-10214.842000,1036.288319,0.000000
2970.564653,-9400.615463,296.082377,-766.095498
2970.564990,-10140.821405,666.185348,-153.219100
2970.565327,-10658.965565,74.020594,-612.876398
2970.565665,-9770.718434,370.102971,0.000000
2970.566002,-9252.574275,666.185348,0.000000
2970.566339,-8364.327145,1924.535449,-995.924147
2970.566677,-9104.533087,370.102971,-1762.019645
2970.567014,-9992.780217,-370.102971,-842.705048
2970.567351,-9326.594869,-296.082377,-919.314598
2970.567689,-9030.512492,0.000000,229.828649
2970.568026,-9696.697840,74.020594,1072.533697
2970.568363,-9474.636058,444.123565,842.705048
2970.568701,-10584.944971,814.226536,1225.752797
2970.569038,-10436.903782,518.144159,995.924147
2970.569375,-10584.944971,444.123565,536.266849
2970.569713,-10732.986159,0.000000,459.657299
2970.570050,-10436.903782,0.000000,689.485948
2970.570387,-9474.636058,-518.144159,1378.971896
2970.570725,-9400.615463,74.020594,2145.067394
2970.571062,-10732.986159,1332.370696,1762.019645
2970.571399,-10362.883188,1110.308913,-766.095498
2970.571737,-10362.883188,518.144159,-1378.971896
2970.572074,-11029.068536,0.000000,-1455.581446
2970.572411,-10140.821405,-592.164754,-1532.190996
2970.572749,-10288.862594,-814.226536,-383.047749
2970.573086,-9548.656652,-2146.597232,459.657299
2970.573423,-9474.636058,-1924.535449,-153.219100
2970.573761,-9400.615463,-2072.576638,0.000000
2970.574098,-10288.862594,-2294.638420,612.876398
2970.574435,-10584.944971,-2738.761985,-229.828649
2970.574772,-10436.903782,-2294.638420,0.000000
2970.575110,-10066.800811,-1850.514855,1455.581446
2970.575447,-9622.677246,-1184.329507,1455.581446
2970.575784,-9844.739029,-814.226536,1762.019645
2970.576122,-10510.924376,-296.082377,1149.143247
2970.576459,-9918.759623,0.000000,766.095498
2970.576796,-10955.047942,74.020594,689.485948
2970.577134,-10881.027347,0.000000,536.266849
2970.577471,-9622.677246,-592.164754,919.314598
2970.577808,-9770.718434,296.082377,1915.238745
2970.578146,-9474.636058,962.267725,1225.752797
2970.578483,-8290.306550,814.226536,1302.362347
2970.578820,-9252.574275,1110.308913,1378.971896
2970.579158,-9844.739029,222.061783,76.609550
2970.579495,-11251.130318,1184.329507,-153.219100
2970.579832,-11399.171507,296.082377,-612.876398
2970.580170,-9252.574275,370.102971,-766.095498
2970.580507,-9030.512492,518.144159,-153.219100
2970.580844,-9474.636058,0.000000,-689.485948
2970.581182,-9252.574275,-962.267725,-1532.190996
2970.581519,-10436.903782,-962.267725,-1225.752797
2970.581856,-9918.759623,-1480.411884,-842.705048
2970.582194,-9622.677246,-1110.308913,0.000000
2970.582531,-10807.006753,-1110.308913,689.485948
2970.582868,-10214.842000,-1184.329507,689.485948
2970.583206,-9030.512492,0.000000,612.876398
2970.583543,-10584.944971,-222.061783,1225.752797
2970.583880,-11399.171507,-296.082377,766.095498
2970.584218,-10584.944971,-740.205942,-612.876398
2970.584555,-10584.944971,-888.247130,0.000000
2970.584892,-9844.739029,-592.164754,1149.143247
2970.585230,-9400.615463,-370.102971,1149.143247
2970.585567,-9992.780217,74.020594,459.657299
2970.585904,-9918.759623,-74.020594,-383.047749
2970.586242,-9770.718434,370.102971,-766.095498
2970.586579,-10140.821405,-370.102971,-1455.581446
2970.586916,-9918.759623,-444.123565,-1225.752797
2970.587254,-9918.759623,-592.164754,-919.314598
2970.587591,-9992.780217,-148.041188,-689.485948
2970.587928,-10658.965565,222.061783,-766.095498
2970.588265,-10510.924376,74.020594,-153.219100
2970.588603,-10362.883188,-296.082377,0.000000
2970.588940,-10658.965565,-592.164754,229.828649
2970.589277,-9326.594869,-666.185348,1532.190996
2970.589615,-9474.636058,-518.144159,2681.334243
2970.589952,-10362.883188,-222.061783,3677.258390
2970.590289,-10732.986159,740.205942,2681.334243
2970.590627,-10658.965565,1110.308913,2834.553343
2970.590964,-10732.986159,1036.288319,2145.067394
2970.591301,-9992.780217,1702.473667,1302.362347
2970.591639,-9104.533087,740.205942,919.314598
2970.591976,-9178.553681,1184.329507,919.314598
2970.592313,-9844.739029,1036.288319,1225.752797
2970.592651,-10066.800811,2294.638420,229.828649
2970.592988,-8882.471304,740.205942,-919.314598
2970.593325,-9548.656652,0.000000,0.000000
2970.593663,-9474.636058,74.020594,-995.924147
2970.594000,-9622.677246,-740.205942,-995.924147
2970.594337,-9030.512492,-740.205942,0.000000
2970.594675,-9400.615463,-1036.288319,153.219100
2970.595012,-10658.965565,-148.041188,153.219100
2970.595349,-10658.965565,-888.247130,-766.095498
2970.595687,-10807.006753,-1184.329507,-76.609550
2970.596024,-10214.842000,-1702.473667,-1149.143247
2970.596361,-8808.450710,-1776.494261,-1302.362347
2970.596699,-9844.739029,-1924.535449,-306.438199
2970.597036,-10658.965565,-1554.432478,153.219100
2970.597373,-11547.212695,-740.205942,0.000000
2970.597711,-11843.295072,-444.123565,383.047749
2970.598048,-10362.883188,-296.082377,1149.143247
2970.598385,-10584.944971,-814.226536,1685.410096
2970.598723,-10584.944971,-296.082377,1302.362347
2970.599060,-9548.656652,-814.226536,459.657299
2970.599397,-10436.903782,-148.041188,1608.800546
2970.599735,-10362.883188,518.144159,229.828649
2970.600072,-9326.594869,814.226536,-1302.362347
2970.600409,-9696.697840,370.102971,-612.876398
2970.600747,-9030.512492,0.000000,-1762.019645
2970.601084,-9252.574275,0.000000,-1455.581446
2970.601421,-9696.697840,-1480.411884,-995.924147
2970.601759,-9400.615463,-1258.350101,459.657299
2970.602096,-10066.800811,-592.164754,1532.190996
2970.602433,-9918.759623,-740.205942,2221.676944
2970.602771,-10214.842000,-814.226536,2145.067394
2970.603108,-10362.883188,-1110.308913,1762.019645
2970.603445,-9844.739029,148.041188,766.095498
2970.603783,-9844.739029,-962.267725,-306.438199
2970.604120,-10510.924376,-296.082377,229.828649
2970.604457,-9770.718434,0.000000,153.219100
2970.604795,-9548.656652,222.061783,459.657299
2970.605132,-10214.842000,666.185348,1225.752797
2970.605469,-10362.883188,370.102971,842.705048
2970.605807,-10362.883188,-370.102971,689.485948
2970.606144,-10066.800811,74.020594,995.924147
2970.606481,-10436.903782,-148.041188,2374.896044
2970.606819,-11029.068536,814.226536,1608.800546
2970.607156,-10362.883188,444.123565,536.266849
2970.607493,-10288.862594,-296.082377,229.828649
2970.607830,-9474.636058,-370.102971,-919.314598
2970.608168,-9474.636058,-518.144159,-1608.800546
2970.608505,-9992.780217,-1850.514855,-2221.676944
2970.608842,-9474.636058,-1924.535449,-2374.896044
2970.609180,-9030.512492,-2368.659014,-1072.533697
2970.609517,-10066.800811,-2146.597232,0.000000
2970.609854,-9474.636058,-1258.350101,153.219100
2970.610192,-9770.718434,-1332.370696,0.000000
2970.610529,-10436.903782,-814.226536,0.000000
2970.610866,-9918.759623,-1776.494261,-306.438199
2970.611204,-10510.924376,-1184.329507,1378.971896
2970.611541,-10362.883188,-740.205942,1762.019645
2970.611878,-10140.821405,74.020594,1915.238745
2970.612216,-11177.109724,1110.308913,2528.115143
2970.612553,-11103.089130,740.205942,1532.190996
2970.612890,-10362.883188,1258.350101,766.095498
2970.613228,-10584.944971,518.144159,306.438199
2970.613565,-9992.780217,1850.514855,0.000000
2970.613902,-9770.718434,1850.514855,76.609550
2970.614240,-10658.965565,1850.514855,229.828649
2970.614577,-9474.636058,1036.288319,0.000000
2970.614914,-9696.697840,1776.494261,229.828649
2970.615252,-10658.965565,2294.638420,76.609550
2970.615589,-10362.883188,222.061783,-1225.752797
2970.615926,-9770.718434,-740.205942,-1685.410096
2970.616264,-8660.409521,-740.205942,-1302.362347
2970.616601,-9400.615463,-592.164754,-76.609550
2970.616938,-8808.450710,-592.164754,1225.752797
2970.617276,-9474.636058,-592.164754,459.657299
2970.617613,-10658.965565,-1332.370696,153.219100
2970.617950,-9548.656652,-740.205942,-536.266849
2970.618288,-10066.800811,-1184.329507,1149.143247
2970.618625,-10510.924376,-740.205942,1838.629195
2970.618962,-10807.006753,-666.185348,229.828649
2970.619300,-10288.862594,222.061783,1685.410096
2970.619637,-10066.800811,296.082377,1149.143247
2970.619974,-10362.883188,0.000000,689.485948
2970.620312,-10510.924376,-296.082377,-229.828649
2970.620649,-9474.636058,-370.102971,-153.219100
2970.620986,-10732.986159,0.000000,536.266849
2970.621324,-11473.192101,-740.205942,76.609550
2970.621661,-9474.636058,-518.144159,383.047749
2970.621998,-10214.842000,-888.247130,689.485948
2970.622336,-10955.047942,-296.082377,383.047749
2970.622673,-9696.697840,-148.041188,-1455.581446
2970.623010,-9992.780217,-666.185348,-1149.143247
2970.623348,-9622.677246,-1480.411884,0.000000
2970.623685,-9918.759623,-814.226536,-1072.533697
2970.624022,-10584.944971,-444.123565,-766.095498
2970.624360,-9770.718434,-2072.576638,0.000000
2970.624697,-8956.491898,-740.205942,536.266849
2970.625034,-9030.512492,-740.205942,1455.581446
2970.625372,-10362.883188,-962.267725,2451.505594
2970.625709,-10584.944971,-1258.350101,2221.676944
2970.626046,-10955.047942,222.061783,2145.067394
2970.626384,-10066.800811,1184.329507,2145.067394
2970.626721,-9696.697840,666.185348,2145.067394
2970.627058,-10140.821405,444.123565,2528.115143
2970.627396,-10140.821405,1924.535449,536.266849
2970.627733,-9770.718434,1184.329507,-306.438199
2970.628070,-10807.006753,1258.350101,0.000000
2970.628407,-9844.739029,0.000000,-1608.800546
2970.628745,-9770.718434,222.061783,-1378.971896
2970.629082,-9400.615463,-518.144159,-1149.143247
2970.629419,-9178.553681,-296.082377,-1225.752797
2970.629757,-9104.533087,-370.102971,-995.924147
2970.630094,-10288.862594,-1258.350101,-689.485948
2970.630431,-10214.842000,-1036.288319,229.828649
2970.630769,-10584.944971,-1850.514855,383.047749
2970.631106,-11399.171507,-370.102971,459.657299
2970.631443,-10807.006753,-1554.432478,-306.438199
2970.631781,-10362.883188,-1480.411884,536.266849
2970.632118,-9770.718434,-2072.576638,-689.485948
2970.632455,-9178.553681,-1850.514855,-229.828649
2970.632793,-9252.574275,-1036.288319,1378.971896
2970.633130,-10436.903782,-1776.494261,1149.143247
2970.633467,-11103.089130,74.020594,153.219100
2970.633805,-10584.944971,-370.102971,153.219100
2970.634142,-10658.965565,222.061783,1455.581446
2970.634479,-10066.800811,370.102971,1685.410096
2970.634817,-9918.759623,518.144159,919.314598
2970.635154,-9844.739029,666.185348,612.876398
2970.635491,-10362.883188,-296.082377,-383.047749
2970.635829,-9992.780217,888.247130,-459.657299
2970.636166,-10362.883188,0.000000,-995.924147
2970.636503,-9622.677246,888.247130,-1378.971896
2970.636841,-9992.780217,296.082377,-1838.629195
2970.637178,-9326.594869,148.041188,-1378.971896
2970.637515,-8364.327145,-222.061783,-536.266849
2970.637853,-9474.636058,-592.164754,842.705048
2970.638190,-11177.109724,148.041188,919.314598
2970.638527,-10214.842000,-518.144159,536.266849
2970.638865,-10510.924376,-222.061783,1378.971896
2970.639202,-9474.636058,74.020594,1685.410096
2970.639539,-9622.677246,296.082377,1378.971896
2970.639877,-10658.965565,888.247130,1762.019645
2970.640214,-10732.986159,0.000000,306.438199
2970.640551,-10510.924376,370.102971,459.657299
2970.640889,-9622.677246,222.061783,306.438199
2970.641226,-9326.594869,370.102971,1455.581446
2970.641563,-9548.656652,0.000000,919.314598
2970.641901,-10140.821405,592.164754,612.876398
2970.642238,-9474.636058,1110.308913,-612.876398
2970.642575,-10584.944971,74.020594,0.000000
2970.642913,-10658.965565,296.082377,-612.876398
2970.643250,-10214.842000,-740.205942,-1455.581446
2970.643587,-10066.800811,-444.123565,-459.657299
2970.643925,-9326.594869,-1554.432478,-459.657299
2970.644262,-9326.594869,-1998.556043,-536.266849
2970.644599,-9400.615463,-1924.535449,-612.876398
2970.644937,-10510.924376,-2146.597232,459.657299
2970.645274,-10288.862594,-962.267725,0.000000
2970.645611,-10140.821405,-1554.432478,-766.095498
2970.645949,-10881.027347,-1702.473667,1149.143247
2970.646286,-9844.739029,-1110.308913,995.924147
2970.646623,-9252.574275,-1406.391290,1378.971896
2970.646961,-9548.656652,-888.247130,2451.505594
2970.647298,-10066.800811,-370.102971,2145.067394
2970.647635,-11325.150913,814.226536,2221.676944
2970.647973,-11399.171507,888.247130,919.314598
2970.648310,-10066.800811,518.144159,766.095498
2970.648647,-10140.821405,444.123565,2068.457845
2970.648985,-9474.636058,518.144159,1455.581446
2970.649322,-9474.636058,666.185348,919.314598
2970.649659,-9844.739029,1110.308913,919.314598
2970.649996,-10140.821405,666.185348,-306.438199
2970.650334,-10066.800811,148.041188,-995.924147
2970.650671,-9474.636058,74.020594,-1072.533697
2970.651008,-9178.553681,0.000000,-1072.533697
2970.651346,-9770.718434,-1036.288319,-306.438199
2970.651683,-9326.594869,-740.205942,-229.828649
2970.652020,-9326.594869,-1776.494261,-229.828649
2970.652358,-9844.739029,-518.144159,229.828649
2970.652695,-9622.677246,-518.144159,-1149.143247
2970.653032,-9770.718434,-2220.617826,-766.095498
2970.653370,-10214.842000,-2294.638420,919.314598
2970.653707,-9770.718434,-1332.370696,919.314598
2970.654044,-10066.800811,-740.205942,2221.676944
2970.654382,-10288.862594,-740.205942,2374.896044
2970.654719,-10362.883188,740.205942,1685.410096
2970.655056,-11103.089130,518.144159,306.438199
2970.655394,-11621.233289,-148.041188,306.438199
2970.655731,-11621.233289,-962.267725,995.924147
2970.656068,-10732.986159,0.000000,0.000000
2970.656406,-8956.491898,148.041188,-766.095498
2970.656743,-10140.821405,-296.082377,0.000000
2970.657080,-9770.718434,222.061783,-536.266849
2970.657418,-9696.697840,-148.041188,-766.095498
2970.657755,-10436.903782,370.102971,-459.657299
2970.658092,-10510.924376,814.226536,-1302.362347
2970.658430,-10584.944971,0.000000,-1838.629195
2970.658767,-10955.047942,-740.205942,-1378.971896
2970.659104,-8142.265362,-1258.350101,383.047749
2970.659442,-8512.368333,-370.102971,2145.067394
2970.659779,-8956.491898,-222.061783,995.924147
2970.660116,-9400.615463,-518.144159,0.000000
2970.660454,-10436.903782,-814.226536,536.266849
2970.660791,-10140.821405,-370.102971,536.266849
2970.661128,-9770.718434,296.082377,1915.238745
2970.661466,-9696.697840,444.123565,2987.772442
2970.661803,-9178.553681,1554.432478,2604.724693
2970.662140,-9992.780217,2146.597232,1149.143247
2970.662478,-10584.944971,1110.308913,612.876398
2970.662815,-11251.130318,1406.391290,0.000000
2970.663152,-10732.986159,592.164754,-229.828649
2970.663490,-10288.862594,1702.473667,-689.485948
2970.663827,-9548.656652,148.041188,-689.485948
2970.664164,-9178.553681,444.123565,0.000000
2970.664502,-9548.656652,-296.082377,-1072.533697
2970.664839,-10140.821405,-666.185348,-995.924147
2970.665176,-10584.944971,-666.185348,-995.924147
2970.665514,-11177.109724,-888.247130,-1532.190996
2970.665851,-10584.944971,-1480.411884,-1225.752797
2970.666188,-9178.553681,-2220.617826,-842.705048
2970.666526,-8956.491898,-1406.391290,1149.143247
2970.666863,-9992.780217,-1184.329507,383.047749
2970.667200,-10288.862594,-2368.659014,-76.609550
2970.667538,-11769.274478,-2368.659014,-153.219100
2970.667875,-10955.047942,-2516.700203,306.438199
2970.668212,-10436.903782,-1850.514855,1302.362347
2970.668550,-9252.574275,-1998.556043,2604.724693
2970.668887,-9178.553681,-1036.288319,2911.162892
2970.669224,-9844.739029,-666.185348,2221.676944
2970.669562,-10658.965565,74.020594,1762.019645
2970.669899,-10658.965565,222.061783,229.828649
2970.670236,-11177.109724,0.000000,1072.533697
2970.670574,-11029.068536,592.164754,459.657299
2970.670911,-9770.718434,888.247130,-153.219100
2970.671248,-9252.574275,1184.329507,995.924147
2970.671585,-8956.491898,444.123565,0.000000
2970.671923,-9104.533087,592.164754,-306.438199
2970.672260,-10288.862594,74.020594,-919.314598
2970.672597,-10807.006753,-740.205942,-995.924147
2970.672935,-9400.615463,-222.061783,-1225.752797
2970.673272,-9474.636058,-1628.453072,612.876398
2970.673609,-9622.677246,222.061783,1915.238745
2970.673947,-10066.800811,370.102971,842.705048
2970.674284,-10140.821405,888.247130,689.485948
2970.674621,-9918.759623,-592.164754,306.438199
2970.674959,-10807.006753,-148.041188,1225.752797
2970.675296,-11251.130318,0.000000,612.876398
2970.675633,-10510.924376,-1036.288319,459.657299
2970.675971,-9326.594869,-296.082377,995.924147
2970.676308,-8438.347739,666.185348,76.609550
2970.676645,-9104.533087,370.102971,842.705048
2970.676983,-9770.718434,-296.082377,0.000000
2970.677320,-10881.027347,-296.082377,76.609550
2970.677657,-10732.986159,222.061783,-1149.143247
2970.677995,-9918.759623,-962.267725,0.000000
2970.678332,-10066.800811,-592.164754,1378.971896
2970.678669,-9178.553681,-740.205942,612.876398
2970.679007,-9400.615463,0.000000,-229.828649
2970.679344,-10436.903782,-444.123565,-612.876398
2970.679681,-11251.130318,-1184.329507,-2374.896044
2970.680019,-11029.068536,-1184.329507,-2221.676944
2970.680356,-10881.027347,-2220.617826,-1378.971896
2970.680693,-8882.471304,-1554.432478,0.000000
2970.681031,-8734.430116,-962.267725,689.485948
2970.681368,-9992.780217,296.082377,383.047749
2970.681705,-9770.718434,-666.185348,0.000000
2970.682043,-11177.109724,-592.164754,1302.362347
2970.682380,-11103.089130,-444.123565,1302.362347
2970.682717,-10732.986159,-296.082377,1991.848295
2970.683055,-9992.780217,74.020594,3907.087040
2970.683392,-9474.636058,814.226536,3064.381992
2970.683729,-10510.924376,1998.556043,1838.629195
2970.684067,-10288.862594,888.247130,842.705048
2970.684404,-9696.697840,666.185348,0.000000
2970.684741,-9030.512492,1184.329507,-689.485948
2970.685079,-9252.574275,592.164754,-995.924147
2970.685416,-8956.491898,296.082377,-612.876398
2970.685753,-8586.388927,0.000000,-459.657299
2970.686091,-9178.553681,1702.473667,-612.876398
2970.686428,-9622.677246,592.164754,-612.876398
2970.686765,-10510.924376,74.020594,-612.876398
2970.687103,-12139.377449,-444.123565,-1149.143247
2970.687440,-10510.924376,-1628.453072,-1225.752797
2970.687777,-9104.533087,-1480.411884,919.314598
2970.688115,-9622.677246,-1628.453072,2221.676944
2970.688452,-9770.718434,-814.226536,842.705048
2970.688789,-9548.656652,-518.144159,0.000000
2970.689127,-11251.130318,-740.205942,229.828649
2970.689464,-11399.171507,74.020594,-612.876398
2970.689801,-11621.233289,-518.144159,-766.095498
2970.690139,-11029.068536,-592.164754,459.657299
2970.690476,-9622.677246,-666.185348,1915.238745
2970.690813,-9992.780217,222.061783,2145.067394
2970.691151,-9696.697840,222.061783,1225.752797
2970.691488,-10436.903782,-444.123565,766.095498
2970.691825,-11251.130318,0.000000,0.000000
2970.692162,-11547.212695,-888.247130,-1225.752797
2970.692500,-9622.677246,-962.267725,-766.095498
2970.692837,-8586.388927,-1184.329507,766.095498
2970.693174,-9030.512492,0.000000,919.314598
2970.693512,-8882.471304,814.226536,-1378.971896
2970.693849,-9474.636058,0.000000,-2145.067394
2970.694186,-10436.903782,-740.205942,-1225.752797
2970.694524,-9918.759623,-1850.514855,-1838.629195
2970.694861,-9770.718434,-1184.329507,459.657299
2970.695198,-9474.636058,-740.205942,2145.067394
2970.695536,-9474.636058,296.082377,2298.286494
2970.695873,-9474.636058,0.000000,2145.067394
2970.696210,-10436.903782,518.144159,1685.410096
2970.696547,-10807.006753,74.020594,1608.800546
2970.696885,-10955.047942,222.061783,1149.143247
2970.697222,-10658.965565,888.247130,1225.752797
2970.697559,-10288.862594,962.267725,2068.457845
2970.697897,-9770.718434,1184.329507,1838.629195
2970.698234,-9474.636058,1776.494261,459.657299
2970.698571,-9770.718434,1184.329507,536.266849
2970.698909,-11103.089130,1406.391290,-459.657299
2970.699246,-10436.903782,74.020594,-1991.848295
2970.699583,-9992.780217,-962.267725,-1455.581446
2970.699921,-9400.615463,-1850.514855,-1072.533697
2970.700258,-8512.368333,-1776.494261,0.000000
2970.700595,-8512.368333,-592.164754,306.438199
2970.700932,-9918.759623,-1554.432478,306.438199
2970.701270,-10955.047942,-1480.411884,-689.485948
2970.701607,-10955.047942,-1776.494261,-2145.067394
2970.701944,-10214.842000,-1850.514855,-1149.143247
2970.702282,-9770.718434,-2368.659014,229.828649
2970.702619,-9252.574275,-2442.679609,536.266849
2970.702956,-9474.636058,-1554.432478,1685.410096
2970.703294,-9030.512492,-2590.720797,2374.896044
2970.703631,-9474.636058,-1332.370696,2221.676944
2970.703968,-13175.665768,-666.185348,0.000000
2970.704306,-12509.480420,0.000000,-1149.143247
2970.704643,-9918.759623,148.041188,0.000000
2970.704980,-9252.574275,814.226536,2221.676944
2970.705317,-9548.656652,1554.432478,1225.752797
2970.705655,-9844.739029,518.144159,-229.828649
2970.705992,-10214.842000,1332.370696,0.000000
2970.706329,-10510.924376,1702.473667,0.000000
2970.706667,-10807.006753,666.185348,-1225.752797
2970.707004,-10881.027347,-444.123565,-766.095498
2970.707341,-9104.533087,592.164754,919.314598
2970.707679,-9770.718434,1258.350101,995.924147
2970.708016,-9770.718434,1036.288319,0.000000
2970.708353,-9622.677246,444.123565,-689.485948
2970.708691,-9918.759623,-148.041188,-1225.752797
2970.709028,-9030.512492,-666.185348,-1149.143247
2970.709365,-8734.430116,-74.020594,229.828649
2970.709702,-8586.388927,370.102971,1302.362347
2970.710040,-9030.512492,592.164754,0.000000
2970.710377,-9770.718434,740.205942,0.000000
2970.710714,-9918.759623,518.144159,1149.143247
2970.711052,-10584.944971,-74.020594,1915.238745
2970.711389,-11843.295072,148.041188,1149.143247
2970.711726,-9992.780217,-296.082377,1225.752797
2970.712064,-8956.491898,-592.164754,1685.410096
2970.712401,-9844.739029,222.061783,1915.238745
2970.712738,-10362.883188,222.061783,383.047749
2970.713076,-9770.718434,222.061783,-612.876398
2970.713413,-10140.821405,-370.102971,-1608.800546
2970.713750,-10807.006753,0.000000,-1455.581446
2970.714087,-10288.862594,-1258.350101,-1762.019645
2970.714425,-10066.800811,-1924.535449,76.609550
2970.714762,-10510.924376,-1258.350101,-229.828649
2970.715099,-10214.842000,-888.247130,-1302.362347
2970.715437,-10140.821405,-1332.370696,-995.924147
2970.715774,-10732.986159,-2738.761985,306.438199
2970.716111,-10881.027347,-2516.700203,153.219100
2970.716449,-9992.780217,-2442.679609,306.438199
2970.716786,-10955.047942,-1850.514855,1455.581446
2970.717123,-10584.944971,-1776.494261,1838.629195
2970.717461,-9474.636058,-1036.288319,1378.971896
2970.717798,-9622.677246,-222.061783,1915.238745
2970.718135,-9844.739029,296.082377,1149.143247
2970.718472,-9844.739029,962.267725,612.876398
2970.718810,-11473.192101,740.205942,306.438199
2970.719147,-10066.800811,1036.288319,383.047749
2970.719484,-9474.636058,1036.288319,1149.143247
2970.719822,-9326.594869,1258.350101,1532.190996
2970.720159,-8660.409521,1110.308913,1302.362347
2970.720496,-9474.636058,518.144159,1532.190996
2970.720834,-9696.697840,592.164754,0.000000
2970.721171,-9474.636058,370.102971,-766.095498
2970.721508,-10140.821405,666.185348,-689.485948
2970.721846,-9622.677246,222.061783,-1225.752797
2970.722183,-9548.656652,222.061783,-1302.362347
2970.722520,-9326.594869,-518.144159,-229.828649
2970.722857,-10214.842000,-518.144159,0.000000
2970.723195,-10436.903782,-740.205942,-689.485948
2970.723532,-10140.821405,-1110.308913,-1378.971896
2970.723869,-9696.697840,-1850.514855,-306.438199
2970.724207,-10362.883188,-2072.576638,1455.581446
2970.724544,-9474.636058,-1406.391290,2374.896044
2970.724881,-9918.759623,-1258.350101,2451.505594
2970.725219,-11177.109724,-740.205942,2451.505594
2970.725556,-11769.274478,-296.082377,766.095498
2970.725893,-11251.130318,-888.247130,0.000000
2970.726230,-9474.636058,-296.082377,919.314598
2970.726568,-10214.842000,-592.164754,1302.362347
2970.726905,-10658.965565,0.000000,536.266849
2970.727242,-9400.615463,0.000000,-1838.629195
2970.727580,-9844.739029,-814.226536,-536.266849
2970.727917,-9030.512492,0.000000,-1838.629195
2970.728254,-9548.656652,-1554.432478,-1302.362347
2970.728592,-9992.780217,-1184.329507,-612.876398
2970.728929,-9252.574275,-666.185348,-1762.019645
2970.729266,-9844.739029,148.041188,-306.438199
2970.729604,-10066.800811,-148.041188,383.047749
2970.729941,-10140.821405,-296.082377,1072.533697
2970.730278,-10955.047942,-296.082377,842.705048
2970.730615,-10658.965565,-666.185348,76.609550
2970.730953,-9622.677246,518.144159,689.485948
2970.731290,-10288.862594,-592.164754,2145.067394
2970.731627,-10362.883188,370.102971,2068.457845
2970.731965,-9104.533087,1184.329507,1608.800546
2970.732302,-10214.842000,1776.494261,2145.067394
2970.732639,-10732.986159,2368.659014,1302.362347
2970.732977,-9770.718434,1554.432478,76.609550
2970.733314,-9918.759623,1258.350101,459.657299
2970.733651,-9844.739029,1554.432478,689.485948
2970.733989,-10214.842000,1776.494261,459.657299
2970.734326,-9770.718434,740.205942,0.000000
2970.734663,-9474.636058,296.082377,76.609550
2970.735000,-9326.594869,222.061783,-383.047749
2970.735338,-9622.677246,296.082377,-689.485948
2970.735675,-9400.615463,-1184.329507,-1302.362347
2970.736012,-9992.780217,-444.123565,-1378.971896
2970.736350,-9918.759623,-666.185348,-1915.238745
2970.736687,-10362.883188,-370.102971,-1378.971896
2970.737024,-10436.903782,-1776.494261,0.000000
2970.737362,-10436.903782,-1184.329507,306.438199
2970.737699,-10807.006753,-1406.391290,153.219100
2970.738036,-10658.965565,-1554.432478,0.000000
2970.738374,-10362.883188,-2442.679609,1225.752797
2970.738711,-11029.068536,-2220.617826,1225.752797
2970.739048,-10214.842000,-1184.329507,1302.362347
2970.739385,-11029.068536,-444.123565,2298.286494
2970.739723,-10140.821405,-888.247130,842.705048
2970.740060,-9844.739029,-592.164754,919.314598
2970.740397,-9918.759623,0.000000,1532.190996
2970.740735,-10288.862594,-222.061783,1149.143247
2970.741072,-10584.944971,222.061783,766.095498
2970.741409,-10362.883188,814.226536,76.609550
2970.741747,-9844.739029,296.082377,76.609550
2970.742084,-9770.718434,296.082377,0.000000
2970.742421,-8882.471304,-370.102971,-383.047749
2970.742759,-9030.512492,-296.082377,-1149.143247
2970.743096,-9030.512492,-370.102971,76.609550
2970.743433,-10214.842000,222.061783,0.000000
2970.743770,-9918.759623,0.000000,306.438199
2970.744108,-10066.800811,-148.041188,536.266849
2970.744445,-9992.780217,222.061783,1532.190996
2970.744782,-9622.677246,-148.041188,995.924147
2970.745120,-9474.636058,-148.041188,1455.581446
2970.745457,-10140.821405,0.000000,1838.629195
2970.745794,-10362.883188,222.061783,919.314598
2970.746132,-10510.924376,1110.308913,76.609550
2970.746469,-10658.965565,888.247130,306.438199
2970.746806,-11325.150913,592.164754,0.000000
2970.747144,-10807.006753,-296.082377,-1149.143247
2970.747481,-9252.574275,-296.082377,689.485948
2970.747818,-8660.409521,0.000000,1225.752797
2970.748155,-9548.656652,-370.102971,0.000000
2970.748493,-11325.150913,0.000000,-766.095498
2970.748830,-10732.986159,-888.247130,-766.095498
2970.749167,-10214.842000,-1184.329507,-76.609550
2970.749505,-9918.759623,-962.267725,-383.047749
2970.749842,-8808.450710,-1702.473667,-1149.143247
2970.750179,-9178.553681,-2146.597232,-1455.581446
2970.750517,-8956.491898,-2368.659014,-1762.019645
2970.750854,-9992.780217,-1924.535449,-2221.676944
2970.751191,-9918.759623,-2442.679609,-995.924147
2970.751529,-10140.821405,-2368.659014,-459.657299
2970.751866,-9770.718434,-2294.638420,689.485948
2970.752203,-9844.739029,-1702.473667,1149.143247
2970.752540,-9696.697840,-1628.453072,2374.896044
2970.752878,-10881.027347,-666.185348,2451.505594
2970.753215,-11399.171507,370.102971,2221.676944
2970.753552,-10732.986159,888.247130,1149.143247
2970.753890,-11103.089130,666.185348,1762.019645
2970.754227,-10955.047942,814.226536,2068.457845
2970.754564,-9844.739029,888.247130,919.314598
2970.754902,-9622.677246,2072.576638,919.314598
2970.755239,-10658.965565,1998.556043,1149.143247
2970.755576,-10955.047942,2072.576638,-612.876398
2970.755914,-10436.903782,1036.288319,-153.219100
2970.756251,-9622.677246,1406.391290,153.219100
2970.756588,-9178.553681,222.061783,536.266849
2970.756925,-8882.471304,740.205942,76.609550
2970.757263,-8586.388927,592.164754,-842.705048
2970.757600,-9178.553681,740.205942,-153.219100
2970.757937,-9844.739029,74.020594,-1915.238745
2970.758275,-10732.986159,-814.226536,-1532.190996
2970.758612,-9770.718434,-740.205942,-229.828649
2970.758949,-9474.636058,-1184.329507,536.266849
2970.759287,-8512.368333,-1036.288319,1072.533697
2970.759624,-8734.430116,-1332.370696,1149.143247
2970.759961,-9622.677246,-592.164754,2298.286494
2970.760299,-11325.150913,-740.205942,612.876398
2970.760636,-10955.047942,296.082377,536.266849
2970.760973,-11325.150913,222.061783,459.657299
2970.761310,-10881.027347,-296.082377,842.705048
2970.761648,-9918.759623,0.000000,689.485948
2970.761985,-9548.656652,-296.082377,-383.047749
2970.762322,-10362.883188,0.000000,76.609550
2970.762660,-10732.986159,148.041188,-995.924147
2970.762997,-10732.986159,0.000000,-1608.800546
2970.763334,-10288.862594,-740.205942,-1685.410096
2970.763672,-10658.965565,-1702.473667,-689.485948
2970.764009,-10732.986159,-592.164754,0.000000
