#time,accel_x,accel_y,accel_z
3306.240147,-9548.656652,-2516.700203,3753.867940
3306.240485,-10436.903782,-3478.967927,3983.696590
3306.240822,-11695.253884,-1998.556043,2987.772442
3306.241160,-10807.006753,-1924.535449,1455.581446
3306.241498,-11103.089130,-2146.597232,2068.457845
3306.241836,-10140.821405,-2220.617826,1838.629195
3306.242174,-9252.574275,-1924.535449,1762.019645
3306.242511,-9030.512492,-1628.453072,1302.362347
3306.242849,-9992.780217,-592.164754,0.000000
3306.243187,-11769.274478,-888.247130,229.828649
3306.243525,-10510.924376,-1924.535449,-76.609550
3306.243863,-8364.327145,-2072.576638,612.876398
3306.244201,-9252.574275,-1480.411884,1762.019645
3306.244538,-9770.718434,-1036.288319,1378.971896
3306.244876,-10214.842000,-1036.288319,-459.657299
3306.245214,-10658.965565,-1628.453072,0.000000
3306.245552,-9770.718434,-1036.288319,536.266849
3306.245890,-10658.965565,-1184.329507,1532.190996
3306.246227,-11177.109724,-1258.350101,2374.896044
3306.246565,-9770.718434,-1702.473667,2298.286494
3306.246903,-9844.739029,-1850.514855,3830.477490
3306.247241,-9770.718434,-1480.411884,4596.572988
3306.247579,-10066.800811,-888.247130,5132.839837
3306.247916,-10955.047942,0.000000,5439.278036
3306.248254,-11103.089130,-444.123565,3907.087040
3306.248592,-10510.924376,0.000000,3907.087040
3306.248930,-9918.759623,0.000000,4826.401637
3306.249268,-9474.636058,-740.205942,4903.011187
3306.249606,-9622.677246,-888.247130,4826.401637
3306.249943,-9548.656652,-1776.494261,4596.572988
3306.250281,-9474.636058,-1776.494261,5439.278036
3306.250619,-9770.718434,-2960.823768,5515.887586
3306.250957,-9548.656652,-2590.720797,5515.887586
3306.251295,-9474.636058,-2738.761985,2681.334243
3306.251632,-9622.677246,-2146.597232,1302.362347
3306.251970,-10140.821405,-3034.844362,536.266849
3306.252308,-9770.718434,-4959.379811,689.485948
3306.252646,-8882.471304,-5995.668130,1149.143247
3306.252984,-8956.491898,-5699.585753,1762.019645
3306.253321,-10214.842000,-5995.668130,3217.601092
3306.253659,-10732.986159,-6513.812290,2451.505594
3306.253997,-10214.842000,-5995.668130,2374.896044
3306.254335,-10066.800811,-5255.462188,2834.553343
3306.254673,-10436.903782,-5403.503377,4443.353888
3306.255010,-12139.377449,-5181.441594,4903.011187
3306.255348,-12287.418637,-4737.318029,3370.820191
3306.255686,-11177.109724,-3330.926739,1838.629195
3306.256024,-10955.047942,-2886.803174,1072.533697
3306.256362,-10732.986159,-4515.256246,766.095498
3306.256700,-9918.759623,-4737.318029,306.438199
3306.257037,-8512.368333,-4293.194464,842.705048
3306.257375,-8142.265362,-2220.617826,229.828649
3306.257713,-9474.636058,-2738.761985,229.828649
3306.258051,-10658.965565,-2886.803174,842.705048
3306.258389,-10066.800811,-3182.885551,1685.410096
3306.258726,-10362.883188,-1480.411884,1685.410096
3306.259064,-10214.842000,-370.102971,689.485948
3306.259402,-10214.842000,-666.185348,-306.438199
3306.259740,-10732.986159,-2738.761985,612.876398
3306.260078,-9252.574275,-3627.009116,919.314598
3306.260415,-7772.162391,-2664.741391,2757.943793
3306.260753,-8290.306550,-2294.638420,4749.792088
3306.261091,-11177.109724,-2220.617826,4979.620737
3306.261429,-11177.109724,-1184.329507,1762.019645
3306.261767,-9252.574275,666.185348,766.095498
3306.262105,-9326.594869,1406.391290,2451.505594
3306.262442,-10955.047942,1110.308913,2834.553343
3306.262780,-10140.821405,1258.350101,1991.848295
3306.263118,-9400.615463,-370.102971,2911.162892
3306.263456,-9696.697840,-740.205942,5822.325785
3306.263794,-11621.233289,-962.267725,5439.278036
3306.264131,-10510.924376,-444.123565,3294.210641
3306.264469,-9104.533087,-296.082377,2757.943793
3306.264806,-9400.615463,-1184.329507,2374.896044
3306.265144,-9992.780217,-1184.329507,4596.572988
3306.265482,-10584.944971,-518.144159,3983.696590
3306.265819,-9474.636058,-518.144159,3370.820191
3306.266157,-12879.583391,-370.102971,-612.876398
3306.266495,-11473.192101,-1406.391290,-459.657299
3306.266832,-9474.636058,-2146.597232,689.485948
3306.267170,-7846.182985,-3256.906145,3064.381992
3306.267508,-8956.491898,-3552.988522,3830.477490
3306.267845,-10362.883188,-3478.967927,2374.896044
3306.268183,-10658.965565,-2442.679609,1608.800546
3306.268520,-10214.842000,-1110.308913,2068.457845
3306.268858,-10584.944971,-1850.514855,3447.429741
3306.269196,-11029.068536,-1850.514855,3677.258390
3306.269533,-10658.965565,-518.144159,3600.648841
3306.269871,-10510.924376,1998.556043,2528.115143
3306.270209,-11029.068536,1702.473667,-383.047749
3306.270546,-10288.862594,-148.041188,-306.438199
3306.270884,-10214.842000,-2516.700203,2528.115143
3306.271221,-9400.615463,-2294.638420,3677.258390
3306.271559,-8068.244768,0.000000,1915.238745
3306.271897,-8734.430116,1036.288319,306.438199
3306.272234,-9178.553681,814.226536,-76.609550
3306.272572,-10732.986159,-1628.453072,612.876398
3306.272910,-13545.768739,0.000000,1838.629195
3306.273247,-10584.944971,1480.411884,689.485948
3306.273585,-9178.553681,1776.494261,-1685.410096
3306.273923,-9252.574275,-592.164754,-3217.601092
3306.274260,-9474.636058,-4367.215058,-2145.067394
3306.274598,-8586.388927,-5625.565159,1072.533697
3306.274935,-6661.853478,-4071.132681,1685.410096
3306.275273,-7846.182985,-1554.432478,1378.971896
3306.275611,-12213.398043,-1850.514855,-766.095498
3306.275948,-12139.377449,-4219.173869,-1532.190996
3306.276286,-11029.068536,-3627.009116,1225.752797
3306.276624,-9474.636058,-444.123565,2681.334243
3306.276961,-9400.615463,-296.082377,536.266849
3306.277299,-12509.480420,0.000000,-1991.848295
3306.277636,-11251.130318,-2886.803174,-1915.238745
3306.277974,-9696.697840,-3997.112087,306.438199
3306.278312,-9548.656652,-3108.864956,2451.505594
3306.278649,-8660.409521,-2516.700203,1455.581446
3306.278987,-9918.759623,-3330.926739,-383.047749
3306.279325,-10658.965565,-3849.070898,0.000000
3306.279662,-10140.821405,-2960.823768,1455.581446
3306.280000,-11177.109724,-592.164754,2528.115143
3306.280338,-11103.089130,592.164754,-459.657299
3306.280675,-12731.542202,222.061783,-2145.067394
3306.281013,-10584.944971,-1850.514855,-2681.334243
3306.281350,-8438.347739,-2368.659014,-1608.800546
3306.281688,-7624.121203,-1702.473667,1149.143247
3306.282026,-8364.327145,-2664.741391,766.095498
3306.282363,-9918.759623,-3701.029710,229.828649
3306.282701,-10214.842000,-3182.885551,1838.629195
3306.283039,-9178.553681,518.144159,4366.744339
3306.283376,-9696.697840,2220.617826,4290.134789
3306.283714,-12731.542202,2368.659014,2681.334243
3306.284051,-12361.439231,3552.988522,383.047749
3306.284389,-11251.130318,2960.823768,1072.533697
3306.284727,-9030.512492,3997.112087,3600.648841
3306.285064,-8290.306550,2442.679609,2298.286494
3306.285402,-10510.924376,814.226536,2145.067394
3306.285740,-10140.821405,-1480.411884,1072.533697
3306.286077,-7920.203579,0.000000,1532.190996
3306.286415,-7105.977043,2516.700203,1378.971896
3306.286753,-9104.533087,3330.926739,-612.876398
3306.287090,-12287.418637,3034.844362,-3294.210641
3306.287428,-11991.336260,1628.453072,-4366.744339
3306.287765,-9918.759623,2664.741391,-2681.334243
3306.288103,-9104.533087,1776.494261,-919.314598
3306.288441,-9844.739029,0.000000,153.219100
3306.288778,-10881.027347,-3108.864956,-306.438199
3306.289116,-9548.656652,-4219.173869,-766.095498
3306.289454,-8438.347739,-2146.597232,612.876398
3306.289791,-8808.450710,-1110.308913,1532.190996
3306.290129,-11843.295072,-1702.473667,229.828649
3306.290466,-11917.315666,-2072.576638,-1302.362347
3306.290804,-11029.068536,222.061783,-1608.800546
3306.291142,-9844.739029,2590.720797,153.219100
3306.291479,-10807.006753,1258.350101,-383.047749
3306.291817,-12065.356855,-1258.350101,-383.047749
3306.292155,-10732.986159,-2516.700203,-689.485948
3306.292492,-9474.636058,-296.082377,536.266849
3306.292830,-8068.244768,0.000000,306.438199
3306.293168,-9696.697840,-962.267725,153.219100
3306.293505,-10732.986159,-2368.659014,-383.047749
3306.293843,-9770.718434,-2072.576638,0.000000
3306.294180,-8882.471304,1036.288319,919.314598
3306.294518,-10140.821405,1110.308913,995.924147
3306.294856,-12953.603985,148.041188,-842.705048
3306.295193,-11695.253884,-1258.350101,-2374.896044
3306.295531,-9770.718434,-296.082377,-76.609550
3306.295869,-7328.038826,814.226536,919.314598
3306.296206,-8660.409521,0.000000,766.095498
3306.296544,-10140.821405,-1924.535449,0.000000
3306.296881,-9326.594869,-2738.761985,0.000000
3306.297219,-8882.471304,-148.041188,2604.724693
3306.297557,-8734.430116,1258.350101,3140.991542
3306.297894,-10510.924376,888.247130,1685.410096
3306.298232,-12139.377449,0.000000,1149.143247
3306.298570,-11843.295072,-444.123565,1838.629195
3306.298907,-9918.759623,2590.720797,2528.115143
3306.299245,-9918.759623,1480.411884,2068.457845
3306.299583,-10955.047942,0.000000,229.828649
3306.299920,-9770.718434,-2442.679609,-766.095498
3306.300258,-8438.347739,-1628.453072,-306.438199
3306.300595,-6957.935855,-1184.329507,1302.362347
3306.300933,-8882.471304,-1850.514855,383.047749
3306.301271,-11103.089130,-2664.741391,-1378.971896
3306.301608,-11547.212695,-3701.029710,-1685.410096
3306.301946,-10584.944971,-1406.391290,-383.047749
3306.302284,-9844.739029,-518.144159,0.000000
3306.302621,-11695.253884,-1628.453072,-842.705048
3306.302959,-11843.295072,-2664.741391,-2298.286494
3306.303296,-10066.800811,-3775.050304,-919.314598
3306.303634,-7920.203579,-2738.761985,1149.143247
3306.303972,-8734.430116,-2442.679609,1991.848295
3306.304309,-12435.459826,-4293.194464,1991.848295
3306.304647,-11473.192101,-4885.359217,1302.362347
3306.304985,-9696.697840,-1924.535449,1685.410096
3306.305322,-9400.615463,1850.514855,2681.334243
3306.305660,-10658.965565,2220.617826,842.705048
3306.305998,-12065.356855,814.226536,-919.314598
3306.306335,-11029.068536,370.102971,-995.924147
3306.306673,-8882.471304,2368.659014,0.000000
3306.307010,-8882.471304,2368.659014,1149.143247
3306.307348,-10584.944971,370.102971,995.924147
3306.307686,-9770.718434,-1850.514855,0.000000
3306.308023,-8660.409521,-1554.432478,459.657299
3306.308361,-7772.162391,1628.453072,2451.505594
3306.308699,-8882.471304,1850.514855,0.000000
3306.309036,-11103.089130,1480.411884,-2145.067394
3306.309374,-11325.150913,888.247130,-2757.943793
3306.309712,-9622.677246,1998.556043,-1915.238745
3306.310049,-8586.388927,2664.741391,-229.828649
3306.310387,-9252.574275,1406.391290,0.000000
3306.310724,-10658.965565,-1406.391290,-1225.752797
3306.311062,-9992.780217,-2738.761985,-383.047749
3306.311400,-9474.636058,0.000000,2298.286494
3306.311737,-9474.636058,518.144159,2145.067394
3306.312075,-10881.027347,814.226536,306.438199
3306.312413,-11547.212695,-666.185348,-383.047749
3306.312750,-11547.212695,740.205942,229.828649
3306.313088,-9104.533087,1850.514855,995.924147
3306.313425,-10807.006753,814.226536,995.924147
3306.313763,-11325.150913,-222.061783,-612.876398
3306.314101,-10955.047942,-1850.514855,-1302.362347
3306.314438,-10066.800811,-1110.308913,-766.095498
3306.314776,-7920.203579,-592.164754,-766.095498
3306.315114,-9622.677246,-888.247130,-689.485948
3306.315451,-10955.047942,-1850.514855,-2145.067394
3306.315789,-9474.636058,-2442.679609,-2604.724693
3306.316127,-9696.697840,0.000000,-536.266849
3306.316464,-9622.677246,-666.185348,229.828649
3306.316802,-11917.315666,-1258.350101,306.438199
3306.317139,-12065.356855,-2664.741391,995.924147
3306.317477,-10066.800811,-1924.535449,1302.362347
3306.317815,-8882.471304,370.102971,3140.991542
3306.318152,-9844.739029,666.185348,2374.896044
3306.318490,-11177.109724,-444.123565,1149.143247
3306.318828,-11029.068536,-1332.370696,459.657299
3306.319165,-9400.615463,370.102971,1762.019645
3306.319503,-7698.141797,2812.782580,1455.581446
3306.319840,-9844.739029,1554.432478,2068.457845
3306.320178,-11177.109724,222.061783,612.876398
3306.320516,-10362.883188,-296.082377,1072.533697
3306.320853,-9030.512492,3034.844362,2528.115143
3306.321191,-9252.574275,2738.761985,1685.410096
3306.321529,-10510.924376,1258.350101,76.609550
3306.321866,-10362.883188,-444.123565,-842.705048
3306.322204,-8290.306550,0.000000,0.000000
3306.322542,-7476.080014,666.185348,919.314598
3306.322879,-9548.656652,444.123565,0.000000
3306.323217,-11547.212695,-1702.473667,-995.924147
3306.323554,-11251.130318,-3404.947333,-1455.581446
3306.323892,-9844.739029,-1924.535449,-306.438199
3306.324230,-8586.388927,-518.144159,995.924147
3306.324567,-10288.862594,-666.185348,229.828649
3306.324905,-11029.068536,-1702.473667,-1532.190996
3306.325243,-11029.068536,-2960.823768,-919.314598
3306.325580,-10066.800811,-740.205942,842.705048
3306.325918,-9696.697840,-1628.453072,2681.334243
3306.326255,-11917.315666,-2220.617826,2451.505594
3306.326593,-11991.336260,-2960.823768,1302.362347
3306.326931,-11399.171507,-2072.576638,1149.143247
3306.327268,-9622.677246,148.041188,1915.238745
3306.327606,-9622.677246,74.020594,1685.410096
3306.327944,-11769.274478,444.123565,0.000000
3306.328281,-10807.006753,-1110.308913,-2528.115143
3306.328619,-8956.491898,740.205942,-2068.457845
3306.328957,-7772.162391,370.102971,-919.314598
3306.329294,-9252.574275,-740.205942,-689.485948
3306.329632,-9696.697840,-2072.576638,-1608.800546
3306.329969,-9844.739029,-2738.761985,0.000000
3306.330307,-8808.450710,74.020594,1608.800546
3306.330645,-9326.594869,370.102971,1532.190996
3306.330982,-11769.274478,370.102971,689.485948
3306.331320,-11251.130318,-962.267725,-1149.143247
3306.331658,-9622.677246,888.247130,612.876398
3306.331995,-8586.388927,1702.473667,1225.752797
3306.332333,-8956.491898,814.226536,689.485948
3306.332670,-10066.800811,-592.164754,536.266849
3306.333008,-10066.800811,-1554.432478,995.924147
3306.333346,-9474.636058,0.000000,2528.115143
3306.333683,-8438.347739,3108.864956,2757.943793
3306.334021,-10658.965565,3775.050304,1225.752797
3306.334359,-11991.336260,1924.535449,-306.438199
3306.334696,-11473.192101,962.267725,-919.314598
3306.335034,-9770.718434,3182.885551,1072.533697
3306.335372,-9696.697840,2442.679609,1838.629195
3306.335709,-11547.212695,148.041188,306.438199
3306.336047,-10584.944971,-2220.617826,-536.266849
3306.336384,-8586.388927,-2146.597232,76.609550
3306.336722,-7624.121203,740.205942,1455.581446
3306.337060,-9992.780217,-518.144159,306.438199
3306.337397,-11029.068536,-962.267725,-2528.115143
3306.337735,-10584.944971,-2812.782580,-2757.943793
3306.338073,-9696.697840,-888.247130,-1378.971896
3306.338410,-8956.491898,-296.082377,306.438199
3306.338748,-11103.089130,-1258.350101,536.266849
3306.339085,-11251.130318,-3256.906145,153.219100
3306.339423,-9992.780217,-3182.885551,689.485948
3306.339761,-10140.821405,-740.205942,2834.553343
3306.340098,-9918.759623,-1258.350101,3600.648841
3306.340436,-11843.295072,-592.164754,2221.676944
3306.340774,-10658.965565,-814.226536,766.095498
3306.341111,-9548.656652,518.144159,612.876398
3306.341449,-8364.327145,1776.494261,1991.848295
3306.341787,-10436.903782,1480.411884,2068.457845
3306.342124,-11177.109724,444.123565,459.657299
3306.342462,-10955.047942,-592.164754,-459.657299
3306.342799,-9696.697840,1554.432478,306.438199
3306.343137,-8660.409521,1850.514855,766.095498
3306.343475,-9622.677246,1480.411884,-383.047749
3306.343812,-10140.821405,444.123565,-1149.143247
3306.344150,-10140.821405,0.000000,-1225.752797
3306.344488,-8512.368333,1258.350101,-689.485948
3306.344825,-8586.388927,666.185348,-153.219100
3306.345163,-10362.883188,0.000000,-306.438199
3306.345500,-10807.006753,-1702.473667,-689.485948
3306.345838,-9770.718434,-888.247130,76.609550
3306.346176,-8438.347739,1332.370696,1072.533697
3306.346513,-9548.656652,518.144159,689.485948
3306.346851,-12139.377449,74.020594,-153.219100
3306.347189,-11695.253884,-1702.473667,-995.924147
3306.347526,-9696.697840,0.000000,306.438199
3306.347864,-8734.430116,444.123565,995.924147
3306.348202,-9770.718434,-296.082377,842.705048
3306.348539,-10658.965565,-2368.659014,153.219100
3306.348877,-10288.862594,-2886.803174,536.266849
3306.349214,-9252.574275,592.164754,995.924147
3306.349552,-10436.903782,592.164754,612.876398
3306.349890,-12213.398043,74.020594,-383.047749
3306.350227,-10584.944971,-1554.432478,-2604.724693
3306.350565,-9104.533087,-962.267725,-1378.971896
3306.350903,-8586.388927,-370.102971,1225.752797
3306.351240,-9030.512492,-1554.432478,0.000000
3306.351578,-10584.944971,-2368.659014,-1302.362347
3306.351915,-11251.130318,-4145.153275,76.609550
3306.352253,-10214.842000,-1702.473667,919.314598
3306.352591,-9326.594869,-888.247130,1915.238745
3306.352928,-10807.006753,0.000000,1302.362347
3306.353266,-10658.965565,-1702.473667,459.657299
3306.353604,-10362.883188,-740.205942,459.657299
3306.353941,-9178.553681,1036.288319,2068.457845
3306.354279,-9400.615463,1406.391290,2987.772442
3306.354617,-11325.150913,0.000000,2528.115143
3306.354954,-11547.212695,-962.267725,1225.752797
3306.355292,-9622.677246,740.205942,2374.896044
3306.355629,-8142.265362,2220.617826,3217.601092
3306.355967,-9400.615463,1776.494261,2451.505594
3306.356305,-11029.068536,2220.617826,459.657299
3306.356642,-11029.068536,1480.411884,-689.485948
3306.356980,-9474.636058,3034.844362,-689.485948
3306.357318,-8142.265362,2960.823768,-842.705048
3306.357655,-9992.780217,1406.391290,-536.266849
3306.357993,-10214.842000,-888.247130,-1532.190996
3306.358330,-9104.533087,-1036.288319,-1072.533697
3306.358668,-7772.162391,592.164754,76.609550
3306.359006,-9104.533087,0.000000,76.609550
3306.359343,-11473.192101,-888.247130,-536.266849
3306.359681,-11251.130318,-2368.659014,-2374.896044
3306.360019,-10066.800811,-1406.391290,-919.314598
3306.360356,-8216.285956,666.185348,-766.095498
3306.360694,-9696.697840,0.000000,229.828649
3306.361032,-11843.295072,-2516.700203,153.219100
3306.361369,-10881.027347,-3627.009116,0.000000
3306.361707,-10140.821405,-888.247130,2068.457845
3306.362044,-9474.636058,666.185348,2374.896044
3306.362382,-11843.295072,222.061783,1149.143247
3306.362720,-12065.356855,-1924.535449,0.000000
3306.363057,-10510.924376,-518.144159,-1072.533697
3306.363395,-8734.430116,1110.308913,383.047749
3306.363733,-9474.636058,666.185348,1762.019645
3306.364070,-11399.171507,370.102971,-153.219100
3306.364408,-10955.047942,-2442.679609,-842.705048
3306.364746,-9252.574275,-444.123565,153.219100
3306.365083,-8068.244768,1332.370696,612.876398
3306.365420,-10362.883188,1258.350101,153.219100
3306.365758,-11251.130318,-888.247130,-2374.896044
3306.366095,-10436.903782,-1406.391290,-2298.286494
3306.366432,-8660.409521,666.185348,383.047749
3306.366770,-7402.059420,592.164754,1762.019645
3306.367107,-10436.903782,148.041188,919.314598
3306.367444,-10732.986159,-1554.432478,-689.485948
3306.367782,-9474.636058,-592.164754,689.485948
3306.368119,-8586.388927,1480.411884,2911.162892
3306.368457,-9696.697840,2072.576638,3294.210641
3306.368794,-11399.171507,1184.329507,2068.457845
3306.369131,-11029.068536,370.102971,689.485948
3306.369469,-9400.615463,2072.576638,995.924147
3306.369806,-8512.368333,2812.782580,995.924147
3306.370143,-9770.718434,1406.391290,1532.190996
3306.370481,-11399.171507,-148.041188,-383.047749
3306.370818,-10658.965565,-1258.350101,-1225.752797
3306.371155,-8882.471304,1110.308913,229.828649
3306.371493,-8956.491898,1036.288319,766.095498
3306.371830,-11029.068536,-222.061783,-383.047749
3306.372167,-10955.047942,-1850.514855,-2298.286494
3306.372505,-10140.821405,-1554.432478,-1455.581446
3306.372842,-8956.491898,-518.144159,-306.438199
3306.373179,-8956.491898,-666.185348,-612.876398
3306.373517,-11695.253884,-2368.659014,-919.314598
3306.373854,-11621.233289,-4959.379811,-459.657299
3306.374191,-9770.718434,-2812.782580,229.828649
3306.374529,-9104.533087,-814.226536,1072.533697
3306.374866,-10658.965565,-740.205942,536.266849
3306.375203,-11547.212695,-2294.638420,-1378.971896
3306.375541,-10881.027347,-2960.823768,-612.876398
3306.375878,-8808.450710,296.082377,766.095498
3306.376215,-8956.491898,1258.350101,2298.286494
3306.376553,-10955.047942,296.082377,1762.019645
3306.376890,-10732.986159,-1776.494261,0.000000
3306.377227,-9844.739029,-666.185348,919.314598
3306.377565,-8808.450710,2294.638420,2374.896044
3306.377902,-9548.656652,2516.700203,1991.848295
3306.378239,-12509.480420,1258.350101,-612.876398
3306.378577,-10881.027347,-592.164754,-2604.724693
3306.378914,-7994.224174,1628.453072,-1532.190996
3306.379251,-7402.059420,2072.576638,459.657299
3306.379589,-9622.677246,1628.453072,-306.438199
3306.379926,-11103.089130,-1036.288319,-2298.286494
3306.380263,-10140.821405,-962.267725,-1838.629195
3306.380601,-8290.306550,444.123565,689.485948
3306.380938,-8734.430116,1258.350101,2221.676944
3306.381275,-11251.130318,1110.308913,612.876398
3306.381613,-11621.233289,-962.267725,-689.485948
3306.381950,-10584.944971,222.061783,0.000000
3306.382287,-8882.471304,1776.494261,383.047749
3306.382625,-9474.636058,592.164754,1762.019645
3306.382962,-11473.192101,0.000000,0.000000
3306.383299,-10955.047942,-2516.700203,-383.047749
3306.383637,-9548.656652,0.000000,612.876398
3306.383974,-7846.182985,962.267725,1532.190996
3306.384311,-9992.780217,518.144159,1685.410096
3306.384649,-11251.130318,-592.164754,-1149.143247
3306.384986,-10214.842000,-962.267725,-1225.752797
3306.385323,-9918.759623,814.226536,536.266849
3306.385661,-8808.450710,222.061783,766.095498
3306.385998,-10584.944971,-1258.350101,0.000000
3306.386335,-11399.171507,-2590.720797,-536.266849
3306.386673,-10140.821405,-2368.659014,-306.438199
3306.387010,-8882.471304,-814.226536,306.438199
3306.387347,-9474.636058,0.000000,383.047749
3306.387685,-11029.068536,-1480.411884,-1455.581446
3306.388022,-11251.130318,-3478.967927,-1455.581446
3306.388359,-9474.636058,-1258.350101,0.000000
3306.388697,-8216.285956,0.000000,1532.190996
3306.389034,-10436.903782,222.061783,2298.286494
3306.389371,-11399.171507,-1998.556043,689.485948
3306.389709,-10955.047942,-1850.514855,1072.533697
3306.390046,-9622.677246,370.102971,2757.943793
3306.390383,-9622.677246,2072.576638,3677.258390
3306.390721,-11843.295072,1406.391290,1762.019645
3306.391058,-11473.192101,-444.123565,0.000000
3306.391395,-9178.553681,518.144159,0.000000
3306.391733,-7920.203579,2146.597232,1685.410096
3306.392070,-9030.512492,1850.514855,1685.410096
3306.392407,-10881.027347,74.020594,-459.657299
3306.392745,-10362.883188,-1332.370696,-919.314598
3306.393082,-8512.368333,1406.391290,-383.047749
3306.393419,-9326.594869,1850.514855,383.047749
3306.393757,-10214.842000,1036.288319,0.000000
3306.394094,-11769.274478,-518.144159,-2451.505594
3306.394431,-10658.965565,-1554.432478,-2068.457845
3306.394769,-8216.285956,0.000000,-842.705048
3306.395106,-9400.615463,-370.102971,919.314598
3306.395443,-11769.274478,-1776.494261,0.000000
3306.395781,-10584.944971,-3849.070898,-1608.800546
3306.396118,-9400.615463,-2368.659014,-229.828649
3306.396455,-8882.471304,-296.082377,1149.143247
3306.396793,-9992.780217,370.102971,919.314598
3306.397130,-12583.501014,-1480.411884,-842.705048
3306.397467,-11769.274478,-2072.576638,-1455.581446
3306.397805,-9252.574275,74.020594,229.828649
3306.398142,-9178.553681,-370.102971,2604.724693
3306.398480,-10955.047942,-888.247130,2451.505594
3306.398817,-11695.253884,-2812.782580,306.438199
3306.399154,-10955.047942,-1998.556043,919.314598
3306.399492,-9178.553681,370.102971,1302.362347
3306.399829,-9548.656652,740.205942,1378.971896
3306.400166,-11029.068536,74.020594,-919.314598
3306.400504,-10288.862594,-1406.391290,-3064.381992
3306.400841,-9326.594869,-666.185348,-1455.581446
3306.401178,-7920.203579,148.041188,-536.266849
3306.401516,-8586.388927,-592.164754,306.438199
3306.401853,-11177.109724,-2220.617826,0.000000
3306.402190,-10807.006753,-2368.659014,919.314598
3306.402528,-9326.594869,-666.185348,2068.457845
3306.402865,-9030.512492,1554.432478,2298.286494
3306.403202,-10362.883188,814.226536,2298.286494
3306.403540,-11769.274478,-740.205942,306.438199
3306.403877,-10140.821405,-444.123565,459.657299
3306.404214,-8586.388927,2294.638420,2911.162892
3306.404552,-9252.574275,2368.659014,3907.087040
3306.404889,-11103.089130,1554.432478,1378.971896
3306.405226,-11325.150913,-740.205942,0.000000
3306.405564,-9548.656652,1258.350101,536.266849
3306.405901,-8290.306550,2368.659014,1149.143247
3306.406238,-10214.842000,2812.782580,153.219100
3306.406576,-11029.068536,444.123565,-2451.505594
3306.406913,-10510.924376,-888.247130,-2528.115143
3306.407250,-8882.471304,740.205942,-995.924147
3306.407588,-7698.141797,444.123565,-1302.362347
3306.407925,-10362.883188,-888.247130,-76.609550
3306.408262,-11399.171507,-3627.009116,-2451.505594
3306.408600,-9918.759623,-2812.782580,-1838.629195
3306.408937,-9178.553681,-592.164754,-76.609550
3306.409274,-9992.780217,-666.185348,536.266849
3306.409612,-11769.274478,-1480.411884,-612.876398
3306.409949,-11547.212695,-3478.967927,-1455.581446
3306.410286,-9252.574275,-2220.617826,-229.828649
3306.410624,-9030.512492,-2072.576638,1455.581446
3306.410961,-10732.986159,-1184.329507,2221.676944
3306.411298,-11547.212695,-3182.885551,-306.438199
3306.411636,-10510.924376,-2368.659014,306.438199
3306.411973,-9548.656652,296.082377,1685.410096
3306.412310,-9474.636058,1480.411884,2145.067394
3306.412648,-10881.027347,814.226536,153.219100
3306.412985,-11473.192101,296.082377,-1608.800546
3306.413322,-10807.006753,148.041188,-383.047749
3306.413660,-8512.368333,1776.494261,766.095498
3306.413997,-9030.512492,1628.453072,1838.629195
3306.414334,-10732.986159,296.082377,766.095498
3306.414672,-10140.821405,-1258.350101,0.000000
3306.415009,-9770.718434,444.123565,536.266849
3306.415346,-9030.512492,1776.494261,995.924147
3306.415684,-9548.656652,1776.494261,0.000000
3306.416021,-11177.109724,-148.041188,-995.924147
3306.416358,-10362.883188,-962.267725,-689.485948
3306.416696,-7846.182985,1554.432478,153.219100
3306.417033,-7846.182985,222.061783,1608.800546
3306.417370,-10362.883188,74.020594,1378.971896
3306.417708,-11621.233289,-2368.659014,306.438199
3306.418045,-10510.924376,-1036.288319,1072.533697
3306.418382,-8290.306550,592.164754,1991.848295
3306.418720,-9770.718434,1332.370696,2528.115143
3306.419057,-11251.130318,74.020594,0.000000
3306.419394,-10658.965565,-1628.453072,-1302.362347
3306.419732,-8660.409521,-740.205942,76.609550
3306.420069,-8364.327145,0.000000,1532.190996
3306.420406,-10584.944971,0.000000,1685.410096
3306.420744,-11621.233289,-2294.638420,-76.609550
3306.421081,-10881.027347,-3256.906145,-229.828649
3306.421418,-9622.677246,-814.226536,0.000000
3306.421756,-10066.800811,0.000000,76.609550
3306.422093,-11325.150913,-666.185348,-1532.190996
3306.422430,-11547.212695,-3182.885551,-3217.601092
3306.422768,-9770.718434,-2812.782580,-2451.505594
3306.423105,-8660.409521,-2368.659014,-459.657299
3306.423442,-9104.533087,-1776.494261,1302.362347
3306.423780,-10881.027347,-3552.988522,306.438199
3306.424117,-11251.130318,-4441.235652,0.000000
3306.424454,-10140.821405,-2146.597232,1072.533697
3306.424792,-9400.615463,-370.102971,2451.505594
3306.425129,-10288.862594,592.164754,2145.067394
3306.425466,-10658.965565,-296.082377,383.047749
3306.425804,-10066.800811,-1036.288319,459.657299
3306.426141,-8364.327145,1332.370696,1072.533697
3306.426478,-8364.327145,1184.329507,2298.286494
3306.426816,-10140.821405,1480.411884,1915.238745
3306.427153,-10955.047942,-814.226536,76.609550
3306.427491,-9622.677246,1036.288319,229.828649
3306.427828,-8512.368333,2812.782580,919.314598
3306.428165,-9474.636058,3034.844362,995.924147
3306.428503,-11399.171507,1628.453072,-1915.238745
3306.428840,-10584.944971,0.000000,-1991.848295
3306.429177,-8882.471304,1850.514855,-1149.143247
3306.429515,-8142.265362,1184.329507,536.266849
3306.429852,-10362.883188,592.164754,1378.971896
3306.430189,-11547.212695,-2368.659014,-1225.752797
3306.430527,-10881.027347,-2368.659014,0.000000
3306.430864,-9474.636058,0.000000,1608.800546
3306.431201,-8734.430116,148.041188,766.095498
3306.431539,-10658.965565,148.041188,0.000000
3306.431876,-11843.295072,-1850.514855,-1225.752797
3306.432213,-10436.903782,-148.041188,-766.095498
3306.432551,-8882.471304,296.082377,459.657299
3306.432888,-10362.883188,296.082377,2451.505594
3306.433225,-11621.233289,-2368.659014,1455.581446
3306.433563,-11325.150913,-2960.823768,689.485948
3306.433900,-9252.574275,-1184.329507,1762.019645
3306.434237,-8586.388927,1110.308913,2145.067394
3306.434575,-10732.986159,1406.391290,76.609550
3306.434912,-12435.459826,-888.247130,-2834.553343
3306.435249,-10510.924376,-1480.411884,-2298.286494
3306.435587,-8068.244768,-296.082377,-306.438199
3306.435924,-7994.224174,-222.061783,1302.362347
3306.436261,-10436.903782,-666.185348,76.609550
3306.436599,-11399.171507,-2442.679609,-1072.533697
3306.436936,-10955.047942,-1480.411884,-76.609550
3306.437273,-8882.471304,592.164754,919.314598
3306.437611,-10214.842000,1258.350101,1685.410096
3306.437948,-11917.315666,0.000000,-459.657299
3306.438285,-10288.862594,-1258.350101,-1838.629195
3306.438623,-8586.388927,74.020594,0.000000
3306.438960,-7920.203579,740.205942,2068.457845
3306.439297,-10066.800811,666.185348,2681.334243
3306.439635,-11251.130318,-370.102971,1149.143247
3306.439972,-10955.047942,-518.144159,1838.629195
3306.440309,-9030.512492,2516.700203,1762.019645
3306.440647,-9104.533087,3552.988522,2145.067394
3306.440984,-11621.233289,2368.659014,-153.219100
3306.441321,-11103.089130,148.041188,-2451.505594
3306.441659,-9548.656652,1480.411884,-1455.581446
3306.441996,-7994.224174,1110.308913,0.000000
3306.442333,-8808.450710,222.061783,0.000000
3306.442671,-10584.944971,-2590.720797,-919.314598
3306.443008,-10362.883188,-3182.885551,-689.485948
3306.443345,-9252.574275,-1480.411884,76.609550
3306.443683,-8438.347739,-740.205942,842.705048
3306.444020,-10066.800811,-148.041188,-689.485948
3306.444357,-12139.377449,-3182.885551,-1762.019645
3306.444695,-10955.047942,-2590.720797,-1762.019645
3306.445032,-7476.080014,-1628.453072,-919.314598
3306.445369,-8660.409521,-1258.350101,766.095498
3306.445707,-11325.150913,-2812.782580,76.609550
3306.446044,-11843.295072,-5107.421000,306.438199
3306.446381,-10584.944971,-3256.906145,2374.896044
3306.446719,-9252.574275,-740.205942,3217.601092
3306.447056,-10881.027347,888.247130,1915.238745
3306.447393,-12361.439231,-148.041188,-842.705048
3306.447731,-11473.192101,-1406.391290,-919.314598
3306.448068,-8808.450710,-222.061783,1072.533697
3306.448405,-7846.182985,814.226536,3370.820191
3306.448743,-10214.842000,740.205942,2834.553343
3306.449080,-11769.274478,-1776.494261,536.266849
3306.449417,-11399.171507,-1480.411884,459.657299
3306.449755,-8586.388927,962.267725,919.314598
3306.450092,-8586.388927,2738.761985,995.924147
3306.450429,-11103.089130,2072.576638,-1608.800546
3306.450767,-10881.027347,-666.185348,-4136.915689
3306.451104,-8586.388927,296.082377,-2451.505594
3306.451441,-6735.874072,1332.370696,0.000000
3306.451779,-8438.347739,962.267725,1762.019645
3306.452116,-10955.047942,-962.267725,536.266849
3306.452453,-11325.150913,-1850.514855,612.876398
3306.452791,-9030.512492,222.061783,1991.848295
3306.453128,-8586.388927,2220.617826,2757.943793
3306.453465,-11399.171507,1776.494261,1915.238745
3306.453803,-12361.439231,-666.185348,-153.219100
3306.454140,-9474.636058,0.000000,-536.266849
3306.454477,-7254.018232,1110.308913,0.000000
3306.454815,-7920.203579,1110.308913,1762.019645
3306.455152,-10510.924376,-592.164754,383.047749
3306.455489,-11621.233289,-2442.679609,0.000000
3306.455827,-10288.862594,222.061783,0.000000
3306.456164,-9992.780217,1702.473667,536.266849
3306.456501,-11029.068536,2146.597232,0.000000
3306.456839,-11695.253884,-666.185348,-3217.601092
3306.457176,-11399.171507,-1776.494261,-2374.896044
3306.457514,-8216.285956,-666.185348,-1685.410096
3306.457851,-7476.080014,-962.267725,612.876398
3306.458188,-10584.944971,-2220.617826,612.876398
3306.458526,-12361.439231,-4737.318029,-612.876398
3306.458863,-10807.006753,-3034.844362,76.609550
3306.459200,-9474.636058,-888.247130,1838.629195
3306.459538,-9918.759623,740.205942,2374.896044
3306.459875,-11695.253884,-370.102971,-536.266849
3306.460212,-11103.089130,-1702.473667,-1455.581446
3306.460550,-8734.430116,-814.226536,919.314598
3306.460887,-8364.327145,148.041188,3447.429741
3306.461224,-9844.739029,1184.329507,3830.477490
3306.461562,-11621.233289,-888.247130,1838.629195
3306.461899,-10510.924376,-1184.329507,1532.190996
3306.462236,-8882.471304,1998.556043,2911.162892
3306.462574,-8660.409521,3849.070898,2834.553343
3306.462911,-10807.006753,3256.906145,0.000000
3306.463248,-11399.171507,148.041188,-2451.505594
3306.463586,-9770.718434,962.267725,-1991.848295
3306.463923,-6957.935855,2368.659014,-229.828649
3306.464260,-7772.162391,1776.494261,1762.019645
3306.464598,-11029.068536,-296.082377,-536.266849
3306.464935,-10732.986159,-2368.659014,-1532.190996
3306.465272,-10140.821405,-592.164754,306.438199
3306.465610,-9400.615463,1036.288319,1149.143247
3306.465947,-10955.047942,962.267725,459.657299
3306.466284,-13027.624579,-1036.288319,-1838.629195
3306.466621,-10807.006753,-2072.576638,-1378.971896
3306.466959,-7254.018232,-962.267725,689.485948
3306.467296,-8068.244768,-740.205942,3217.601092
3306.467633,-11473.192101,-2072.576638,1915.238745
3306.467970,-11843.295072,-4515.256246,459.657299
3306.468308,-10807.006753,-2812.782580,1378.971896
3306.468645,-8956.491898,-888.247130,2068.457845
3306.468982,-9622.677246,370.102971,1532.190996
3306.469319,-10436.903782,-1036.288319,-1608.800546
3306.469657,-9844.739029,-2294.638420,-2757.943793
3306.469994,-9400.615463,-1036.288319,-995.924147
3306.470331,-8068.244768,0.000000,612.876398
3306.470668,-9844.739029,-1258.350101,995.924147
3306.471005,-11251.130318,-3034.844362,-536.266849
3306.471343,-10362.883188,-2590.720797,-229.828649
3306.471680,-9474.636058,-962.267725,1302.362347
3306.472017,-9252.574275,74.020594,1455.581446
3306.472354,-11843.295072,-148.041188,-766.095498
3306.472692,-12509.480420,-1332.370696,-2068.457845
3306.473029,-9844.739029,518.144159,-2604.724693
3306.473366,-9178.553681,518.144159,612.876398
3306.473703,-9104.533087,370.102971,1608.800546
3306.474041,-10732.986159,-888.247130,536.266849
3306.474378,-11399.171507,-2368.659014,1685.410096
3306.474715,-9474.636058,74.020594,2681.334243
3306.475052,-9400.615463,1554.432478,4366.744339
3306.475389,-11621.233289,3552.988522,2451.505594
3306.475727,-11621.233289,1998.556043,-689.485948
3306.476064,-10362.883188,1628.453072,-919.314598
3306.476401,-7698.141797,2516.700203,0.000000
3306.476738,-7031.956449,3034.844362,1149.143247
3306.477076,-10436.903782,1406.391290,459.657299
3306.477413,-11103.089130,-814.226536,-1072.533697
3306.477750,-9622.677246,0.000000,0.000000
3306.478087,-8660.409521,1258.350101,919.314598
3306.478424,-9178.553681,1702.473667,842.705048
3306.478762,-10881.027347,74.020594,-2221.676944
3306.479099,-10732.986159,-1406.391290,-2451.505594
3306.479436,-8660.409521,-296.082377,-1225.752797
3306.479773,-8808.450710,148.041188,1302.362347
3306.480111,-11177.109724,-296.082377,612.876398
3306.480448,-11399.171507,-2590.720797,-1455.581446
3306.480785,-10732.986159,-2442.679609,-306.438199
3306.481122,-9474.636058,-814.226536,1225.752797
3306.481460,-9918.759623,0.000000,1915.238745
3306.481797,-11325.150913,-370.102971,536.266849
3306.482134,-11843.295072,-1110.308913,-383.047749
3306.482471,-10288.862594,0.000000,536.266849
3306.482808,-9252.574275,1258.350101,1685.410096
3306.483146,-10362.883188,740.205942,2834.553343
3306.483483,-11695.253884,-814.226536,1608.800546
3306.483820,-10732.986159,-1850.514855,1302.362347
3306.484157,-9992.780217,1110.308913,2451.505594
3306.484495,-10288.862594,1554.432478,2145.067394
3306.484832,-10807.006753,1998.556043,0.000000
3306.485169,-11177.109724,-370.102971,-2145.067394
3306.485506,-9104.533087,592.164754,-2374.896044
3306.485843,-6883.915261,666.185348,-1915.238745
3306.486181,-7920.203579,148.041188,0.000000
3306.486518,-9400.615463,-1332.370696,-229.828649
3306.486855,-9770.718434,-2220.617826,153.219100
3306.487192,-9622.677246,-1110.308913,1608.800546
3306.487530,-8512.368333,0.000000,2298.286494
3306.487867,-10436.903782,666.185348,2145.067394
3306.488204,-11769.274478,-740.205942,0.000000
3306.488541,-10510.924376,-888.247130,76.609550
3306.488879,-9326.594869,222.061783,1378.971896
3306.489216,-9030.512492,444.123565,995.924147
3306.489553,-10732.986159,888.247130,612.876398
3306.489890,-11547.212695,-1628.453072,-229.828649
3306.490227,-10214.842000,-1850.514855,383.047749
3306.490565,-8586.388927,-962.267725,1685.410096
3306.490902,-9844.739029,1110.308913,2374.896044
3306.491239,-12435.459826,444.123565,-306.438199
3306.491576,-12435.459826,-444.123565,-2374.896044
3306.491914,-9992.780217,-666.185348,-1455.581446
3306.492251,-8290.306550,0.000000,229.828649
3306.492588,-9326.594869,-1110.308913,766.095498
3306.492925,-10436.903782,-2516.700203,-1225.752797
3306.493263,-10362.883188,-4737.318029,-612.876398
3306.493600,-9696.697840,-2738.761985,0.000000
3306.493937,-9474.636058,-1628.453072,153.219100
3306.494274,-10881.027347,-814.226536,-536.266849
3306.494611,-10658.965565,-2516.700203,-1685.410096
3306.494949,-9474.636058,-1924.535449,-1149.143247
3306.495286,-7550.100608,-74.020594,0.000000
3306.495623,-8734.430116,-222.061783,2145.067394
3306.495960,-11769.274478,-1776.494261,2145.067394
3306.496298,-11399.171507,-2368.659014,1762.019645
3306.496635,-10214.842000,74.020594,2987.772442
3306.496972,-9474.636058,1036.288319,4060.306139
3306.497309,-10436.903782,2664.741391,3064.381992
3306.497646,-11769.274478,1258.350101,0.000000
3306.497984,-11399.171507,1554.432478,-612.876398
3306.498321,-9104.533087,3182.885551,0.000000
3306.498658,-8956.491898,3256.906145,459.657299
3306.498995,-9918.759623,2368.659014,-1072.533697
3306.499333,-10288.862594,0.000000,-1302.362347
3306.499670,-9400.615463,370.102971,0.000000
3306.500007,-8290.306550,1332.370696,1149.143247
3306.500344,-9696.697840,1406.391290,995.924147
3306.500682,-11695.253884,888.247130,-1608.800546
3306.501019,-11251.130318,-518.144159,-2834.553343
3306.501356,-9474.636058,740.205942,-1149.143247
3306.501693,-7772.162391,370.102971,306.438199
3306.502030,-8290.306550,0.000000,919.314598
3306.502368,-10584.944971,-1554.432478,-1608.800546
3306.502705,-10584.944971,-2072.576638,-766.095498
3306.503042,-10288.862594,-666.185348,1072.533697
3306.503379,-9474.636058,222.061783,2145.067394
3306.503717,-11103.089130,592.164754,842.705048
3306.504054,-11473.192101,-888.247130,-1072.533697
3306.504391,-10066.800811,-148.041188,153.219100
3306.504728,-8660.409521,444.123565,842.705048
3306.505065,-9844.739029,296.082377,1149.143247
3306.505403,-11325.150913,-370.102971,-459.657299
3306.505740,-11399.171507,-2368.659014,-459.657299
3306.506077,-10362.883188,-296.082377,459.657299
3306.506414,-8808.450710,518.144159,612.876398
3306.506752,-9844.739029,666.185348,-383.047749
3306.507089,-11547.212695,-888.247130,-2757.943793
3306.507426,-10732.986159,-1258.350101,-1915.238745
3306.507763,-8956.491898,-296.082377,-306.438199
3306.508101,-8586.388927,0.000000,689.485948
3306.508438,-10658.965565,222.061783,229.828649
3306.508775,-11843.295072,-2072.576638,536.266849
3306.509112,-10066.800811,-1924.535449,1378.971896
3306.509449,-8586.388927,0.000000,3064.381992
3306.509787,-9474.636058,1184.329507,3600.648841
3306.510124,-11473.192101,296.082377,919.314598
3306.510461,-11177.109724,-666.185348,306.438199
3306.510798,-9326.594869,1332.370696,995.924147
3306.511136,-7476.080014,1702.473667,1685.410096
3306.511473,-8734.430116,1480.411884,1302.362347
3306.511810,-10510.924376,-518.144159,383.047749
3306.512147,-10436.903782,-962.267725,229.828649
3306.512484,-8956.491898,962.267725,1225.752797
3306.512822,-9178.553681,1702.473667,1838.629195
3306.513159,-10807.006753,666.185348,-383.047749
3306.513496,-11325.150913,-1184.329507,-2604.724693
3306.513833,-9844.739029,-1258.350101,-1302.362347
3306.514171,-7846.182985,-148.041188,76.609550
3306.514508,-8068.244768,-740.205942,0.000000
3306.514845,-11103.089130,-2886.803174,-1532.190996
3306.515182,-10881.027347,-4293.194464,-1149.143247
3306.515520,-10658.965565,-2442.679609,536.266849
3306.515857,-9622.677246,-1776.494261,1762.019645
3306.516194,-10658.965565,-962.267725,689.485948
3306.516531,-12583.501014,-2442.679609,-995.924147
3306.516868,-11547.212695,-2960.823768,-766.095498
3306.517206,-8586.388927,-1036.288319,306.438199
3306.517543,-8734.430116,-592.164754,2145.067394
3306.517880,-11251.130318,-1184.329507,1762.019645
3306.518217,-11399.171507,-2368.659014,229.828649
3306.518555,-10732.986159,-1776.494261,1378.971896
3306.518892,-8956.491898,592.164754,1838.629195
3306.519229,-9696.697840,1702.473667,1378.971896
3306.519566,-11917.315666,1776.494261,-1072.533697
3306.519904,-11473.192101,-370.102971,-2451.505594
3306.520241,-8290.306550,1258.350101,-1762.019645
3306.520578,-7550.100608,1998.556043,842.705048
3306.520915,-10140.821405,1184.329507,1455.581446
3306.521252,-11251.130318,-444.123565,-919.314598
3306.521590,-10732.986159,-1110.308913,-995.924147
3306.521927,-8216.285956,0.000000,1149.143247
3306.522264,-7920.203579,1850.514855,1838.629195
3306.522601,-11029.068536,1332.370696,766.095498
3306.522939,-10955.047942,222.061783,-1608.800546
3306.523276,-9252.574275,444.123565,-229.828649
3306.523613,-8290.306550,1998.556043,1532.190996
3306.523950,-8956.491898,2368.659014,919.314598
3306.524287,-11621.233289,0.000000,689.485948
3306.524625,-11177.109724,-1702.473667,919.314598
3306.524962,-8808.450710,148.041188,1455.581446
3306.525299,-8882.471304,2220.617826,2757.943793
3306.525636,-11621.233289,2294.638420,1608.800546
3306.525974,-12213.398043,-518.144159,-1762.019645
3306.526311,-10362.883188,-962.267725,-1762.019645
3306.526648,-7846.182985,1110.308913,0.000000
3306.526985,-7846.182985,740.205942,536.266849
3306.527323,-10510.924376,-1406.391290,-306.438199
3306.527660,-10732.986159,-3478.967927,-1838.629195
3306.527997,-9474.636058,-2738.761985,0.000000
3306.528334,-9030.512492,-444.123565,1455.581446
3306.528671,-10584.944971,-592.164754,612.876398
3306.529009,-12361.439231,-1998.556043,-2145.067394
3306.529346,-12065.356855,-3108.864956,-1685.410096
3306.529683,-9622.677246,-1776.494261,0.000000
3306.530020,-8216.285956,-518.144159,1532.190996
3306.530358,-10584.944971,-1110.308913,766.095498
3306.530695,-12509.480420,-2886.803174,-229.828649
3306.531032,-10881.027347,-2516.700203,919.314598
3306.531369,-9252.574275,74.020594,2834.553343
3306.531706,-9770.718434,1554.432478,2911.162892
3306.532044,-11695.253884,1184.329507,612.876398
3306.532381,-12213.398043,0.000000,-689.485948
3306.532718,-9474.636058,370.102971,383.047749
3306.533055,-6809.894666,2220.617826,919.314598
3306.533393,-8364.327145,1554.432478,1302.362347
3306.533730,-11251.130318,592.164754,-842.705048
3306.534067,-10066.800811,-1184.329507,-2145.067394
3306.534404,-8068.244768,0.000000,-76.609550
3306.534742,-7179.997637,1332.370696,1149.143247
3306.535079,-9474.636058,1628.453072,-383.047749
3306.535416,-11473.192101,-592.164754,-2298.286494
3306.535753,-9844.739029,-1554.432478,-2604.724693
3306.536090,-7254.018232,-296.082377,-383.047749
3306.536428,-8216.285956,-148.041188,1072.533697
3306.536765,-10955.047942,-1702.473667,153.219100
3306.537102,-11991.336260,-3701.029710,-919.314598
3306.537439,-9918.759623,-2516.700203,0.000000
3306.537777,-8290.306550,-666.185348,1225.752797
3306.538114,-10436.903782,-296.082377,1762.019645
3306.538451,-12731.542202,-1776.494261,0.000000
3306.538788,-11695.253884,-2664.741391,-766.095498
3306.539126,-9918.759623,-814.226536,1532.190996
3306.539463,-8808.450710,1110.308913,2757.943793
3306.539800,-11251.130318,0.000000,1762.019645
3306.540137,-12657.521608,-2442.679609,-306.438199
3306.540474,-10881.027347,-2442.679609,0.000000
3306.540812,-8956.491898,222.061783,1762.019645
3306.541149,-9844.739029,1036.288319,1455.581446
3306.541486,-11547.212695,-74.020594,-766.095498
3306.541823,-11473.192101,-1776.494261,-2374.896044
3306.542161,-8956.491898,-740.205942,-1149.143247
3306.542498,-7105.977043,518.144159,612.876398
3306.542835,-8364.327145,0.000000,766.095498
3306.543172,-10955.047942,-2072.576638,-383.047749
3306.543509,-10732.986159,-2590.720797,-383.047749
3306.543847,-8808.450710,0.000000,689.485948
3306.544184,-8364.327145,1702.473667,2221.676944
3306.544521,-10436.903782,1184.329507,919.314598
3306.544858,-11399.171507,74.020594,-1225.752797
3306.545196,-9770.718434,444.123565,-229.828649
3306.545533,-7994.224174,2442.679609,2298.286494
3306.545870,-9030.512492,1776.494261,3140.991542
3306.546207,-11843.295072,1184.329507,1762.019645
3306.546545,-11769.274478,0.000000,306.438199
3306.546882,-9326.594869,1258.350101,1991.848295
3306.547219,-8512.368333,3478.967927,3370.820191
3306.547556,-10510.924376,3478.967927,1149.143247
3306.547893,-12953.603985,2590.720797,-2145.067394
3306.548231,-11325.150913,888.247130,-3907.087040
3306.548568,-8068.244768,814.226536,-2681.334243
3306.548905,-7550.100608,1480.411884,-459.657299
3306.549242,-9696.697840,-296.082377,-306.438199
3306.549580,-10881.027347,-2368.659014,-1991.848295
3306.549917,-9844.739029,-3330.926739,-1685.410096
3306.550254,-8660.409521,0.000000,0.000000
3306.550591,-10066.800811,-740.205942,842.705048
3306.550928,-12657.521608,-1628.453072,-995.924147
3306.551266,-11621.233289,-3701.029710,-1378.971896
3306.551603,-8808.450710,-3256.906145,153.219100
3306.551940,-7476.080014,-2072.576638,2834.553343
3306.552277,-10214.842000,-2072.576638,2681.334243
3306.552615,-12361.439231,-3404.947333,76.609550
3306.552952,-11547.212695,-2738.761985,-536.266849
3306.553289,-9844.739029,-1480.411884,2068.457845
3306.553626,-8734.430116,888.247130,1378.971896
3306.553964,-10658.965565,444.123565,-766.095498
3306.554301,-11399.171507,-1480.411884,-1455.581446
3306.554638,-9252.574275,-1184.329507,0.000000
3306.554975,-8660.409521,888.247130,2145.067394
3306.555312,-10066.800811,1184.329507,2757.943793
3306.555650,-11399.171507,0.000000,76.609550
3306.555987,-11917.315666,-1776.494261,-76.609550
3306.556324,-9844.739029,-814.226536,1149.143247
3306.556661,-8142.265362,1628.453072,1225.752797
3306.556999,-9696.697840,148.041188,76.609550
3306.557336,-10732.986159,-814.226536,-2298.286494
3306.557673,-9400.615463,-1850.514855,-1762.019645
3306.558010,-8216.285956,0.000000,689.485948
3306.558347,-7994.224174,1036.288319,1991.848295
3306.558685,-10436.903782,0.000000,919.314598
3306.559022,-11843.295072,-1406.391290,612.876398
3306.559359,-9696.697840,-1184.329507,995.924147
3306.559696,-7994.224174,1258.350101,2757.943793
3306.560034,-10288.862594,888.247130,3140.991542
3306.560371,-12065.356855,518.144159,76.609550
3306.560708,-11547.212695,-1110.308913,-995.924147
3306.561045,-9474.636058,-370.102971,153.219100
3306.561383,-7624.121203,444.123565,1608.800546
3306.561720,-9474.636058,-444.123565,459.657299
3306.562057,-11177.109724,-962.267725,-1302.362347
3306.562394,-10658.965565,-2664.741391,-1608.800546
3306.562731,-9474.636058,-148.041188,-536.266849
3306.563069,-9326.594869,518.144159,-459.657299
3306.563406,-11473.192101,74.020594,-1762.019645
3306.563743,-11547.212695,-2146.597232,-3524.039291
3306.564080,-9844.739029,-2072.576638,-2681.334243
3306.564418,-8586.388927,-1702.473667,0.000000
3306.564755,-9252.574275,-2146.597232,612.876398
3306.565092,-11769.274478,-3256.906145,459.657299
3306.565429,-12287.418637,-2960.823768,-306.438199
3306.565766,-9844.739029,-1998.556043,1072.533697
3306.566103,-9474.636058,592.164754,1762.019645
3306.566441,-10658.965565,444.123565,919.314598
3306.566778,-11769.274478,0.000000,-766.095498
3306.567115,-10881.027347,-666.185348,0.000000
3306.567452,-8290.306550,1184.329507,1608.800546
3306.567789,-8660.409521,2664.741391,2528.115143
3306.568126,-11251.130318,1480.411884,1378.971896
3306.568464,-11177.109724,222.061783,-459.657299
3306.568801,-9548.656652,1110.308913,766.095498
3306.569138,-8290.306550,3330.926739,2451.505594
3306.569475,-9696.697840,3701.029710,919.314598
3306.569812,-11251.130318,2442.679609,-1455.581446
3306.570149,-10214.842000,1110.308913,-2987.772442
3306.570487,-8290.306550,2294.638420,-766.095498
3306.570824,-7624.121203,3256.906145,612.876398
3306.571161,-9844.739029,888.247130,76.609550
3306.571498,-10436.903782,-814.226536,-1225.752797
3306.571835,-9992.780217,-2146.597232,-383.047749
3306.572172,-9178.553681,814.226536,1225.752797
3306.572510,-9030.512492,666.185348,995.924147
3306.572847,-11103.089130,296.082377,-536.266849
3306.573184,-11103.089130,-2146.597232,-995.924147
3306.573521,-9622.677246,-1258.350101,-76.609550
3306.573858,-8364.327145,-370.102971,2757.943793
3306.574195,-10066.800811,-962.267725,2757.943793
3306.574533,-11399.171507,-1776.494261,536.266849
3306.574870,-11251.130318,-2442.679609,306.438199
3306.575207,-9770.718434,-1036.288319,2681.334243
3306.575544,-9326.594869,370.102971,2604.724693
3306.575881,-10436.903782,296.082377,0.000000
3306.576218,-11917.315666,-666.185348,-2298.286494
3306.576556,-10881.027347,-1924.535449,-2068.457845
3306.576893,-9030.512492,-1480.411884,306.438199
3306.577230,-8586.388927,-1110.308913,689.485948
3306.577567,-10436.903782,-2146.597232,153.219100
3306.577904,-11177.109724,-3849.070898,-919.314598
3306.578241,-10214.842000,-3330.926739,0.000000
3306.578579,-9252.574275,-1480.411884,842.705048
3306.578916,-9992.780217,-592.164754,459.657299
3306.579253,-11325.150913,-1184.329507,-1225.752797
3306.579590,-10732.986159,-2220.617826,-2068.457845
3306.579927,-8364.327145,-1702.473667,-459.657299
3306.580264,-7772.162391,-592.164754,1838.629195
3306.580602,-9548.656652,-740.205942,2528.115143
3306.580939,-11399.171507,-1406.391290,919.314598
3306.581276,-11177.109724,-1406.391290,1838.629195
3306.581613,-9474.636058,740.205942,2987.772442
3306.581950,-9400.615463,2960.823768,2911.162892
3306.582287,-11177.109724,2812.782580,536.266849
3306.582625,-11029.068536,1480.411884,-1378.971896
3306.582962,-9918.759623,962.267725,-1072.533697
3306.583299,-8438.347739,2664.741391,0.000000
3306.583636,-9252.574275,888.247130,0.000000
3306.583973,-11177.109724,-444.123565,0.000000
3306.584310,-10288.862594,-2664.741391,-383.047749
3306.584648,-8586.388927,-518.144159,459.657299
3306.584985,-8512.368333,592.164754,766.095498
3306.585322,-10807.006753,444.123565,-1608.800546
3306.585659,-11695.253884,-1184.329507,-3294.210641
3306.585996,-10214.842000,-2664.741391,-2298.286494
3306.586333,-7550.100608,-740.205942,536.266849
3306.586671,-8586.388927,-740.205942,1838.629195
3306.587008,-11547.212695,-1850.514855,153.219100
3306.587345,-12065.356855,-3701.029710,-689.485948
3306.587682,-10881.027347,-2516.700203,842.705048
3306.588019,-9548.656652,222.061783,2451.505594
3306.588356,-10436.903782,444.123565,1838.629195
3306.588694,-12287.418637,-148.041188,0.000000
3306.589031,-10807.006753,-962.267725,-1608.800546
3306.589368,-8142.265362,222.061783,1072.533697
3306.589705,-8438.347739,370.102971,3370.820191
3306.590042,-10362.883188,148.041188,2681.334243
3306.590379,-11769.274478,0.000000,689.485948
3306.590717,-11325.150913,-370.102971,612.876398
3306.591054,-9474.636058,1184.329507,1685.410096
3306.591391,-9030.512492,2368.659014,919.314598
3306.591728,-11473.192101,2072.576638,-919.314598
3306.592065,-11769.274478,592.164754,-2681.334243
3306.592402,-8438.347739,296.082377,-2757.943793
3306.592740,-7179.997637,1628.453072,76.609550
3306.593077,-8586.388927,814.226536,1225.752797
3306.593414,-11325.150913,0.000000,153.219100
3306.593751,-11177.109724,-1258.350101,-383.047749
3306.594088,-9178.553681,1036.288319,1838.629195
3306.594426,-8734.430116,2664.741391,2451.505594
3306.594763,-10881.027347,1924.535449,383.047749
3306.595100,-11251.130318,1110.308913,-995.924147
3306.595437,-9992.780217,-370.102971,-612.876398
3306.595774,-7624.121203,1258.350101,1302.362347
3306.596111,-7846.182985,2294.638420,1685.410096
3306.596449,-10658.965565,740.205942,689.485948
3306.596786,-11843.295072,-1850.514855,-689.485948
3306.597123,-10362.883188,-1036.288319,-229.828649
3306.597460,-8660.409521,1628.453072,1072.533697
3306.597797,-10214.842000,1332.370696,0.000000
3306.598134,-11473.192101,0.000000,-2374.896044
3306.598472,-11029.068536,-2294.638420,-2757.943793
3306.598809,-9252.574275,-666.185348,-153.219100
3306.599146,-8142.265362,-962.267725,612.876398
3306.599483,-11251.130318,-1702.473667,-76.609550
3306.599820,-12583.501014,-4589.276840,-919.314598
3306.600157,-11325.150913,-4737.318029,-612.876398
3306.600495,-8882.471304,-1554.432478,1762.019645
3306.600832,-9548.656652,-888.247130,1915.238745
3306.601169,-11843.295072,-1480.411884,-1608.800546
3306.601506,-11251.130318,-3034.844362,-2451.505594
3306.601843,-8956.491898,-2516.700203,-459.657299
3306.602180,-6809.894666,-370.102971,2068.457845
3306.602518,-9770.718434,-962.267725,3140.991542
3306.602855,-11843.295072,-1480.411884,1302.362347
3306.603192,-10584.944971,-2738.761985,919.314598
3306.603529,-9696.697840,0.000000,3753.867940
3306.603866,-9474.636058,2220.617826,3830.477490
3306.604203,-10881.027347,2294.638420,1378.971896
3306.604541,-11917.315666,1110.308913,-2145.067394
3306.604878,-9548.656652,-518.144159,-2451.505594
3306.605215,-6661.853478,1258.350101,153.219100
3306.605552,-7105.977043,1406.391290,995.924147
3306.605889,-10214.842000,222.061783,-1149.143247
3306.606226,-12139.377449,-1258.350101,-1532.190996
3306.606564,-10066.800811,-666.185348,0.000000
3306.606901,-8216.285956,1184.329507,1838.629195
3306.607238,-10140.821405,1480.411884,1378.971896
3306.607575,-12287.418637,666.185348,-1455.581446
3306.607912,-11399.171507,-1554.432478,-2681.334243
3306.608249,-8142.265362,-444.123565,0.000000
3306.608587,-7105.977043,-296.082377,2757.943793
3306.608924,-10510.924376,-518.144159,2681.334243
3306.609261,-12139.377449,-2146.597232,995.924147
3306.609598,-11325.150913,-2146.597232,1072.533697
3306.609935,-9474.636058,444.123565,2451.505594
3306.610272,-9844.739029,1406.391290,2068.457845
3306.610610,-12213.398043,518.144159,-766.095498
3306.610947,-11325.150913,-1184.329507,-2374.896044
3306.611284,-8364.327145,-592.164754,-1302.362347
3306.611621,-7402.059420,888.247130,1685.410096
3306.611958,-9252.574275,148.041188,919.314598
3306.612295,-11917.315666,-1480.411884,-1532.190996
3306.612633,-11991.336260,-3330.926739,-919.314598
3306.612970,-8882.471304,-296.082377,383.047749
3306.613307,-8364.327145,814.226536,1149.143247
3306.613644,-10881.027347,222.061783,-383.047749
3306.613981,-11769.274478,-1702.473667,-3064.381992
3306.614318,-9474.636058,-1776.494261,-1915.238745
3306.614656,-7328.038826,518.144159,842.705048
3306.614993,-8660.409521,1110.308913,2221.676944
3306.615330,-12139.377449,-740.205942,1149.143247
3306.615667,-12435.459826,-2220.617826,-306.438199
3306.616004,-9770.718434,-666.185348,1838.629195
3306.616341,-8734.430116,1998.556043,4060.306139
3306.616679,-10214.842000,2886.803174,2604.724693
3306.617016,-12065.356855,1184.329507,-689.485948
3306.617353,-10732.986159,1480.411884,-1455.581446
3306.617690,-8364.327145,3478.967927,0.000000
3306.618027,-8586.388927,4071.132681,1608.800546
3306.618364,-10955.047942,2368.659014,229.828649
3306.618702,-11325.150913,0.000000,-2221.676944
3306.619039,-9770.718434,0.000000,-766.095498
3306.619376,-8142.265362,1850.514855,2298.286494
3306.619713,-9104.533087,1480.411884,1302.362347
3306.620050,-11621.233289,814.226536,-1915.238745
3306.620387,-10955.047942,-592.164754,-3524.039291
3306.620725,-8660.409521,-296.082377,-1762.019645
3306.621062,-6735.874072,-370.102971,383.047749
3306.621399,-9548.656652,-1258.350101,1072.533697
3306.621736,-11991.336260,-3034.844362,-766.095498
3306.622073,-11399.171507,-3627.009116,-1072.533697
3306.622410,-8956.491898,-1776.494261,1532.190996
3306.622748,-8734.430116,-518.144159,2374.896044
3306.623085,-11177.109724,-962.267725,919.314598
3306.623422,-11917.315666,-2590.720797,-1072.533697
3306.623759,-10214.842000,-2516.700203,-766.095498
3306.624096,-8142.265362,-740.205942,2145.067394
3306.624433,-9844.739029,-962.267725,3830.477490
3306.624771,-11769.274478,-1480.411884,1072.533697
3306.625108,-12139.377449,-3034.844362,76.609550
3306.625445,-9918.759623,-1554.432478,1225.752797
3306.625782,-8216.285956,74.020594,2451.505594
3306.626119,-11251.130318,666.185348,1762.019645
3306.626456,-12287.418637,-962.267725,-1991.848295
3306.626794,-10510.924376,-1628.453072,-2757.943793
3306.627131,-8216.285956,444.123565,0.000000
3306.627468,-7624.121203,370.102971,383.047749
3306.627805,-10584.944971,0.000000,-383.047749
3306.628142,-11399.171507,-3182.885551,-1378.971896
3306.628479,-9770.718434,-2664.741391,0.000000
3306.628817,-7920.203579,666.185348,2374.896044
3306.629154,-9400.615463,962.267725,2221.676944
3306.629491,-11547.212695,222.061783,-306.438199
3306.629828,-10881.027347,-1184.329507,-1685.410096
3306.630165,-8734.430116,1110.308913,-229.828649
3306.630502,-7994.224174,1628.453072,2451.505594
3306.630840,-9992.780217,1184.329507,2604.724693
3306.631177,-11843.295072,-296.082377,-536.266849
3306.631514,-10807.006753,-962.267725,-383.047749
3306.631851,-7994.224174,888.247130,1378.971896
3306.632188,-8586.388927,1628.453072,1991.848295
3306.632526,-10732.986159,740.205942,-383.047749
3306.632863,-10807.006753,666.185348,-3140.991542
3306.633200,-9548.656652,-296.082377,-766.095498
3306.633537,-8512.368333,2368.659014,383.047749
3306.633874,-9992.780217,592.164754,76.609550
3306.634211,-12139.377449,-370.102971,-306.438199
3306.634549,-10658.965565,-2368.659014,-1991.848295
3306.634886,-9178.553681,-1258.350101,-229.828649
3306.635223,-8882.471304,-370.102971,1685.410096
3306.635560,-10584.944971,-444.123565,689.485948
3306.635897,-12213.398043,-1776.494261,-1991.848295
3306.636234,-11029.068536,-2368.659014,-1838.629195
3306.636572,-8068.244768,0.000000,612.876398
3306.636909,-8512.368333,-962.267725,2528.115143
3306.637246,-10510.924376,-444.123565,1762.019645
3306.637583,-11547.212695,-1924.535449,612.876398
3306.637920,-10807.006753,-962.267725,2374.896044
3306.638257,-9252.574275,1332.370696,3907.087040
3306.638595,-10288.862594,1702.473667,3294.210641
3306.638932,-12361.439231,1776.494261,229.828649
3306.639269,-11029.068536,0.000000,-1378.971896
3306.639606,-8216.285956,1776.494261,-153.219100
3306.639943,-7698.141797,1850.514855,1072.533697
3306.640280,-9400.615463,1628.453072,0.000000
3306.640618,-10881.027347,-370.102971,-1302.362347
3306.640955,-10436.903782,-1184.329507,-612.876398
3306.641292,-8512.368333,1036.288319,1225.752797
3306.641629,-9400.615463,1258.350101,1685.410096
3306.641966,-11177.109724,1332.370696,-153.219100
3306.642303,-11029.068536,-814.226536,-2221.676944
3306.642641,-9844.739029,0.000000,-689.485948
3306.642978,-7624.121203,1110.308913,153.219100
3306.643315,-10288.862594,148.041188,1225.752797
3306.643652,-11029.068536,-2146.597232,-1225.752797
3306.643989,-10658.965565,-3330.926739,-612.876398
3306.644326,-9326.594869,-1628.453072,2221.676944
3306.644664,-8734.430116,518.144159,2911.162892
3306.645001,-11029.068536,370.102971,1532.190996
3306.645338,-12509.480420,-444.123565,-2068.457845
3306.645675,-10288.862594,-1332.370696,-1685.410096
3306.646012,-9474.636058,444.123565,1838.629195
3306.646349,-9326.594869,-296.082377,2298.286494
3306.646687,-11103.089130,-1554.432478,0.000000
3306.647024,-11399.171507,-2960.823768,-1762.019645
3306.647361,-9326.594869,-2516.700203,-536.266849
3306.647698,-8660.409521,-518.144159,1838.629195
3306.648035,-10584.944971,-962.267725,995.924147
3306.648372,-11547.212695,-1332.370696,-2987.772442
3306.648710,-10732.986159,-2368.659014,-3753.867940
3306.649047,-8734.430116,-1184.329507,-842.705048
3306.649384,-7772.162391,-1628.453072,1149.143247
3306.649721,-10140.821405,-2368.659014,2145.067394
3306.650058,-11325.150913,-3330.926739,306.438199
3306.650395,-10510.924376,-2886.803174,1455.581446
3306.650733,-9326.594869,-740.205942,3140.991542
3306.651070,-10214.842000,-148.041188,3217.601092
3306.651407,-11769.274478,0.000000,459.657299
3306.651744,-11177.109724,-444.123565,-995.924147
3306.652081,-9844.739029,296.082377,536.266849
3306.652418,-8586.388927,1480.411884,2298.286494
3306.652756,-9326.594869,2220.617826,2451.505594
3306.653093,-10362.883188,370.102971,1072.533697
3306.653430,-10658.965565,518.144159,766.095498
3306.653767,-9474.636058,1184.329507,1378.971896
3306.654104,-10066.800811,2146.597232,2374.896044
3306.654441,-10362.883188,2516.700203,76.609550
3306.654779,-11325.150913,1258.350101,-2451.505594
3306.655116,-9696.697840,518.144159,-2451.505594
3306.655453,-7698.141797,1480.411884,-1302.362347
3306.655790,-8660.409521,666.185348,-306.438199
3306.656127,-10214.842000,-222.061783,-1455.581446
3306.656464,-10436.903782,-2368.659014,-2221.676944
3306.656802,-9696.697840,-1628.453072,-383.047749
3306.657139,-8586.388927,518.144159,995.924147
3306.657476,-10214.842000,814.226536,383.047749
3306.657813,-11917.315666,-740.205942,-1455.581446
3306.658150,-10584.944971,-2294.638420,-1608.800546
3306.658487,-8808.450710,-592.164754,1225.752797
3306.658825,-8586.388927,444.123565,2911.162892
3306.659162,-11177.109724,-148.041188,995.924147
3306.659499,-11917.315666,-1702.473667,-1378.971896
3306.659836,-10214.842000,-1702.473667,0.000000
3306.660173,-8882.471304,444.123565,1991.848295
3306.660510,-10140.821405,1110.308913,2528.115143
3306.660848,-11621.233289,592.164754,0.000000
3306.661185,-11547.212695,-592.164754,-1991.848295
3306.661522,-9844.739029,444.123565,-995.924147
3306.661859,-8438.347739,1332.370696,459.657299
3306.662196,-9474.636058,740.205942,229.828649
3306.662533,-11103.089130,-518.144159,-1532.190996
3306.662871,-10955.047942,-1924.535449,-1225.752797
3306.663208,-9252.574275,-592.164754,536.266849
3306.663545,-8734.430116,-444.123565,2298.286494
3306.663882,-11029.068536,222.061783,1378.971896
3306.664219,-10807.006753,-444.123565,-459.657299
3306.664556,-9918.759623,-1110.308913,-306.438199
3306.664894,-8216.285956,370.102971,1378.971896
3306.665231,-8216.285956,0.000000,2528.115143
3306.665568,-10288.862594,-370.102971,1685.410096
3306.665906,-10881.027347,-1628.453072,1149.143247
3306.666243,-9622.677246,222.061783,2068.457845
3306.666580,-9252.574275,1036.288319,2681.334243
3306.666918,-11029.068536,1850.514855,2145.067394
3306.667255,-10658.965565,962.267725,-919.314598
3306.667592,-10362.883188,-370.102971,-1608.800546
3306.667930,-8586.388927,740.205942,153.219100
3306.668267,-8438.347739,666.185348,1225.752797
3306.668605,-10436.903782,296.082377,536.266849
3306.668942,-11621.233289,-2220.617826,-1685.410096
3306.669279,-9992.780217,-2072.576638,-383.047749
3306.669617,-8660.409521,-370.102971,306.438199
3306.669954,-9622.677246,-814.226536,153.219100
3306.670291,-11251.130318,-1110.308913,-2451.505594
3306.670629,-11843.295072,-3552.988522,-3830.477490
3306.670966,-9178.553681,-3404.947333,-1608.800546
3306.671304,-7179.997637,-2368.659014,1072.533697
3306.671641,-10066.800811,-1702.473667,2604.724693
3306.671978,-12213.398043,-3701.029710,0.000000
3306.672316,-10732.986159,-4811.338623,-306.438199
3306.672653,-9548.656652,-2442.679609,2451.505594
3306.672990,-9474.636058,-518.144159,3983.696590
3306.673328,-11547.212695,-222.061783,1532.190996
3306.673665,-12139.377449,-1702.473667,-1532.190996
3306.674003,-10362.883188,-666.185348,-229.828649
3306.674340,-7920.203579,740.205942,1685.410096
3306.674677,-9030.512492,1036.288319,2221.676944
3306.675015,-10955.047942,666.185348,0.000000
3306.675352,-11251.130318,-1776.494261,-612.876398
3306.675689,-9844.739029,-370.102971,306.438199
3306.676027,-8364.327145,1776.494261,1532.190996
3306.676364,-9918.759623,2368.659014,689.485948
3306.676702,-11547.212695,888.247130,-1991.848295
3306.677039,-10288.862594,222.061783,-2681.334243
3306.677376,-7772.162391,1406.391290,-612.876398
3306.677714,-8290.306550,1184.329507,1838.629195
3306.678051,-10214.842000,814.226536,76.609550
3306.678388,-11399.171507,-2072.576638,-1378.971896
3306.678726,-10288.862594,-1184.329507,229.828649
3306.679063,-8068.244768,296.082377,1532.190996
3306.679401,-9326.594869,1554.432478,2681.334243
3306.679738,-11621.233289,296.082377,536.266849
3306.680075,-11399.171507,-518.144159,-1915.238745
3306.680413,-9474.636058,1332.370696,229.828649
3306.680750,-9030.512492,2072.576638,2221.676944
3306.681087,-10214.842000,1850.514855,1225.752797
3306.681425,-11621.233289,0.000000,-1225.752797
3306.681762,-11251.130318,-740.205942,-153.219100
3306.682100,-8734.430116,592.164754,1072.533697
3306.682437,-8290.306550,962.267725,1991.848295
3306.682774,-10584.944971,1110.308913,0.000000
3306.683112,-11325.150913,-1924.535449,-2757.943793
3306.683449,-10658.965565,-1480.411884,-1378.971896
3306.683786,-7994.224174,-444.123565,0.000000
3306.684124,-8364.327145,0.000000,1302.362347
3306.684461,-11251.130318,-1554.432478,-995.924147
3306.684799,-11029.068536,-3330.926739,-1608.800546
3306.685136,-9326.594869,-1480.411884,1225.752797
3306.685473,-9918.759623,222.061783,2374.896044
3306.685811,-11325.150913,740.205942,306.438199
3306.686148,-12065.356855,-962.267725,-2145.067394
3306.686485,-10732.986159,-2368.659014,-612.876398
3306.686823,-7698.141797,-296.082377,1685.410096
3306.687160,-8586.388927,1184.329507,3600.648841
3306.687498,-11251.130318,888.247130,2757.943793
3306.687835,-12287.418637,-1850.514855,0.000000
3306.688172,-10288.862594,-444.123565,1455.581446
3306.688510,-8438.347739,2294.638420,3447.429741
3306.688847,-10214.842000,2442.679609,3294.210641
3306.689184,-12213.398043,1480.411884,-1072.533697
3306.689522,-11103.089130,0.000000,-3217.601092
3306.689859,-8216.285956,1480.411884,-1378.971896
3306.690197,-7550.100608,1110.308913,383.047749
3306.690534,-10066.800811,666.185348,-536.266849
3306.690871,-11177.109724,-2368.659014,-4519.963438
3306.691209,-9400.615463,-3404.947333,-2528.115143
3306.691546,-7550.100608,-1702.473667,766.095498
3306.691884,-8290.306550,-1110.308913,1762.019645
3306.692221,-11177.109724,-1036.288319,-536.266849
3306.692558,-12139.377449,-3997.112087,-1915.238745
3306.692896,-10140.821405,-2368.659014,-536.266849
3306.693233,-8512.368333,-1702.473667,1838.629195
3306.693570,-9918.759623,-1406.391290,2757.943793
3306.693908,-11251.130318,-2960.823768,0.000000
3306.694245,-11325.150913,-3627.009116,0.000000
3306.694583,-9696.697840,-2294.638420,2221.676944
3306.694920,-9178.553681,0.000000,3217.601092
3306.695257,-11621.233289,1036.288319,1378.971896
3306.695595,-13175.665768,-444.123565,-2528.115143
3306.695932,-10955.047942,-666.185348,-2298.286494
3306.696269,-8438.347739,296.082377,536.266849
3306.696607,-7698.141797,592.164754,2911.162892
3306.696944,-10807.006753,-296.082377,1915.238745
3306.697282,-12065.356855,-2220.617826,-306.438199
3306.697619,-10362.883188,-1406.391290,306.438199
3306.697956,-8364.327145,592.164754,2145.067394
3306.698294,-9696.697840,1776.494261,1608.800546
3306.698631,-11399.171507,148.041188,-2298.286494
3306.698968,-10362.883188,-1406.391290,-3064.381992
3306.699306,-7624.121203,-296.082377,-536.266849
3306.699643,-7031.956449,666.185348,1608.800546
3306.699981,-9252.574275,1110.308913,2298.286494
3306.700318,-11251.130318,-592.164754,0.000000
3306.700655,-10140.821405,-1184.329507,612.876398
3306.700993,-8216.285956,1184.329507,2451.505594
3306.701330,-8808.450710,3108.864956,4213.525239
3306.701667,-12287.418637,2146.597232,2374.896044
3306.702005,-12435.459826,888.247130,-1072.533697
3306.702342,-9548.656652,888.247130,0.000000
3306.702680,-8216.285956,1998.556043,1225.752797
3306.703017,-9178.553681,2368.659014,1302.362347
3306.703354,-11029.068536,0.000000,-1149.143247
3306.703692,-11029.068536,-1850.514855,-1532.190996
3306.704029,-8512.368333,814.226536,-612.876398
3306.704366,-9030.512492,1406.391290,306.438199
3306.704704,-11547.212695,1850.514855,-1532.190996
3306.705041,-12287.418637,-1184.329507,-3217.601092
3306.705379,-10732.986159,-1554.432478,-2145.067394
3306.705716,-7179.997637,-444.123565,-306.438199
3306.706053,-9030.512492,-444.123565,1838.629195
3306.706391,-11843.295072,-1924.535449,-306.438199
3306.706728,-11843.295072,-3997.112087,-2298.286494
3306.707065,-9918.759623,-1924.535449,-536.266849
3306.707403,-8512.368333,-1258.350101,1225.752797
3306.707740,-9400.615463,-518.144159,1072.533697
3306.708078,-10807.006753,-2220.617826,-1762.019645
3306.708415,-10584.944971,-1406.391290,-919.314598
3306.708752,-8956.491898,222.061783,1608.800546
3306.709090,-8882.471304,444.123565,3064.381992
3306.709427,-10955.047942,148.041188,2757.943793
3306.709764,-11843.295072,-1702.473667,612.876398
3306.710102,-10140.821405,0.000000,1072.533697
3306.710439,-8364.327145,888.247130,2911.162892
3306.710777,-9622.677246,2368.659014,2681.334243
3306.711114,-11399.171507,962.267725,-1762.019645
3306.711451,-11547.212695,-74.020594,-2987.772442
3306.711789,-8734.430116,370.102971,-612.876398
3306.712126,-7698.141797,1628.453072,1225.752797
3306.712463,-9548.656652,518.144159,766.095498
3306.712801,-11325.150913,-592.164754,-2374.896044
3306.713138,-11103.089130,-2960.823768,-306.438199
3306.713476,-8882.471304,-518.144159,1608.800546
3306.713813,-8734.430116,222.061783,2834.553343
3306.714150,-11695.253884,370.102971,1685.410096
3306.714488,-11843.295072,-2220.617826,-2068.457845
3306.714825,-9844.739029,-2664.741391,-229.828649
3306.715162,-7698.141797,-1850.514855,2604.724693
3306.715500,-8364.327145,-1110.308913,3294.210641
3306.715837,-10881.027347,-1184.329507,995.924147
3306.716175,-11843.295072,-3256.906145,-229.828649
3306.716512,-9622.677246,-1406.391290,842.705048
3306.716849,-8882.471304,-444.123565,2604.724693
3306.717187,-10362.883188,1332.370696,2145.067394
3306.717524,-11991.336260,-592.164754,-1991.848295
3306.717861,-11547.212695,-1480.411884,-1915.238745
3306.718199,-8586.388927,-666.185348,0.000000
3306.718536,-8364.327145,-740.205942,1532.190996
3306.718874,-11251.130318,-444.123565,306.438199
3306.719211,-12213.398043,-3256.906145,-2145.067394
3306.719548,-10436.903782,-1924.535449,-1532.190996
3306.719886,-8734.430116,-814.226536,76.609550
3306.720223,-9474.636058,666.185348,153.219100
3306.720560,-10881.027347,-296.082377,-2068.457845
3306.720898,-10881.027347,-1332.370696,-2451.505594
3306.721235,-9252.574275,-148.041188,-1072.533697
3306.721573,-8290.306550,518.144159,919.314598
3306.721910,-10658.965565,814.226536,2528.115143
3306.722247,-11991.336260,-1406.391290,536.266849
3306.722585,-10658.965565,-962.267725,766.095498
3306.722922,-7772.162391,1998.556043,1915.238745
3306.723259,-9400.615463,2812.782580,3447.429741
3306.723597,-10881.027347,2368.659014,766.095498
3306.723934,-11177.109724,1850.514855,-2681.334243
3306.724272,-9844.739029,2516.700203,-1072.533697
3306.724609,-7920.203579,3330.926739,536.266849
3306.724946,-8734.430116,2368.659014,1378.971896
3306.725284,-10881.027347,1184.329507,-919.314598
3306.725621,-10214.842000,-518.144159,-919.314598
3306.725958,-9548.656652,740.205942,1149.143247
3306.726296,-8660.409521,1406.391290,1072.533697
3306.726633,-10214.842000,1480.411884,0.000000
3306.726971,-11547.212695,-518.144159,-2987.772442
3306.727308,-9548.656652,-1332.370696,-3064.381992
3306.727645,-7179.997637,-370.102971,459.657299
3306.727983,-8882.471304,-962.267725,2145.067394
3306.728320,-11177.109724,-74.020594,383.047749
3306.728657,-11843.295072,-2664.741391,-1149.143247
3306.728995,-10955.047942,-2220.617826,1225.752797
3306.729332,-9252.574275,-666.185348,2681.334243
3306.729670,-10140.821405,592.164754,3370.820191
3306.730007,-12287.418637,-148.041188,306.438199
3306.730344,-11695.253884,-1998.556043,-1378.971896
3306.730682,-9400.615463,-518.144159,536.266849
3306.731019,-8438.347739,0.000000,2681.334243
3306.731356,-10214.842000,0.000000,1532.190996
3306.731694,-11547.212695,-1924.535449,-536.266849
3306.732031,-10807.006753,-1258.350101,383.047749
3306.732369,-8290.306550,0.000000,1991.848295
3306.732706,-9104.533087,1110.308913,2374.896044
3306.733043,-11547.212695,222.061783,-306.438199
3306.733381,-12065.356855,-1332.370696,-2834.553343
3306.733718,-9474.636058,-1036.288319,-2145.067394
3306.734055,-7402.059420,-740.205942,919.314598
3306.734393,-8660.409521,-592.164754,1991.848295
3306.734730,-11399.171507,-2220.617826,0.000000
3306.735068,-11177.109724,-3256.906145,153.219100
3306.735405,-9030.512492,-1258.350101,1915.238745
3306.735742,-8586.388927,592.164754,2834.553343
3306.736080,-10732.986159,1480.411884,1378.971896
3306.736417,-11399.171507,-666.185348,-1455.581446
3306.736754,-10807.006753,-518.144159,-612.876398
3306.737092,-8364.327145,888.247130,1225.752797
3306.737429,-7920.203579,1110.308913,1838.629195
3306.737767,-10881.027347,592.164754,1225.752797
3306.738104,-11991.336260,-1554.432478,-1378.971896
3306.738441,-9696.697840,-518.144159,-766.095498
3306.738779,-8512.368333,518.144159,766.095498
3306.739116,-9474.636058,740.205942,306.438199
3306.739453,-10881.027347,-370.102971,-3524.039291
3306.739791,-10955.047942,-2220.617826,-3370.820191
3306.740128,-8882.471304,-1406.391290,-766.095498
3306.740466,-7920.203579,-740.205942,1838.629195
3306.740803,-11251.130318,-962.267725,919.314598
3306.741140,-12065.356855,-3478.967927,-2068.457845
3306.741478,-10658.965565,-4071.132681,-1378.971896
3306.741815,-9252.574275,-1998.556043,1685.410096
3306.742152,-9252.574275,-888.247130,1838.629195
3306.742490,-11251.130318,-666.185348,-1378.971896
3306.742827,-11843.295072,-1924.535449,-2834.553343
3306.743165,-10214.842000,-1332.370696,-1762.019645
3306.743502,-8142.265362,-592.164754,1915.238745
3306.743839,-9770.718434,444.123565,4903.011187
3306.744177,-11843.295072,-444.123565,3140.991542
3306.744514,-11991.336260,-1332.370696,536.266849
3306.744852,-10510.924376,1184.329507,2604.724693
3306.745189,-9030.512492,2812.782580,3907.087040
3306.745526,-10436.903782,3330.926739,2451.505594
3306.745864,-11843.295072,1924.535449,-1072.533697
3306.746201,-9474.636058,1776.494261,-2757.943793
3306.746538,-7476.080014,2368.659014,-306.438199
3306.746876,-8290.306550,2738.761985,1608.800546
3306.747213,-10362.883188,1702.473667,-153.219100
3306.747551,-10955.047942,-518.144159,-1302.362347
3306.747888,-9400.615463,0.000000,689.485948
3306.748225,-7772.162391,2220.617826,2374.896044
3306.748563,-9844.739029,3034.844362,1532.190996
3306.748900,-11695.253884,1258.350101,-1532.190996
3306.749237,-10881.027347,-74.020594,-2145.067394
3306.749575,-8808.450710,148.041188,-229.828649
3306.749912,-7920.203579,222.061783,2221.676944
3306.750250,-9326.594869,0.000000,1302.362347
3306.750587,-11695.253884,-2442.679609,-995.924147
3306.750924,-10732.986159,-2294.638420,0.000000
3306.751262,-8068.244768,148.041188,1532.190996
3306.751599,-9548.656652,1702.473667,2528.115143
3306.751936,-12287.418637,592.164754,-229.828649
3306.752274,-12213.398043,-814.226536,-3370.820191
3306.752611,-10066.800811,-814.226536,-1915.238745
3306.752949,-7772.162391,888.247130,1072.533697
3306.753286,-10066.800811,-222.061783,1072.533697
3306.753623,-11843.295072,-2664.741391,-1608.800546
3306.753961,-11325.150913,-3256.906145,-2145.067394
3306.754298,-9844.739029,-1184.329507,919.314598
3306.754635,-9474.636058,-296.082377,766.095498
3306.754973,-11473.192101,740.205942,-2374.896044
3306.755310,-12065.356855,-1850.514855,-5056.230287
3306.755648,-9992.780217,-2442.679609,-3447.429741
3306.755985,-7254.018232,-1332.370696,306.438199
3306.756322,-7994.224174,-1258.350101,3217.601092
3306.756660,-11769.274478,-1998.556043,2068.457845
3306.756997,-12361.439231,-3849.070898,229.828649
3306.757334,-10066.800811,-1850.514855,1378.971896
3306.757672,-8216.285956,148.041188,4826.401637
3306.758009,-9400.615463,1628.453072,3753.867940
3306.758347,-11473.192101,1110.308913,0.000000
3306.758684,-11103.089130,74.020594,-2451.505594
3306.759021,-7550.100608,666.185348,-612.876398
3306.759359,-7402.059420,1628.453072,2528.115143
3306.759696,-9770.718434,1850.514855,1915.238745
3306.760033,-11325.150913,-1258.350101,-919.314598
3306.760371,-10066.800811,-1258.350101,766.095498
3306.760708,-8216.285956,814.226536,3983.696590
3306.761046,-9622.677246,2220.617826,3370.820191
3306.761383,-12287.418637,2146.597232,-1915.238745
3306.761720,-12583.501014,-296.082377,-4673.182538
3306.762058,-9400.615463,-1332.370696,-2604.724693
3306.762395,-6883.915261,-1332.370696,919.314598
3306.762732,-8290.306550,-518.144159,2374.896044
3306.763070,-10881.027347,-3330.926739,0.000000
3306.763407,-11843.295072,-3775.050304,-995.924147
3306.763745,-9918.759623,-2294.638420,766.095498
3306.764082,-9326.594869,0.000000,2834.553343
3306.764419,-11991.336260,0.000000,2451.505594
3306.764757,-12879.583391,-2220.617826,-1072.533697
3306.765094,-10584.944971,-1406.391290,-689.485948
3306.765431,-8364.327145,0.000000,1149.143247
3306.765769,-8660.409521,74.020594,2681.334243
3306.766106,-11177.109724,-1036.288319,306.438199
3306.766444,-11991.336260,-3182.885551,-459.657299
3306.766781,-9770.718434,-1184.329507,0.000000
3306.767118,-7846.182985,1702.473667,1608.800546
3306.767456,-9622.677246,2146.597232,995.924147
3306.767793,-11769.274478,740.205942,-2145.067394
3306.768130,-11399.171507,0.000000,-3524.039291
3306.768468,-7624.121203,814.226536,-1685.410096
3306.768805,-7476.080014,1036.288319,1532.190996
3306.769142,-10140.821405,370.102971,1225.752797
3306.769480,-11991.336260,-1480.411884,-2451.505594
3306.769817,-10066.800811,-888.247130,-1455.581446
3306.770154,-7624.121203,740.205942,1532.190996
3306.770492,-9178.553681,2368.659014,3140.991542
3306.770829,-11843.295072,1554.432478,-1149.143247
3306.771166,-11917.315666,74.020594,-2987.772442
3306.771504,-9178.553681,1258.350101,-689.485948
3306.771841,-7550.100608,1776.494261,2528.115143
3306.772178,-9474.636058,2442.679609,3370.820191
3306.772516,-11399.171507,592.164754,1455.581446
3306.772853,-11547.212695,-518.144159,306.438199
3306.773190,-9326.594869,962.267725,2298.286494
3306.773528,-9696.697840,2590.720797,4060.306139
3306.773865,-11991.336260,2812.782580,995.924147
3306.774202,-12139.377449,370.102971,-3524.039291
3306.774540,-9474.636058,0.000000,-3753.867940
3306.774877,-5995.668130,222.061783,-689.485948
3306.775214,-7254.018232,148.041188,1455.581446
3306.775552,-10807.006753,-2072.576638,-689.485948
3306.775889,-11103.089130,-3997.112087,-3447.429741
3306.776226,-9696.697840,-2738.761985,76.609550
3306.776564,-9030.512492,-1480.411884,2374.896044
3306.776901,-9844.739029,-1110.308913,1302.362347
3306.777238,-12139.377449,-2368.659014,-1685.410096
3306.777576,-10881.027347,-4071.132681,-2298.286494
3306.777913,-8216.285956,-2664.741391,76.609550
3306.778250,-8068.244768,-1998.556043,2834.553343
3306.778588,-11251.130318,-2738.761985,2221.676944
3306.778925,-11695.253884,-3849.070898,842.705048
3306.779262,-11251.130318,-2738.761985,1685.410096
3306.779599,-9474.636058,296.082377,4213.525239
3306.779937,-10732.986159,1110.308913,3753.867940
3306.780274,-12361.439231,1184.329507,-459.657299
3306.780611,-11843.295072,-592.164754,-2604.724693
3306.780949,-8586.388927,444.123565,-842.705048
3306.781286,-7254.018232,1554.432478,2374.896044
3306.781623,-9696.697840,962.267725,2145.067394
3306.781961,-11325.150913,-222.061783,-995.924147
3306.782298,-11177.109724,-1702.473667,-689.485948
3306.782635,-9474.636058,74.020594,1915.238745
3306.782973,-8586.388927,2146.597232,2145.067394
3306.783310,-10436.903782,1184.329507,-1149.143247
3306.783647,-10658.965565,-370.102971,-4443.353888
3306.783985,-8290.306550,74.020594,-2911.162892
3306.784322,-7105.977043,888.247130,919.314598
3306.784659,-8660.409521,888.247130,1532.190996
3306.784997,-10807.006753,-1184.329507,-153.219100
3306.785334,-11769.274478,-2368.659014,-689.485948
3306.785671,-8660.409521,-1628.453072,612.876398
3306.786009,-8512.368333,0.000000,3600.648841
3306.786346,-10658.965565,962.267725,2528.115143
3306.786683,-11843.295072,0.000000,-1762.019645
3306.787021,-10955.047942,0.000000,-2451.505594
3306.787358,-8512.368333,592.164754,0.000000
3306.787695,-8956.491898,740.205942,1608.800546
3306.788033,-11695.253884,-370.102971,459.657299
3306.788370,-11547.212695,-1850.514855,-1762.019645
3306.788707,-10066.800811,-1554.432478,-229.828649
3306.789045,-9178.553681,0.000000,1991.848295
3306.789382,-10510.924376,1110.308913,1455.581446
3306.789719,-12509.480420,-296.082377,-2221.676944
3306.790057,-11917.315666,-1628.453072,-4366.744339
3306.790394,-8586.388927,-1184.329507,-1685.410096
3306.790731,-7105.977043,-592.164754,1302.362347
3306.791069,-10140.821405,-1480.411884,919.314598
3306.791406,-11399.171507,-2220.617826,-383.047749
3306.791743,-10140.821405,-2516.700203,-153.219100
3306.792081,-9178.553681,0.000000,2068.457845
3306.792418,-9548.656652,962.267725,3524.039291
3306.792755,-11917.315666,1924.535449,919.314598
3306.793093,-12065.356855,-74.020594,-766.095498
3306.793430,-10214.842000,814.226536,0.000000
3306.793767,-7105.977043,2368.659014,2451.505594
3306.794105,-9178.553681,2442.679609,3753.867940
3306.794442,-11177.109724,666.185348,1455.581446
3306.794779,-10658.965565,-444.123565,0.000000
3306.795117,-8882.471304,1258.350101,2681.334243
3306.795454,-8882.471304,3701.029710,3524.039291
3306.795791,-10807.006753,3182.885551,1532.190996
3306.796129,-11399.171507,1850.514855,-2451.505594
3306.796466,-9104.533087,888.247130,-3600.648841
3306.796803,-7772.162391,1554.432478,-919.314598
3306.797141,-8660.409521,1110.308913,1149.143247
3306.797478,-10362.883188,-1110.308913,-1455.581446
3306.797815,-10510.924376,-2368.659014,-2145.067394
3306.798153,-9104.533087,-2368.659014,-689.485948
3306.798490,-8808.450710,-1184.329507,2145.067394
3306.798827,-10658.965565,-666.185348,766.095498
3306.799165,-12065.356855,-1480.411884,-1302.362347
3306.799502,-11029.068536,-2146.597232,-2451.505594
3306.799839,-9474.636058,-2146.597232,766.095498
3306.800177,-9178.553681,-1184.329507,2451.505594
3306.800514,-10362.883188,-2072.576638,1532.190996
3306.800851,-11251.130318,-2886.803174,306.438199
3306.801189,-10732.986159,-2960.823768,766.095498
3306.801526,-10288.862594,-1110.308913,2757.943793
3306.801863,-11029.068536,-518.144159,2298.286494
3306.802201,-12065.356855,-444.123565,0.000000
3306.802538,-11843.295072,-1480.411884,-2528.115143
3306.802875,-8882.471304,-592.164754,-2221.676944
3306.803213,-7328.038826,0.000000,842.705048
3306.803550,-9030.512492,-962.267725,842.705048
3306.803887,-10807.006753,-1332.370696,-995.924147
3306.804225,-11473.192101,-2812.782580,-306.438199
3306.804562,-9622.677246,-1184.329507,1072.533697
3306.804899,-8882.471304,370.102971,1455.581446
3306.805237,-11103.089130,0.000000,229.828649
3306.805574,-10658.965565,-444.123565,-2298.286494
3306.805911,-9104.533087,-1702.473667,-1149.143247
3306.806249,-7698.141797,222.061783,459.657299
3306.806586,-8290.306550,814.226536,1762.019645
3306.806923,-11103.089130,-518.144159,1225.752797
3306.807261,-10658.965565,-1036.288319,76.609550
3306.807598,-8734.430116,-296.082377,2221.676944
3306.807935,-8956.491898,1332.370696,4749.792088
3306.808273,-10436.903782,2590.720797,3294.210641
3306.808610,-12213.398043,1480.411884,-76.609550
3306.808947,-11251.130318,814.226536,-1378.971896
3306.809285,-8956.491898,1776.494261,0.000000
3306.809622,-8364.327145,1924.535449,1149.143247
3306.809959,-9918.759623,-148.041188,0.000000
3306.810297,-9178.553681,-1406.391290,-1225.752797
3306.810634,-9178.553681,-2220.617826,-383.047749
3306.810971,-8586.388927,148.041188,1072.533697
3306.811309,-9844.739029,370.102971,766.095498
3306.811646,-12583.501014,518.144159,-1915.238745
3306.811983,-11769.274478,-1924.535449,-3370.820191
3306.812321,-9178.553681,-2146.597232,-1532.190996
3306.812658,-7328.038826,-962.267725,1991.848295
3306.812995,-9104.533087,-1406.391290,2298.286494
3306.813333,-12361.439231,-2590.720797,0.000000
3306.813670,-12065.356855,-2960.823768,-1072.533697
3306.814007,-10066.800811,-1554.432478,1072.533697
3306.814345,-9622.677246,0.000000,2757.943793
3306.814682,-11399.171507,0.000000,1838.629195
3306.815019,-11325.150913,-370.102971,-1072.533697
3306.815357,-10362.883188,0.000000,-1072.533697
3306.815694,-8364.327145,1332.370696,1532.190996
3306.816031,-9622.677246,1628.453072,2221.676944
3306.816369,-10807.006753,740.205942,306.438199
3306.816706,-11473.192101,0.000000,-995.924147
3306.817043,-9622.677246,74.020594,0.000000
3306.817381,-8216.285956,1628.453072,1302.362347
3306.817718,-9622.677246,2072.576638,919.314598
3306.818055,-11177.109724,1036.288319,-2528.115143
3306.818393,-10066.800811,0.000000,-3064.381992
3306.818730,-8364.327145,666.185348,-1302.362347
3306.819067,-7920.203579,666.185348,536.266849
3306.819405,-9474.636058,444.123565,-153.219100
3306.819742,-10881.027347,-1184.329507,-1455.581446
3306.820079,-9474.636058,-1850.514855,-383.047749
3306.820417,-8364.327145,148.041188,2528.115143
3306.820754,-10066.800811,1258.350101,3064.381992
3306.821091,-12139.377449,518.144159,76.609550
3306.821429,-11843.295072,-1184.329507,-1225.752797
3306.821766,-9548.656652,-814.226536,306.438199
3306.822103,-7402.059420,518.144159,2298.286494
3306.822441,-9474.636058,666.185348,1608.800546
3306.822778,-11547.212695,-888.247130,-536.266849
3306.823115,-11621.233289,-2368.659014,-536.266849
3306.823453,-9400.615463,-370.102971,1991.848295
3306.823790,-9696.697840,1110.308913,3294.210641
3306.824127,-11843.295072,74.020594,612.876398
3306.824465,-12065.356855,-1406.391290,-2451.505594
3306.824802,-9622.677246,-2368.659014,-1915.238745
3306.825139,-7920.203579,-1184.329507,766.095498
3306.825477,-8512.368333,-1036.288319,1072.533697
3306.825814,-11325.150913,-2812.782580,-1225.752797
3306.826151,-10881.027347,-4219.173869,-2604.724693
3306.826489,-9030.512492,-3182.885551,229.828649
3306.826826,-8364.327145,-1480.411884,2987.772442
3306.827163,-10584.944971,0.000000,1225.752797
3306.827501,-11917.315666,-962.267725,-1378.971896
3306.827838,-10658.965565,-2072.576638,-1762.019645
3306.828175,-8364.327145,-1036.288319,1378.971896
3306.828513,-8290.306550,74.020594,4596.572988
3306.828850,-11399.171507,-370.102971,3753.867940
3306.829187,-11695.253884,-888.247130,842.705048
3306.829525,-10881.027347,-444.123565,995.924147
3306.829862,-9178.553681,1480.411884,3217.601092
3306.830199,-9400.615463,2516.700203,2911.162892
3306.830537,-12139.377449,2368.659014,-76.609550
3306.830874,-11843.295072,1184.329507,-2221.676944
3306.831211,-8660.409521,1776.494261,-1915.238745
3306.831549,-7476.080014,2812.782580,842.705048
3306.831886,-9474.636058,1258.350101,689.485948
3306.832223,-10881.027347,0.000000,-2068.457845
3306.832561,-10436.903782,-2220.617826,-1991.848295
3306.832898,-8290.306550,148.041188,995.924147
3306.833235,-8734.430116,-370.102971,2374.896044
3306.833573,-10584.944971,148.041188,-536.266849
3306.833910,-11621.233289,-962.267725,-3447.429741
3306.834247,-9696.697840,-1924.535449,-1991.848295
3306.834585,-7031.956449,-740.205942,689.485948
3306.834922,-7476.080014,-296.082377,1685.410096
3306.835259,-11029.068536,-1480.411884,0.000000
3306.835597,-11695.253884,-2590.720797,-1072.533697
3306.835934,-9696.697840,-2146.597232,842.705048
3306.836271,-8734.430116,74.020594,3370.820191
3306.836609,-10881.027347,1110.308913,3370.820191
3306.836946,-13323.706956,-444.123565,-383.047749
3306.837283,-11399.171507,-962.267725,-1532.190996
3306.837621,-8882.471304,518.144159,459.657299
3306.837958,-8660.409521,518.144159,1838.629195
3306.838295,-10955.047942,0.000000,536.266849
3306.838633,-11177.109724,-2072.576638,-1608.800546
3306.838970,-9918.759623,-1924.535449,-689.485948
3306.839307,-8364.327145,888.247130,1225.752797
3306.839645,-9918.759623,1480.411884,1378.971896
3306.839982,-12287.418637,0.000000,-2145.067394
3306.840319,-11103.089130,-1480.411884,-3677.258390
3306.840657,-8808.450710,-370.102971,-919.314598
3306.840994,-7772.162391,148.041188,2604.724693
3306.841331,-9326.594869,0.000000,2068.457845
3306.841669,-10732.986159,-1110.308913,-612.876398
3306.842006,-10510.924376,-2664.741391,153.219100
3306.842343,-7846.182985,-148.041188,2681.334243
3306.842681,-8660.409521,2294.638420,4443.353888
3306.843018,-11251.130318,1554.432478,1532.190996
3306.843355,-11991.336260,666.185348,-1378.971896
3306.843693,-9844.739029,148.041188,-1072.533697
3306.844030,-7105.977043,2738.761985,1455.581446
3306.844367,-9104.533087,1554.432478,2451.505594
3306.844705,-11325.150913,0.000000,-459.657299
3306.845042,-10732.986159,-1554.432478,-1915.238745
3306.845379,-9178.553681,-666.185348,306.438199
3306.845717,-8216.285956,592.164754,2757.943793
3306.846054,-11399.171507,962.267725,919.314598
3306.846391,-12731.542202,296.082377,-2834.553343
3306.846729,-11029.068536,-740.205942,-3830.477490
3306.847066,-8068.244768,222.061783,-842.705048
3306.847403,-8882.471304,-518.144159,1378.971896
3306.847741,-11251.130318,-1110.308913,-306.438199
3306.848078,-12139.377449,-3552.988522,-2834.553343
3306.848415,-9770.718434,-3997.112087,-1378.971896
3306.848753,-7476.080014,-2220.617826,1608.800546
3306.849090,-9474.636058,-814.226536,2451.505594
3306.849427,-12065.356855,-1480.411884,153.219100
3306.849765,-11843.295072,-2664.741391,-2451.505594
3306.850102,-9030.512492,-1036.288319,0.000000
3306.850439,-8290.306550,592.164754,3677.258390
3306.850777,-10288.862594,-148.041188,2374.896044
3306.851114,-11251.130318,-1406.391290,-612.876398
3306.851451,-10066.800811,-2146.597232,-459.657299
3306.851789,-8068.244768,0.000000,2911.162892
3306.852126,-9252.574275,2072.576638,3524.039291
3306.852463,-12509.480420,1776.494261,842.705048
3306.852801,-12953.603985,-296.082377,-2528.115143
3306.853138,-9400.615463,0.000000,-1915.238745
3306.853475,-7846.182985,1628.453072,1149.143247
3306.853813,-9400.615463,888.247130,1225.752797
3306.854150,-10584.944971,0.000000,-2145.067394
3306.854487,-10436.903782,-1998.556043,-1838.629195
3306.854825,-8438.347739,-518.144159,919.314598
3306.855162,-7920.203579,1406.391290,3064.381992
3306.855499,-11547.212695,1406.391290,1608.800546
3306.855837,-12435.459826,148.041188,-1532.190996
3306.856174,-10658.965565,-1332.370696,-1378.971896
3306.856511,-8068.244768,666.185348,2068.457845
3306.856849,-8216.285956,962.267725,2834.553343
3306.857186,-10955.047942,0.000000,1455.581446
3306.857523,-11251.130318,-1406.391290,-766.095498
3306.857861,-9326.594869,-962.267725,306.438199
3306.858198,-8512.368333,1406.391290,2374.896044
3306.858535,-10214.842000,1110.308913,1762.019645
3306.858873,-12287.418637,740.205942,-1685.410096
3306.859210,-11399.171507,-1110.308913,-2987.772442
3306.859547,-7772.162391,666.185348,-612.876398
3306.859885,-7994.224174,444.123565,2068.457845
3306.860222,-10436.903782,222.061783,153.219100
3306.860559,-11917.315666,-1406.391290,-3064.381992
3306.860897,-10881.027347,-2220.617826,-2451.505594
3306.861234,-8438.347739,-444.123565,0.000000
3306.861571,-9770.718434,-740.205942,1455.581446
3306.861909,-11621.233289,-888.247130,-1378.971896
3306.862246,-11325.150913,-2664.741391,-2987.772442
3306.862583,-9622.677246,-2146.597232,-306.438199
3306.862921,-7254.018232,-444.123565,2528.115143
3306.863258,-10436.903782,-740.205942,3294.210641
3306.863595,-12361.439231,-1036.288319,229.828649
3306.863932,-11695.253884,-1332.370696,-689.485948
3306.864270,-9400.615463,-962.267725,2604.724693
3306.864607,-8660.409521,1184.329507,3677.258390
3306.864944,-10214.842000,1998.556043,2374.896044
3306.865282,-13027.624579,444.123565,-306.438199
3306.865619,-10140.821405,0.000000,-919.314598
3306.865956,-7402.059420,1110.308913,842.705048
3306.866294,-8438.347739,1702.473667,2298.286494
3306.866631,-11177.109724,666.185348,229.828649
3306.866968,-11325.150913,-1110.308913,-2145.067394
3306.867306,-9178.553681,-370.102971,-229.828649
3306.867643,-7105.977043,1110.308913,2068.457845
3306.867981,-10288.862594,666.185348,1378.971896
3306.868318,-11843.295072,296.082377,-2604.724693
3306.868655,-10436.903782,-2294.638420,-3217.601092
3306.868993,-8068.244768,-1406.391290,76.609550
3306.869330,-7476.080014,-592.164754,3064.381992
3306.869667,-9992.780217,-1776.494261,1455.581446
3306.870005,-11843.295072,-2664.741391,-1378.971896
3306.870342,-10288.862594,-2960.823768,0.000000
3306.870680,-9252.574275,-592.164754,2451.505594
3306.871017,-10066.800811,0.000000,2757.943793
3306.871354,-12509.480420,370.102971,689.485948
3306.871692,-12139.377449,-1480.411884,-1302.362347
3306.872029,-9622.677246,-370.102971,-536.266849
3306.872366,-7920.203579,0.000000,2911.162892
3306.872704,-10362.883188,74.020594,2681.334243
3306.873041,-11547.212695,-1406.391290,0.000000
3306.873379,-11843.295072,-1924.535449,-1149.143247
3306.873716,-9104.533087,-518.144159,919.314598
3306.874053,-9104.533087,148.041188,1838.629195
3306.874391,-10881.027347,888.247130,-536.266849
3306.874728,-11103.089130,-518.144159,-4519.963438
3306.875066,-9474.636058,-888.247130,-3140.991542
3306.875403,-7624.121203,-666.185348,-766.095498
3306.875740,-8142.265362,-592.164754,919.314598
3306.876078,-11547.212695,-740.205942,306.438199
3306.876415,-11621.233289,-2516.700203,-842.705048
3306.876752,-9252.574275,-962.267725,766.095498
3306.877090,-8438.347739,444.123565,2987.772442
3306.877427,-9918.759623,74.020594,2221.676944
3306.877765,-11769.274478,74.020594,76.609550
3306.878102,-10732.986159,-592.164754,-689.485948
3306.878439,-8438.347739,962.267725,536.266849
3306.878777,-8142.265362,1924.535449,2068.457845
3306.879114,-10436.903782,1554.432478,1762.019645
3306.879451,-11473.192101,962.267725,-1302.362347
3306.879789,-10658.965565,148.041188,229.828649
3306.880126,-9474.636058,2368.659014,2068.457845
3306.880464,-10584.944971,2368.659014,1762.019645
3306.880801,-11917.315666,1850.514855,-1072.533697
3306.881138,-11029.068536,-444.123565,-3217.601092
3306.881476,-8364.327145,-740.205942,-1455.581446
3306.881813,-7105.977043,148.041188,919.314598
3306.882151,-9918.759623,0.000000,536.266849
3306.882488,-11547.212695,-1924.535449,-1838.629195
3306.882825,-10955.047942,-2516.700203,-2298.286494
3306.883163,-9178.553681,-1110.308913,612.876398
3306.883500,-9252.574275,296.082377,2374.896044
3306.883837,-10881.027347,0.000000,-153.219100
3306.884175,-11251.130318,-2146.597232,-2374.896044
3306.884512,-9326.594869,-2738.761985,-1072.533697
3306.884850,-7105.977043,-1258.350101,1302.362347
3306.885187,-9770.718434,-1036.288319,3983.696590
3306.885524,-11473.192101,-1036.288319,1378.971896
3306.885862,-11325.150913,-2442.679609,306.438199
3306.886199,-9992.780217,-74.020594,1838.629195
3306.886537,-8956.491898,1258.350101,3140.991542
3306.886874,-11103.089130,1406.391290,2528.115143
3306.887211,-12065.356855,592.164754,-1225.752797
3306.887549,-10288.862594,222.061783,-2298.286494
3306.887886,-8586.388927,1184.329507,-766.095498
3306.888223,-8142.265362,592.164754,842.705048
3306.888561,-10436.903782,296.082377,-229.828649
3306.888898,-11029.068536,-666.185348,-1915.238745
3306.889236,-10140.821405,-592.164754,-919.314598
3306.889573,-8660.409521,962.267725,1149.143247
3306.889910,-9992.780217,74.020594,1225.752797
3306.890248,-11029.068536,592.164754,-995.924147
3306.890585,-10436.903782,-1332.370696,-1915.238745
3306.890922,-8956.491898,-444.123565,612.876398
3306.891260,-7920.203579,-740.205942,1685.410096
3306.891597,-9844.739029,-222.061783,2374.896044
3306.891935,-11547.212695,-1702.473667,383.047749
3306.892272,-11325.150913,-2442.679609,536.266849
3306.892609,-9400.615463,-296.082377,1762.019645
3306.892947,-8660.409521,1184.329507,2528.115143
3306.893284,-11177.109724,592.164754,766.095498
3306.893622,-11695.253884,-296.082377,-1915.238745
3306.893959,-10066.800811,-370.102971,-1225.752797
3306.894296,-7920.203579,444.123565,1072.533697
3306.894634,-9030.512492,0.000000,1378.971896
3306.894971,-10881.027347,-814.226536,0.000000
3306.895308,-11547.212695,-2368.659014,-1455.581446
3306.895646,-9030.512492,-1554.432478,153.219100
3306.895983,-8808.450710,0.000000,1149.143247
3306.896321,-10066.800811,-148.041188,-689.485948
3306.896658,-12213.398043,-814.226536,-3600.648841
3306.896995,-10658.965565,-2516.700203,-2374.896044
3306.897333,-7698.141797,-1554.432478,0.000000
3306.897670,-8438.347739,-1258.350101,2451.505594
3306.898007,-11399.171507,-1036.288319,1225.752797
3306.898345,-11325.150913,-2738.761985,-612.876398
3306.898682,-10732.986159,-2294.638420,1838.629195
3306.899020,-9104.533087,74.020594,3830.477490
3306.899357,-10881.027347,1184.329507,3370.820191
3306.899694,-12213.398043,740.205942,1149.143247
3306.900032,-11473.192101,74.020594,-612.876398
3306.900369,-8956.491898,1924.535449,229.828649
3306.900707,-8142.265362,1332.370696,2528.115143
3306.901044,-9622.677246,1554.432478,2068.457845
3306.901381,-10807.006753,666.185348,-306.438199
3306.901719,-9918.759623,0.000000,-766.095498
3306.902056,-8216.285956,1110.308913,459.657299
3306.902393,-8956.491898,2516.700203,1915.238745
3306.902731,-10881.027347,2886.803174,-995.924147
3306.903068,-11621.233289,74.020594,-3600.648841
3306.903406,-8956.491898,1036.288319,-2834.553343
3306.903743,-7698.141797,74.020594,0.000000
3306.904080,-9252.574275,-962.267725,1378.971896
3306.904418,-10140.821405,-2072.576638,0.000000
3306.904755,-10066.800811,-3108.864956,-459.657299
3306.905092,-9252.574275,-1184.329507,1378.971896
3306.905430,-8808.450710,444.123565,1608.800546
3306.905767,-11547.212695,296.082377,1532.190996
3306.906105,-12657.521608,-370.102971,-1991.848295
3306.906442,-10658.965565,-1480.411884,-1608.800546
3306.906779,-8068.244768,0.000000,1225.752797
3306.907117,-8290.306550,0.000000,2604.724693
3306.907454,-11029.068536,-296.082377,1072.533697
3306.907792,-11843.295072,-1998.556043,-1149.143247
3306.908129,-10955.047942,-1554.432478,229.828649
3306.908466,-9844.739029,0.000000,2451.505594
3306.908804,-10584.944971,1036.288319,2145.067394
3306.909141,-11621.233289,370.102971,-1915.238745
3306.909478,-11103.089130,-1258.350101,-2834.553343
3306.909816,-8660.409521,-444.123565,-383.047749
3306.910153,-7402.059420,296.082377,842.705048
3306.910491,-9918.759623,0.000000,536.266849
3306.910828,-11769.274478,-1924.535449,-2145.067394
3306.911165,-10140.821405,-2960.823768,-1991.848295
3306.911503,-8438.347739,-888.247130,995.924147
3306.911840,-9104.533087,592.164754,2911.162892
3306.912177,-10807.006753,1258.350101,-306.438199
3306.912515,-11473.192101,-1480.411884,-2451.505594
3306.912852,-8956.491898,0.000000,-612.876398
3306.913190,-7254.018232,-370.102971,2757.943793
3306.913527,-9178.553681,666.185348,3677.258390
3306.913864,-11621.233289,0.000000,1149.143247
3306.914202,-11473.192101,-1184.329507,689.485948
3306.914539,-8808.450710,666.185348,2221.676944
3306.914877,-9104.533087,2072.576638,3600.648841
3306.915214,-11695.253884,3034.844362,1991.848295
3306.915551,-12509.480420,1554.432478,-2374.896044
3306.915889,-10955.047942,148.041188,-2528.115143
3306.916226,-7846.182985,888.247130,-919.314598
3306.916563,-7994.224174,370.102971,1149.143247
3306.916901,-10066.800811,-1110.308913,-383.047749
3306.917238,-10436.903782,-3108.864956,-2451.505594
3306.917576,-9474.636058,-2442.679609,-383.047749
3306.917913,-8660.409521,-1036.288319,612.876398
3306.918250,-10436.903782,148.041188,1302.362347
3306.918588,-12435.459826,-962.267725,-1762.019645
3306.918925,-11695.253884,-1850.514855,-2528.115143
3306.919263,-8216.285956,-1184.329507,-919.314598
3306.919600,-7698.141797,-1554.432478,1915.238745
3306.919937,-10436.903782,-2294.638420,1915.238745
3306.920275,-11325.150913,-3404.947333,-153.219100
3306.920612,-11029.068536,-2664.741391,689.485948
3306.920949,-9474.636058,-888.247130,2757.943793
3306.921287,-9548.656652,888.247130,2834.553343
3306.921624,-12139.377449,1258.350101,612.876398
3306.921962,-12435.459826,148.041188,-1838.629195
3306.922299,-9104.533087,-74.020594,-1225.752797
3306.922636,-7846.182985,592.164754,2221.676944
3306.922974,-9548.656652,1258.350101,2987.772442
3306.923311,-11843.295072,0.000000,0.000000
3306.923648,-11103.089130,-1628.453072,-536.266849
3306.923986,-8290.306550,370.102971,766.095498
3306.924323,-8808.450710,1036.288319,2374.896044
3306.924661,-11473.192101,2220.617826,-459.657299
3306.924998,-11399.171507,222.061783,-4519.963438
3306.925335,-9696.697840,-740.205942,-2911.162892
3306.925673,-7105.977043,148.041188,0.000000
3306.926010,-7994.224174,888.247130,2298.286494
3306.926348,-10732.986159,148.041188,306.438199
3306.926685,-11695.253884,-1998.556043,-919.314598
3306.927022,-9548.656652,-592.164754,842.705048
3306.927360,-8586.388927,370.102971,3294.210641
3306.927697,-11177.109724,2294.638420,4443.353888
3306.928034,-12953.603985,592.164754,-153.219100
3306.928372,-11843.295072,74.020594,-1608.800546
3306.928709,-7772.162391,1036.288319,0.000000
3306.929047,-7254.018232,666.185348,1915.238745
3306.929384,-10436.903782,666.185348,766.095498
3306.929721,-11695.253884,-2146.597232,-2298.286494
3306.930059,-9474.636058,-1554.432478,-689.485948
3306.930396,-8734.430116,0.000000,1302.362347
3306.930733,-10140.821405,518.144159,1991.848295
3306.931071,-11917.315666,148.041188,-1915.238745
3306.931408,-11843.295072,-1554.432478,-4596.572988
3306.931746,-8586.388927,-1332.370696,-1225.752797
3306.932083,-7328.038826,-1036.288319,1072.533697
3306.932420,-9696.697840,-1554.432478,1455.581446
3306.932758,-11917.315666,-3404.947333,-1455.581446
3306.933095,-10807.006753,-3404.947333,-995.924147
3306.933433,-8734.430116,-1924.535449,1072.533697
3306.933770,-9252.574275,-592.164754,3447.429741
3306.934107,-11695.253884,222.061783,1532.190996
3306.934445,-12805.562797,-1036.288319,-1455.581446
3306.934782,-10436.903782,-444.123565,-689.485948
3306.935119,-7698.141797,740.205942,2068.457845
3306.935457,-9474.636058,296.082377,4290.134789
3306.935794,-11547.212695,0.000000,1762.019645
3306.936132,-11695.253884,-1554.432478,76.609550
3306.936469,-9326.594869,148.041188,1915.238745
3306.936806,-7846.182985,1554.432478,2681.334243
3306.937144,-10955.047942,2368.659014,1991.848295
3306.937481,-12953.603985,1480.411884,-2145.067394
3306.937818,-10732.986159,0.000000,-3140.991542
3306.938156,-7254.018232,1110.308913,-842.705048
3306.938493,-7254.018232,814.226536,1608.800546
3306.938831,-10214.842000,1110.308913,0.000000
3306.939168,-11695.253884,-2072.576638,-2757.943793
3306.939505,-9918.759623,-1258.350101,-536.266849
3306.939843,-8290.306550,-888.247130,1455.581446
3306.940180,-9992.780217,740.205942,2374.896044
3306.940518,-11843.295072,0.000000,-919.314598
3306.940855,-11695.253884,-1998.556043,-2221.676944
3306.941192,-8586.388927,-888.247130,-612.876398
3306.941530,-7846.182985,-666.185348,2604.724693
3306.941867,-10288.862594,444.123565,3140.991542
3306.942204,-11695.253884,-1850.514855,-842.705048
3306.942542,-11325.150913,-2516.700203,-459.657299
3306.942879,-7994.224174,0.000000,919.314598
3306.943217,-9178.553681,148.041188,2451.505594
3306.943554,-11769.274478,888.247130,-306.438199
3306.943891,-12139.377449,-370.102971,-4366.744339
3306.944229,-9770.718434,-222.061783,-2068.457845
3306.944566,-7698.141797,0.000000,229.828649
3306.944903,-9104.533087,0.000000,2451.505594
3306.945241,-12287.418637,-1554.432478,0.000000
3306.945578,-11103.089130,-2960.823768,-2451.505594
3306.945916,-9030.512492,-1628.453072,153.219100
3306.946253,-8586.388927,-296.082377,2298.286494
3306.946590,-10732.986159,814.226536,1072.533697
3306.946928,-12435.459826,-370.102971,-2374.896044
3306.947265,-11621.233289,0.000000,-3064.381992
3306.947603,-8438.347739,814.226536,-995.924147
3306.947940,-8512.368333,148.041188,1838.629195
3306.948277,-10362.883188,0.000000,1991.848295
3306.948615,-11029.068536,-2294.638420,0.000000
3306.948952,-8956.491898,-296.082377,1915.238745
3306.949289,-8290.306550,1406.391290,4213.525239
3306.949627,-10214.842000,1850.514855,4290.134789
3306.949964,-11473.192101,1480.411884,689.485948
3306.950302,-11251.130318,1480.411884,-766.095498
3306.950639,-9696.697840,2220.617826,229.828649
3306.950976,-7846.182985,1924.535449,842.705048
3306.951314,-9770.718434,1850.514855,766.095498
3306.951651,-11103.089130,-962.267725,-1762.019645
3306.951988,-9400.615463,-1184.329507,-1302.362347
3306.952326,-7254.018232,-1036.288319,1072.533697
3306.952663,-9326.594869,74.020594,2298.286494
3306.953001,-11325.150913,74.020594,-689.485948
3306.953338,-12731.542202,-1702.473667,-3524.039291
3306.953675,-9622.677246,-1554.432478,-2298.286494
3306.954013,-7920.203579,-1184.329507,1762.019645
3306.954350,-9770.718434,-1554.432478,2987.772442
3306.954688,-11399.171507,-2664.741391,-306.438199
3306.955025,-10807.006753,-4663.297435,0.000000
3306.955362,-9474.636058,-3256.906145,1302.362347
3306.955700,-9400.615463,-1850.514855,2681.334243
3306.956037,-11917.315666,74.020594,1915.238745
3306.956374,-12657.521608,-666.185348,-1608.800546
3306.956712,-11103.089130,-740.205942,-1762.019645
3306.957049,-8660.409521,518.144159,612.876398
3306.957387,-8660.409521,370.102971,2374.896044
3306.957724,-11325.150913,74.020594,1532.190996
3306.958061,-11843.295072,-1998.556043,-689.485948
3306.958399,-9474.636058,-518.144159,306.438199
3306.958736,-8586.388927,888.247130,2221.676944
3306.959074,-10881.027347,1850.514855,2145.067394
3306.959411,-11991.336260,1332.370696,-2221.676944
3306.959748,-10955.047942,-148.041188,-3294.210641
3306.960086,-7846.182985,666.185348,-1762.019645
3306.960423,-7624.121203,962.267725,0.000000
3306.960760,-9844.739029,296.082377,153.219100
3306.961098,-10436.903782,-1998.556043,-2145.067394
3306.961435,-8956.491898,-1480.411884,0.000000
3306.961773,-7550.100608,296.082377,2374.896044
3306.962110,-9548.656652,888.247130,3677.258390
3306.962447,-11843.295072,740.205942,1149.143247
3306.962785,-11991.336260,370.102971,-1225.752797
3306.963122,-10214.842000,888.247130,0.000000
3306.963459,-8956.491898,1628.453072,2145.067394
3306.963797,-9696.697840,962.267725,1608.800546
3306.964134,-10658.965565,-222.061783,-383.047749
3306.964472,-10066.800811,-1554.432478,-766.095498
3306.964809,-8364.327145,148.041188,689.485948
3306.965146,-9474.636058,370.102971,2298.286494
3306.965484,-11843.295072,1258.350101,459.657299
3306.965821,-12287.418637,-888.247130,-2221.676944
3306.966159,-11029.068536,-888.247130,-1685.410096
3306.966496,-8438.347739,-666.185348,0.000000
3306.966833,-8882.471304,-1776.494261,1149.143247
3306.967171,-10510.924376,-1850.514855,-536.266849
3306.967508,-10732.986159,-4145.153275,-1991.848295
3306.967845,-9918.759623,-3404.947333,383.047749
3306.968183,-8956.491898,-2442.679609,2298.286494
3306.968520,-10288.862594,-592.164754,1762.019645
3306.968858,-12361.439231,-1258.350101,-1378.971896
3306.969195,-12139.377449,-1998.556043,-1455.581446
3306.969532,-8882.471304,-666.185348,153.219100
3306.969870,-8586.388927,-740.205942,2604.724693
3306.970207,-10066.800811,296.082377,2374.896044
3306.970544,-11547.212695,-1480.411884,383.047749
3306.970882,-10584.944971,-814.226536,1225.752797
3306.971219,-8808.450710,666.185348,2145.067394
3306.971557,-10140.821405,2590.720797,3217.601092
3306.971894,-12213.398043,2738.761985,229.828649
3306.972231,-11917.315666,1184.329507,-2374.896044
3306.972569,-9918.759623,1332.370696,-1532.190996
3306.972906,-7105.977043,2664.741391,-383.047749
3306.973243,-9104.533087,1480.411884,689.485948
3306.973581,-9844.739029,0.000000,-1072.533697
3306.973918,-9548.656652,-962.267725,-1608.800546
3306.974256,-8734.430116,444.123565,153.219100
3306.974593,-8808.450710,518.144159,689.485948
3306.974930,-10955.047942,1184.329507,-153.219100
3306.975268,-11399.171507,-444.123565,-3524.039291
3306.975605,-9622.677246,0.000000,-2221.676944
3306.975942,-8216.285956,0.000000,459.657299
3306.976280,-9030.512492,-518.144159,1378.971896
3306.976617,-10510.924376,-666.185348,-229.828649
3306.976955,-11325.150913,-3627.009116,-612.876398
3306.977292,-9770.718434,-1776.494261,1072.533697
3306.977629,-9030.512492,-222.061783,3064.381992
3306.977967,-11325.150913,1258.350101,2911.162892
3306.978304,-12657.521608,148.041188,-612.876398
3306.978641,-11843.295072,-592.164754,-1685.410096
3306.978979,-9104.533087,222.061783,229.828649
3306.979316,-8882.471304,148.041188,2374.896044
3306.979653,-10955.047942,-222.061783,995.924147
3306.979991,-11473.192101,-2072.576638,-919.314598
3306.980328,-10510.924376,-2368.659014,-459.657299
3306.980666,-8586.388927,-962.267725,1302.362347
3306.981003,-8660.409521,-296.082377,1532.190996
3306.981340,-11251.130318,0.000000,-995.924147
3306.981678,-11473.192101,-1998.556043,-2757.943793
3306.982015,-9178.553681,-1702.473667,-1608.800546
3306.982352,-7920.203579,-962.267725,1225.752797
3306.982690,-8956.491898,0.000000,1991.848295
3306.983027,-11473.192101,-2146.597232,459.657299
3306.983365,-10140.821405,-2368.659014,383.047749
3306.983702,-8290.306550,-1036.288319,2298.286494
3306.984039,-9474.636058,444.123565,5056.230287
3306.984377,-11547.212695,1998.556043,2911.162892
3306.984714,-12731.542202,1036.288319,-612.876398
3306.985051,-10658.965565,962.267725,-995.924147
3306.985389,-7698.141797,2072.576638,919.314598
3306.985726,-8438.347739,2294.638420,2604.724693
3306.986064,-10955.047942,1998.556043,383.047749
3306.986401,-11473.192101,-222.061783,-1455.581446
3306.986738,-9992.780217,740.205942,-383.047749
3306.987076,-9104.533087,1924.535449,229.828649
3306.987413,-10584.944971,1998.556043,76.609550
3306.987750,-11325.150913,666.185348,-2528.115143
3306.988088,-9844.739029,-1258.350101,-3064.381992
3306.988425,-7402.059420,-740.205942,-1302.362347
3306.988763,-7920.203579,-740.205942,1225.752797
3306.989100,-10362.883188,-1258.350101,-1378.971896
3306.989437,-11325.150913,-2960.823768,-2221.676944
3306.989775,-10288.862594,-2812.782580,-689.485948
3306.990112,-7994.224174,-1332.370696,1072.533697
3306.990449,-9844.739029,-370.102971,2451.505594
3306.990787,-12065.356855,-1036.288319,0.000000
3306.991124,-11547.212695,-3034.844362,-2068.457845
3306.991462,-8956.491898,-1480.411884,306.438199
3306.991799,-8512.368333,0.000000,3447.429741
3306.992136,-10214.842000,0.000000,2528.115143
3306.992474,-11843.295072,-1998.556043,0.000000
3306.992811,-11029.068536,-1628.453072,76.609550
3306.993148,-8734.430116,-74.020594,2298.286494
3306.993486,-9326.594869,1628.453072,2987.772442
3306.993823,-11843.295072,2220.617826,612.876398
3306.994161,-12731.542202,0.000000,-1685.410096
3306.994498,-10214.842000,74.020594,-1532.190996
3306.994835,-7698.141797,962.267725,536.266849
3306.995173,-9030.512492,592.164754,1532.190996
3306.995510,-10881.027347,-148.041188,-995.924147
3306.995847,-11251.130318,-2442.679609,-1685.410096
3306.996185,-8882.471304,-1110.308913,0.000000
3306.996522,-7624.121203,370.102971,2604.724693
3306.996860,-10510.924376,1702.473667,2451.505594
3306.997197,-12139.377449,888.247130,-1149.143247
3306.997534,-11251.130318,0.000000,-1455.581446
3306.997872,-8586.388927,740.205942,1149.143247
3306.998209,-8290.306550,1480.411884,3447.429741
3306.998546,-10658.965565,444.123565,2681.334243
3306.998884,-11251.130318,-1036.288319,0.000000
3306.999221,-9474.636058,-1036.288319,919.314598
3306.999558,-8068.244768,518.144159,2681.334243
3306.999896,-10066.800811,1184.329507,2681.334243
3307.000233,-11621.233289,1480.411884,-1302.362347
3307.000571,-11695.253884,370.102971,-2681.334243
3307.000908,-9326.594869,148.041188,-995.924147
3307.001245,-7846.182985,1036.288319,76.609550
3307.001583,-9770.718434,518.144159,383.047749
3307.001920,-11695.253884,-1406.391290,-1762.019645
3307.002257,-10658.965565,-2442.679609,-2757.943793
3307.002595,-8882.471304,-1628.453072,0.000000
3307.002932,-8882.471304,-148.041188,919.314598
3307.003270,-11843.295072,-1036.288319,-1072.533697
3307.003607,-11917.315666,-3849.070898,-2451.505594
3307.003944,-9622.677246,-2664.741391,-1532.190996
3307.004282,-7254.018232,-1554.432478,1685.410096
3307.004619,-9326.594869,-666.185348,2528.115143
3307.004956,-11251.130318,-1702.473667,0.000000
3307.005294,-11547.212695,-3552.988522,-383.047749
3307.005631,-9548.656652,-1776.494261,2068.457845
3307.005969,-8956.491898,444.123565,4366.744339
3307.006306,-11103.089130,1776.494261,2834.553343
3307.006643,-12509.480420,370.102971,-612.876398
3307.006981,-10732.986159,0.000000,-1455.581446
3307.007318,-8290.306550,1406.391290,612.876398
3307.007655,-8512.368333,2220.617826,2757.943793
3307.007993,-10732.986159,1628.453072,306.438199
3307.008330,-11547.212695,148.041188,-1685.410096
3307.008668,-9770.718434,370.102971,-612.876398
3307.009005,-8142.265362,1406.391290,1838.629195
3307.009342,-10140.821405,2368.659014,1915.238745
3307.009680,-11843.295072,1036.288319,-1149.143247
3307.010017,-11029.068536,-592.164754,-2451.505594
3307.010354,-8660.409521,0.000000,-306.438199
3307.010692,-7476.080014,148.041188,1915.238745
3307.011029,-9548.656652,-444.123565,1685.410096
3307.011367,-11325.150913,-2072.576638,-842.705048
3307.011704,-9770.718434,-2220.617826,-689.485948
3307.012041,-7179.997637,-962.267725,1072.533697
3307.012379,-8438.347739,740.205942,2451.505594
3307.012716,-11991.336260,518.144159,536.266849
3307.013053,-12287.418637,-666.185348,-2298.286494
3307.013391,-9844.739029,-814.226536,-1225.752797
3307.013728,-7772.162391,-444.123565,2451.505594
3307.014066,-8882.471304,74.020594,3447.429741
3307.014403,-11399.171507,-1332.370696,153.219100
3307.014740,-12287.418637,-2590.720797,-1302.362347
3307.015078,-9770.718434,-740.205942,-306.438199
3307.015415,-8956.491898,0.000000,1838.629195
3307.015752,-11177.109724,1110.308913,76.609550
3307.016090,-12879.583391,-740.205942,-3600.648841
3307.016427,-10732.986159,-2220.617826,-3447.429741
3307.016765,-7179.997637,-1258.350101,-919.314598
3307.017102,-7920.203579,-1036.288319,2298.286494
3307.017439,-11325.150913,-1554.432478,766.095498
3307.017777,-11917.315666,-3034.844362,-1378.971896
3307.018114,-10066.800811,-2590.720797,306.438199
3307.018451,-8882.471304,-740.205942,3524.039291
3307.018789,-9622.677246,592.164754,2834.553343
3307.019126,-11547.212695,-666.185348,-153.219100
3307.019463,-11695.253884,-740.205942,-1225.752797
3307.019801,-7994.224174,740.205942,1149.143247
3307.020138,-7476.080014,2368.659014,3140.991542
3307.020476,-10362.883188,2220.617826,2528.115143
3307.020813,-11843.295072,592.164754,-536.266849
3307.021150,-10140.821405,148.041188,-842.705048
3307.021488,-7920.203579,2220.617826,2374.896044
3307.021825,-8882.471304,2886.803174,3830.477490
3307.022162,-11917.315666,2960.823768,-306.438199
3307.022500,-12065.356855,444.123565,-3370.820191
3307.022837,-9030.512492,666.185348,-2451.505594
3307.023175,-7179.997637,370.102971,1302.362347
3307.023512,-8882.471304,518.144159,1685.410096
3307.023849,-10658.965565,-814.226536,-2298.286494
3307.024187,-10584.944971,-2072.576638,-2528.115143
3307.024524,-9178.553681,-740.205942,-383.047749
3307.024861,-8956.491898,592.164754,1302.362347
3307.025199,-11843.295072,74.020594,536.266849
3307.025536,-12583.501014,-1406.391290,-2451.505594
3307.025874,-9918.759623,-2368.659014,-2604.724693
3307.026211,-7402.059420,-1480.411884,995.924147
3307.026548,-9104.533087,-1554.432478,3753.867940
3307.026886,-11843.295072,-1702.473667,1532.190996
3307.027223,-12361.439231,-2442.679609,0.000000
3307.027560,-9770.718434,-1554.432478,1072.533697
3307.027898,-8438.347739,0.000000,3370.820191
3307.028235,-10732.986159,666.185348,2374.896044
3307.028573,-12509.480420,148.041188,-1072.533697
3307.028910,-11251.130318,-740.205942,-1608.800546
3307.029247,-8586.388927,-666.185348,383.047749
3307.029585,-7846.182985,0.000000,2374.896044
3307.029922,-10658.965565,-592.164754,1302.362347
3307.030259,-11547.212695,-1036.288319,-919.314598
3307.030597,-10436.903782,-1998.556043,-612.876398
3307.030934,-8142.265362,148.041188,1225.752797
3307.031272,-9326.594869,592.164754,1072.533697
3307.031609,-11695.253884,0.000000,-919.314598
3307.031946,-11325.150913,-1332.370696,-2528.115143
3307.032284,-8734.430116,-962.267725,-153.219100
3307.032621,-7328.038826,0.000000,1991.848295
3307.032958,-8660.409521,1036.288319,2068.457845
3307.033296,-12065.356855,-814.226536,0.000000
3307.033633,-11177.109724,-962.267725,0.000000
3307.033971,-8808.450710,592.164754,1838.629195
3307.034308,-9474.636058,1776.494261,3600.648841
3307.034645,-11325.150913,1850.514855,383.047749
3307.034983,-11843.295072,148.041188,-1608.800546
3307.035320,-10362.883188,-518.144159,-536.266849
3307.035657,-6809.894666,814.226536,766.095498
3307.035995,-8734.430116,1332.370696,2145.067394
3307.036332,-11621.233289,-148.041188,-229.828649
3307.036670,-10955.047942,-1036.288319,-2451.505594
3307.037007,-9622.677246,-666.185348,-536.266849
3307.037344,-8956.491898,592.164754,612.876398
3307.037682,-10362.883188,370.102971,-229.828649
3307.038019,-11769.274478,-1110.308913,-3830.477490
3307.038356,-10510.924376,-2146.597232,-3294.210641
3307.038694,-8290.306550,-1776.494261,-689.485948
3307.039031,-8290.306550,-1628.453072,2068.457845
3307.039368,-10881.027347,-2294.638420,153.219100
3307.039706,-11325.150913,-3182.885551,-1302.362347
3307.040043,-10066.800811,-2812.782580,76.609550
3307.040381,-8660.409521,-740.205942,3217.601092
3307.040718,-9918.759623,222.061783,3983.696590
3307.041055,-12361.439231,0.000000,1149.143247
3307.041393,-12065.356855,-74.020594,-919.314598
3307.041730,-9104.533087,0.000000,306.438199
3307.042067,-8438.347739,1184.329507,3217.601092
3307.042405,-9548.656652,296.082377,2681.334243
3307.042742,-11473.192101,592.164754,-306.438199
3307.043080,-10807.006753,-370.102971,-1072.533697
3307.043417,-8586.388927,962.267725,383.047749
3307.043754,-8290.306550,2072.576638,1225.752797
3307.044092,-11029.068536,1998.556043,76.609550
3307.044429,-11695.253884,222.061783,-2451.505594
3307.044766,-9548.656652,370.102971,-2221.676944
3307.045104,-7179.997637,518.144159,76.609550
3307.045441,-8586.388927,444.123565,1455.581446
3307.045779,-10362.883188,-1480.411884,229.828649
3307.046116,-11547.212695,-2072.576638,76.609550
3307.046453,-9474.636058,-1110.308913,842.705048
3307.046791,-9030.512492,592.164754,1762.019645
3307.047128,-10955.047942,1036.288319,995.924147
3307.047465,-11325.150913,-740.205942,-1838.629195
3307.047803,-10584.944971,-1332.370696,-842.705048
3307.048140,-8290.306550,-370.102971,995.924147
3307.048478,-8290.306550,296.082377,2528.115143
3307.048815,-11399.171507,-296.082377,1225.752797
3307.049152,-11843.295072,-1702.473667,229.828649
3307.049490,-10362.883188,-962.267725,612.876398
3307.049827,-9400.615463,444.123565,2757.943793
3307.050164,-10288.862594,1554.432478,1302.362347
3307.050502,-11917.315666,74.020594,-1838.629195
3307.050839,-11399.171507,-1258.350101,-3447.429741
3307.051177,-8216.285956,-2146.597232,-1532.190996
3307.051514,-7254.018232,-962.267725,1302.362347
3307.051851,-9326.594869,-1184.329507,919.314598
3307.052189,-11473.192101,-1850.514855,-1838.629195
3307.052526,-11029.068536,-3330.926739,-1225.752797
3307.052863,-9178.553681,-592.164754,919.314598
3307.053201,-10066.800811,-444.123565,2757.943793
3307.053538,-11621.233289,148.041188,459.657299
3307.053876,-11547.212695,-1036.288319,-1685.410096
3307.054213,-10066.800811,-1850.514855,-383.047749
3307.054550,-7846.182985,-518.144159,2451.505594
3307.054888,-8734.430116,-444.123565,3677.258390
3307.055225,-10732.986159,-592.164754,1302.362347
3307.055562,-11177.109724,-296.082377,-919.314598
3307.055900,-9548.656652,1036.288319,842.705048
3307.056237,-8882.471304,1628.453072,2145.067394
3307.056574,-10807.006753,3256.906145,1532.190996
3307.056912,-11843.295072,1776.494261,-536.266849
3307.057249,-10881.027347,1628.453072,-1608.800546
3307.057587,-8216.285956,1258.350101,0.000000
3307.057924,-8438.347739,740.205942,2374.896044
3307.058261,-10214.842000,-370.102971,459.657299
3307.058599,-11399.171507,-1480.411884,-1149.143247
3307.058936,-9622.677246,-1184.329507,-842.705048
3307.059273,-7920.203579,0.000000,229.828649
3307.059611,-9474.636058,592.164754,229.828649
3307.059948,-11399.171507,0.000000,-2451.505594
3307.060286,-10658.965565,-1184.329507,-3447.429741
3307.060623,-9252.574275,-1184.329507,-1225.752797
3307.060960,-7698.141797,-1036.288319,1608.800546
3307.061298,-9992.780217,-1924.535449,1991.848295
