#time,accel_x,accel_y,accel_z
2878.547543,-9844.739029,-2294.638420,-2374.896044
2878.547881,-10807.006753,-2294.638420,-1915.238745
2878.548219,-10584.944971,-3849.070898,-995.924147
2878.548556,-9696.697840,-4145.153275,0.000000
2878.548894,-9622.677246,-3997.112087,919.314598
2878.549232,-8660.409521,-3997.112087,919.314598
2878.549569,-9548.656652,-2960.823768,612.876398
2878.549907,-9326.594869,-1332.370696,-1225.752797
2878.550245,-9548.656652,-444.123565,-459.657299
2878.550582,-10510.924376,1554.432478,-536.266849
2878.550920,-10732.986159,2664.741391,-1915.238745
2878.551257,-11029.068536,1998.556043,-1225.752797
2878.551595,-10881.027347,1554.432478,-1915.238745
2878.551933,-10881.027347,370.102971,-1838.629195
2878.552270,-10436.903782,-444.123565,-1532.190996
2878.552608,-9178.553681,-888.247130,-995.924147
2878.552946,-9474.636058,-888.247130,-842.705048
2878.553283,-10066.800811,-888.247130,-1455.581446
2878.553621,-10288.862594,-592.164754,-1991.848295
2878.553959,-10658.965565,-1110.308913,-1685.410096
2878.554296,-10066.800811,222.061783,-2374.896044
2878.554634,-10658.965565,74.020594,-1608.800546
2878.554972,-9992.780217,-1036.288319,-2451.505594
2878.555309,-9104.533087,-1480.411884,-1991.848295
2878.555647,-9992.780217,-2812.782580,-995.924147
2878.555985,-9252.574275,-2812.782580,-1991.848295
2878.556322,-9770.718434,-3552.988522,-2221.676944
2878.556660,-9696.697840,-4663.297435,-2528.115143
2878.556998,-8142.265362,-4145.153275,-2451.505594
2878.557335,-8956.491898,-3182.885551,-1302.362347
2878.557673,-9326.594869,-1998.556043,-1685.410096
2878.558011,-9474.636058,-1554.432478,-2451.505594
2878.558348,-11325.150913,-1554.432478,-2987.772442
2878.558686,-11843.295072,-2960.823768,-3983.696590
2878.559023,-11103.089130,-3478.967927,-4519.963438
2878.559361,-10362.883188,-5847.626942,-4136.915689
2878.559699,-9030.512492,-7105.977043,-3983.696590
2878.560036,-8512.368333,-7179.997637,-2757.943793
2878.560374,-8438.347739,-6291.750507,-1455.581446
2878.560712,-9548.656652,-4589.276840,-1072.533697
2878.561049,-11399.171507,-3997.112087,-2757.943793
2878.561387,-12065.356855,-2664.741391,-3753.867940
2878.561725,-11991.336260,-3478.967927,-3217.601092
2878.562062,-11103.089130,-4071.132681,-1532.190996
2878.562400,-9992.780217,-4589.276840,229.828649
2878.562738,-9844.739029,-4441.235652,1455.581446
2878.563075,-9474.636058,-3923.091493,919.314598
2878.563413,-10436.903782,-3923.091493,-766.095498
2878.563751,-9770.718434,-4737.318029,-229.828649
2878.564088,-9474.636058,-2220.617826,383.047749
2878.564426,-9400.615463,-1110.308913,76.609550
2878.564764,-9252.574275,1776.494261,-1915.238745
2878.565101,-10214.842000,148.041188,-2911.162892
2878.565439,-10807.006753,-666.185348,-766.095498
2878.565777,-9474.636058,0.000000,0.000000
2878.566114,-9178.553681,518.144159,229.828649
2878.566452,-9474.636058,-888.247130,0.000000
2878.566789,-9474.636058,-3552.988522,-995.924147
2878.567127,-8660.409521,-3997.112087,0.000000
2878.567465,-7772.162391,-2146.597232,1225.752797
2878.567802,-7994.224174,0.000000,0.000000
2878.568140,-10807.006753,-666.185348,-1915.238745
2878.568478,-13027.624579,-592.164754,-3064.381992
2878.568815,-12213.398043,-222.061783,-3064.381992
2878.569153,-10066.800811,148.041188,-1838.629195
2878.569491,-8882.471304,-666.185348,-536.266849
2878.569828,-11029.068536,-2960.823768,383.047749
2878.570166,-11547.212695,-2368.659014,995.924147
2878.570504,-9400.615463,-1776.494261,689.485948
2878.570841,-8956.491898,-444.123565,1608.800546
2878.571179,-11547.212695,-296.082377,1378.971896
2878.571517,-12731.542202,370.102971,-1532.190996
2878.571854,-10732.986159,1702.473667,-2834.553343
2878.572192,-7920.203579,666.185348,-689.485948
2878.572529,-9104.533087,444.123565,1608.800546
2878.572867,-11251.130318,1258.350101,0.000000
2878.573205,-10881.027347,1554.432478,-2451.505594
2878.573542,-9178.553681,222.061783,-1838.629195
2878.573880,-8364.327145,-2516.700203,536.266849
2878.574217,-9918.759623,-1036.288319,612.876398
2878.574555,-10436.903782,0.000000,-995.924147
2878.574893,-8808.450710,74.020594,-1991.848295
2878.575230,-8808.450710,0.000000,-536.266849
2878.575568,-10658.965565,740.205942,153.219100
2878.575906,-10066.800811,1480.411884,-536.266849
2878.576243,-9770.718434,1110.308913,612.876398
2878.576581,-10288.862594,1998.556043,1302.362347
2878.576918,-11177.109724,1702.473667,229.828649
2878.577256,-9548.656652,1036.288319,1149.143247
2878.577594,-9326.594869,444.123565,3447.429741
2878.577931,-10732.986159,1184.329507,4060.306139
2878.578269,-10362.883188,1850.514855,2221.676944
2878.578607,-9326.594869,1850.514855,2145.067394
2878.578944,-10510.924376,1628.453072,2451.505594
2878.579282,-11991.336260,1924.535449,306.438199
2878.579619,-10955.047942,2664.741391,-2451.505594
2878.579957,-9252.574275,740.205942,-1072.533697
2878.580295,-8956.491898,-222.061783,0.000000
2878.580632,-9548.656652,-888.247130,-1149.143247
2878.580970,-9104.533087,-2072.576638,-1915.238745
2878.581308,-8660.409521,-3627.009116,459.657299
2878.581645,-9178.553681,-3627.009116,229.828649
2878.581983,-10214.842000,-3108.864956,-383.047749
2878.582320,-9696.697840,-3849.070898,536.266849
2878.582658,-9178.553681,-3256.906145,1762.019645
2878.582996,-9992.780217,-1628.453072,536.266849
2878.583333,-11473.192101,-1258.350101,-1991.848295
2878.583671,-10955.047942,-3478.967927,-229.828649
2878.584009,-11473.192101,-3849.070898,919.314598
2878.584346,-10881.027347,-2664.741391,842.705048
2878.584684,-9992.780217,-2886.803174,689.485948
2878.585021,-9844.739029,-3478.967927,1378.971896
2878.585359,-10510.924376,-2072.576638,612.876398
2878.585697,-10214.842000,-1110.308913,-612.876398
2878.586034,-10732.986159,-296.082377,-1225.752797
2878.586372,-10658.965565,74.020594,0.000000
2878.586710,-11103.089130,666.185348,-1072.533697
2878.587047,-9844.739029,-370.102971,-1302.362347
2878.587385,-9474.636058,-1554.432478,229.828649
2878.587722,-8882.471304,-1184.329507,2068.457845
2878.588060,-9548.656652,-592.164754,842.705048
2878.588398,-9474.636058,-962.267725,-1302.362347
2878.588735,-9918.759623,-2368.659014,-1225.752797
2878.589073,-10066.800811,-1480.411884,-383.047749
2878.589410,-8882.471304,-1110.308913,-1378.971896
2878.589748,-8364.327145,-666.185348,0.000000
2878.590086,-9474.636058,222.061783,306.438199
2878.590423,-9696.697840,814.226536,-689.485948
2878.590761,-9844.739029,370.102971,-383.047749
2878.591099,-10288.862594,-296.082377,2681.334243
2878.591436,-10362.883188,222.061783,2451.505594
2878.591774,-10362.883188,518.144159,1225.752797
2878.592111,-10362.883188,370.102971,1838.629195
2878.592449,-9622.677246,-222.061783,2604.724693
2878.592787,-9992.780217,1480.411884,383.047749
2878.593124,-9844.739029,2294.638420,-1225.752797
2878.593462,-10807.006753,814.226536,-995.924147
2878.593800,-10807.006753,518.144159,-919.314598
2878.594137,-10584.944971,444.123565,-1149.143247
2878.594475,-9252.574275,444.123565,-306.438199
2878.594812,-10288.862594,0.000000,1455.581446
2878.595150,-11843.295072,74.020594,76.609550
2878.595488,-11103.089130,-296.082377,-1762.019645
2878.595825,-10288.862594,-1480.411884,-306.438199
2878.596163,-9770.718434,-2146.597232,612.876398
2878.596501,-9770.718434,-962.267725,0.000000
2878.596838,-9918.759623,-740.205942,-459.657299
2878.597176,-9622.677246,-1110.308913,1225.752797
2878.597513,-9326.594869,518.144159,919.314598
2878.597851,-10140.821405,1036.288319,919.314598
2878.598189,-10732.986159,518.144159,1991.848295
2878.598526,-11473.192101,-370.102971,3217.601092
2878.598864,-10807.006753,740.205942,2374.896044
2878.599202,-9696.697840,962.267725,2374.896044
2878.599539,-9326.594869,444.123565,3140.991542
2878.599877,-9622.677246,1110.308913,2604.724693
2878.600214,-9992.780217,2220.617826,-1072.533697
2878.600552,-9548.656652,2294.638420,-1455.581446
2878.600890,-9844.739029,2294.638420,-306.438199
2878.601227,-9844.739029,1406.391290,-536.266849
2878.601565,-9474.636058,2072.576638,-2451.505594
2878.601903,-9696.697840,962.267725,-306.438199
2878.602240,-9400.615463,74.020594,1378.971896
2878.602578,-8882.471304,444.123565,76.609550
2878.602915,-10214.842000,74.020594,383.047749
2878.603253,-10658.965565,-1850.514855,229.828649
2878.603591,-10658.965565,-1776.494261,0.000000
2878.603928,-9844.739029,-1924.535449,-919.314598
2878.604266,-8882.471304,-1184.329507,-229.828649
2878.604603,-9474.636058,-1924.535449,766.095498
2878.604941,-10066.800811,-962.267725,-612.876398
2878.605279,-9992.780217,-888.247130,-1302.362347
2878.605616,-10362.883188,-1850.514855,459.657299
2878.605954,-10955.047942,-2146.597232,1685.410096
2878.606292,-10436.903782,-814.226536,383.047749
2878.606629,-10658.965565,-2072.576638,919.314598
2878.606967,-10288.862594,-2442.679609,2068.457845
2878.607304,-10214.842000,-1480.411884,1455.581446
2878.607642,-10436.903782,-518.144159,-383.047749
2878.607980,-10955.047942,-1110.308913,-1378.971896
2878.608317,-10732.986159,-2738.761985,-1225.752797
2878.608655,-10510.924376,-1998.556043,-1991.848295
2878.608993,-9104.533087,-2220.617826,-1915.238745
2878.609330,-8438.347739,-2738.761985,-612.876398
2878.609668,-9178.553681,-2886.803174,76.609550
2878.610005,-9992.780217,-2294.638420,-1149.143247
2878.610343,-9622.677246,-2294.638420,-842.705048
2878.610681,-10066.800811,-2146.597232,766.095498
2878.611018,-10732.986159,-1702.473667,76.609550
2878.611356,-10066.800811,-1924.535449,-536.266849
2878.611694,-9178.553681,-888.247130,1915.238745
2878.612031,-9474.636058,-740.205942,3370.820191
2878.612369,-10140.821405,962.267725,2528.115143
2878.612706,-10584.944971,518.144159,842.705048
2878.613044,-11621.233289,444.123565,2374.896044
2878.613382,-11547.212695,814.226536,1149.143247
2878.613719,-9770.718434,962.267725,229.828649
2878.614057,-9030.512492,518.144159,1608.800546
2878.614395,-8586.388927,962.267725,2068.457845
2878.614732,-9992.780217,1702.473667,383.047749
2878.615070,-10510.924376,1554.432478,-1608.800546
2878.615407,-10140.821405,0.000000,-459.657299
2878.615745,-10436.903782,444.123565,383.047749
2878.616083,-10066.800811,222.061783,-1302.362347
2878.616420,-9104.533087,-444.123565,-306.438199
2878.616758,-9178.553681,-1332.370696,1149.143247
2878.617096,-8734.430116,-1258.350101,536.266849
2878.617433,-9844.739029,-592.164754,-689.485948
2878.617771,-10807.006753,-1776.494261,0.000000
2878.618108,-11399.171507,-1850.514855,-153.219100
2878.618446,-10584.944971,-1332.370696,-995.924147
2878.618784,-9178.553681,-740.205942,-612.876398
2878.619121,-8734.430116,-1110.308913,1072.533697
2878.619459,-10658.965565,-444.123565,842.705048
2878.619796,-11029.068536,0.000000,-536.266849
2878.620134,-11103.089130,0.000000,-536.266849
2878.620472,-11325.150913,148.041188,1302.362347
2878.620809,-11325.150913,666.185348,536.266849
2878.621147,-9770.718434,592.164754,383.047749
2878.621485,-9548.656652,-296.082377,1685.410096
2878.621822,-10140.821405,1258.350101,1991.848295
2878.622160,-9992.780217,1998.556043,-612.876398
2878.622497,-10214.842000,1406.391290,-1378.971896
2878.622835,-10436.903782,0.000000,-306.438199
2878.623173,-10066.800811,370.102971,0.000000
2878.623510,-9474.636058,1924.535449,-1608.800546
2878.623848,-8586.388927,-296.082377,76.609550
2878.624186,-9326.594869,0.000000,919.314598
2878.624523,-9992.780217,-74.020594,0.000000
2878.624861,-9844.739029,296.082377,0.000000
2878.625198,-9252.574275,-962.267725,919.314598
2878.625536,-9696.697840,-592.164754,1225.752797
2878.625874,-9918.759623,222.061783,612.876398
2878.626211,-9400.615463,222.061783,766.095498
2878.626549,-9474.636058,148.041188,3524.039291
2878.626887,-10510.924376,1628.453072,2374.896044
2878.627224,-10807.006753,1924.535449,306.438199
2878.627562,-11325.150913,814.226536,995.924147
2878.627899,-11177.109724,0.000000,689.485948
2878.628237,-10288.862594,0.000000,-306.438199
2878.628575,-8586.388927,0.000000,229.828649
2878.628912,-8586.388927,-666.185348,766.095498
2878.629250,-10140.821405,-592.164754,-76.609550
2878.629588,-10732.986159,-592.164754,-1838.629195
2878.629925,-9844.739029,-814.226536,-1532.190996
2878.630263,-10288.862594,-1406.391290,-536.266849
2878.630600,-10584.944971,-1110.308913,-1762.019645
2878.630938,-9548.656652,-1776.494261,-2834.553343
2878.631276,-9326.594869,-3627.009116,689.485948
2878.631613,-9178.553681,-2960.823768,1378.971896
2878.631951,-10214.842000,-2146.597232,0.000000
2878.632289,-10955.047942,-2220.617826,-766.095498
2878.632626,-11399.171507,-3034.844362,153.219100
2878.632964,-10658.965565,-2146.597232,459.657299
2878.633301,-9474.636058,-1258.350101,-153.219100
2878.633639,-9252.574275,-592.164754,2221.676944
2878.633977,-10510.924376,-1776.494261,2757.943793
2878.634314,-10584.944971,1184.329507,536.266849
2878.634652,-11029.068536,592.164754,612.876398
2878.634990,-10510.924376,518.144159,2221.676944
2878.635327,-10214.842000,1184.329507,1225.752797
2878.635665,-10881.027347,962.267725,0.000000
2878.636002,-9030.512492,1110.308913,76.609550
2878.636340,-9104.533087,666.185348,1608.800546
2878.636678,-9696.697840,1480.411884,306.438199
2878.637015,-9104.533087,1184.329507,-1455.581446
2878.637353,-9844.739029,814.226536,-459.657299
2878.637690,-10066.800811,74.020594,0.000000
2878.638028,-9252.574275,740.205942,-1915.238745
2878.638366,-8808.450710,222.061783,-536.266849
2878.638703,-8586.388927,-1184.329507,612.876398
2878.639041,-9178.553681,0.000000,919.314598
2878.639379,-10288.862594,0.000000,-383.047749
2878.639716,-10066.800811,-666.185348,-306.438199
2878.640054,-10214.842000,-1332.370696,1225.752797
2878.640391,-10288.862594,-370.102971,76.609550
2878.640729,-9548.656652,0.000000,0.000000
2878.641067,-9474.636058,-1184.329507,1838.629195
2878.641404,-10214.842000,444.123565,2528.115143
2878.641742,-10658.965565,1554.432478,842.705048
2878.642080,-11177.109724,888.247130,229.828649
2878.642417,-11843.295072,0.000000,995.924147
2878.642755,-11547.212695,148.041188,153.219100
2878.643092,-9844.739029,1110.308913,-536.266849
2878.643430,-9474.636058,0.000000,383.047749
2878.643768,-9844.739029,-296.082377,842.705048
2878.644105,-10362.883188,592.164754,-1608.800546
2878.644443,-10658.965565,-444.123565,-1762.019645
2878.644781,-10362.883188,-370.102971,-383.047749
2878.645118,-10140.821405,-1258.350101,-229.828649
2878.645456,-9918.759623,-592.164754,-1072.533697
2878.645793,-8808.450710,-1554.432478,76.609550
2878.646131,-9474.636058,-666.185348,2145.067394
2878.646469,-10066.800811,0.000000,1991.848295
2878.646806,-9918.759623,148.041188,76.609550
2878.647144,-10140.821405,-1258.350101,1455.581446
2878.647482,-10732.986159,-888.247130,2451.505594
2878.647819,-9548.656652,888.247130,1072.533697
2878.648157,-8882.471304,444.123565,919.314598
2878.648494,-9548.656652,1332.370696,2911.162892
2878.648832,-10214.842000,1924.535449,1225.752797
2878.649170,-11029.068536,2590.720797,0.000000
2878.649507,-10436.903782,2220.617826,459.657299
2878.649845,-10510.924376,1480.411884,1149.143247
2878.650183,-10436.903782,2146.597232,-76.609550
2878.650520,-9622.677246,518.144159,-1532.190996
2878.650858,-9178.553681,666.185348,306.438199
2878.651195,-10066.800811,814.226536,1072.533697
2878.651533,-10362.883188,962.267725,-1838.629195
2878.651871,-10140.821405,0.000000,-2068.457845
2878.652208,-10658.965565,-1554.432478,-1225.752797
2878.652546,-9548.656652,-1924.535449,-1838.629195
2878.652883,-8438.347739,-1924.535449,-1532.190996
2878.653221,-8438.347739,-2072.576638,995.924147
2878.653559,-10140.821405,-2220.617826,1072.533697
2878.653896,-10436.903782,-2072.576638,-842.705048
2878.654234,-10510.924376,-2146.597232,-919.314598
2878.654572,-10658.965565,-3182.885551,1915.238745
2878.654909,-10288.862594,-1924.535449,1532.190996
2878.655247,-10214.842000,-1702.473667,612.876398
2878.655584,-10214.842000,-2442.679609,2068.457845
2878.655922,-9844.739029,-1110.308913,2451.505594
2878.656260,-10658.965565,-296.082377,1072.533697
2878.656597,-10807.006753,296.082377,-459.657299
2878.656935,-11177.109724,-962.267725,383.047749
2878.657273,-10362.883188,-740.205942,153.219100
2878.657610,-9474.636058,222.061783,-842.705048
2878.657948,-9252.574275,0.000000,306.438199
2878.658285,-9992.780217,-1332.370696,1608.800546
2878.658623,-10214.842000,0.000000,-153.219100
2878.658961,-10362.883188,740.205942,-1608.800546
2878.659298,-10288.862594,-962.267725,0.000000
2878.659636,-9548.656652,-296.082377,383.047749
2878.659974,-9770.718434,-666.185348,-766.095498
2878.660311,-9548.656652,74.020594,0.000000
2878.660649,-9030.512492,-666.185348,1225.752797
2878.660986,-9400.615463,1110.308913,1455.581446
2878.661324,-9770.718434,888.247130,536.266849
2878.661662,-9474.636058,74.020594,383.047749
2878.661999,-10807.006753,888.247130,1685.410096
2878.662337,-10510.924376,666.185348,1149.143247
2878.662675,-8956.491898,1628.453072,0.000000
2878.663012,-9400.615463,814.226536,1915.238745
2878.663350,-10732.986159,1406.391290,1838.629195
2878.663687,-9992.780217,1480.411884,-459.657299
2878.664025,-9844.739029,518.144159,-689.485948
2878.664363,-9696.697840,740.205942,766.095498
2878.664700,-10140.821405,0.000000,-612.876398
2878.665038,-9770.718434,148.041188,-1685.410096
2878.665376,-9178.553681,-370.102971,-919.314598
2878.665713,-9622.677246,-814.226536,536.266849
2878.666051,-10140.821405,444.123565,-1302.362347
2878.666388,-9992.780217,0.000000,-2451.505594
2878.666726,-10510.924376,-1480.411884,-1225.752797
2878.667064,-10881.027347,-1850.514855,-766.095498
2878.667401,-10214.842000,-1110.308913,-1149.143247
2878.667739,-9178.553681,-1480.411884,76.609550
2878.668076,-9918.759623,-1554.432478,2528.115143
2878.668414,-10732.986159,-962.267725,1225.752797
2878.668752,-10362.883188,-666.185348,689.485948
2878.669089,-10510.924376,0.000000,2757.943793
2878.669427,-11029.068536,0.000000,2298.286494
2878.669765,-10584.944971,1110.308913,689.485948
2878.670102,-9622.677246,370.102971,1072.533697
2878.670440,-9326.594869,296.082377,2604.724693
2878.670777,-9844.739029,1924.535449,1608.800546
2878.671115,-10066.800811,1776.494261,76.609550
2878.671453,-9770.718434,1036.288319,0.000000
2878.671790,-10510.924376,296.082377,689.485948
2878.672128,-10140.821405,1406.391290,-842.705048
2878.672465,-8956.491898,592.164754,-766.095498
2878.672803,-8586.388927,74.020594,766.095498
2878.673140,-9622.677246,814.226536,612.876398
2878.673478,-9474.636058,518.144159,-1149.143247
2878.673816,-9696.697840,222.061783,0.000000
2878.674153,-10066.800811,-962.267725,1302.362347
2878.674491,-10140.821405,74.020594,536.266849
2878.674828,-10066.800811,-518.144159,-689.485948
2878.675166,-9918.759623,-1258.350101,1072.533697
2878.675503,-9474.636058,-1850.514855,2298.286494
2878.675841,-9918.759623,-370.102971,995.924147
2878.676178,-10140.821405,0.000000,612.876398
2878.676516,-10881.027347,-1406.391290,766.095498
2878.676853,-10584.944971,-1332.370696,229.828649
2878.677191,-10066.800811,-444.123565,-919.314598
2878.677528,-9252.574275,-518.144159,1149.143247
2878.677866,-10066.800811,-814.226536,1608.800546
2878.678204,-10436.903782,-592.164754,0.000000
2878.678541,-10510.924376,-444.123565,-1302.362347
2878.678879,-9918.759623,-1406.391290,-76.609550
2878.679216,-10584.944971,-1554.432478,-229.828649
2878.679554,-10658.965565,-1184.329507,-1915.238745
2878.679891,-10066.800811,-2072.576638,-1762.019645
2878.680229,-9030.512492,-2146.597232,-995.924147
2878.680566,-9252.574275,-1406.391290,-919.314598
2878.680904,-9696.697840,-666.185348,-1915.238745
2878.681241,-10140.821405,-2294.638420,-1149.143247
2878.681579,-10807.006753,-1924.535449,0.000000
2878.681916,-10584.944971,-1036.288319,0.000000
2878.682254,-9474.636058,-814.226536,306.438199
2878.682591,-9400.615463,-1184.329507,2374.896044
2878.682929,-10584.944971,-518.144159,2374.896044
2878.683267,-10658.965565,518.144159,1072.533697
2878.683604,-10140.821405,740.205942,1149.143247
2878.683942,-9844.739029,296.082377,2604.724693
2878.684279,-10214.842000,1184.329507,1225.752797
2878.684617,-9918.759623,1036.288319,0.000000
2878.684954,-9696.697840,1480.411884,1762.019645
2878.685292,-9548.656652,1332.370696,1378.971896
2878.685629,-9622.677246,2220.617826,153.219100
2878.685967,-10066.800811,1702.473667,0.000000
2878.686304,-10288.862594,962.267725,306.438199
2878.686642,-11177.109724,296.082377,0.000000
2878.686979,-9992.780217,592.164754,-1532.190996
2878.687317,-8290.306550,-222.061783,-536.266849
2878.687654,-9104.533087,-888.247130,306.438199
2878.687992,-9992.780217,-518.144159,-766.095498
2878.688330,-9770.718434,-962.267725,-842.705048
2878.688667,-9918.759623,-666.185348,995.924147
2878.689005,-10362.883188,-962.267725,689.485948
2878.689342,-11029.068536,-592.164754,-536.266849
2878.689680,-9918.759623,-1628.453072,766.095498
2878.690017,-9992.780217,-2072.576638,3524.039291
2878.690355,-10288.862594,-444.123565,2528.115143
2878.690692,-10732.986159,0.000000,919.314598
2878.691030,-10955.047942,-666.185348,383.047749
2878.691367,-11103.089130,-1258.350101,536.266849
2878.691705,-10584.944971,518.144159,-306.438199
2878.692042,-9696.697840,0.000000,0.000000
2878.692380,-9918.759623,0.000000,919.314598
2878.692718,-10066.800811,962.267725,-76.609550
2878.693055,-10584.944971,1258.350101,-1302.362347
2878.693393,-9918.759623,518.144159,-229.828649
2878.693730,-10214.842000,-148.041188,766.095498
2878.694068,-10658.965565,444.123565,-459.657299
2878.694405,-9770.718434,148.041188,-2145.067394
2878.694743,-9696.697840,-1480.411884,-153.219100
2878.695080,-9178.553681,-666.185348,383.047749
2878.695418,-9178.553681,0.000000,-306.438199
2878.695755,-9918.759623,-74.020594,-153.219100
2878.696093,-10288.862594,-666.185348,-459.657299
2878.696430,-10214.842000,0.000000,-536.266849
2878.696768,-10362.883188,518.144159,-689.485948
2878.697105,-8660.409521,-666.185348,1225.752797
2878.697443,-9474.636058,444.123565,2911.162892
2878.697781,-10807.006753,666.185348,1838.629195
2878.698118,-10140.821405,1554.432478,229.828649
2878.698456,-10584.944971,444.123565,2068.457845
2878.698793,-11177.109724,592.164754,1532.190996
2878.699131,-10881.027347,740.205942,-612.876398
2878.699468,-10140.821405,-296.082377,-306.438199
2878.699806,-8956.491898,-444.123565,1685.410096
2878.700143,-9326.594869,296.082377,76.609550
2878.700481,-9770.718434,592.164754,-1378.971896
2878.700818,-10658.965565,-1036.288319,-1302.362347
2878.701156,-10732.986159,-1702.473667,-459.657299
2878.701493,-10362.883188,-1332.370696,-1608.800546
2878.701831,-9400.615463,-1776.494261,-842.705048
2878.702169,-8808.450710,-2960.823768,1532.190996
2878.702506,-9770.718434,-2368.659014,919.314598
2878.702844,-9918.759623,-1998.556043,-689.485948
2878.703181,-9474.636058,-2294.638420,459.657299
2878.703519,-10881.027347,-1776.494261,1838.629195
2878.703856,-11177.109724,-1850.514855,612.876398
2878.704194,-10436.903782,-1332.370696,76.609550
2878.704531,-9622.677246,-2220.617826,2681.334243
2878.704869,-10362.883188,-222.061783,3677.258390
2878.705206,-10214.842000,444.123565,1608.800546
2878.705544,-10807.006753,148.041188,766.095498
2878.705881,-11621.233289,-296.082377,1225.752797
2878.706219,-11103.089130,592.164754,76.609550
2878.706556,-9622.677246,444.123565,-383.047749
2878.706894,-8882.471304,592.164754,459.657299
2878.707232,-9104.533087,-222.061783,459.657299
2878.707569,-9770.718434,1036.288319,-842.705048
2878.707907,-9992.780217,888.247130,-1225.752797
2878.708244,-9548.656652,74.020594,76.609550
2878.708582,-9844.739029,592.164754,0.000000
2878.708919,-9548.656652,0.000000,-2298.286494
2878.709257,-9252.574275,-518.144159,153.219100
2878.709594,-8882.471304,-888.247130,1915.238745
2878.709932,-9252.574275,814.226536,0.000000
2878.710269,-10140.821405,0.000000,-1685.410096
2878.710607,-11029.068536,-1184.329507,-766.095498
2878.710944,-11177.109724,-1480.411884,-612.876398
2878.711282,-10362.883188,-814.226536,-229.828649
2878.711619,-8882.471304,-296.082377,536.266849
2878.711957,-9548.656652,-962.267725,2451.505594
2878.712295,-10955.047942,444.123565,1072.533697
2878.712632,-11029.068536,296.082377,0.000000
2878.712970,-10658.965565,74.020594,1378.971896
2878.713307,-10955.047942,592.164754,1608.800546
2878.713645,-11399.171507,888.247130,0.000000
2878.713982,-9844.739029,-592.164754,-1378.971896
2878.714320,-8882.471304,-592.164754,76.609550
2878.714657,-9548.656652,-444.123565,612.876398
2878.714995,-10066.800811,592.164754,-1608.800546
2878.715332,-9844.739029,-518.144159,-2528.115143
2878.715670,-11325.150913,-1924.535449,-919.314598
2878.716007,-10066.800811,-1406.391290,-1915.238745
2878.716345,-8734.430116,-1258.350101,-1225.752797
2878.716683,-8808.450710,-2146.597232,1685.410096
2878.717020,-9548.656652,-1554.432478,2068.457845
2878.717358,-10436.903782,0.000000,919.314598
2878.717695,-10362.883188,-518.144159,766.095498
2878.718033,-10732.986159,0.000000,3064.381992
2878.718370,-11399.171507,-74.020594,2451.505594
2878.718708,-10214.842000,518.144159,536.266849
2878.719045,-9326.594869,0.000000,1838.629195
2878.719383,-9622.677246,222.061783,3217.601092
2878.719720,-9844.739029,1184.329507,1455.581446
2878.720058,-9474.636058,1110.308913,0.000000
2878.720395,-10510.924376,740.205942,919.314598
2878.720733,-11029.068536,962.267725,383.047749
2878.721070,-9992.780217,1480.411884,-1149.143247
2878.721408,-9252.574275,814.226536,306.438199
2878.721746,-9326.594869,296.082377,1378.971896
2878.722083,-10584.944971,740.205942,-459.657299
2878.722421,-10436.903782,0.000000,-1838.629195
2878.722758,-9400.615463,-962.267725,-689.485948
2878.723096,-9548.656652,-1702.473667,0.000000
2878.723433,-9992.780217,-1554.432478,-1149.143247
2878.723771,-9178.553681,-3034.844362,-919.314598
2878.724108,-9474.636058,-2664.741391,536.266849
2878.724446,-10362.883188,-1850.514855,1072.533697
2878.724783,-9992.780217,-518.144159,-1378.971896
2878.725121,-10584.944971,-2368.659014,-995.924147
2878.725458,-11547.212695,-3182.885551,919.314598
2878.725796,-10436.903782,-2220.617826,-153.219100
2878.726134,-9474.636058,-1258.350101,0.000000
2878.726471,-9622.677246,-1850.514855,995.924147
2878.726809,-10288.862594,-1036.288319,919.314598
2878.727146,-10732.986159,-444.123565,-612.876398
2878.727484,-10732.986159,-148.041188,-383.047749
2878.727821,-10214.842000,-296.082377,1149.143247
2878.728159,-10732.986159,148.041188,76.609550
2878.728496,-10584.944971,148.041188,-1302.362347
2878.728834,-9400.615463,-1258.350101,0.000000
2878.729171,-9992.780217,-444.123565,1685.410096
2878.729509,-10214.842000,74.020594,-306.438199
2878.729846,-10066.800811,0.000000,-2145.067394
2878.730184,-10436.903782,-1332.370696,-1225.752797
2878.730521,-9622.677246,-2072.576638,-1225.752797
2878.730859,-8956.491898,-1036.288319,-536.266849
2878.731197,-8142.265362,-1406.391290,1532.190996
2878.731534,-8882.471304,-962.267725,1378.971896
2878.731872,-9844.739029,592.164754,919.314598
2878.732209,-10362.883188,740.205942,306.438199
2878.732547,-9844.739029,-148.041188,2145.067394
2878.732884,-9548.656652,518.144159,2757.943793
2878.733222,-10214.842000,1628.453072,1991.848295
2878.733559,-10362.883188,1110.308913,1302.362347
2878.733897,-9770.718434,592.164754,2451.505594
2878.734234,-10807.006753,1850.514855,1685.410096
2878.734572,-10584.944971,1924.535449,383.047749
2878.734909,-10510.924376,814.226536,-383.047749
2878.735247,-10584.944971,-296.082377,-306.438199
2878.735584,-9844.739029,148.041188,-1072.533697
2878.735922,-8660.409521,370.102971,-1072.533697
2878.736260,-8808.450710,-296.082377,766.095498
2878.736597,-10288.862594,148.041188,76.609550
2878.736935,-11325.150913,370.102971,-1991.848295
2878.737272,-10436.903782,-1110.308913,-1455.581446
2878.737610,-9918.759623,-1554.432478,383.047749
2878.737947,-10436.903782,-1480.411884,383.047749
2878.738285,-9548.656652,-2368.659014,-919.314598
2878.738622,-8512.368333,-2368.659014,995.924147
2878.738960,-9770.718434,-1554.432478,1532.190996
2878.739297,-10362.883188,-666.185348,76.609550
2878.739635,-10288.862594,-370.102971,-995.924147
2878.739972,-10955.047942,-1924.535449,383.047749
2878.740310,-10955.047942,-444.123565,919.314598
2878.740648,-9548.656652,0.000000,0.000000
2878.740985,-9474.636058,222.061783,1378.971896
2878.741323,-10362.883188,-296.082377,2221.676944
2878.741660,-10658.965565,1258.350101,0.000000
2878.741998,-10658.965565,1850.514855,-536.266849
2878.742335,-10214.842000,222.061783,766.095498
2878.742673,-9622.677246,740.205942,306.438199
2878.743010,-9992.780217,962.267725,-383.047749
2878.743348,-10066.800811,148.041188,536.266849
2878.743685,-9622.677246,0.000000,842.705048
2878.744023,-9696.697840,148.041188,0.000000
2878.744360,-9474.636058,962.267725,-1532.190996
2878.744698,-9918.759623,-814.226536,-536.266849
2878.745035,-10214.842000,-1480.411884,153.219100
2878.745373,-9696.697840,0.000000,-1532.190996
2878.745711,-8882.471304,-1110.308913,-536.266849
2878.746048,-9178.553681,-814.226536,1149.143247
2878.746386,-10140.821405,-592.164754,1149.143247
2878.746723,-10732.986159,-518.144159,459.657299
2878.747061,-9844.739029,-740.205942,1685.410096
2878.747398,-9918.759623,-518.144159,2911.162892
2878.747736,-10881.027347,0.000000,1762.019645
2878.748073,-10732.986159,-296.082377,1225.752797
2878.748411,-10066.800811,-1184.329507,1762.019645
2878.748748,-10510.924376,370.102971,2068.457845
2878.749086,-10362.883188,1554.432478,153.219100
2878.749423,-10140.821405,-222.061783,-1991.848295
2878.749761,-10140.821405,-1776.494261,-1072.533697
2878.750099,-10436.903782,-1628.453072,-1838.629195
2878.750436,-9474.636058,-1036.288319,-1762.019645
2878.750774,-8956.491898,-962.267725,-612.876398
2878.751111,-9622.677246,-1924.535449,-229.828649
2878.751449,-10436.903782,-962.267725,-1225.752797
2878.751786,-10288.862594,-1332.370696,-689.485948
2878.752124,-10510.924376,-1924.535449,1685.410096
2878.752461,-10510.924376,-1554.432478,1608.800546
2878.752799,-10881.027347,-222.061783,459.657299
2878.753136,-10658.965565,-888.247130,1225.752797
2878.753474,-9548.656652,-1480.411884,2604.724693
2878.753811,-10436.903782,592.164754,2145.067394
2878.754149,-10584.944971,962.267725,1072.533697
2878.754486,-9992.780217,74.020594,383.047749
2878.754824,-10807.006753,-814.226536,459.657299
2878.755162,-10066.800811,148.041188,229.828649
2878.755499,-8734.430116,518.144159,383.047749
2878.755837,-8882.471304,740.205942,2068.457845
2878.756174,-9844.739029,1480.411884,536.266849
2878.756512,-9918.759623,1850.514855,-1302.362347
2878.756849,-9992.780217,888.247130,229.828649
2878.757187,-9548.656652,592.164754,689.485948
2878.757524,-10362.883188,666.185348,-766.095498
2878.757862,-10214.842000,222.061783,-1302.362347
2878.758199,-9400.615463,-888.247130,-919.314598
2878.758537,-9326.594869,-666.185348,76.609550
2878.758874,-9918.759623,-370.102971,-919.314598
2878.759212,-9844.739029,-1184.329507,-766.095498
2878.759549,-11325.150913,-2220.617826,-76.609550
2878.759887,-11251.130318,-1776.494261,-612.876398
2878.760225,-9400.615463,-1184.329507,-1072.533697
2878.760562,-9252.574275,-1998.556043,1149.143247
2878.760900,-10214.842000,-962.267725,2604.724693
2878.761237,-10881.027347,-296.082377,612.876398
2878.761575,-10881.027347,148.041188,0.000000
2878.761912,-10436.903782,-296.082377,1762.019645
2878.762250,-11103.089130,0.000000,1838.629195
2878.762587,-10288.862594,0.000000,229.828649
2878.762925,-9696.697840,-296.082377,1455.581446
2878.763262,-9770.718434,0.000000,2757.943793
2878.763600,-10214.842000,962.267725,995.924147
2878.763937,-9622.677246,592.164754,-689.485948
2878.764275,-10066.800811,-592.164754,-612.876398
2878.764613,-10658.965565,-814.226536,153.219100
2878.764950,-9622.677246,148.041188,-1455.581446
2878.765288,-8364.327145,-296.082377,-1532.190996
2878.765625,-8438.347739,-962.267725,383.047749
2878.765963,-9844.739029,-740.205942,-229.828649
2878.766300,-9548.656652,518.144159,-1149.143247
2878.766638,-9696.697840,-592.164754,766.095498
2878.766975,-10362.883188,0.000000,1991.848295
2878.767313,-10214.842000,296.082377,766.095498
2878.767650,-10584.944971,296.082377,1608.800546
2878.767988,-9918.759623,74.020594,2757.943793
2878.768325,-9770.718434,814.226536,2757.943793
2878.768663,-10436.903782,2294.638420,1378.971896
2878.769000,-10510.924376,1036.288319,0.000000
2878.769338,-11399.171507,296.082377,612.876398
2878.769676,-10732.986159,962.267725,-536.266849
2878.770013,-9326.594869,740.205942,-1915.238745
2878.770350,-8808.450710,740.205942,0.000000
2878.770688,-9400.615463,0.000000,-229.828649
2878.771025,-9992.780217,148.041188,-1225.752797
2878.771362,-9622.677246,-1184.329507,-1149.143247
2878.771700,-9770.718434,-592.164754,459.657299
2878.772037,-10732.986159,-888.247130,-306.438199
2878.772375,-10658.965565,-1036.288319,-1685.410096
2878.772712,-9326.594869,-2294.638420,-766.095498
2878.773049,-9400.615463,-2738.761985,1378.971896
2878.773387,-10214.842000,-1184.329507,229.828649
2878.773724,-9770.718434,-1258.350101,-1762.019645
2878.774062,-10658.965565,-3034.844362,-153.219100
2878.774399,-10362.883188,-1924.535449,-459.657299
2878.774737,-10807.006753,-1480.411884,-383.047749
2878.775074,-9030.512492,-962.267725,536.266849
2878.775411,-9696.697840,-1480.411884,2451.505594
2878.775749,-11473.192101,74.020594,2374.896044
2878.776086,-10658.965565,962.267725,0.000000
2878.776424,-10140.821405,666.185348,1838.629195
2878.776761,-11177.109724,814.226536,2374.896044
2878.777098,-10140.821405,1332.370696,612.876398
2878.777436,-10288.862594,1554.432478,153.219100
2878.777773,-9474.636058,74.020594,1455.581446
2878.778111,-9474.636058,1702.473667,1532.190996
2878.778448,-9770.718434,1036.288319,-536.266849
2878.778785,-9992.780217,888.247130,-536.266849
2878.779123,-10214.842000,-296.082377,-536.266849
2878.779460,-9918.759623,0.000000,-1838.629195
2878.779798,-8068.244768,-370.102971,-919.314598
2878.780135,-7624.121203,-1258.350101,536.266849
2878.780472,-9474.636058,148.041188,1991.848295
2878.780810,-10584.944971,370.102971,-995.924147
2878.781147,-9918.759623,296.082377,0.000000
2878.781485,-10066.800811,-814.226536,1915.238745
2878.781822,-10584.944971,222.061783,1685.410096
2878.782159,-9992.780217,0.000000,459.657299
2878.782497,-9622.677246,-1036.288319,2298.286494
2878.782834,-9992.780217,0.000000,2911.162892
2878.783172,-9992.780217,1258.350101,1072.533697
2878.783509,-10955.047942,1036.288319,0.000000
2878.783847,-11103.089130,-1110.308913,459.657299
2878.784184,-11029.068536,74.020594,-229.828649
2878.784521,-10214.842000,740.205942,-1302.362347
2878.784859,-9844.739029,-370.102971,-919.314598
2878.785196,-9474.636058,-1332.370696,-76.609550
2878.785534,-9992.780217,-740.205942,-1991.848295
2878.785871,-10140.821405,0.000000,-1455.581446
2878.786208,-10436.903782,-592.164754,-1991.848295
2878.786546,-10066.800811,-1332.370696,-383.047749
2878.786883,-10288.862594,-1110.308913,-1532.190996
2878.787221,-9992.780217,-2220.617826,0.000000
2878.787558,-9548.656652,-1628.453072,2068.457845
2878.787895,-8882.471304,-888.247130,1302.362347
2878.788233,-10288.862594,-148.041188,1302.362347
2878.788570,-11251.130318,-1110.308913,1225.752797
2878.788908,-10807.006753,-1332.370696,1072.533697
2878.789245,-10288.862594,370.102971,766.095498
2878.789582,-9770.718434,0.000000,536.266849
2878.789920,-8512.368333,222.061783,1149.143247
2878.790257,-9474.636058,962.267725,1302.362347
2878.790595,-10288.862594,1702.473667,76.609550
2878.790932,-9622.677246,1702.473667,229.828649
2878.791269,-9770.718434,1406.391290,1378.971896
2878.791607,-10140.821405,2072.576638,689.485948
2878.791944,-10584.944971,1258.350101,153.219100
2878.792282,-9770.718434,888.247130,1225.752797
2878.792619,-9622.677246,296.082377,1762.019645
2878.792956,-10436.903782,1332.370696,153.219100
2878.793294,-10362.883188,444.123565,-1378.971896
2878.793631,-10658.965565,-814.226536,-1455.581446
2878.793969,-9696.697840,-2146.597232,-1915.238745
2878.794306,-8882.471304,-1258.350101,-2145.067394
2878.794644,-8512.368333,-2368.659014,0.000000
2878.794981,-9252.574275,-2072.576638,842.705048
2878.795318,-10214.842000,-1406.391290,0.000000
2878.795656,-10881.027347,-888.247130,229.828649
2878.795993,-10214.842000,-1776.494261,1762.019645
2878.796331,-10955.047942,-1110.308913,2604.724693
2878.796668,-11621.233289,-1110.308913,1838.629195
2878.797005,-10214.842000,-1036.288319,1685.410096
2878.797343,-9474.636058,-1184.329507,3140.991542
2878.797680,-10066.800811,148.041188,2298.286494
2878.798018,-10510.924376,740.205942,-383.047749
2878.798355,-11325.150913,-1184.329507,-383.047749
2878.798692,-10658.965565,-370.102971,-689.485948
2878.799030,-9918.759623,0.000000,-2298.286494
2878.799367,-9474.636058,222.061783,-1685.410096
2878.799705,-8882.471304,-814.226536,-1072.533697
2878.800042,-9918.759623,0.000000,-842.705048
2878.800379,-10288.862594,740.205942,-1532.190996
2878.800717,-9622.677246,-148.041188,-1149.143247
2878.801054,-10140.821405,-518.144159,689.485948
2878.801392,-10584.944971,-370.102971,383.047749
2878.801729,-10214.842000,74.020594,306.438199
2878.802066,-9696.697840,-740.205942,1685.410096
2878.802404,-9252.574275,0.000000,2604.724693
2878.802741,-9548.656652,296.082377,1149.143247
2878.803079,-10288.862594,592.164754,766.095498
2878.803416,-10066.800811,0.000000,995.924147
2878.803754,-10436.903782,0.000000,459.657299
2878.804091,-9400.615463,1554.432478,-459.657299
2878.804428,-8882.471304,740.205942,1149.143247
2878.804766,-9400.615463,1406.391290,1378.971896
2878.805103,-10436.903782,1184.329507,0.000000
2878.805441,-10658.965565,1332.370696,-383.047749
2878.805778,-9770.718434,814.226536,459.657299
2878.806115,-10584.944971,888.247130,306.438199
2878.806453,-10658.965565,444.123565,-383.047749
2878.806790,-9770.718434,-1036.288319,-459.657299
2878.807128,-9474.636058,-370.102971,1225.752797
2878.807465,-9844.739029,0.000000,-306.438199
2878.807802,-10436.903782,0.000000,-1608.800546
2878.808140,-10436.903782,-1998.556043,-1225.752797
2878.808477,-10955.047942,-2442.679609,-383.047749
2878.808815,-10066.800811,-1628.453072,-995.924147
2878.809152,-9252.574275,-1998.556043,0.000000
2878.809489,-9474.636058,-2664.741391,1149.143247
2878.809827,-10140.821405,-2072.576638,1072.533697
2878.810164,-10807.006753,-1036.288319,842.705048
2878.810502,-10066.800811,-1332.370696,1378.971896
2878.810839,-10658.965565,-1184.329507,2451.505594
2878.811176,-10807.006753,148.041188,1991.848295
2878.811514,-10066.800811,0.000000,1302.362347
2878.811851,-9474.636058,296.082377,2987.772442
2878.812189,-9622.677246,962.267725,2757.943793
2878.812526,-10436.903782,1628.453072,459.657299
2878.812864,-9770.718434,1554.432478,-459.657299
2878.813201,-10436.903782,518.144159,-383.047749
2878.813538,-10140.821405,592.164754,-459.657299
2878.813876,-9104.533087,222.061783,-995.924147
2878.814213,-9326.594869,518.144159,-612.876398
2878.814551,-9178.553681,-296.082377,0.000000
2878.814888,-9992.780217,444.123565,-1532.190996
2878.815225,-9844.739029,0.000000,-1225.752797
2878.815563,-9474.636058,-518.144159,689.485948
2878.815900,-9992.780217,296.082377,229.828649
2878.816238,-10732.986159,0.000000,-459.657299
2878.816575,-9400.615463,-444.123565,153.219100
2878.816912,-9474.636058,-1258.350101,1685.410096
2878.817250,-9992.780217,148.041188,1608.800546
2878.817587,-10436.903782,518.144159,536.266849
2878.817925,-11177.109724,-814.226536,536.266849
2878.818262,-10881.027347,-1110.308913,919.314598
2878.818599,-10066.800811,296.082377,-459.657299
2878.818937,-9474.636058,0.000000,383.047749
2878.819274,-9918.759623,-814.226536,1149.143247
2878.819612,-10140.821405,-74.020594,76.609550
2878.819949,-10584.944971,74.020594,-1225.752797
2878.820286,-10066.800811,-370.102971,-459.657299
2878.820624,-9770.718434,-962.267725,-306.438199
2878.820961,-10732.986159,-518.144159,-1225.752797
2878.821299,-9992.780217,-1184.329507,-766.095498
2878.821636,-9178.553681,-1554.432478,0.000000
2878.821973,-9622.677246,-1554.432478,229.828649
2878.822311,-10362.883188,-1480.411884,-153.219100
2878.822648,-10140.821405,-1998.556043,0.000000
2878.822986,-10436.903782,-2294.638420,1072.533697
2878.823323,-10288.862594,-1480.411884,842.705048
2878.823661,-9474.636058,-592.164754,153.219100
2878.823998,-9400.615463,-1702.473667,1532.190996
2878.824335,-9770.718434,-518.144159,1915.238745
2878.824673,-10510.924376,444.123565,1072.533697
2878.825010,-10732.986159,518.144159,1378.971896
2878.825348,-9696.697840,962.267725,1455.581446
2878.825685,-9992.780217,592.164754,1762.019645
2878.826022,-10066.800811,1184.329507,1225.752797
2878.826360,-9178.553681,814.226536,1455.581446
2878.826697,-9770.718434,592.164754,2834.553343
2878.827035,-10066.800811,2442.679609,1225.752797
2878.827372,-10066.800811,2146.597232,-689.485948
2878.827709,-10362.883188,740.205942,76.609550
2878.828047,-10584.944971,-296.082377,0.000000
2878.828384,-9696.697840,888.247130,-2221.676944
2878.828722,-8512.368333,296.082377,-1991.848295
2878.829059,-9030.512492,-666.185348,-536.266849
2878.829396,-9622.677246,-1110.308913,-1915.238745
2878.829734,-9992.780217,-814.226536,-2604.724693
2878.830071,-9474.636058,-1406.391290,-306.438199
2878.830409,-10066.800811,-1702.473667,383.047749
2878.830746,-10436.903782,-962.267725,-536.266849
2878.831083,-10288.862594,-1850.514855,0.000000
2878.831421,-9844.739029,-1702.473667,2528.115143
2878.831758,-10214.842000,-666.185348,2145.067394
2878.832096,-11325.150913,0.000000,995.924147
2878.832433,-10658.965565,-666.185348,536.266849
2878.832771,-10658.965565,-962.267725,612.876398
2878.833108,-10881.027347,0.000000,0.000000
2878.833445,-9474.636058,-296.082377,-1225.752797
2878.833783,-9548.656652,-1110.308913,0.000000
2878.834120,-10288.862594,-666.185348,76.609550
2878.834458,-10214.842000,740.205942,-1302.362347
2878.834795,-10288.862594,0.000000,-995.924147
2878.835132,-10140.821405,-888.247130,842.705048
2878.835470,-9918.759623,-518.144159,-153.219100
2878.835807,-10214.842000,-370.102971,-536.266849
2878.836145,-9844.739029,-962.267725,536.266849
2878.836482,-9178.553681,-888.247130,1762.019645
2878.836819,-9844.739029,-814.226536,1378.971896
2878.837157,-10288.862594,-148.041188,76.609550
2878.837494,-10140.821405,-1258.350101,1149.143247
2878.837832,-9992.780217,-1406.391290,1378.971896
2878.838169,-9474.636058,-888.247130,459.657299
2878.838506,-9104.533087,-444.123565,1532.190996
2878.838844,-9178.553681,74.020594,2451.505594
2878.839181,-10214.842000,962.267725,612.876398
2878.839519,-10955.047942,1628.453072,0.000000
2878.839856,-10436.903782,814.226536,842.705048
2878.840193,-9918.759623,1406.391290,459.657299
2878.840531,-10436.903782,592.164754,0.000000
2878.840868,-9918.759623,1036.288319,0.000000
2878.841206,-9548.656652,0.000000,919.314598
2878.841543,-10288.862594,518.144159,766.095498
2878.841880,-9770.718434,444.123565,-919.314598
2878.842218,-9992.780217,-1110.308913,-766.095498
2878.842555,-10436.903782,-1850.514855,-306.438199
2878.842893,-10362.883188,-1332.370696,-1685.410096
2878.843230,-9474.636058,-1480.411884,-1225.752797
2878.843568,-9030.512492,-2294.638420,-383.047749
2878.843905,-9622.677246,-2368.659014,306.438199
2878.844242,-10214.842000,-1554.432478,-1225.752797
2878.844580,-9474.636058,-1924.535449,-995.924147
2878.844917,-10140.821405,-2294.638420,612.876398
2878.845255,-11029.068536,-2072.576638,0.000000
2878.845592,-10510.924376,-1480.411884,229.828649
2878.845929,-9844.739029,-1850.514855,2221.676944
2878.846267,-9474.636058,-592.164754,2757.943793
2878.846604,-10807.006753,962.267725,1532.190996
2878.846942,-10881.027347,962.267725,612.876398
2878.847279,-10510.924376,0.000000,1072.533697
2878.847616,-11399.171507,888.247130,1149.143247
2878.847954,-10436.903782,1184.329507,76.609550
2878.848291,-9400.615463,740.205942,153.219100
2878.848629,-9770.718434,888.247130,1149.143247
2878.848966,-9918.759623,1258.350101,-995.924147
2878.849303,-10066.800811,1110.308913,-1762.019645
2878.849641,-9844.739029,0.000000,-689.485948
2878.849978,-9770.718434,0.000000,-612.876398
2878.850316,-9844.739029,222.061783,-1685.410096
2878.850653,-9474.636058,-1110.308913,-306.438199
2878.850990,-8586.388927,-666.185348,2298.286494
2878.851328,-9326.594869,74.020594,1685.410096
2878.851665,-10140.821405,962.267725,153.219100
2878.852003,-10807.006753,-592.164754,153.219100
2878.852340,-10732.986159,-1406.391290,1072.533697
2878.852678,-10214.842000,-666.185348,689.485948
2878.853015,-9844.739029,-666.185348,1072.533697
2878.853352,-9178.553681,-1110.308913,2068.457845
2878.853690,-9844.739029,-74.020594,919.314598
2878.854027,-10066.800811,74.020594,-306.438199
2878.854365,-9770.718434,666.185348,-459.657299
2878.854702,-11251.130318,-74.020594,1149.143247
2878.855039,-11103.089130,370.102971,-612.876398
2878.855377,-10510.924376,592.164754,-1225.752797
2878.855714,-9844.739029,-370.102971,842.705048
2878.856052,-9178.553681,0.000000,689.485948
2878.856389,-10658.965565,222.061783,-229.828649
2878.856726,-10955.047942,-814.226536,-1225.752797
2878.857064,-10510.924376,-1480.411884,-1149.143247
2878.857401,-10955.047942,-1702.473667,-1149.143247
2878.857739,-10140.821405,-2146.597232,-1072.533697
2878.858076,-8808.450710,-1776.494261,0.000000
2878.858413,-9400.615463,-2220.617826,919.314598
2878.858751,-10140.821405,-296.082377,0.000000
2878.859088,-10288.862594,-592.164754,-766.095498
2878.859426,-10362.883188,-1554.432478,1149.143247
2878.859763,-10510.924376,-666.185348,1608.800546
2878.860100,-9918.759623,0.000000,1225.752797
2878.860438,-9992.780217,0.000000,2451.505594
2878.860775,-9252.574275,296.082377,2528.115143
2878.861113,-9474.636058,1554.432478,2298.286494
2878.861450,-10362.883188,1406.391290,459.657299
2878.861787,-10732.986159,1332.370696,383.047749
2878.862125,-10881.027347,1036.288319,0.000000
2878.862462,-9844.739029,1258.350101,-383.047749
2878.862800,-8734.430116,888.247130,-1072.533697
2878.863137,-8882.471304,370.102971,229.828649
2878.863475,-9844.739029,962.267725,0.000000
2878.863812,-10436.903782,222.061783,-1915.238745
2878.864149,-10140.821405,-296.082377,-1838.629195
2878.864487,-10066.800811,-592.164754,-459.657299
2878.864824,-10881.027347,-1554.432478,-689.485948
2878.865162,-9770.718434,-1924.535449,-919.314598
2878.865499,-8808.450710,-1924.535449,766.095498
2878.865836,-9770.718434,-1332.370696,1608.800546
2878.866174,-10140.821405,-666.185348,-612.876398
2878.866511,-11325.150913,-1850.514855,229.828649
2878.866849,-11547.212695,-1850.514855,766.095498
2878.867186,-10807.006753,-1480.411884,459.657299
2878.867523,-10732.986159,0.000000,689.485948
2878.867861,-8956.491898,-1406.391290,1302.362347
2878.868198,-9474.636058,-740.205942,1915.238745
2878.868536,-10881.027347,-370.102971,76.609550
2878.868873,-10362.883188,0.000000,-612.876398
2878.869210,-10584.944971,-518.144159,0.000000
2878.869548,-11029.068536,-814.226536,-306.438199
2878.869885,-9178.553681,-296.082377,-995.924147
2878.870223,-8882.471304,-814.226536,459.657299
2878.870560,-9252.574275,-370.102971,1685.410096
2878.870897,-9770.718434,222.061783,0.000000
2878.871235,-10807.006753,148.041188,-689.485948
2878.871572,-10584.944971,-1036.288319,-459.657299
2878.871909,-10214.842000,-1480.411884,383.047749
2878.872247,-9770.718434,0.000000,306.438199
2878.872584,-8808.450710,-740.205942,306.438199
2878.872921,-8660.409521,0.000000,1991.848295
2878.873259,-9770.718434,74.020594,919.314598
2878.873596,-10955.047942,740.205942,0.000000
2878.873933,-10140.821405,0.000000,1225.752797
2878.874271,-10732.986159,962.267725,2145.067394
2878.874608,-10288.862594,1184.329507,1225.752797
2878.874945,-9474.636058,1480.411884,536.266849
2878.875283,-8734.430116,222.061783,2374.896044
2878.875620,-9844.739029,1776.494261,2451.505594
2878.875957,-10732.986159,1776.494261,306.438199
2878.876295,-11251.130318,1480.411884,-842.705048
2878.876632,-10362.883188,-74.020594,-612.876398
2878.876969,-9252.574275,0.000000,-689.485948
2878.877307,-8438.347739,-222.061783,-995.924147
2878.877644,-8364.327145,-888.247130,-153.219100
2878.877981,-9474.636058,-1036.288319,-689.485948
2878.878319,-10436.903782,-518.144159,-1915.238745
2878.878656,-10214.842000,-370.102971,-2374.896044
2878.878993,-9918.759623,-2220.617826,-306.438199
2878.879331,-10955.047942,-1628.453072,153.219100
2878.879668,-10436.903782,-1702.473667,-995.924147
2878.880005,-9474.636058,-1702.473667,612.876398
2878.880343,-9696.697840,-1702.473667,1915.238745
2878.880680,-10732.986159,-1406.391290,1225.752797
2878.881017,-11251.130318,-1184.329507,536.266849
2878.881355,-11325.150913,-1554.432478,1378.971896
2878.881692,-11103.089130,-962.267725,1302.362347
2878.882029,-10140.821405,-222.061783,153.219100
2878.882367,-9104.533087,0.000000,1302.362347
2878.882704,-9474.636058,74.020594,1762.019645
2878.883041,-10510.924376,1480.411884,842.705048
2878.883379,-10807.006753,1406.391290,-689.485948
2878.883716,-10288.862594,444.123565,-153.219100
2878.884053,-10362.883188,814.226536,842.705048
2878.884391,-10140.821405,370.102971,0.000000
2878.884728,-9326.594869,74.020594,-76.609550
2878.885065,-9178.553681,-740.205942,1225.752797
2878.885403,-9474.636058,0.000000,1225.752797
2878.885740,-9696.697840,222.061783,-689.485948
2878.886077,-10066.800811,-666.185348,-383.047749
2878.886415,-9844.739029,-1702.473667,612.876398
2878.886752,-9474.636058,-814.226536,306.438199
2878.887089,-9252.574275,296.082377,536.266849
2878.887427,-8512.368333,-518.144159,919.314598
2878.887764,-10066.800811,-592.164754,1378.971896
2878.888101,-11029.068536,148.041188,229.828649
2878.888439,-10658.965565,74.020594,306.438199
2878.888776,-10436.903782,-296.082377,1685.410096
2878.889113,-10732.986159,-370.102971,919.314598
2878.889451,-10140.821405,-222.061783,76.609550
2878.889788,-9474.636058,-740.205942,1149.143247
2878.890125,-9992.780217,-222.061783,2068.457845
2878.890463,-10510.924376,814.226536,-383.047749
2878.890800,-10288.862594,370.102971,-1378.971896
2878.891137,-10510.924376,-666.185348,-459.657299
2878.891475,-10584.944971,-1480.411884,-919.314598
2878.891812,-10066.800811,-296.082377,-1762.019645
2878.892149,-9400.615463,-1258.350101,-1302.362347
2878.892487,-9326.594869,-2072.576638,153.219100
2878.892824,-9918.759623,-1406.391290,-1302.362347
2878.893161,-10658.965565,-1480.411884,-1149.143247
2878.893499,-10066.800811,-1850.514855,76.609550
2878.893836,-9696.697840,-2442.679609,612.876398
2878.894173,-10362.883188,-814.226536,76.609550
2878.894511,-9252.574275,-962.267725,612.876398
2878.894848,-9696.697840,-962.267725,2451.505594
2878.895185,-10140.821405,-222.061783,2451.505594
2878.895523,-10214.842000,1258.350101,919.314598
2878.895860,-10658.965565,666.185348,1302.362347
2878.896197,-11029.068536,0.000000,1762.019645
2878.896535,-9844.739029,1184.329507,1302.362347
2878.896872,-9548.656652,1406.391290,1072.533697
2878.897209,-8882.471304,1036.288319,1762.019645
2878.897546,-9622.677246,2072.576638,383.047749
2878.897884,-10362.883188,1702.473667,-766.095498
2878.898221,-9844.739029,1332.370696,-766.095498
2878.898558,-9326.594869,888.247130,306.438199
2878.898896,-10140.821405,814.226536,0.000000
2878.899233,-9770.718434,444.123565,-1532.190996
2878.899570,-9474.636058,-518.144159,-766.095498
2878.899908,-9178.553681,-666.185348,536.266849
2878.900245,-9696.697840,-666.185348,-612.876398
2878.900582,-9918.759623,-1406.391290,0.000000
2878.900920,-10140.821405,-2368.659014,459.657299
2878.901257,-10510.924376,-1776.494261,229.828649
2878.901594,-9548.656652,-740.205942,-1072.533697
2878.901932,-9400.615463,-1628.453072,1149.143247
2878.902269,-10066.800811,-1628.453072,2145.067394
2878.902606,-10658.965565,-592.164754,1149.143247
2878.902944,-10881.027347,-74.020594,306.438199
2878.903281,-10362.883188,-1110.308913,1225.752797
2878.903618,-10362.883188,-592.164754,1072.533697
2878.903956,-10658.965565,-444.123565,229.828649
2878.904293,-10436.903782,0.000000,306.438199
2878.904630,-9474.636058,-740.205942,1302.362347
2878.904968,-10732.986159,296.082377,842.705048
2878.905305,-9696.697840,666.185348,-1685.410096
2878.905642,-10510.924376,-222.061783,-1225.752797
2878.905980,-10732.986159,-370.102971,0.000000
2878.906317,-9992.780217,0.000000,-1762.019645
2878.906654,-9548.656652,0.000000,-766.095498
2878.906992,-9252.574275,-740.205942,0.000000
2878.907329,-10066.800811,-666.185348,0.000000
2878.907666,-10807.006753,740.205942,-383.047749
2878.908004,-10140.821405,-592.164754,536.266849
2878.908341,-9548.656652,-518.144159,1762.019645
2878.908678,-9992.780217,370.102971,766.095498
2878.909016,-9992.780217,296.082377,689.485948
2878.909353,-9400.615463,-296.082377,2298.286494
2878.909690,-9326.594869,222.061783,2451.505594
2878.910028,-9992.780217,2220.617826,1302.362347
2878.910365,-10436.903782,1702.473667,229.828649
2878.910702,-10436.903782,962.267725,1072.533697
2878.911040,-10140.821405,962.267725,0.000000
2878.911377,-9696.697840,1480.411884,-459.657299
2878.911714,-9178.553681,888.247130,0.000000
2878.912052,-9400.615463,0.000000,306.438199
2878.912389,-9474.636058,740.205942,-536.266849
2878.912726,-9696.697840,148.041188,-1149.143247
2878.913064,-9696.697840,-518.144159,76.609550
2878.913401,-9992.780217,-1036.288319,-229.828649
2878.913738,-10658.965565,-518.144159,-1532.190996
2878.914076,-10288.862594,-2072.576638,-612.876398
2878.914413,-10066.800811,-1480.411884,459.657299
2878.914750,-10436.903782,-1258.350101,536.266849
2878.915088,-10362.883188,-1628.453072,76.609550
2878.915425,-9918.759623,-2294.638420,-229.828649
2878.915762,-10436.903782,-2664.741391,919.314598
2878.916100,-10881.027347,-1702.473667,0.000000
2878.916437,-9622.677246,-1702.473667,229.828649
2878.916774,-9918.759623,-1998.556043,2604.724693
2878.917112,-10436.903782,0.000000,2145.067394
2878.917449,-10362.883188,148.041188,1149.143247
2878.917786,-10658.965565,-222.061783,2068.457845
2878.918124,-10066.800811,-370.102971,1991.848295
2878.918461,-10658.965565,518.144159,1378.971896
2878.918798,-10436.903782,1036.288319,76.609550
2878.919136,-9474.636058,-296.082377,536.266849
2878.919473,-9696.697840,370.102971,229.828649
2878.919810,-9474.636058,1036.288319,-1225.752797
2878.920148,-8808.450710,518.144159,-1915.238745
2878.920485,-9918.759623,-222.061783,-536.266849
2878.920822,-10288.862594,814.226536,-1072.533697
2878.921160,-9474.636058,222.061783,-2068.457845
2878.921497,-9326.594869,-370.102971,-229.828649
2878.921834,-9104.533087,0.000000,1378.971896
2878.922172,-9548.656652,0.000000,0.000000
2878.922509,-9548.656652,814.226536,383.047749
2878.922846,-9696.697840,-666.185348,1149.143247
2878.923184,-11177.109724,888.247130,1225.752797
2878.923521,-10510.924376,444.123565,-536.266849
2878.923858,-10362.883188,-222.061783,536.266849
2878.924196,-9992.780217,-222.061783,1378.971896
2878.924533,-9474.636058,666.185348,153.219100
2878.924870,-9770.718434,666.185348,-459.657299
2878.925208,-9622.677246,-814.226536,-306.438199
2878.925545,-10140.821405,-222.061783,229.828649
2878.925882,-10955.047942,518.144159,-383.047749
2878.926219,-9918.759623,0.000000,-612.876398
2878.926557,-9474.636058,-962.267725,306.438199
2878.926894,-10510.924376,-740.205942,0.000000
2878.927231,-9696.697840,-518.144159,-1532.190996
2878.927569,-9770.718434,-740.205942,-459.657299
2878.927906,-10288.862594,-2146.597232,-153.219100
2878.928243,-10362.883188,-1776.494261,-1685.410096
2878.928581,-10658.965565,-1850.514855,-689.485948
2878.928918,-9400.615463,-1628.453072,536.266849
2878.929255,-9548.656652,-1924.535449,1608.800546
2878.929593,-10066.800811,-592.164754,306.438199
2878.929930,-9696.697840,-888.247130,306.438199
2878.930267,-10881.027347,-1036.288319,2298.286494
2878.930605,-11399.171507,-888.247130,1455.581446
2878.930942,-10510.924376,518.144159,995.924147
2878.931279,-9400.615463,296.082377,2911.162892
2878.931617,-10140.821405,1406.391290,2987.772442
2878.931954,-10436.903782,1332.370696,1455.581446
2878.932291,-10140.821405,1332.370696,689.485948
2878.932629,-9918.759623,1184.329507,1378.971896
2878.932966,-10214.842000,1702.473667,689.485948
2878.933303,-10288.862594,1480.411884,-1149.143247
2878.933641,-9178.553681,814.226536,0.000000
2878.933978,-8660.409521,0.000000,995.924147
2878.934315,-9104.533087,1850.514855,0.000000
2878.934653,-9844.739029,222.061783,-1532.190996
2878.934990,-10066.800811,-74.020594,-1149.143247
2878.935327,-10140.821405,-1332.370696,-1302.362347
2878.935665,-10362.883188,-1110.308913,-1378.971896
2878.936002,-8142.265362,-1184.329507,-689.485948
2878.936339,-8660.409521,-1628.453072,842.705048
2878.936677,-9770.718434,-888.247130,459.657299
2878.937014,-9696.697840,-888.247130,-995.924147
2878.937351,-10807.006753,-1110.308913,1149.143247
2878.937689,-11399.171507,-1110.308913,1762.019645
2878.938026,-11251.130318,148.041188,536.266849
2878.938363,-10807.006753,-518.144159,383.047749
2878.938701,-9918.759623,-962.267725,1685.410096
2878.939038,-10066.800811,-592.164754,1685.410096
2878.939375,-10732.986159,74.020594,76.609550
2878.939713,-10436.903782,0.000000,-459.657299
2878.940050,-11251.130318,-740.205942,-536.266849
2878.940387,-11547.212695,-148.041188,-1302.362347
2878.940725,-9474.636058,-666.185348,-1915.238745
2878.941062,-9178.553681,-740.205942,76.609550
2878.941399,-9326.594869,-740.205942,995.924147
2878.941737,-10214.842000,370.102971,-1225.752797
2878.942074,-10584.944971,-370.102971,-919.314598
2878.942411,-10140.821405,-1406.391290,689.485948
2878.942749,-9992.780217,-1036.288319,0.000000
2878.943086,-9844.739029,-444.123565,0.000000
2878.943423,-9474.636058,-1184.329507,1072.533697
2878.943761,-9326.594869,-1184.329507,1455.581446
2878.944098,-9252.574275,0.000000,229.828649
2878.944435,-9252.574275,1184.329507,76.609550
2878.944773,-10140.821405,-740.205942,995.924147
2878.945110,-10140.821405,0.000000,689.485948
2878.945447,-9326.594869,1480.411884,-306.438199
2878.945785,-9252.574275,888.247130,1225.752797
2878.946122,-9178.553681,1554.432478,1838.629195
2878.946459,-10140.821405,1406.391290,919.314598
2878.946797,-10732.986159,2442.679609,-612.876398
2878.947134,-10066.800811,1110.308913,153.219100
2878.947471,-10732.986159,666.185348,1149.143247
2878.947809,-10214.842000,222.061783,-306.438199
2878.948146,-9992.780217,-518.144159,-689.485948
2878.948483,-9992.780217,-1332.370696,612.876398
2878.948821,-9696.697840,-518.144159,0.000000
2878.949158,-10214.842000,-148.041188,-1072.533697
2878.949495,-9844.739029,-2146.597232,-1302.362347
2878.949833,-10436.903782,-1850.514855,-306.438199
2878.950170,-11103.089130,-2072.576638,-1072.533697
2878.950507,-10140.821405,-2146.597232,-536.266849
2878.950845,-9178.553681,-2146.597232,1072.533697
2878.951182,-9474.636058,-1776.494261,1378.971896
2878.951519,-10362.883188,-1850.514855,383.047749
2878.951857,-10066.800811,-1702.473667,919.314598
2878.952194,-10214.842000,-1850.514855,2298.286494
2878.952531,-10955.047942,-814.226536,1991.848295
2878.952869,-10362.883188,0.000000,383.047749
2878.953206,-10066.800811,-740.205942,1915.238745
2878.953543,-9844.739029,-296.082377,2298.286494
2878.953881,-9252.574275,1036.288319,536.266849
2878.954218,-10214.842000,1702.473667,76.609550
2878.954555,-10732.986159,0.000000,-612.876398
2878.954892,-11103.089130,296.082377,-1455.581446
2878.955230,-10362.883188,518.144159,-2221.676944
2878.955567,-8586.388927,740.205942,-1149.143247
2878.955904,-8882.471304,370.102971,383.047749
2878.956242,-10214.842000,962.267725,-459.657299
2878.956579,-9992.780217,74.020594,-1225.752797
2878.956916,-10140.821405,-518.144159,229.828649
2878.957254,-10436.903782,0.000000,766.095498
2878.957591,-10807.006753,740.205942,0.000000
2878.957928,-9622.677246,148.041188,229.828649
2878.958266,-9178.553681,-1184.329507,1762.019645
2878.958603,-9474.636058,814.226536,919.314598
2878.958940,-9770.718434,444.123565,229.828649
2878.959278,-10732.986159,0.000000,153.219100
2878.959615,-10510.924376,-740.205942,0.000000
2878.959952,-10288.862594,74.020594,-766.095498
2878.960290,-9400.615463,888.247130,306.438199
2878.960627,-8438.347739,-592.164754,1532.190996
2878.960964,-9178.553681,370.102971,1149.143247
2878.961302,-10658.965565,814.226536,0.000000
2878.961639,-10510.924376,222.061783,-766.095498
2878.961976,-10807.006753,-666.185348,459.657299
2878.962314,-11103.089130,-222.061783,-689.485948
2878.962651,-9474.636058,-592.164754,-1302.362347
2878.962988,-9622.677246,-1184.329507,-153.219100
2878.963326,-9622.677246,-1480.411884,153.219100
2878.963663,-9696.697840,-1406.391290,-1225.752797
2878.964000,-10807.006753,-1628.453072,-766.095498
2878.964338,-10807.006753,-2368.659014,76.609550
2878.964675,-10732.986159,-1924.535449,76.609550
2878.965012,-9770.718434,-1702.473667,0.000000
2878.965350,-9252.574275,-1332.370696,1532.190996
2878.965687,-9400.615463,-1406.391290,3524.039291
2878.966024,-10658.965565,0.000000,2374.896044
2878.966362,-11103.089130,444.123565,1915.238745
2878.966699,-10658.965565,370.102971,2681.334243
2878.967036,-10436.903782,666.185348,2451.505594
2878.967374,-10066.800811,1332.370696,612.876398
2878.967711,-9326.594869,592.164754,1072.533697
2878.968048,-9252.574275,222.061783,2145.067394
2878.968386,-9622.677246,1332.370696,612.876398
2878.968723,-9622.677246,1850.514855,-1149.143247
2878.969060,-9622.677246,222.061783,-536.266849
2878.969398,-10140.821405,-592.164754,-536.266849
2878.969735,-9622.677246,370.102971,-1302.362347
2878.970072,-8808.450710,74.020594,-1072.533697
2878.970410,-8512.368333,-592.164754,-306.438199
2878.970747,-10140.821405,-666.185348,-383.047749
2878.971084,-10881.027347,444.123565,-1302.362347
2878.971422,-10658.965565,-1406.391290,-306.438199
2878.971759,-10362.883188,-1332.370696,1072.533697
2878.972096,-10362.883188,-1184.329507,0.000000
2878.972434,-9770.718434,-2072.576638,-229.828649
2878.972771,-9622.677246,-1850.514855,995.924147
2878.973108,-10732.986159,-1110.308913,2068.457845
2878.973446,-11103.089130,0.000000,306.438199
2878.973783,-10436.903782,-814.226536,-536.266849
2878.974120,-11325.150913,-962.267725,383.047749
2878.974457,-10510.924376,-296.082377,-536.266849
2878.974795,-10288.862594,-888.247130,-1225.752797
2878.975132,-9326.594869,-1258.350101,0.000000
2878.975469,-9474.636058,-148.041188,0.000000
2878.975807,-10732.986159,74.020594,-612.876398
2878.976144,-10362.883188,-962.267725,-1685.410096
2878.976481,-9326.594869,-1258.350101,0.000000
2878.976819,-10510.924376,-592.164754,536.266849
2878.977156,-9844.739029,-74.020594,-689.485948
2878.977493,-9474.636058,-1184.329507,0.000000
2878.977831,-9548.656652,-1554.432478,1762.019645
2878.978168,-9622.677246,-444.123565,766.095498
2878.978505,-9844.739029,0.000000,0.000000
2878.978842,-10510.924376,-1184.329507,689.485948
2878.979180,-10658.965565,-1406.391290,919.314598
2878.979517,-9844.739029,-962.267725,0.000000
2878.979854,-8956.491898,0.000000,1532.190996
2878.980192,-8956.491898,296.082377,2681.334243
2878.980529,-10362.883188,1554.432478,2145.067394
2878.980866,-10584.944971,1850.514855,536.266849
2878.981204,-10066.800811,1258.350101,1608.800546
2878.981541,-10140.821405,1406.391290,2451.505594
2878.981878,-10436.903782,2368.659014,1072.533697
2878.982215,-10436.903782,1702.473667,459.657299
2878.982553,-9622.677246,444.123565,1072.533697
2878.982890,-9844.739029,814.226536,766.095498
2878.983227,-9992.780217,888.247130,-766.095498
2878.983565,-9474.636058,0.000000,-2145.067394
2878.983902,-9770.718434,-1924.535449,-1378.971896
2878.984239,-10436.903782,-592.164754,-2221.676944
2878.984577,-8882.471304,-1258.350101,-2757.943793
2878.984914,-8660.409521,-1554.432478,-612.876398
2878.985251,-8808.450710,-1480.411884,0.000000
2878.985589,-10658.965565,-888.247130,-612.876398
2878.985926,-11621.233289,-1110.308913,-306.438199
2878.986263,-10214.842000,-1776.494261,459.657299
2878.986600,-10658.965565,-1776.494261,1532.190996
2878.986938,-10732.986159,-1480.411884,766.095498
2878.987275,-9918.759623,-1850.514855,1532.190996
2878.987612,-10140.821405,-518.144159,2911.162892
2878.987950,-10436.903782,0.000000,919.314598
2878.988287,-10288.862594,888.247130,-995.924147
2878.988624,-10732.986159,-296.082377,153.219100
2878.988962,-11029.068536,-444.123565,229.828649
2878.989299,-9992.780217,296.082377,-766.095498
2878.989636,-9178.553681,740.205942,229.828649
2878.989974,-9474.636058,444.123565,1685.410096
2878.990311,-9992.780217,962.267725,306.438199
2878.990648,-11103.089130,296.082377,-612.876398
2878.990985,-10140.821405,0.000000,-306.438199
2878.991323,-9992.780217,444.123565,1225.752797
2878.991660,-9696.697840,222.061783,-459.657299
2878.991997,-9326.594869,-1110.308913,0.000000
2878.992335,-8734.430116,-1480.411884,1455.581446
2878.992672,-9474.636058,0.000000,1685.410096
2878.993009,-9844.739029,1036.288319,-153.219100
2878.993347,-10140.821405,-592.164754,-229.828649
2878.993684,-10436.903782,-1332.370696,536.266849
2878.994021,-10214.842000,-1480.411884,153.219100
2878.994359,-9030.512492,370.102971,76.609550
2878.994696,-8882.471304,-296.082377,1455.581446
2878.995033,-9770.718434,148.041188,1838.629195
2878.995370,-10214.842000,1036.288319,-766.095498
2878.995708,-10732.986159,592.164754,229.828649
2878.996045,-10436.903782,-592.164754,1532.190996
2878.996382,-10436.903782,296.082377,383.047749
2878.996720,-10732.986159,0.000000,-459.657299
2878.997057,-9400.615463,0.000000,0.000000
2878.997394,-9770.718434,-962.267725,842.705048
2878.997732,-10436.903782,-222.061783,-919.314598
2878.998069,-10140.821405,-370.102971,-2298.286494
2878.998406,-11029.068536,-1924.535449,-1762.019645
2878.998744,-11473.192101,-2368.659014,-1685.410096
2878.999081,-9770.718434,-2220.617826,-2374.896044
2878.999418,-8882.471304,-2516.700203,0.000000
2878.999755,-8956.491898,-2368.659014,1072.533697
2879.000093,-10066.800811,-962.267725,76.609550
2879.000430,-10807.006753,-1406.391290,-459.657299
2879.000767,-10362.883188,-1702.473667,2068.457845
2879.001105,-10066.800811,-1184.329507,2451.505594
2879.001442,-10658.965565,0.000000,1991.848295
2879.001779,-9770.718434,0.000000,1915.238745
2879.002117,-9548.656652,-296.082377,2757.943793
2879.002454,-9844.739029,1184.329507,2834.553343
2879.002791,-9622.677246,1110.308913,766.095498
2879.003128,-10362.883188,1332.370696,459.657299
2879.003466,-10881.027347,444.123565,76.609550
2879.003803,-10362.883188,888.247130,-1608.800546
2879.004140,-9030.512492,1554.432478,-1455.581446
2879.004478,-8142.265362,814.226536,919.314598
2879.004815,-9770.718434,444.123565,536.266849
2879.005152,-10288.862594,1406.391290,-1225.752797
2879.005490,-10214.842000,1184.329507,-1149.143247
2879.005827,-10732.986159,296.082377,383.047749
2879.006164,-10584.944971,0.000000,0.000000
2879.006502,-10066.800811,0.000000,-306.438199
2879.006839,-9326.594869,-1036.288319,842.705048
2879.007176,-9474.636058,-1036.288319,1455.581446
2879.007513,-10362.883188,-296.082377,0.000000
2879.007851,-9622.677246,-1184.329507,-229.828649
2879.008188,-9992.780217,-1850.514855,689.485948
2879.008525,-11177.109724,-1702.473667,1225.752797
2879.008863,-9918.759623,0.000000,-383.047749
2879.009200,-9326.594869,-518.144159,689.485948
2879.009537,-9326.594869,-444.123565,2068.457845
2879.009875,-9992.780217,222.061783,0.000000
2879.010212,-11251.130318,296.082377,-612.876398
2879.010549,-10584.944971,-740.205942,229.828649
2879.010887,-9844.739029,0.000000,306.438199
2879.011224,-10436.903782,222.061783,-919.314598
2879.011561,-9770.718434,-666.185348,-459.657299
2879.011898,-9844.739029,-1332.370696,1149.143247
2879.012236,-10140.821405,-518.144159,229.828649
2879.012573,-9992.780217,222.061783,-1532.190996
2879.012910,-10436.903782,-1258.350101,-1072.533697
2879.013248,-10807.006753,-1702.473667,0.000000
2879.013585,-10362.883188,-740.205942,-766.095498
2879.013922,-9474.636058,-740.205942,-306.438199
2879.014260,-8734.430116,-518.144159,1072.533697
2879.014597,-9918.759623,-1258.350101,1378.971896
2879.014934,-10066.800811,296.082377,842.705048
2879.015272,-9622.677246,-444.123565,1072.533697
2879.015609,-9696.697840,74.020594,2987.772442
2879.015946,-10066.800811,592.164754,1762.019645
2879.016283,-10066.800811,1258.350101,1225.752797
2879.016621,-9400.615463,370.102971,2068.457845
2879.016958,-9030.512492,1184.329507,2757.943793
2879.017295,-10214.842000,2294.638420,995.924147
2879.017633,-10214.842000,1628.453072,-1072.533697
2879.017970,-10362.883188,0.000000,-689.485948
2879.018307,-10807.006753,222.061783,-1378.971896
2879.018645,-9474.636058,222.061783,-2681.334243
2879.018982,-8142.265362,-518.144159,-842.705048
2879.019319,-8660.409521,-1480.411884,-459.657299
2879.019656,-9548.656652,-296.082377,-2451.505594
2879.019994,-10436.903782,-1110.308913,-2987.772442
2879.020331,-10436.903782,-1554.432478,153.219100
2879.020668,-10066.800811,-1406.391290,229.828649
2879.021006,-11029.068536,-1332.370696,-153.219100
2879.021343,-10658.965565,-1776.494261,1072.533697
2879.021680,-9622.677246,-2960.823768,1685.410096
2879.022018,-10584.944971,-1628.453072,2145.067394
2879.022355,-10658.965565,-1184.329507,919.314598
2879.022692,-10807.006753,-1998.556043,919.314598
2879.023030,-11695.253884,-1554.432478,1378.971896
2879.023367,-11029.068536,-1036.288319,0.000000
2879.023704,-9178.553681,-222.061783,-229.828649
2879.024041,-8586.388927,-888.247130,1302.362347
2879.024379,-9844.739029,962.267725,1378.971896
2879.024716,-10881.027347,444.123565,-536.266849
2879.025053,-10066.800811,444.123565,536.266849
2879.025391,-9992.780217,222.061783,1838.629195
2879.025728,-10362.883188,592.164754,766.095498
2879.026065,-9548.656652,296.082377,-306.438199
2879.026403,-9474.636058,-148.041188,919.314598
2879.026740,-9178.553681,518.144159,1225.752797
2879.027077,-9474.636058,888.247130,-689.485948
2879.027415,-9696.697840,222.061783,-1302.362347
2879.027752,-10214.842000,-1258.350101,-383.047749
2879.028089,-10288.862594,0.000000,-153.219100
2879.028426,-9548.656652,518.144159,-995.924147
2879.028764,-8364.327145,0.000000,612.876398
2879.029101,-9622.677246,222.061783,2298.286494
2879.029438,-10362.883188,518.144159,306.438199
2879.029776,-10510.924376,666.185348,766.095498
2879.030113,-10288.862594,518.144159,2068.457845
2879.030450,-10807.006753,444.123565,1991.848295
2879.030788,-10436.903782,1258.350101,612.876398
2879.031125,-9770.718434,0.000000,1302.362347
2879.031462,-9770.718434,0.000000,2681.334243
2879.031800,-9770.718434,1258.350101,612.876398
2879.032137,-10510.924376,1406.391290,-1149.143247
2879.032474,-10584.944971,-740.205942,-536.266849
2879.032811,-10584.944971,-1036.288319,-1149.143247
2879.033149,-10436.903782,-592.164754,-1838.629195
2879.033486,-8734.430116,-1406.391290,-1838.629195
2879.033823,-8364.327145,-2368.659014,-459.657299
2879.034161,-10066.800811,-1628.453072,-766.095498
2879.034498,-10584.944971,-1184.329507,-1455.581446
2879.034835,-10658.965565,-1776.494261,-612.876398
2879.035173,-10436.903782,-2516.700203,842.705048
2879.035510,-9992.780217,-962.267725,76.609550
2879.035847,-10140.821405,-1628.453072,842.705048
2879.036185,-10214.842000,-2072.576638,2528.115143
2879.036522,-9844.739029,-888.247130,2987.772442
2879.036859,-11029.068536,1184.329507,1532.190996
2879.037196,-10955.047942,296.082377,1149.143247
2879.037534,-11251.130318,-74.020594,1838.629195
2879.037871,-11399.171507,148.041188,612.876398
2879.038208,-9696.697840,888.247130,-306.438199
2879.038546,-8660.409521,740.205942,842.705048
2879.038883,-9474.636058,444.123565,842.705048
2879.039220,-10066.800811,1036.288319,-383.047749
2879.039558,-9696.697840,1110.308913,-1149.143247
2879.039895,-9696.697840,962.267725,689.485948
2879.040232,-9918.759623,666.185348,76.609550
2879.040569,-9696.697840,518.144159,-1685.410096
2879.040907,-9178.553681,0.000000,0.000000
2879.041244,-9252.574275,-740.205942,1149.143247
2879.041581,-9770.718434,-74.020594,229.828649
2879.041919,-10066.800811,-74.020594,-842.705048
2879.042256,-10066.800811,-1628.453072,-766.095498
2879.042593,-10436.903782,-1480.411884,-383.047749
2879.042931,-9622.677246,-1332.370696,-1302.362347
2879.043268,-8882.471304,-1332.370696,-459.657299
2879.043605,-9252.574275,-1480.411884,1302.362347
2879.043943,-10362.883188,-592.164754,919.314598
2879.044280,-11103.089130,518.144159,-306.438199
2879.044617,-10658.965565,-370.102971,689.485948
2879.044954,-11251.130318,0.000000,2068.457845
2879.045292,-11399.171507,296.082377,689.485948
2879.045629,-10214.842000,74.020594,306.438199
2879.045966,-10288.862594,-296.082377,2374.896044
2879.046304,-10140.821405,0.000000,766.095498
2879.046641,-9992.780217,592.164754,-919.314598
2879.046978,-10584.944971,-1036.288319,-919.314598
2879.047316,-10436.903782,-1258.350101,-383.047749
2879.047653,-10510.924376,-1480.411884,-1302.362347
2879.047990,-9030.512492,-666.185348,-1455.581446
2879.048328,-8438.347739,-1554.432478,-383.047749
2879.048665,-9474.636058,-1406.391290,842.705048
2879.049002,-10066.800811,-1184.329507,-306.438199
2879.049339,-9474.636058,-1480.411884,229.828649
2879.049677,-9400.615463,-740.205942,2221.676944
2879.050014,-9992.780217,-592.164754,1225.752797
2879.050351,-10066.800811,444.123565,1149.143247
2879.050689,-9326.594869,-1110.308913,2068.457845
2879.051026,-9474.636058,592.164754,3294.210641
2879.051363,-10214.842000,2294.638420,2298.286494
2879.051701,-10362.883188,2072.576638,459.657299
2879.052038,-10510.924376,814.226536,612.876398
2879.052375,-10510.924376,962.267725,76.609550
2879.052713,-9918.759623,2294.638420,-995.924147
2879.053050,-9474.636058,1406.391290,0.000000
2879.053387,-9548.656652,740.205942,459.657299
2879.053724,-9918.759623,1110.308913,-1455.581446
2879.054062,-10732.986159,296.082377,-1762.019645
2879.054399,-9622.677246,592.164754,-689.485948
2879.054736,-9992.780217,-962.267725,0.000000
2879.055074,-9548.656652,-888.247130,-1149.143247
2879.055411,-9178.553681,-1258.350101,-1225.752797
2879.055748,-10214.842000,-2294.638420,1762.019645
2879.056086,-10362.883188,-814.226536,842.705048
2879.056423,-9696.697840,-814.226536,-766.095498
2879.056760,-10436.903782,-1480.411884,153.219100
2879.057098,-10140.821405,-2812.782580,0.000000
2879.057435,-10362.883188,-1924.535449,76.609550
2879.057772,-9474.636058,-1998.556043,76.609550
2879.058109,-8808.450710,-1702.473667,1608.800546
2879.058447,-9992.780217,-740.205942,1532.190996
2879.058784,-10807.006753,-74.020594,229.828649
2879.059121,-9918.759623,0.000000,536.266849
2879.059459,-10288.862594,-518.144159,2298.286494
2879.059796,-10955.047942,1480.411884,1532.190996
2879.060133,-10732.986159,888.247130,383.047749
2879.060471,-10436.903782,0.000000,1455.581446
2879.060808,-9844.739029,592.164754,2068.457845
2879.061145,-10066.800811,1480.411884,459.657299
2879.061482,-10658.965565,1406.391290,-995.924147
2879.061820,-10732.986159,-592.164754,-612.876398
2879.062157,-10732.986159,-592.164754,-1302.362347
2879.062494,-9474.636058,0.000000,-2451.505594
2879.062832,-8882.471304,-370.102971,-995.924147
2879.063169,-9178.553681,-814.226536,612.876398
2879.063506,-9696.697840,0.000000,-153.219100
2879.063844,-9548.656652,-518.144159,-612.876398
2879.064181,-9400.615463,0.000000,842.705048
2879.064518,-9474.636058,0.000000,2145.067394
2879.064856,-11029.068536,74.020594,919.314598
2879.065193,-9548.656652,-444.123565,1302.362347
2879.065530,-9548.656652,0.000000,3370.820191
2879.065867,-9622.677246,222.061783,2451.505594
2879.066205,-9918.759623,666.185348,229.828649
2879.066542,-9770.718434,-444.123565,383.047749
2879.066879,-10732.986159,-370.102971,-306.438199
2879.067217,-10214.842000,0.000000,-1532.190996
2879.067554,-9844.739029,-370.102971,-1302.362347
2879.067891,-8808.450710,-1036.288319,-536.266849
2879.068229,-9770.718434,-518.144159,-306.438199
2879.068566,-11103.089130,740.205942,-1532.190996
2879.068903,-10732.986159,-592.164754,-1685.410096
2879.069241,-10955.047942,-1258.350101,0.000000
2879.069578,-11029.068536,-1480.411884,-842.705048
2879.069915,-10510.924376,-1924.535449,-766.095498
2879.070252,-10288.862594,-2368.659014,1455.581446
2879.070590,-9844.739029,-2516.700203,2221.676944
2879.070927,-9696.697840,-222.061783,459.657299
2879.071264,-10362.883188,-1258.350101,459.657299
2879.071602,-10807.006753,-1850.514855,1608.800546
2879.071939,-10658.965565,-1480.411884,689.485948
2879.072276,-9770.718434,444.123565,842.705048
2879.072614,-9030.512492,-148.041188,1685.410096
2879.072951,-9030.512492,-148.041188,1762.019645
2879.073288,-9844.739029,1036.288319,919.314598
2879.073625,-9992.780217,1184.329507,306.438199
2879.073963,-9474.636058,962.267725,1455.581446
2879.074300,-9622.677246,1554.432478,229.828649
2879.074637,-10214.842000,1184.329507,-76.609550
2879.074975,-8882.471304,740.205942,229.828649
2879.075312,-8660.409521,444.123565,1149.143247
2879.075649,-9622.677246,1776.494261,919.314598
2879.075986,-10140.821405,1554.432478,-1455.581446
2879.076324,-10140.821405,814.226536,-1225.752797
2879.076661,-10955.047942,-888.247130,-689.485948
2879.076998,-10066.800811,0.000000,-1302.362347
2879.077336,-9622.677246,-444.123565,-689.485948
2879.077673,-9474.636058,-1036.288319,383.047749
2879.078010,-9770.718434,-444.123565,76.609550
2879.078347,-10510.924376,-592.164754,-1072.533697
2879.078685,-10066.800811,-1258.350101,459.657299
2879.079022,-10066.800811,-1702.473667,1838.629195
2879.079359,-10807.006753,-962.267725,1378.971896
2879.079697,-10066.800811,-518.144159,76.609550
2879.080034,-9474.636058,-1332.370696,1915.238745
2879.080371,-9992.780217,-518.144159,4213.525239
2879.080709,-10288.862594,0.000000,536.266849
2879.081046,-10214.842000,444.123565,-383.047749
2879.081383,-10658.965565,-1258.350101,0.000000
2879.081720,-10510.924376,-1110.308913,-1762.019645
2879.082058,-9326.594869,-740.205942,-2221.676944
2879.082395,-8586.388927,-1184.329507,-153.219100
2879.082732,-9104.533087,-1258.350101,-153.219100
2879.083070,-10362.883188,-222.061783,-1532.190996
2879.083407,-10436.903782,-518.144159,-1838.629195
2879.083744,-9992.780217,-1480.411884,0.000000
2879.084081,-10807.006753,-1110.308913,689.485948
2879.084419,-10955.047942,222.061783,76.609550
2879.084756,-10436.903782,-1110.308913,1149.143247
2879.085093,-9474.636058,-444.123565,2681.334243
2879.085431,-10066.800811,740.205942,2221.676944
2879.085768,-10658.965565,962.267725,1149.143247
2879.086105,-10584.944971,-370.102971,1455.581446
2879.086442,-10881.027347,0.000000,2145.067394
2879.086780,-10288.862594,740.205942,842.705048
2879.087117,-8956.491898,1184.329507,612.876398
2879.087454,-8956.491898,888.247130,2451.505594
2879.087792,-9252.574275,666.185348,919.314598
2879.088129,-9770.718434,1850.514855,-612.876398
2879.088466,-9622.677246,666.185348,76.609550
2879.088803,-10140.821405,666.185348,536.266849
2879.089141,-10214.842000,444.123565,-919.314598
2879.089478,-9992.780217,-518.144159,-1532.190996
2879.089815,-9030.512492,-740.205942,842.705048
2879.090153,-9178.553681,-888.247130,76.609550
2879.090490,-9548.656652,-148.041188,-1378.971896
2879.090827,-9548.656652,-1776.494261,-1991.848295
2879.091164,-10510.924376,-2368.659014,0.000000
2879.091502,-11251.130318,-1998.556043,-919.314598
2879.091839,-10436.903782,-1184.329507,-995.924147
2879.092176,-9474.636058,-1850.514855,153.219100
2879.092514,-9696.697840,-1850.514855,689.485948
2879.092851,-10881.027347,-1036.288319,0.000000
2879.093188,-10955.047942,-1036.288319,76.609550
2879.093525,-10658.965565,-1850.514855,919.314598
2879.093863,-11029.068536,-962.267725,229.828649
2879.094200,-10955.047942,-370.102971,0.000000
2879.094537,-9696.697840,-592.164754,842.705048
2879.094875,-9622.677246,-740.205942,2757.943793
2879.095212,-9992.780217,1258.350101,1838.629195
2879.095549,-10066.800811,888.247130,0.000000
2879.095886,-10732.986159,-592.164754,689.485948
2879.096224,-11177.109724,-296.082377,76.609550
2879.096561,-10066.800811,222.061783,-612.876398
2879.096898,-8956.491898,222.061783,-306.438199
2879.097236,-9030.512492,-222.061783,612.876398
2879.097573,-9104.533087,370.102971,-1455.581446
2879.097910,-9326.594869,0.000000,-2221.676944
2879.098247,-9474.636058,-222.061783,0.000000
2879.098585,-9844.739029,-592.164754,995.924147
2879.098922,-10436.903782,296.082377,229.828649
2879.099259,-9622.677246,148.041188,536.266849
2879.099597,-8734.430116,-74.020594,2374.896044
2879.099934,-9474.636058,1480.411884,3064.381992
2879.100271,-10510.924376,1332.370696,1532.190996
2879.100608,-11251.130318,1036.288319,1149.143247
2879.100946,-11177.109724,296.082377,1532.190996
2879.101283,-11251.130318,666.185348,842.705048
2879.101620,-9844.739029,1110.308913,-383.047749
2879.101958,-8882.471304,-222.061783,919.314598
2879.102295,-9400.615463,740.205942,995.924147
2879.102632,-10214.842000,370.102971,-1532.190996
2879.102969,-10732.986159,222.061783,-1225.752797
2879.103307,-10140.821405,-1036.288319,0.000000
2879.103644,-10140.821405,-592.164754,-1302.362347
2879.103981,-9992.780217,-592.164754,-1532.190996
2879.104319,-10066.800811,-666.185348,-229.828649
2879.104656,-9474.636058,-1924.535449,536.266849
2879.104993,-9918.759623,-740.205942,-612.876398
2879.105330,-10288.862594,-1480.411884,-766.095498
2879.105668,-10955.047942,-2368.659014,306.438199
2879.106005,-11325.150913,-2516.700203,-153.219100
2879.106342,-9548.656652,-1406.391290,-1915.238745
2879.106680,-8882.471304,-1776.494261,536.266849
2879.107017,-9178.553681,-1258.350101,2374.896044
2879.107354,-9992.780217,-592.164754,919.314598
2879.107691,-10658.965565,296.082377,76.609550
2879.108029,-10436.903782,0.000000,1685.410096
2879.108366,-10881.027347,148.041188,1685.410096
2879.108703,-10658.965565,1554.432478,919.314598
2879.109041,-10066.800811,518.144159,1378.971896
2879.109378,-9474.636058,962.267725,2068.457845
2879.109715,-9548.656652,1480.411884,1685.410096
2879.110052,-9992.780217,2220.617826,-459.657299
2879.110390,-10140.821405,222.061783,229.828649
2879.110727,-10362.883188,-370.102971,536.266849
2879.111064,-10214.842000,814.226536,-1072.533697
2879.111402,-9400.615463,296.082377,-1302.362347
2879.111739,-8512.368333,74.020594,-229.828649
2879.112076,-9326.594869,-1110.308913,0.000000
2879.112413,-10362.883188,-222.061783,-919.314598
2879.112751,-9696.697840,-592.164754,-995.924147
2879.113088,-10658.965565,-1184.329507,536.266849
2879.113425,-10510.924376,-1628.453072,-153.219100
2879.113763,-9548.656652,-1480.411884,-766.095498
2879.114100,-9696.697840,-2072.576638,1991.848295
2879.114437,-9104.533087,-592.164754,2451.505594
2879.114774,-10066.800811,-444.123565,995.924147
2879.115112,-11029.068536,-370.102971,229.828649
2879.115449,-10732.986159,-1036.288319,689.485948
2879.115786,-11621.233289,-1332.370696,1532.190996
2879.116124,-10881.027347,-740.205942,-306.438199
2879.116461,-8512.368333,-370.102971,536.266849
2879.116798,-9104.533087,-1110.308913,1302.362347
2879.117135,-10140.821405,-814.226536,-766.095498
2879.117473,-10584.944971,-370.102971,-1915.238745
2879.117810,-10510.924376,-1332.370696,-536.266849
2879.118147,-10214.842000,-814.226536,-689.485948
2879.118485,-10807.006753,-370.102971,-1685.410096
2879.118822,-9844.739029,-962.267725,-1378.971896
2879.119159,-8808.450710,-1776.494261,536.266849
2879.119496,-9696.697840,-962.267725,766.095498
2879.119834,-10140.821405,0.000000,76.609550
2879.120171,-10658.965565,-1184.329507,306.438199
2879.120508,-10955.047942,-1554.432478,1685.410096
2879.120846,-10362.883188,-740.205942,1072.533697
2879.121183,-9104.533087,148.041188,1225.752797
2879.121520,-9178.553681,0.000000,2681.334243
2879.121857,-10066.800811,962.267725,2834.553343
2879.122195,-10066.800811,1258.350101,0.000000
2879.122532,-10066.800811,1406.391290,459.657299
2879.122869,-9548.656652,1554.432478,919.314598
2879.123207,-9622.677246,1184.329507,153.219100
2879.123544,-9474.636058,1998.556043,-766.095498
2879.123881,-9178.553681,1110.308913,612.876398
2879.124218,-9548.656652,1258.350101,1378.971896
2879.124556,-9770.718434,1628.453072,-76.609550
2879.124893,-11251.130318,740.205942,-383.047749
2879.125230,-10510.924376,-962.267725,0.000000
2879.125568,-10066.800811,-740.205942,-995.924147
2879.125905,-9474.636058,-592.164754,-1532.190996
2879.126242,-8956.491898,-1480.411884,-1072.533697
2879.126579,-9474.636058,-1554.432478,0.000000
2879.126917,-10732.986159,-888.247130,-766.095498
2879.127254,-10510.924376,-666.185348,-1685.410096
2879.127591,-10510.924376,-1702.473667,0.000000
2879.127929,-10732.986159,-2146.597232,459.657299
2879.128266,-9992.780217,-1184.329507,0.000000
2879.128603,-10362.883188,-1258.350101,1532.190996
2879.128940,-9844.739029,-1998.556043,2757.943793
2879.129278,-10140.821405,-222.061783,2145.067394
2879.129615,-10881.027347,592.164754,689.485948
2879.129952,-10807.006753,-592.164754,306.438199
2879.130290,-10658.965565,-814.226536,919.314598
2879.130627,-9992.780217,-74.020594,153.219100
2879.130964,-8882.471304,296.082377,-306.438199
2879.131301,-8956.491898,-148.041188,842.705048
2879.131639,-9326.594869,296.082377,-76.609550
2879.131976,-9770.718434,0.000000,-1225.752797
2879.132313,-9622.677246,-222.061783,-536.266849
2879.132651,-9844.739029,-148.041188,0.000000
2879.132988,-10066.800811,-296.082377,-536.266849
2879.133325,-9622.677246,-370.102971,-919.314598
2879.133662,-9252.574275,-74.020594,1762.019645
2879.134000,-9770.718434,-370.102971,2374.896044
2879.134337,-10066.800811,1184.329507,459.657299
2879.134674,-10732.986159,0.000000,536.266849
2879.135012,-11029.068536,-888.247130,1532.190996
2879.135349,-10362.883188,148.041188,1225.752797
2879.135686,-10732.986159,592.164754,1532.190996
2879.136023,-9400.615463,740.205942,1532.190996
2879.136361,-9918.759623,370.102971,1302.362347
2879.136698,-10881.027347,1628.453072,383.047749
2879.137035,-10436.903782,962.267725,-306.438199
2879.137373,-10436.903782,-518.144159,153.219100
2879.137710,-10510.924376,74.020594,459.657299
2879.138047,-9474.636058,0.000000,-1455.581446
2879.138384,-9474.636058,-592.164754,-536.266849
2879.138722,-9030.512492,-1258.350101,766.095498
2879.139059,-9474.636058,-222.061783,-306.438199
2879.139396,-10436.903782,0.000000,-1455.581446
2879.139734,-10955.047942,-1258.350101,-1302.362347
2879.140071,-10584.944971,-2294.638420,-1378.971896
2879.140408,-10140.821405,-2220.617826,-1608.800546
2879.140745,-9104.533087,-2220.617826,-766.095498
2879.141083,-9326.594869,-2220.617826,919.314598
2879.141420,-10140.821405,-1776.494261,383.047749
2879.141757,-10584.944971,-1776.494261,-995.924147
2879.142095,-10732.986159,-1628.453072,0.000000
2879.142432,-10510.924376,-1480.411884,1455.581446
2879.142769,-10436.903782,0.000000,766.095498
2879.143106,-10658.965565,-296.082377,766.095498
2879.143444,-9844.739029,-592.164754,2451.505594
2879.143781,-9770.718434,222.061783,3370.820191
2879.144118,-10510.924376,1998.556043,1302.362347
2879.144456,-10658.965565,1110.308913,995.924147
2879.144793,-11843.295072,666.185348,842.705048
2879.145130,-10658.965565,1110.308913,-306.438199
2879.145467,-9474.636058,2220.617826,-766.095498
2879.145805,-8364.327145,888.247130,229.828649
2879.146142,-8438.347739,370.102971,919.314598
2879.146479,-9770.718434,962.267725,-766.095498
2879.146817,-9696.697840,814.226536,-1532.190996
2879.147154,-9400.615463,444.123565,-153.219100
2879.147491,-10881.027347,74.020594,153.219100
2879.147828,-9918.759623,296.082377,-1532.190996
2879.148166,-9178.553681,-666.185348,306.438199
2879.148503,-9474.636058,-740.205942,1915.238745
2879.148840,-9474.636058,-666.185348,536.266849
2879.149178,-9844.739029,-518.144159,306.438199
2879.149515,-10214.842000,-1850.514855,1072.533697
2879.149852,-10214.842000,-1110.308913,1072.533697
2879.150189,-10658.965565,0.000000,76.609550
2879.150527,-10066.800811,-666.185348,306.438199
2879.150864,-9252.574275,0.000000,1532.190996
2879.151201,-10658.965565,148.041188,842.705048
2879.151539,-11769.274478,592.164754,-689.485948
2879.151876,-10288.862594,-74.020594,-229.828649
2879.152213,-10732.986159,-296.082377,612.876398
2879.152550,-10881.027347,-444.123565,-459.657299
2879.152888,-9918.759623,-962.267725,-1225.752797
2879.153225,-9918.759623,-1702.473667,536.266849
2879.153562,-9918.759623,-1332.370696,536.266849
2879.153900,-9622.677246,-518.144159,-1838.629195
2879.154237,-10362.883188,-1110.308913,-2068.457845
2879.154574,-10362.883188,-2368.659014,306.438199
2879.154911,-10362.883188,-1702.473667,0.000000
2879.155249,-9548.656652,-888.247130,-536.266849
2879.155586,-9178.553681,-962.267725,1149.143247
2879.155923,-9548.656652,-1036.288319,1072.533697
2879.156261,-9992.780217,-444.123565,383.047749
2879.156598,-9844.739029,-222.061783,1302.362347
2879.156935,-10140.821405,0.000000,2374.896044
2879.157272,-10584.944971,296.082377,1991.848295
2879.157610,-10807.006753,1110.308913,612.876398
2879.157947,-9696.697840,592.164754,1225.752797
2879.158284,-9622.677246,1184.329507,2681.334243
2879.158622,-9696.697840,2442.679609,919.314598
2879.158959,-9622.677246,2072.576638,-153.219100
2879.159296,-10658.965565,518.144159,459.657299
2879.159633,-10510.924376,1184.329507,-842.705048
2879.159971,-10214.842000,1110.308913,-1378.971896
2879.160308,-9474.636058,592.164754,-229.828649
2879.160645,-9030.512492,-1184.329507,0.000000
2879.160983,-9992.780217,148.041188,-612.876398
2879.161320,-9918.759623,-814.226536,-1378.971896
2879.161657,-9548.656652,-1480.411884,-536.266849
2879.161994,-10510.924376,-1702.473667,459.657299
2879.162332,-11177.109724,-666.185348,-459.657299
2879.162669,-9992.780217,-1406.391290,-1225.752797
2879.163006,-9844.739029,-2294.638420,536.266849
2879.163344,-9548.656652,-1702.473667,1302.362347
2879.163681,-9474.636058,-666.185348,0.000000
2879.164018,-10066.800811,-1554.432478,766.095498
2879.164355,-10955.047942,-1184.329507,1225.752797
2879.164693,-11251.130318,-888.247130,0.000000
2879.165030,-9844.739029,148.041188,76.609550
2879.165367,-9770.718434,-222.061783,1072.533697
2879.165705,-9844.739029,0.000000,1991.848295
2879.166042,-10510.924376,370.102971,-153.219100
2879.166379,-9844.739029,370.102971,153.219100
2879.166716,-9622.677246,-74.020594,1149.143247
2879.167054,-11103.089130,592.164754,76.609550
2879.167391,-10584.944971,0.000000,-1455.581446
2879.167728,-9696.697840,-222.061783,-459.657299
2879.168066,-9400.615463,148.041188,306.438199
2879.168403,-9770.718434,0.000000,-1149.143247
2879.168740,-9622.677246,148.041188,-1532.190996
2879.169077,-9622.677246,-1110.308913,689.485948
2879.169415,-10732.986159,-518.144159,306.438199
2879.169752,-10436.903782,962.267725,-306.438199
2879.170089,-9326.594869,-518.144159,383.047749
2879.170427,-9548.656652,-592.164754,2834.553343
2879.170764,-10066.800811,0.000000,2068.457845
2879.171101,-10362.883188,814.226536,1455.581446
2879.171438,-9474.636058,740.205942,2068.457845
2879.171776,-10584.944971,370.102971,2068.457845
2879.172113,-10955.047942,1258.350101,306.438199
2879.172450,-9918.759623,222.061783,-383.047749
2879.172788,-9474.636058,-370.102971,1455.581446
2879.173125,-9474.636058,296.082377,689.485948
2879.173462,-9326.594869,444.123565,-1149.143247
2879.173800,-9474.636058,-740.205942,-766.095498
2879.174137,-10362.883188,-1406.391290,306.438199
2879.174474,-11029.068536,-74.020594,-1225.752797
2879.174812,-9918.759623,-666.185348,-1838.629195
2879.175149,-9770.718434,-1332.370696,0.000000
2879.175486,-9844.739029,-1702.473667,-459.657299
2879.175824,-10584.944971,-1554.432478,-1762.019645
2879.176161,-10288.862594,-1850.514855,-612.876398
2879.176498,-10584.944971,-2072.576638,1072.533697
2879.176836,-10807.006753,-1036.288319,0.000000
2879.177173,-11251.130318,-1776.494261,-689.485948
2879.177510,-9918.759623,-1850.514855,1225.752797
2879.177848,-9918.759623,-1776.494261,2604.724693
2879.178185,-10510.924376,148.041188,1915.238745
2879.178522,-10362.883188,666.185348,1149.143247
2879.178860,-10807.006753,0.000000,1915.238745
2879.179197,-10732.986159,222.061783,1149.143247
2879.179534,-9918.759623,1184.329507,-536.266849
2879.179872,-9474.636058,1258.350101,919.314598
2879.180209,-9178.553681,518.144159,1225.752797
2879.180546,-9844.739029,1998.556043,-229.828649
2879.180884,-9548.656652,1702.473667,-689.485948
2879.181221,-8956.491898,518.144159,76.609550
2879.181558,-9474.636058,518.144159,153.219100
2879.181896,-9770.718434,518.144159,-995.924147
2879.182233,-9030.512492,518.144159,-383.047749
2879.182570,-8882.471304,-740.205942,459.657299
2879.182908,-9844.739029,296.082377,766.095498
2879.183245,-10066.800811,296.082377,-459.657299
2879.183582,-10066.800811,-370.102971,-306.438199
2879.183919,-10510.924376,-814.226536,306.438199
2879.184257,-10955.047942,-666.185348,-383.047749
2879.184594,-9770.718434,-814.226536,0.000000
2879.184931,-9548.656652,-1110.308913,2068.457845
2879.185269,-10066.800811,-740.205942,2221.676944
2879.185606,-11103.089130,296.082377,842.705048
2879.185943,-11029.068536,-592.164754,1915.238745
2879.186281,-10140.821405,0.000000,1608.800546
2879.186618,-11325.150913,-370.102971,1225.752797
2879.186955,-11177.109724,-74.020594,153.219100
2879.187293,-9844.739029,-1332.370696,153.219100
2879.187630,-9844.739029,-592.164754,536.266849
2879.187967,-9548.656652,0.000000,-1225.752797
2879.188305,-9474.636058,-1554.432478,-2145.067394
2879.188642,-10288.862594,-1850.514855,-919.314598
2879.188979,-10510.924376,-2368.659014,-1762.019645
2879.189317,-9770.718434,-592.164754,-2451.505594
2879.189654,-9104.533087,-1850.514855,-1072.533697
2879.189991,-9400.615463,-1776.494261,1072.533697
2879.190329,-10362.883188,-962.267725,0.000000
2879.190666,-10140.821405,-666.185348,0.000000
2879.191003,-9696.697840,-740.205942,1302.362347
2879.191341,-10436.903782,-962.267725,1455.581446
2879.191678,-10584.944971,222.061783,306.438199
2879.192015,-9992.780217,-814.226536,1532.190996
2879.192353,-10066.800811,444.123565,3677.258390
2879.192690,-9844.739029,1776.494261,1532.190996
2879.193027,-10436.903782,2368.659014,459.657299
2879.193365,-9918.759623,1110.308913,229.828649
2879.193702,-10214.842000,1110.308913,76.609550
2879.194039,-10510.924376,1776.494261,-153.219100
2879.194377,-9178.553681,2368.659014,-536.266849
2879.194714,-9030.512492,814.226536,1149.143247
2879.195051,-9770.718434,2072.576638,919.314598
2879.195389,-9548.656652,1554.432478,-1302.362347
2879.195726,-10436.903782,370.102971,383.047749
2879.196063,-9622.677246,-1036.288319,76.609550
2879.196401,-9548.656652,-444.123565,-919.314598
2879.196738,-9696.697840,-1332.370696,-1225.752797
2879.197075,-8956.491898,-2220.617826,842.705048
2879.197413,-9178.553681,-1702.473667,842.705048
2879.197750,-9992.780217,-962.267725,-229.828649
2879.198087,-9992.780217,-740.205942,-1225.752797
2879.198425,-10807.006753,-2960.823768,0.000000
2879.198762,-11103.089130,-2072.576638,459.657299
2879.199099,-10066.800811,-1776.494261,-76.609550
2879.199436,-9844.739029,-1332.370696,2374.896044
2879.199774,-10066.800811,-1110.308913,2681.334243
2879.200111,-11103.089130,-444.123565,995.924147
2879.200448,-10658.965565,-222.061783,766.095498
2879.200786,-10436.903782,-1184.329507,1838.629195
2879.201123,-10658.965565,148.041188,919.314598
2879.201460,-11547.212695,-148.041188,0.000000
2879.201798,-10436.903782,-148.041188,536.266849
2879.202135,-9326.594869,-814.226536,536.266849
2879.202472,-9770.718434,592.164754,0.000000
2879.202810,-10066.800811,814.226536,-1915.238745
2879.203147,-10066.800811,-962.267725,-1838.629195
2879.203484,-10807.006753,-444.123565,-1378.971896
2879.203822,-9918.759623,-888.247130,-2068.457845
2879.204159,-9104.533087,-222.061783,-612.876398
2879.204496,-8438.347739,-1110.308913,1378.971896
2879.204834,-9770.718434,-518.144159,1532.190996
2879.205171,-9844.739029,666.185348,383.047749
2879.205508,-9548.656652,222.061783,1149.143247
2879.205846,-10955.047942,518.144159,2528.115143
2879.206183,-11029.068536,1036.288319,1072.533697
2879.206520,-9622.677246,814.226536,689.485948
2879.206858,-9548.656652,666.185348,2374.896044
2879.207195,-9178.553681,1184.329507,2068.457845
2879.207532,-10140.821405,2294.638420,0.000000
2879.207870,-10140.821405,592.164754,-1072.533697
2879.208207,-10362.883188,0.000000,0.000000
2879.208544,-10732.986159,740.205942,-536.266849
2879.208882,-9326.594869,148.041188,-1685.410096
2879.209219,-8142.265362,-518.144159,0.000000
2879.209556,-9400.615463,-962.267725,766.095498
2879.209894,-10214.842000,592.164754,-766.095498
2879.210231,-10658.965565,-740.205942,-1225.752797
2879.210568,-10436.903782,-1406.391290,229.828649
2879.210906,-10881.027347,-1480.411884,-306.438199
2879.211243,-10658.965565,-1480.411884,-842.705048
2879.211580,-9622.677246,-2368.659014,0.000000
2879.211918,-9400.615463,-3182.885551,1225.752797
2879.212255,-10066.800811,-1332.370696,76.609550
2879.212592,-10214.842000,-1480.411884,-919.314598
2879.212930,-10658.965565,-2368.659014,612.876398
2879.213267,-10955.047942,-2664.741391,689.485948
2879.213604,-10214.842000,-740.205942,229.828649
2879.213941,-8956.491898,-296.082377,1302.362347
2879.214279,-9696.697840,74.020594,2681.334243
2879.214616,-10214.842000,148.041188,2834.553343
2879.214953,-11103.089130,962.267725,919.314598
2879.215291,-10214.842000,1332.370696,1762.019645
2879.215628,-11029.068536,1110.308913,1915.238745
2879.215965,-10584.944971,1480.411884,-153.219100
2879.216303,-9178.553681,518.144159,-1149.143247
2879.216640,-9104.533087,0.000000,1455.581446
2879.216977,-8808.450710,1036.288319,306.438199
2879.217315,-9400.615463,1184.329507,-2068.457845
2879.217652,-9918.759623,370.102971,-1915.238745
2879.217989,-9844.739029,-1406.391290,-842.705048
2879.218327,-10732.986159,-296.082377,-612.876398
2879.218664,-9474.636058,370.102971,-1072.533697
2879.219001,-9178.553681,-518.144159,536.266849
2879.219339,-9992.780217,0.000000,1532.190996
2879.219676,-10214.842000,0.000000,0.000000
2879.220013,-9918.759623,0.000000,536.266849
2879.220351,-10140.821405,-888.247130,2145.067394
2879.220688,-11029.068536,-222.061783,1532.190996
2879.221025,-10955.047942,518.144159,0.000000
2879.221363,-10066.800811,-740.205942,1762.019645
2879.221700,-9326.594869,-740.205942,2298.286494
2879.222037,-10214.842000,148.041188,612.876398
2879.222375,-9770.718434,740.205942,-995.924147
2879.222712,-10436.903782,-1184.329507,-612.876398
2879.223049,-11251.130318,-1406.391290,-919.314598
2879.223387,-10066.800811,-888.247130,-2145.067394
2879.223724,-8734.430116,-1184.329507,-995.924147
2879.224061,-9104.533087,-962.267725,0.000000
2879.224399,-10362.883188,-888.247130,-919.314598
2879.224736,-10362.883188,-740.205942,-2221.676944
2879.225073,-9622.677246,-2590.720797,306.438199
2879.225411,-10584.944971,-1998.556043,1685.410096
2879.225748,-11103.089130,-1480.411884,306.438199
2879.226085,-10436.903782,-1406.391290,536.266849
2879.226423,-9622.677246,-1924.535449,2451.505594
2879.226760,-9992.780217,-444.123565,1991.848295
2879.227097,-9696.697840,518.144159,459.657299
2879.227435,-10955.047942,-814.226536,842.705048
2879.227772,-10510.924376,-592.164754,1072.533697
2879.228109,-10066.800811,518.144159,153.219100
2879.228447,-9326.594869,666.185348,459.657299
2879.228784,-8438.347739,74.020594,1685.410096
2879.229121,-9178.553681,1036.288319,2528.115143
2879.229458,-10140.821405,1776.494261,459.657299
2879.229796,-9770.718434,1480.411884,919.314598
2879.230133,-10214.842000,1184.329507,1915.238745
2879.230470,-10362.883188,888.247130,536.266849
2879.230808,-9992.780217,1628.453072,-689.485948
2879.231145,-9696.697840,592.164754,842.705048
2879.231482,-9844.739029,-370.102971,536.266849
2879.231820,-9326.594869,888.247130,-1532.190996
2879.232157,-9474.636058,-370.102971,-2374.896044
2879.232494,-9992.780217,-2072.576638,-1225.752797
2879.232832,-10140.821405,-1998.556043,-1149.143247
2879.233169,-10288.862594,-1110.308913,-1378.971896
2879.233506,-9992.780217,-814.226536,-383.047749
2879.233844,-9548.656652,-1628.453072,766.095498
2879.234181,-11177.109724,-444.123565,612.876398
2879.234518,-10658.965565,-666.185348,76.609550
2879.234856,-10510.924376,-1554.432478,1608.800546
2879.235193,-10955.047942,-592.164754,1915.238745
2879.235530,-10955.047942,0.000000,459.657299
2879.235868,-10362.883188,-518.144159,459.657299
2879.236205,-10140.821405,-1554.432478,1685.410096
2879.236542,-9548.656652,444.123565,689.485948
2879.236880,-9844.739029,888.247130,-1225.752797
2879.237217,-9474.636058,-592.164754,-1532.190996
2879.237554,-10362.883188,-1480.411884,-1072.533697
2879.237892,-10288.862594,-740.205942,-1532.190996
2879.238229,-9474.636058,0.000000,-1455.581446
2879.238566,-9104.533087,-814.226536,0.000000
2879.238904,-9548.656652,-444.123565,0.000000
2879.239241,-10214.842000,-740.205942,-766.095498
2879.239578,-9178.553681,-740.205942,0.000000
2879.239916,-9548.656652,-888.247130,1762.019645
2879.240253,-11029.068536,0.000000,1532.190996
2879.240590,-10288.862594,0.000000,689.485948
2879.240928,-10214.842000,-296.082377,2145.067394
2879.241265,-10140.821405,148.041188,3524.039291
2879.241602,-9844.739029,1480.411884,1608.800546
2879.241940,-9770.718434,1036.288319,766.095498
2879.242277,-10955.047942,148.041188,1302.362347
2879.242614,-10732.986159,296.082377,153.219100
2879.242952,-10288.862594,1110.308913,-383.047749
2879.243289,-9474.636058,370.102971,995.924147
2879.243626,-9104.533087,592.164754,1149.143247
2879.243963,-9622.677246,740.205942,0.000000
2879.244301,-9474.636058,740.205942,-842.705048
2879.244638,-9178.553681,-740.205942,383.047749
2879.244975,-10066.800811,-370.102971,536.266849
2879.245313,-10436.903782,-222.061783,-919.314598
2879.245650,-10362.883188,-814.226536,-76.609550
2879.245987,-9918.759623,-1480.411884,842.705048
2879.246325,-9770.718434,-1036.288319,0.000000
2879.246662,-10066.800811,-962.267725,-1608.800546
2879.246999,-10362.883188,-2146.597232,-1532.190996
2879.247337,-10807.006753,-3404.947333,-1378.971896
2879.247674,-10510.924376,-1850.514855,-1378.971896
2879.248011,-9474.636058,-1332.370696,-612.876398
2879.248349,-9400.615463,-1998.556043,306.438199
2879.248686,-10807.006753,-592.164754,1072.533697
2879.249023,-10436.903782,0.000000,153.219100
2879.249361,-10510.924376,0.000000,1762.019645
2879.249698,-10807.006753,592.164754,3140.991542
2879.250035,-11251.130318,888.247130,2068.457845
2879.250373,-10510.924376,666.185348,1225.752797
2879.250710,-10214.842000,148.041188,2221.676944
2879.251047,-9918.759623,1184.329507,2145.067394
2879.251385,-9474.636058,1998.556043,-76.609550
2879.251722,-9474.636058,0.000000,-1455.581446
2879.252059,-9992.780217,-962.267725,-766.095498
2879.252397,-9770.718434,0.000000,-1685.410096
2879.252734,-9400.615463,1184.329507,-2451.505594
2879.253071,-8882.471304,222.061783,-689.485948
2879.253409,-9030.512492,-1110.308913,0.000000
2879.253746,-9992.780217,592.164754,-536.266849
2879.254083,-9918.759623,0.000000,383.047749
2879.254421,-9548.656652,-222.061783,1991.848295
2879.254758,-10658.965565,-814.226536,1915.238745
2879.255095,-11325.150913,0.000000,1072.533697
2879.255433,-10288.862594,-962.267725,1378.971896
2879.255770,-10214.842000,-592.164754,2757.943793
2879.256107,-9918.759623,444.123565,1838.629195
2879.256445,-10066.800811,962.267725,-306.438199
2879.256782,-10214.842000,-296.082377,76.609550
2879.257119,-11695.253884,-666.185348,383.047749
2879.257457,-10436.903782,74.020594,-995.924147
2879.257794,-9474.636058,148.041188,-766.095498
2879.258131,-9178.553681,-74.020594,306.438199
2879.258469,-10658.965565,-148.041188,-76.609550
2879.258806,-10066.800811,-148.041188,-1378.971896
2879.259143,-9400.615463,-1110.308913,-536.266849
2879.259480,-10214.842000,-814.226536,689.485948
2879.259818,-11103.089130,-592.164754,-229.828649
2879.260155,-10214.842000,-1184.329507,-1991.848295
2879.260492,-9548.656652,-2368.659014,459.657299
2879.260830,-9696.697840,-1332.370696,1378.971896
2879.261167,-9696.697840,-222.061783,-536.266849
2879.261504,-9770.718434,-1184.329507,-383.047749
2879.261842,-10288.862594,-1554.432478,766.095498
2879.262179,-10732.986159,-888.247130,76.609550
2879.262516,-9844.739029,-74.020594,-766.095498
2879.262854,-9770.718434,0.000000,842.705048
2879.263191,-10214.842000,-222.061783,1762.019645
2879.263528,-9770.718434,1332.370696,153.219100
2879.263866,-9104.533087,888.247130,842.705048
2879.264203,-10066.800811,1110.308913,2451.505594
2879.264540,-10214.842000,1110.308913,1455.581446
2879.264878,-10658.965565,1628.453072,0.000000
2879.265215,-10066.800811,888.247130,1455.581446
2879.265552,-9548.656652,1480.411884,2145.067394
2879.265890,-10140.821405,1332.370696,995.924147
2879.266227,-9474.636058,1110.308913,-1302.362347
2879.266564,-10140.821405,-592.164754,-459.657299
2879.266902,-10955.047942,-740.205942,-612.876398
2879.267239,-9400.615463,-962.267725,-2451.505594
2879.267576,-8660.409521,-1480.411884,-1225.752797
2879.267914,-9326.594869,-2072.576638,76.609550
2879.268251,-9622.677246,-1110.308913,-612.876398
2879.268588,-10140.821405,-592.164754,-1072.533697
2879.268926,-9696.697840,-1480.411884,383.047749
2879.269263,-10362.883188,-1036.288319,1762.019645
2879.269600,-11251.130318,-814.226536,689.485948
2879.269938,-10955.047942,-962.267725,1302.362347
2879.270275,-10214.842000,-1554.432478,3447.429741
2879.270612,-10658.965565,-518.144159,2757.943793
2879.270950,-10362.883188,888.247130,766.095498
2879.271287,-10658.965565,-666.185348,459.657299
2879.271624,-11103.089130,-1036.288319,842.705048
2879.271962,-10807.006753,-962.267725,-612.876398
2879.272299,-9400.615463,222.061783,-1225.752797
2879.272636,-9252.574275,-814.226536,-612.876398
2879.272973,-9992.780217,-814.226536,0.000000
2879.273311,-9696.697840,0.000000,-1532.190996
2879.273648,-9474.636058,518.144159,-995.924147
2879.273985,-9770.718434,-518.144159,536.266849
2879.274322,-10584.944971,74.020594,-612.876398
2879.274660,-11103.089130,-1110.308913,-536.266849
2879.274997,-9548.656652,-962.267725,383.047749
2879.275334,-9178.553681,-666.185348,2221.676944
2879.275671,-9992.780217,0.000000,2298.286494
2879.276009,-9474.636058,0.000000,-229.828649
2879.276346,-9770.718434,-814.226536,919.314598
2879.276683,-10955.047942,-370.102971,1455.581446
2879.277020,-9918.759623,1036.288319,-306.438199
2879.277358,-9474.636058,888.247130,153.219100
2879.277695,-9696.697840,222.061783,1532.190996
2879.278032,-9918.759623,1776.494261,0.000000
2879.278369,-9770.718434,1702.473667,-459.657299
2879.278707,-9770.718434,1110.308913,1378.971896
2879.279044,-10066.800811,518.144159,1378.971896
2879.279381,-11177.109724,1184.329507,-76.609550
2879.279718,-9992.780217,370.102971,0.000000
2879.280056,-9474.636058,-888.247130,1532.190996
2879.280393,-9844.739029,0.000000,1991.848295
2879.280730,-10066.800811,370.102971,-1225.752797
2879.281067,-9474.636058,148.041188,-1378.971896
2879.281405,-11325.150913,-1850.514855,-766.095498
2879.281742,-10807.006753,-1406.391290,-1455.581446
2879.282079,-9474.636058,-1258.350101,-2374.896044
2879.282416,-9548.656652,-1702.473667,536.266849
2879.282754,-10140.821405,-1924.535449,0.000000
2879.283091,-10214.842000,-1776.494261,-689.485948
2879.283428,-10288.862594,-814.226536,612.876398
2879.283765,-10362.883188,-1554.432478,2221.676944
2879.284103,-11251.130318,-148.041188,2374.896044
2879.284440,-10732.986159,74.020594,995.924147
2879.284777,-10288.862594,-592.164754,2987.772442
2879.285114,-9992.780217,222.061783,3600.648841
2879.285451,-9844.739029,1332.370696,1378.971896
2879.285789,-10066.800811,666.185348,689.485948
2879.286126,-10288.862594,-74.020594,689.485948
2879.286463,-10510.924376,74.020594,383.047749
2879.286800,-9844.739029,1036.288319,-1915.238745
2879.287138,-8216.285956,-148.041188,-1378.971896
2879.287475,-9326.594869,-222.061783,229.828649
2879.287812,-9474.636058,0.000000,-1072.533697
2879.288149,-9178.553681,888.247130,-1455.581446
2879.288487,-9548.656652,-444.123565,0.000000
2879.288824,-9696.697840,-740.205942,689.485948
2879.289161,-10436.903782,148.041188,76.609550
2879.289498,-10362.883188,-518.144159,919.314598
2879.289836,-9622.677246,-592.164754,1991.848295
2879.290173,-10214.842000,-592.164754,1532.190996
2879.290510,-10510.924376,296.082377,536.266849
2879.290847,-10436.903782,-592.164754,0.000000
2879.291185,-11177.109724,-1258.350101,689.485948
2879.291522,-10288.862594,-962.267725,-612.876398
2879.291859,-9104.533087,-592.164754,-612.876398
2879.292196,-9178.553681,-296.082377,612.876398
2879.292534,-10362.883188,-370.102971,459.657299
2879.292871,-10214.842000,518.144159,-536.266849
2879.293208,-9918.759623,-296.082377,-229.828649
2879.293545,-10658.965565,0.000000,995.924147
2879.293883,-10881.027347,-740.205942,-153.219100
2879.294220,-10288.862594,-518.144159,-842.705048
2879.294557,-9474.636058,-2294.638420,766.095498
2879.294894,-9622.677246,-1036.288319,766.095498
2879.295232,-9844.739029,-148.041188,-995.924147
2879.295569,-10510.924376,-1258.350101,-1685.410096
2879.295906,-10214.842000,-2368.659014,-153.219100
2879.296243,-10732.986159,-1998.556043,-766.095498
2879.296581,-9474.636058,-888.247130,-995.924147
2879.296918,-9104.533087,-1036.288319,-153.219100
2879.297255,-9696.697840,-1480.411884,1072.533697
2879.297592,-10362.883188,-444.123565,1455.581446
2879.297930,-10066.800811,-74.020594,689.485948
2879.298267,-10214.842000,-74.020594,3294.210641
2879.298604,-10955.047942,592.164754,2374.896044
2879.298941,-10362.883188,888.247130,689.485948
2879.299279,-10140.821405,814.226536,2374.896044
2879.299616,-9918.759623,888.247130,2987.772442
2879.299953,-9844.739029,1776.494261,1838.629195
2879.300290,-9622.677246,2368.659014,0.000000
2879.300628,-9696.697840,962.267725,-306.438199
2879.300965,-10288.862594,666.185348,0.000000
2879.301302,-9844.739029,592.164754,-1072.533697
2879.301639,-8956.491898,518.144159,-2221.676944
2879.301977,-9104.533087,-444.123565,-842.705048
2879.302314,-9770.718434,296.082377,-766.095498
2879.302651,-9770.718434,0.000000,-2145.067394
2879.302988,-9252.574275,-666.185348,-612.876398
2879.303326,-9474.636058,-1406.391290,766.095498
2879.303663,-10584.944971,-814.226536,0.000000
2879.304000,-10436.903782,-666.185348,0.000000
2879.304337,-10436.903782,-1776.494261,1608.800546
2879.304675,-10288.862594,-814.226536,2145.067394
2879.305012,-10436.903782,0.000000,1072.533697
2879.305349,-10436.903782,-518.144159,919.314598
2879.305686,-10807.006753,-1480.411884,1149.143247
2879.306024,-11251.130318,-888.247130,383.047749
2879.306361,-10288.862594,0.000000,-383.047749
2879.306698,-9474.636058,-666.185348,0.000000
2879.307035,-9992.780217,-370.102971,383.047749
2879.307373,-10436.903782,-74.020594,-842.705048
2879.307710,-9400.615463,444.123565,-842.705048
2879.308047,-9548.656652,-370.102971,383.047749
2879.308384,-10881.027347,0.000000,536.266849
2879.308722,-10436.903782,0.000000,-1149.143247
2879.309059,-10288.862594,-814.226536,0.000000
2879.309396,-9918.759623,-518.144159,1532.190996
2879.309733,-9770.718434,296.082377,459.657299
2879.310071,-9622.677246,296.082377,-612.876398
2879.310408,-9622.677246,-1554.432478,-306.438199
2879.310745,-10214.842000,-888.247130,612.876398
2879.311082,-10436.903782,296.082377,-229.828649
2879.311420,-9252.574275,-1036.288319,-153.219100
2879.311757,-9104.533087,-666.185348,1532.190996
2879.312094,-10288.862594,-296.082377,1302.362347
2879.312431,-9918.759623,1110.308913,0.000000
2879.312768,-9178.553681,444.123565,995.924147
2879.313106,-10140.821405,814.226536,2451.505594
2879.313443,-10732.986159,1258.350101,689.485948
2879.313780,-10066.800811,1036.288319,153.219100
2879.314117,-10288.862594,370.102971,1532.190996
2879.314455,-10214.842000,666.185348,1149.143247
2879.314792,-9548.656652,1110.308913,-842.705048
2879.315129,-9030.512492,-74.020594,-995.924147
2879.315466,-9474.636058,-1258.350101,306.438199
2879.315804,-10214.842000,-1184.329507,-766.095498
2879.316141,-9918.759623,-1258.350101,-1991.848295
2879.316478,-9252.574275,-1480.411884,-1225.752797
2879.316815,-10436.903782,-1776.494261,-766.095498
2879.317153,-9918.759623,-1702.473667,-1915.238745
2879.317490,-9474.636058,-1702.473667,-1302.362347
2879.317827,-10066.800811,-2294.638420,689.485948
2879.318164,-10807.006753,-1554.432478,0.000000
2879.318502,-11177.109724,-1628.453072,-919.314598
2879.318839,-10584.944971,-1850.514855,1455.581446
2879.319176,-10140.821405,-2368.659014,3140.991542
2879.319513,-10288.862594,148.041188,1838.629195
2879.319851,-9992.780217,0.000000,919.314598
2879.320188,-10362.883188,-740.205942,1991.848295
2879.320525,-10955.047942,-370.102971,1685.410096
2879.320862,-10732.986159,962.267725,536.266849
2879.321200,-9918.759623,740.205942,612.876398
2879.321537,-9770.718434,0.000000,842.705048
2879.321874,-10214.842000,1480.411884,536.266849
2879.322211,-9844.739029,1332.370696,-1149.143247
2879.322549,-9178.553681,518.144159,-612.876398
2879.322886,-9252.574275,222.061783,-383.047749
2879.323223,-9918.759623,740.205942,-612.876398
2879.323560,-9178.553681,666.185348,-1302.362347
2879.323898,-9252.574275,-148.041188,842.705048
2879.324235,-9622.677246,888.247130,842.705048
2879.324572,-9326.594869,962.267725,-459.657299
2879.324909,-9844.739029,370.102971,229.828649
2879.325247,-10732.986159,-296.082377,536.266849
2879.325584,-10732.986159,0.000000,76.609550
2879.325921,-10066.800811,0.000000,0.000000
2879.326258,-9548.656652,-888.247130,842.705048
2879.326596,-9992.780217,-148.041188,2374.896044
2879.326933,-10584.944971,592.164754,76.609550
2879.327270,-9622.677246,0.000000,-306.438199
2879.327607,-9918.759623,296.082377,1072.533697
2879.327945,-10881.027347,296.082377,459.657299
2879.328282,-10584.944971,666.185348,-1149.143247
2879.328619,-10066.800811,-444.123565,536.266849
2879.328956,-10066.800811,-222.061783,1685.410096
2879.329294,-9770.718434,74.020594,153.219100
2879.329631,-9844.739029,-222.061783,-459.657299
2879.329968,-10214.842000,-2220.617826,0.000000
2879.330305,-10584.944971,-2072.576638,-153.219100
2879.330643,-10214.842000,-1628.453072,-1225.752797
2879.330980,-9696.697840,-2368.659014,-995.924147
2879.331317,-9474.636058,-2220.617826,383.047749
2879.331654,-10066.800811,-1702.473667,-229.828649
2879.331992,-9696.697840,-962.267725,-459.657299
2879.332329,-9548.656652,-1554.432478,306.438199
2879.332666,-10658.965565,-1110.308913,1455.581446
2879.333003,-11547.212695,-296.082377,1072.533697
2879.333341,-10066.800811,-740.205942,995.924147
2879.333678,-10288.862594,666.185348,3524.039291
2879.334015,-10807.006753,666.185348,3447.429741
2879.334352,-10066.800811,1850.514855,1455.581446
2879.334690,-9992.780217,888.247130,1225.752797
2879.335027,-11029.068536,592.164754,2451.505594
2879.335364,-10436.903782,1998.556043,306.438199
2879.335701,-9400.615463,1702.473667,-612.876398
2879.336039,-8956.491898,962.267725,459.657299
2879.336376,-9252.574275,1332.370696,0.000000
2879.336713,-9252.574275,1406.391290,-1455.581446
2879.337050,-9104.533087,740.205942,-1991.848295
2879.337388,-9030.512492,-1110.308913,-842.705048
2879.337725,-10214.842000,-518.144159,-1302.362347
2879.338062,-9696.697840,-1184.329507,-2145.067394
2879.338399,-9326.594869,-1628.453072,0.000000
2879.338737,-9252.574275,-1850.514855,1455.581446
2879.339074,-9400.615463,-1036.288319,153.219100
2879.339411,-9696.697840,-1184.329507,-536.266849
2879.339748,-10807.006753,-2664.741391,766.095498
2879.340085,-11325.150913,-2220.617826,306.438199
2879.340423,-10658.965565,-1628.453072,0.000000
2879.340760,-10066.800811,-444.123565,919.314598
2879.341097,-9474.636058,-1184.329507,842.705048
2879.341434,-11029.068536,-814.226536,-306.438199
2879.341772,-9770.718434,0.000000,-1225.752797
2879.342109,-10066.800811,-1110.308913,229.828649
2879.342446,-11103.089130,-592.164754,689.485948
2879.342783,-11325.150913,-370.102971,-995.924147
2879.343121,-10510.924376,-518.144159,229.828649
2879.343458,-9844.739029,-888.247130,1685.410096
2879.343795,-9844.739029,0.000000,1838.629195
2879.344132,-10510.924376,148.041188,-306.438199
2879.344470,-9770.718434,-814.226536,-689.485948
2879.344807,-10584.944971,-1258.350101,76.609550
2879.345144,-10510.924376,-740.205942,-1378.971896
2879.345481,-9178.553681,0.000000,-995.924147
2879.345819,-9400.615463,-1036.288319,536.266849
2879.346156,-9252.574275,222.061783,-459.657299
2879.346493,-9326.594869,296.082377,-919.314598
2879.346830,-9474.636058,-74.020594,612.876398
2879.347168,-9474.636058,-592.164754,2221.676944
2879.347505,-11177.109724,370.102971,1991.848295
2879.347842,-10658.965565,1480.411884,1838.629195
2879.348179,-9844.739029,1036.288319,3294.210641
2879.348517,-10140.821405,1480.411884,4290.134789
2879.348854,-9770.718434,1998.556043,1072.533697
2879.349191,-9770.718434,1924.535449,842.705048
2879.349528,-10807.006753,962.267725,1149.143247
2879.349866,-10732.986159,518.144159,-689.485948
2879.350203,-9844.739029,1628.453072,-1608.800546
2879.350540,-8660.409521,0.000000,-842.705048
2879.350877,-9326.594869,0.000000,0.000000
2879.351215,-10140.821405,0.000000,-1225.752797
2879.351552,-9622.677246,74.020594,-1762.019645
2879.351889,-9844.739029,-1554.432478,-153.219100
2879.352226,-11177.109724,-1332.370696,229.828649
2879.352564,-10881.027347,-1554.432478,-689.485948
2879.352901,-10510.924376,-2368.659014,383.047749
2879.353238,-9844.739029,-2294.638420,2068.457845
2879.353575,-9992.780217,-814.226536,536.266849
2879.353913,-10066.800811,-1480.411884,-459.657299
2879.354250,-10214.842000,-1406.391290,-229.828649
2879.354587,-11103.089130,-3330.926739,1378.971896
2879.354924,-10584.944971,0.000000,-229.828649
2879.355262,-9326.594869,-296.082377,229.828649
2879.355599,-10140.821405,-518.144159,2374.896044
2879.355936,-10288.862594,370.102971,1225.752797
2879.356273,-10362.883188,814.226536,153.219100
2879.356611,-10288.862594,666.185348,1149.143247
2879.356948,-10362.883188,222.061783,995.924147
2879.357285,-10955.047942,592.164754,0.000000
2879.357622,-10140.821405,518.144159,-766.095498
2879.357960,-9400.615463,888.247130,689.485948
2879.358297,-9918.759623,518.144159,229.828649
2879.358634,-9992.780217,1628.453072,-1302.362347
2879.358971,-9178.553681,740.205942,-2221.676944
2879.359309,-10140.821405,-592.164754,76.609550
2879.359646,-10436.903782,0.000000,0.000000
2879.359983,-9326.594869,-370.102971,-995.924147
2879.360320,-9400.615463,0.000000,1149.143247
2879.360658,-9696.697840,-1036.288319,1455.581446
2879.360995,-10362.883188,518.144159,459.657299
2879.361332,-10362.883188,-296.082377,459.657299
2879.361669,-9992.780217,-1332.370696,995.924147
2879.362007,-10066.800811,-370.102971,1149.143247
2879.362344,-10362.883188,0.000000,-153.219100
2879.362681,-9474.636058,-740.205942,306.438199
2879.363018,-9030.512492,-962.267725,1838.629195
2879.363356,-9918.759623,666.185348,995.924147
2879.363693,-9918.759623,518.144159,-459.657299
2879.364030,-10066.800811,-962.267725,0.000000
2879.364367,-10658.965565,-814.226536,153.219100
2879.364705,-11029.068536,-962.267725,-766.095498
2879.365042,-9252.574275,-1184.329507,-689.485948
2879.365379,-9474.636058,-1332.370696,306.438199
2879.365716,-10436.903782,-1702.473667,0.000000
2879.366053,-10140.821405,-1332.370696,-2451.505594
2879.366391,-9844.739029,-2516.700203,-1072.533697
2879.366728,-10807.006753,-2516.700203,0.000000
2879.367065,-10436.903782,-1924.535449,-306.438199
2879.367402,-10214.842000,-1332.370696,-383.047749
2879.367740,-9178.553681,-1850.514855,842.705048
2879.368077,-10140.821405,-814.226536,1455.581446
2879.368414,-10732.986159,0.000000,229.828649
2879.368751,-10066.800811,-740.205942,1149.143247
2879.369089,-10955.047942,-74.020594,2987.772442
2879.369426,-11621.233289,148.041188,2221.676944
2879.369763,-9992.780217,1406.391290,1072.533697
2879.370100,-9252.574275,0.000000,2068.457845
2879.370438,-9252.574275,592.164754,2834.553343
2879.370775,-9104.533087,1924.535449,306.438199
2879.371112,-9474.636058,1406.391290,0.000000
2879.371449,-9326.594869,370.102971,459.657299
2879.371787,-9400.615463,1184.329507,229.828649
2879.372124,-9992.780217,2072.576638,-1149.143247
2879.372461,-9548.656652,666.185348,689.485948
2879.372798,-9548.656652,296.082377,689.485948
2879.373136,-9844.739029,1036.288319,-383.047749
2879.373473,-9844.739029,444.123565,-1225.752797
2879.373810,-9474.636058,-1554.432478,0.000000
2879.374147,-10732.986159,-1480.411884,76.609550
2879.374485,-10362.883188,-592.164754,-766.095498
2879.374822,-9474.636058,-666.185348,-842.705048
2879.375159,-9696.697840,-1554.432478,1302.362347
