#time,accel_x,accel_y,accel_z
3262.430560,-9770.718434,74.020594,2987.772442
3262.430898,-9326.594869,-592.164754,2757.943793
3262.431236,-8956.491898,0.000000,3753.867940
3262.431574,-9400.615463,-740.205942,3830.477490
3262.431911,-9622.677246,370.102971,2987.772442
3262.432249,-10288.862594,-888.247130,2298.286494
3262.432587,-9326.594869,-222.061783,1532.190996
3262.432925,-9252.574275,-1184.329507,1225.752797
3262.433262,-9770.718434,-1776.494261,689.485948
3262.433600,-8512.368333,-1184.329507,0.000000
3262.433938,-9622.677246,-2072.576638,-1378.971896
3262.434275,-10214.842000,-1850.514855,-766.095498
3262.434613,-9622.677246,-3182.885551,-459.657299
3262.434951,-9918.759623,-2812.782580,1532.190996
3262.435289,-10066.800811,-2368.659014,1915.238745
3262.435626,-10955.047942,-2516.700203,2528.115143
3262.435964,-12287.418637,-2664.741391,2911.162892
3262.436302,-11473.192101,-2442.679609,2911.162892
3262.436640,-11177.109724,-1406.391290,2911.162892
3262.436977,-11695.253884,-1776.494261,3064.381992
3262.437315,-11177.109724,-2072.576638,2757.943793
3262.437653,-10510.924376,-1628.453072,2451.505594
3262.437991,-10066.800811,-1998.556043,3217.601092
3262.438328,-9992.780217,-1924.535449,2987.772442
3262.438666,-9918.759623,-2368.659014,3294.210641
3262.439004,-9918.759623,-2072.576638,2911.162892
3262.439342,-9104.533087,-2146.597232,3064.381992
3262.439679,-9770.718434,-2146.597232,4213.525239
3262.440017,-9992.780217,-2886.803174,4596.572988
3262.440355,-9770.718434,-2368.659014,2987.772442
3262.440693,-9918.759623,-1776.494261,1532.190996
3262.441030,-9770.718434,-2294.638420,1072.533697
3262.441368,-8956.491898,-3701.029710,612.876398
3262.441706,-7994.224174,-5033.400406,1762.019645
3262.442044,-7846.182985,-3997.112087,2911.162892
3262.442381,-8956.491898,-4293.194464,3370.820191
3262.442719,-9474.636058,-4515.256246,3064.381992
3262.443057,-10436.903782,-3034.844362,3753.867940
3262.443395,-10955.047942,-2664.741391,4290.134789
3262.443732,-9844.739029,-1406.391290,3217.601092
3262.444070,-10807.006753,-1850.514855,4366.744339
3262.444408,-11547.212695,-2664.741391,4826.401637
3262.444745,-11621.233289,-3478.967927,4366.744339
3262.445083,-11103.089130,-3478.967927,3753.867940
3262.445421,-10288.862594,-3256.906145,2374.896044
3262.445759,-10955.047942,-4219.173869,1455.581446
3262.446096,-10066.800811,-4589.276840,0.000000
3262.446434,-7550.100608,-4515.256246,0.000000
3262.446772,-8586.388927,-4145.153275,2145.067394
3262.447110,-10510.924376,-4219.173869,2145.067394
3262.447447,-11547.212695,-3034.844362,383.047749
3262.447785,-11251.130318,-3701.029710,536.266849
3262.448123,-11177.109724,-3701.029710,2911.162892
3262.448461,-10807.006753,-3627.009116,2068.457845
3262.448798,-9622.677246,-3701.029710,153.219100
3262.449136,-8956.491898,-3701.029710,0.000000
3262.449474,-9400.615463,-4663.297435,-383.047749
3262.449812,-10066.800811,-4071.132681,76.609550
3262.450149,-9400.615463,-3627.009116,306.438199
3262.450487,-8956.491898,-2146.597232,1225.752797
3262.450825,-9992.780217,-592.164754,2068.457845
3262.451163,-10807.006753,148.041188,2145.067394
3262.451500,-9844.739029,296.082377,2604.724693
3262.451838,-10066.800811,2812.782580,3370.820191
3262.452176,-11991.336260,3775.050304,2911.162892
3262.452513,-12657.521608,3256.906145,1149.143247
3262.452851,-10140.821405,1184.329507,612.876398
3262.453189,-7328.038826,1036.288319,2068.457845
3262.453526,-8734.430116,0.000000,5209.449386
3262.453864,-10955.047942,0.000000,4443.353888
3262.454202,-10955.047942,1110.308913,459.657299
3262.454539,-9400.615463,3478.967927,-1149.143247
3262.454877,-9622.677246,3478.967927,-995.924147
3262.455215,-10436.903782,1924.535449,-1685.410096
3262.455552,-9178.553681,666.185348,-1762.019645
3262.455890,-7772.162391,0.000000,306.438199
3262.456228,-8290.306550,296.082377,2834.553343
3262.456565,-11029.068536,-1406.391290,2757.943793
3262.456903,-10732.986159,-888.247130,1225.752797
3262.457241,-9252.574275,-2294.638420,-689.485948
3262.457578,-10214.842000,-2368.659014,1225.752797
3262.457916,-10066.800811,-740.205942,1685.410096
3262.458254,-8882.471304,0.000000,1991.848295
3262.458591,-10584.944971,666.185348,2451.505594
3262.458929,-12805.562797,-296.082377,0.000000
3262.459266,-12509.480420,1258.350101,-1685.410096
3262.459604,-10807.006753,1554.432478,-766.095498
3262.459942,-8882.471304,0.000000,0.000000
3262.460279,-9030.512492,-1332.370696,-689.485948
3262.460617,-9918.759623,-2516.700203,-1149.143247
3262.460955,-9992.780217,-2738.761985,1149.143247
3262.461292,-11325.150913,-2664.741391,2068.457845
3262.461630,-11399.171507,-222.061783,-459.657299
3262.461968,-10881.027347,592.164754,-2298.286494
3262.462305,-10362.883188,370.102971,-1991.848295
3262.462643,-9474.636058,-1258.350101,-766.095498
3262.462981,-10066.800811,-1554.432478,459.657299
3262.463318,-10140.821405,-666.185348,1762.019645
3262.463656,-10658.965565,-666.185348,842.705048
3262.463994,-10362.883188,-1850.514855,76.609550
3262.464331,-9178.553681,-2442.679609,-383.047749
3262.464669,-8068.244768,-2960.823768,1302.362347
3262.465007,-6883.915261,-666.185348,1302.362347
3262.465344,-7402.059420,222.061783,2528.115143
3262.465682,-11103.089130,444.123565,2757.943793
3262.466020,-12509.480420,1776.494261,842.705048
3262.466357,-11103.089130,2368.659014,-689.485948
3262.466695,-10584.944971,2442.679609,0.000000
3262.467033,-9474.636058,296.082377,383.047749
3262.467370,-8660.409521,-962.267725,1302.362347
3262.467708,-8660.409521,-1702.473667,2987.772442
3262.468046,-9104.533087,-1702.473667,2451.505594
3262.468383,-12361.439231,-1850.514855,766.095498
3262.468721,-12065.356855,0.000000,-2145.067394
3262.469058,-9992.780217,-1850.514855,-4060.306139
3262.469396,-8364.327145,-1480.411884,-3907.087040
3262.469734,-7920.203579,-2146.597232,-1838.629195
3262.470071,-9474.636058,-2368.659014,766.095498
3262.470409,-11621.233289,-2072.576638,153.219100
3262.470747,-12509.480420,-2738.761985,-1072.533697
3262.471084,-11177.109724,-2664.741391,766.095498
3262.471422,-10214.842000,-4441.235652,1991.848295
3262.471760,-9474.636058,-5107.421000,2834.553343
3262.472097,-8216.285956,-3108.864956,2145.067394
3262.472435,-8956.491898,-3034.844362,3600.648841
3262.472773,-11621.233289,-1332.370696,3064.381992
3262.473110,-12361.439231,888.247130,0.000000
3262.473448,-12509.480420,1406.391290,-1455.581446
3262.473786,-11695.253884,74.020594,-1915.238745
3262.474123,-8216.285956,-370.102971,-995.924147
3262.474461,-7179.997637,0.000000,1685.410096
3262.474799,-7994.224174,-296.082377,2528.115143
3262.475136,-10214.842000,296.082377,995.924147
3262.475474,-11547.212695,1332.370696,-612.876398
3262.475812,-11325.150913,1850.514855,-689.485948
3262.476149,-10214.842000,740.205942,-689.485948
3262.476487,-8660.409521,814.226536,0.000000
3262.476825,-8142.265362,2220.617826,1302.362347
3262.477162,-10140.821405,1850.514855,1762.019645
3262.477500,-11621.233289,2442.679609,-612.876398
3262.477838,-11473.192101,2590.720797,-1991.848295
3262.478175,-10436.903782,1924.535449,0.000000
3262.478513,-8734.430116,296.082377,76.609550
3262.478851,-7550.100608,148.041188,1455.581446
3262.479188,-7328.038826,518.144159,2298.286494
3262.479526,-9696.697840,1110.308913,2298.286494
3262.479863,-11177.109724,2368.659014,0.000000
3262.480201,-10881.027347,3034.844362,-1225.752797
3262.480539,-11991.336260,2738.761985,-612.876398
3262.480876,-10658.965565,222.061783,-842.705048
3262.481214,-8068.244768,444.123565,-306.438199
3262.481552,-7920.203579,-444.123565,1072.533697
3262.481889,-10510.924376,-296.082377,536.266849
3262.482227,-11177.109724,-740.205942,-1455.581446
3262.482565,-10881.027347,-1258.350101,-2528.115143
3262.482902,-9918.759623,-2368.659014,-2681.334243
3262.483240,-9252.574275,-2368.659014,-1685.410096
3262.483578,-8586.388927,-1998.556043,-612.876398
3262.483915,-9548.656652,-2960.823768,-689.485948
3262.484253,-11843.295072,-2516.700203,-919.314598
3262.484591,-11991.336260,-1036.288319,-842.705048
3262.484928,-11843.295072,-666.185348,153.219100
3262.485266,-11695.253884,-1850.514855,536.266849
3262.485604,-9992.780217,-3552.988522,306.438199
3262.485941,-8290.306550,-2664.741391,2068.457845
3262.486279,-9844.739029,-2664.741391,4060.306139
3262.486617,-11695.253884,-1480.411884,2451.505594
3262.486954,-10584.944971,370.102971,306.438199
3262.487292,-10881.027347,518.144159,0.000000
3262.487630,-10140.821405,222.061783,383.047749
3262.487967,-8290.306550,592.164754,689.485948
3262.488305,-8808.450710,592.164754,2451.505594
3262.488643,-10288.862594,740.205942,1685.410096
3262.488980,-11029.068536,1110.308913,0.000000
3262.489318,-9844.739029,1036.288319,-766.095498
3262.489655,-9474.636058,-666.185348,306.438199
3262.489993,-8586.388927,-1480.411884,689.485948
3262.490331,-7254.018232,-1036.288319,612.876398
3262.490668,-7550.100608,-1258.350101,1378.971896
3262.491006,-10066.800811,-1776.494261,919.314598
3262.491344,-11695.253884,0.000000,-919.314598
3262.491681,-11251.130318,370.102971,-1762.019645
3262.492019,-10362.883188,222.061783,-1685.410096
3262.492357,-9548.656652,-2072.576638,-1378.971896
3262.492694,-8290.306550,-2072.576638,536.266849
3262.493032,-8734.430116,-2886.803174,2145.067394
3262.493370,-10881.027347,-2442.679609,1991.848295
3262.493707,-11695.253884,-1258.350101,153.219100
3262.494045,-10658.965565,-518.144159,-842.705048
3262.494383,-11695.253884,-1184.329507,842.705048
3262.494720,-9918.759623,-814.226536,306.438199
3262.495058,-9474.636058,-814.226536,1532.190996
3262.495396,-10955.047942,-1036.288319,1685.410096
3262.495733,-11843.295072,-296.082377,-766.095498
3262.496071,-11621.233289,-592.164754,-2451.505594
3262.496409,-10510.924376,-1184.329507,-2068.457845
3262.496746,-8364.327145,-2960.823768,-2145.067394
3262.497084,-8068.244768,-2442.679609,-842.705048
3262.497422,-7772.162391,-2220.617826,-306.438199
3262.497759,-9474.636058,-2442.679609,-459.657299
3262.498097,-11029.068536,-1406.391290,0.000000
3262.498435,-10658.965565,444.123565,-919.314598
3262.498772,-11325.150913,1110.308913,76.609550
3262.499110,-10807.006753,-518.144159,153.219100
3262.499448,-8512.368333,74.020594,1455.581446
3262.499785,-9030.512492,0.000000,3140.991542
3262.500123,-11399.171507,1036.288319,3600.648841
3262.500460,-11769.274478,1406.391290,1685.410096
3262.500798,-11177.109724,2442.679609,76.609550
3262.501136,-9770.718434,1924.535449,0.000000
3262.501473,-8586.388927,2220.617826,689.485948
3262.501811,-7624.121203,2886.803174,1608.800546
3262.502149,-8956.491898,2664.741391,1838.629195
3262.502486,-11473.192101,2590.720797,383.047749
3262.502824,-10955.047942,4737.318029,-995.924147
3262.503162,-10955.047942,4145.153275,-689.485948
3262.503499,-10584.944971,1258.350101,229.828649
3262.503837,-8364.327145,-370.102971,-306.438199
3262.504175,-7698.141797,-444.123565,1915.238745
3262.504512,-9104.533087,-814.226536,1915.238745
3262.504850,-10658.965565,-1036.288319,-612.876398
3262.505188,-11547.212695,-444.123565,-2451.505594
3262.505525,-9696.697840,-1554.432478,-3064.381992
3262.505863,-9400.615463,-1776.494261,-2451.505594
3262.506201,-8512.368333,-2146.597232,-1455.581446
3262.506538,-8142.265362,-1776.494261,306.438199
3262.506876,-10732.986159,-2294.638420,1762.019645
3262.507214,-12139.377449,-2072.576638,842.705048
3262.507551,-11103.089130,-1110.308913,306.438199
3262.507889,-11695.253884,-1332.370696,1608.800546
3262.508227,-10732.986159,-2294.638420,2374.896044
3262.508564,-8808.450710,-2072.576638,2145.067394
3262.508902,-9178.553681,-1850.514855,3217.601092
3262.509240,-11251.130318,-1258.350101,2681.334243
3262.509577,-11991.336260,-296.082377,0.000000
3262.509915,-11325.150913,1406.391290,-1838.629195
3262.510252,-10732.986159,222.061783,-2145.067394
3262.510590,-8956.491898,-962.267725,-1762.019645
3262.510928,-7402.059420,-814.226536,-306.438199
3262.511265,-7994.224174,-888.247130,1302.362347
3262.511603,-10658.965565,-1332.370696,536.266849
3262.511941,-11325.150913,444.123565,-1149.143247
3262.512278,-10732.986159,-592.164754,-536.266849
3262.512616,-9844.739029,-888.247130,306.438199
3262.512954,-9252.574275,-1332.370696,612.876398
3262.513291,-8586.388927,-814.226536,2681.334243
3262.513629,-9104.533087,-888.247130,2911.162892
3262.513967,-11399.171507,-518.144159,1991.848295
3262.514304,-11917.315666,1184.329507,0.000000
3262.514642,-10510.924376,1110.308913,-919.314598
3262.514980,-9918.759623,0.000000,0.000000
3262.515317,-7698.141797,0.000000,153.219100
3262.515655,-7031.956449,222.061783,1532.190996
3262.515993,-9474.636058,-444.123565,2145.067394
3262.516330,-11843.295072,222.061783,842.705048
3262.516668,-11325.150913,1702.473667,-919.314598
3262.517006,-11547.212695,1184.329507,153.219100
3262.517343,-10436.903782,-444.123565,153.219100
3262.517681,-7994.224174,-1628.453072,766.095498
3262.518019,-8734.430116,-1480.411884,2451.505594
3262.518356,-10436.903782,-1406.391290,1532.190996
3262.518694,-11917.315666,-740.205942,-1225.752797
3262.519032,-11695.253884,-1110.308913,-2451.505594
3262.519369,-10510.924376,-2368.659014,-3447.429741
3262.519707,-8882.471304,-2664.741391,-2221.676944
3262.520045,-7402.059420,-2294.638420,-153.219100
3262.520382,-8512.368333,-2886.803174,919.314598
3262.520720,-11399.171507,-1924.535449,689.485948
3262.521057,-12065.356855,-518.144159,0.000000
3262.521395,-11695.253884,296.082377,229.828649
3262.521733,-11695.253884,-370.102971,2068.457845
3262.522070,-9474.636058,-518.144159,1685.410096
3262.522408,-8808.450710,-222.061783,3677.258390
3262.522746,-8660.409521,222.061783,4749.792088
3262.523083,-11621.233289,1480.411884,2757.943793
3262.523421,-12435.459826,2590.720797,306.438199
3262.523759,-10881.027347,2886.803174,-1455.581446
3262.524096,-9992.780217,2072.576638,-1302.362347
3262.524434,-7846.182985,2516.700203,-919.314598
3262.524772,-6587.832884,1776.494261,383.047749
3262.525109,-9474.636058,1036.288319,995.924147
3262.525447,-10807.006753,2294.638420,-1225.752797
3262.525785,-10658.965565,3478.967927,-2221.676944
3262.526122,-10955.047942,2368.659014,-1072.533697
3262.526460,-9474.636058,370.102971,0.000000
3262.526798,-7994.224174,0.000000,1072.533697
3262.527135,-8290.306550,0.000000,2451.505594
3262.527473,-10362.883188,296.082377,1762.019645
3262.527811,-12213.398043,222.061783,-306.438199
3262.528148,-11769.274478,1184.329507,-1762.019645
3262.528486,-10140.821405,370.102971,-1685.410096
3262.528824,-8956.491898,-814.226536,-1225.752797
3262.529161,-7105.977043,-1036.288319,306.438199
3262.529499,-8290.306550,-1110.308913,1991.848295
3262.529837,-11029.068536,-518.144159,1838.629195
3262.530174,-11473.192101,148.041188,76.609550
3262.530512,-11621.233289,888.247130,-306.438199
3262.530849,-12065.356855,-74.020594,766.095498
3262.531187,-10288.862594,-1036.288319,842.705048
3262.531525,-7846.182985,-1628.453072,1532.190996
3262.531862,-9252.574275,-1628.453072,2834.553343
3262.532200,-11547.212695,-1850.514855,1225.752797
3262.532538,-12509.480420,-222.061783,-1838.629195
3262.532875,-11103.089130,-1184.329507,-3294.210641
3262.533213,-9770.718434,-1776.494261,-3140.991542
3262.533551,-8068.244768,-2664.741391,-1302.362347
3262.533888,-7179.997637,-2664.741391,995.924147
3262.534226,-8882.471304,-2368.659014,2298.286494
3262.534564,-11547.212695,-1332.370696,995.924147
3262.534901,-11769.274478,296.082377,-153.219100
3262.535239,-11621.233289,222.061783,842.705048
3262.535577,-10732.986159,-888.247130,1455.581446
3262.535914,-9030.512492,-592.164754,2911.162892
3262.536252,-8364.327145,-148.041188,4673.182538
3262.536590,-9770.718434,0.000000,4443.353888
3262.536927,-11695.253884,1480.411884,2221.676944
3262.537265,-11325.150913,1776.494261,-1455.581446
3262.537603,-10214.842000,1628.453072,-1532.190996
3262.537940,-8364.327145,1480.411884,-1608.800546
3262.538278,-6809.894666,888.247130,-919.314598
3262.538616,-7402.059420,962.267725,689.485948
3262.538953,-10140.821405,296.082377,0.000000
3262.539291,-11325.150913,1480.411884,-1991.848295
3262.539629,-10807.006753,1628.453072,-1378.971896
3262.539966,-11325.150913,370.102971,-689.485948
3262.540304,-9252.574275,-1924.535449,-383.047749
3262.540642,-8068.244768,-2886.803174,1225.752797
3262.540979,-8364.327145,-2442.679609,2681.334243
3262.541317,-10881.027347,-1776.494261,1378.971896
3262.541654,-12583.501014,-444.123565,-766.095498
3262.541992,-11769.274478,-962.267725,-2374.896044
3262.542330,-10066.800811,-1776.494261,-2221.676944
3262.542667,-8290.306550,-2220.617826,-919.314598
3262.543005,-8068.244768,-2146.597232,1455.581446
3262.543343,-9548.656652,-2516.700203,2757.943793
3262.543680,-11399.171507,-1554.432478,1302.362347
3262.544018,-12435.459826,888.247130,0.000000
3262.544356,-11547.212695,1110.308913,612.876398
3262.544693,-10955.047942,-740.205942,919.314598
3262.545031,-9326.594869,-814.226536,995.924147
3262.545369,-8438.347739,-222.061783,3217.601092
3262.545706,-10214.842000,-370.102971,3064.381992
3262.546044,-11769.274478,222.061783,383.047749
3262.546382,-11473.192101,1776.494261,-1608.800546
3262.546719,-10288.862594,1184.329507,-2451.505594
3262.547057,-9178.553681,74.020594,-1838.629195
3262.547395,-7624.121203,74.020594,-1378.971896
3262.547732,-7994.224174,-444.123565,995.924147
3262.548070,-9548.656652,74.020594,536.266849
3262.548408,-10955.047942,962.267725,0.000000
3262.548745,-10732.986159,2738.761985,-306.438199
3262.549083,-10658.965565,1184.329507,536.266849
3262.549421,-8956.491898,222.061783,995.924147
3262.549758,-8142.265362,74.020594,2604.724693
3262.550096,-8956.491898,444.123565,4366.744339
3262.550433,-10807.006753,814.226536,3064.381992
3262.550770,-11991.336260,2442.679609,919.314598
3262.551108,-11177.109724,2886.803174,-1149.143247
3262.551445,-9992.780217,1406.391290,-2145.067394
3262.551782,-9030.512492,296.082377,-1149.143247
3262.552120,-6735.874072,148.041188,-153.219100
3262.552457,-8808.450710,-296.082377,229.828649
3262.552795,-10732.986159,0.000000,-766.095498
3262.553132,-10436.903782,666.185348,-2451.505594
3262.553469,-10881.027347,74.020594,-1378.971896
3262.553807,-11251.130318,-1850.514855,-689.485948
3262.554144,-8734.430116,-1998.556043,0.000000
3262.554481,-9030.512492,-2590.720797,1838.629195
3262.554819,-10510.924376,-2812.782580,1762.019645
3262.555156,-11917.315666,-2516.700203,-306.438199
3262.555494,-12213.398043,-1776.494261,-1838.629195
3262.555831,-11177.109724,-2146.597232,-1685.410096
3262.556168,-9770.718434,-3108.864956,-1532.190996
3262.556506,-7994.224174,-2664.741391,0.000000
3262.556843,-8142.265362,-3108.864956,1608.800546
3262.557180,-10510.924376,-2072.576638,1838.629195
3262.557518,-11547.212695,-592.164754,76.609550
3262.557855,-11473.192101,1036.288319,0.000000
3262.558193,-11251.130318,592.164754,1149.143247
3262.558530,-10288.862594,-296.082377,1762.019645
3262.558867,-8808.450710,74.020594,3600.648841
3262.559205,-9104.533087,0.000000,4060.306139
3262.559542,-10732.986159,1554.432478,2911.162892
3262.559879,-12065.356855,1554.432478,-766.095498
3262.560217,-10362.883188,1406.391290,-2451.505594
3262.560554,-8660.409521,888.247130,-2451.505594
3262.560892,-7698.141797,740.205942,-1149.143247
3262.561229,-6587.832884,1110.308913,-459.657299
3262.561566,-8364.327145,-592.164754,0.000000
3262.561904,-11029.068536,814.226536,-536.266849
3262.562241,-10214.842000,1924.535449,-1685.410096
3262.562578,-11251.130318,1554.432478,76.609550
3262.562916,-10807.006753,0.000000,612.876398
3262.563253,-8808.450710,-1110.308913,1838.629195
3262.563591,-8808.450710,-814.226536,3600.648841
3262.563928,-10436.903782,-592.164754,3294.210641
3262.564265,-12065.356855,74.020594,1762.019645
3262.564603,-12361.439231,592.164754,-689.485948
3262.564940,-10362.883188,222.061783,-1685.410096
3262.565277,-9474.636058,-222.061783,-1225.752797
3262.565615,-7920.203579,-1258.350101,0.000000
3262.565952,-7698.141797,-518.144159,995.924147
3262.566290,-10732.986159,-1036.288319,1915.238745
3262.566627,-11769.274478,0.000000,-1149.143247
3262.566964,-11325.150913,740.205942,-842.705048
3262.567302,-11695.253884,-518.144159,-689.485948
3262.567639,-10214.842000,-2220.617826,0.000000
3262.567976,-8364.327145,-1998.556043,919.314598
3262.568314,-8808.450710,-1702.473667,1378.971896
3262.568651,-11103.089130,-2146.597232,-459.657299
3262.568989,-12139.377449,-1110.308913,-2451.505594
3262.569326,-10955.047942,-740.205942,-3217.601092
3262.569663,-9770.718434,-1406.391290,-2298.286494
3262.570001,-8438.347739,-1184.329507,-1378.971896
3262.570338,-7402.059420,-1110.308913,536.266849
3262.570675,-9030.512492,-1184.329507,2068.457845
3262.571013,-11621.233289,0.000000,1225.752797
3262.571350,-11695.253884,2146.597232,0.000000
3262.571688,-11695.253884,1554.432478,1072.533697
3262.572025,-10807.006753,1480.411884,1762.019645
3262.572362,-9030.512492,592.164754,2374.896044
3262.572700,-8734.430116,1184.329507,3830.477490
3262.573037,-9326.594869,814.226536,3677.258390
3262.573374,-11399.171507,1850.514855,1072.533697
3262.573712,-11843.295072,3182.885551,-1838.629195
3262.574049,-10288.862594,2368.659014,-2757.943793
3262.574387,-9178.553681,1110.308913,-2068.457845
3262.574724,-7476.080014,1110.308913,-1532.190996
3262.575061,-7550.100608,296.082377,-459.657299
3262.575399,-9992.780217,444.123565,76.609550
3262.575736,-10732.986159,0.000000,-1762.019645
3262.576073,-10584.944971,-148.041188,-1685.410096
3262.576411,-10955.047942,-888.247130,76.609550
3262.576748,-9622.677246,-2886.803174,919.314598
3262.577085,-8364.327145,-2220.617826,1838.629195
3262.577423,-9252.574275,-2072.576638,3140.991542
3262.577760,-11251.130318,-1406.391290,1302.362347
3262.578098,-12657.521608,-888.247130,0.000000
3262.578435,-11399.171507,-592.164754,-842.705048
3262.578772,-10214.842000,-1406.391290,-1072.533697
3262.579110,-9326.594869,-1850.514855,306.438199
3262.579447,-7550.100608,-1628.453072,1378.971896
3262.579784,-9474.636058,-2146.597232,1838.629195
3262.580122,-11769.274478,-1110.308913,842.705048
3262.580459,-11473.192101,0.000000,-689.485948
3262.580797,-11769.274478,962.267725,612.876398
3262.581134,-11251.130318,-1110.308913,536.266849
3262.581471,-9178.553681,-1406.391290,689.485948
3262.581809,-8216.285956,-1702.473667,1685.410096
3262.582146,-9474.636058,-370.102971,1455.581446
3262.582483,-12213.398043,-370.102971,0.000000
3262.582821,-11251.130318,0.000000,-2298.286494
3262.583158,-9770.718434,-148.041188,-2451.505594
3262.583496,-9770.718434,-1406.391290,-1532.190996
3262.583833,-7476.080014,-666.185348,-766.095498
3262.584170,-7328.038826,-1110.308913,689.485948
3262.584508,-9770.718434,-1184.329507,1072.533697
3262.584845,-10288.862594,0.000000,-383.047749
3262.585182,-10955.047942,1776.494261,153.219100
3262.585520,-11251.130318,518.144159,995.924147
3262.585857,-10362.883188,0.000000,1838.629195
3262.586195,-8660.409521,518.144159,2987.772442
3262.586532,-8956.491898,962.267725,3600.648841
3262.586869,-10658.965565,518.144159,2528.115143
3262.587207,-12361.439231,1036.288319,153.219100
3262.587544,-10214.842000,1258.350101,-1762.019645
3262.587881,-10214.842000,740.205942,-1455.581446
3262.588219,-8956.491898,-296.082377,-1915.238745
3262.588556,-7179.997637,-296.082377,-842.705048
3262.588894,-8586.388927,-1184.329507,0.000000
3262.589231,-11177.109724,-444.123565,-612.876398
3262.589568,-11399.171507,0.000000,-1915.238745
3262.589906,-11621.233289,222.061783,-1149.143247
3262.590243,-11399.171507,-1924.535449,0.000000
3262.590580,-9622.677246,-2738.761985,383.047749
3262.590918,-8364.327145,-2442.679609,1991.848295
3262.591255,-9770.718434,-2442.679609,2451.505594
3262.591593,-11399.171507,-2220.617826,1225.752797
3262.591930,-11843.295072,-370.102971,-1149.143247
3262.592267,-11473.192101,-1480.411884,-383.047749
3262.592605,-9992.780217,-1184.329507,-383.047749
3262.592942,-8438.347739,-1258.350101,76.609550
3262.593279,-8142.265362,-888.247130,2451.505594
3262.593617,-9992.780217,-444.123565,2068.457845
3262.593954,-11251.130318,296.082377,842.705048
3262.594292,-10955.047942,2146.597232,0.000000
3262.594629,-11029.068536,1702.473667,612.876398
3262.594966,-10658.965565,666.185348,766.095498
3262.595304,-9030.512492,592.164754,612.876398
3262.595641,-8068.244768,888.247130,2068.457845
3262.595978,-10214.842000,444.123565,919.314598
3262.596316,-11547.212695,1776.494261,-919.314598
3262.596653,-10436.903782,2220.617826,-2604.724693
3262.596991,-10436.903782,1036.288319,-2145.067394
3262.597328,-9326.594869,370.102971,-1685.410096
3262.597665,-7994.224174,74.020594,-229.828649
3262.598003,-8808.450710,222.061783,1838.629195
3262.598340,-10732.986159,-814.226536,153.219100
3262.598677,-10807.006753,1406.391290,-919.314598
3262.599015,-10955.047942,1332.370696,0.000000
3262.599352,-11029.068536,-740.205942,536.266849
3262.599690,-9104.533087,-1110.308913,1455.581446
3262.600027,-8068.244768,-888.247130,2987.772442
3262.600364,-9030.512492,-666.185348,2757.943793
3262.600702,-10955.047942,-518.144159,1072.533697
3262.601039,-11251.130318,370.102971,0.000000
3262.601376,-10288.862594,-370.102971,-842.705048
3262.601714,-9548.656652,-1184.329507,-459.657299
3262.602051,-8512.368333,-592.164754,0.000000
3262.602389,-8586.388927,-1776.494261,842.705048
3262.602726,-9696.697840,-1850.514855,842.705048
3262.603063,-10658.965565,-1110.308913,-1378.971896
3262.603401,-11103.089130,-444.123565,-1149.143247
3262.603738,-11473.192101,-1036.288319,-1455.581446
3262.604075,-11251.130318,-2738.761985,-1149.143247
3262.604413,-9030.512492,-2442.679609,76.609550
3262.604750,-8808.450710,-2590.720797,1838.629195
3262.605088,-11399.171507,-2368.659014,2604.724693
3262.605425,-12287.418637,-1406.391290,0.000000
3262.605762,-11769.274478,-370.102971,-76.609550
3262.606100,-11177.109724,-1406.391290,0.000000
3262.606437,-9474.636058,-1702.473667,0.000000
3262.606774,-8364.327145,-518.144159,2068.457845
3262.607112,-9474.636058,-1332.370696,3217.601092
3262.607449,-10066.800811,444.123565,1762.019645
3262.607787,-10436.903782,1258.350101,-153.219100
3262.608124,-10436.903782,2516.700203,612.876398
3262.608461,-10140.821405,74.020594,153.219100
3262.608799,-9326.594869,888.247130,459.657299
3262.609136,-7624.121203,1036.288319,2068.457845
3262.609473,-8586.388927,666.185348,2681.334243
3262.609811,-10510.924376,740.205942,919.314598
3262.610148,-11177.109724,740.205942,-1302.362347
3262.610486,-10584.944971,1850.514855,-2681.334243
3262.610823,-10140.821405,0.000000,-2528.115143
3262.611160,-8364.327145,-444.123565,-2374.896044
3262.611498,-7254.018232,-1332.370696,-1225.752797
3262.611835,-9474.636058,-1924.535449,0.000000
3262.612172,-10807.006753,-222.061783,-1149.143247
3262.612510,-10955.047942,-518.144159,-1762.019645
3262.612847,-11029.068536,-962.267725,-612.876398
3262.613184,-10807.006753,-1924.535449,0.000000
3262.613522,-9548.656652,-2146.597232,1455.581446
3262.613859,-9622.677246,-1628.453072,3370.820191
3262.614197,-11029.068536,-1554.432478,3370.820191
3262.614534,-12435.459826,-740.205942,1608.800546
3262.614871,-11399.171507,0.000000,-689.485948
3262.615209,-10807.006753,-592.164754,-459.657299
3262.615546,-9622.677246,-1702.473667,-229.828649
3262.615883,-8290.306550,-1332.370696,842.705048
3262.616221,-8438.347739,-888.247130,1302.362347
3262.616558,-10510.924376,-1110.308913,0.000000
3262.616896,-10436.903782,592.164754,-1378.971896
3262.617233,-10140.821405,370.102971,-1455.581446
3262.617570,-10658.965565,0.000000,-842.705048
3262.617908,-9770.718434,-1184.329507,-766.095498
3262.618245,-8438.347739,-1184.329507,995.924147
3262.618582,-9104.533087,-888.247130,2374.896044
3262.618920,-11399.171507,-1036.288319,1149.143247
3262.619257,-11029.068536,592.164754,-306.438199
3262.619595,-10658.965565,296.082377,-766.095498
3262.619932,-10140.821405,-148.041188,76.609550
3262.620269,-7994.224174,222.061783,229.828649
3262.620607,-8586.388927,592.164754,1991.848295
3262.620944,-10140.821405,444.123565,2145.067394
3262.621281,-11029.068536,1406.391290,459.657299
3262.621619,-10732.986159,3182.885551,-612.876398
3262.621956,-10881.027347,2590.720797,536.266849
3262.622294,-10140.821405,1332.370696,995.924147
3262.622631,-9178.553681,518.144159,1378.971896
3262.622968,-9178.553681,814.226536,2911.162892
3262.623306,-10066.800811,444.123565,2298.286494
3262.623643,-11473.192101,296.082377,-153.219100
3262.623980,-10288.862594,740.205942,-1915.238745
3262.624318,-9400.615463,0.000000,-2911.162892
3262.624655,-8660.409521,-814.226536,-2374.896044
3262.624993,-7994.224174,-1332.370696,-1608.800546
3262.625330,-8364.327145,-1776.494261,-459.657299
3262.625667,-10584.944971,-2146.597232,-1072.533697
3262.626005,-10955.047942,-1406.391290,-2604.724693
3262.626342,-10658.965565,-666.185348,-1302.362347
3262.626679,-11251.130318,-2220.617826,-306.438199
3262.627017,-9252.574275,-2886.803174,536.266849
3262.627354,-8364.327145,-2664.741391,1302.362347
3262.627692,-10214.842000,-2738.761985,3600.648841
3262.628029,-11843.295072,-2146.597232,2298.286494
3262.628366,-12139.377449,-666.185348,459.657299
3262.628704,-11177.109724,740.205942,229.828649
3262.629041,-10362.883188,-592.164754,0.000000
3262.629378,-8956.491898,0.000000,383.047749
3262.629716,-8290.306550,-592.164754,2374.896044
3262.630053,-9844.739029,0.000000,2834.553343
3262.630391,-11547.212695,888.247130,383.047749
3262.630728,-11621.233289,2368.659014,-1225.752797
3262.631065,-10658.965565,1406.391290,-612.876398
3262.631403,-9326.594869,74.020594,-612.876398
3262.631740,-8068.244768,-444.123565,459.657299
3262.632077,-7476.080014,0.000000,2068.457845
3262.632415,-9770.718434,-592.164754,2221.676944
3262.632752,-11325.150913,296.082377,0.000000
3262.633090,-10732.986159,1258.350101,-1302.362347
3262.633427,-10436.903782,962.267725,-919.314598
3262.633764,-9992.780217,-962.267725,-612.876398
3262.634102,-7328.038826,-222.061783,306.438199
3262.634439,-8364.327145,-1110.308913,2068.457845
3262.634776,-11029.068536,-740.205942,2068.457845
3262.635114,-11473.192101,148.041188,229.828649
3262.635451,-10732.986159,814.226536,0.000000
3262.635789,-10510.924376,222.061783,383.047749
3262.636126,-9178.553681,-1258.350101,229.828649
3262.636463,-7920.203579,-666.185348,2068.457845
3262.636801,-9326.594869,-1332.370696,3217.601092
3262.637138,-11695.253884,-296.082377,1225.752797
3262.637475,-12213.398043,518.144159,-1532.190996
3262.637813,-11621.233289,296.082377,-2451.505594
3262.638150,-9770.718434,-1036.288319,-2374.896044
3262.638488,-7994.224174,-2072.576638,-1991.848295
3262.638825,-7698.141797,-1924.535449,153.219100
3262.639162,-10066.800811,-2738.761985,536.266849
3262.639500,-11769.274478,-1110.308913,-1225.752797
3262.639837,-11251.130318,-814.226536,-3140.991542
3262.640174,-11029.068536,-370.102971,-1455.581446
3262.640512,-10807.006753,-1702.473667,-536.266849
3262.640849,-9104.533087,-2146.597232,1149.143247
3262.641187,-8364.327145,-1702.473667,2834.553343
3262.641524,-10436.903782,-1924.535449,3907.087040
3262.641861,-13175.665768,-666.185348,2604.724693
3262.642199,-11547.212695,1184.329507,0.000000
3262.642536,-11177.109724,592.164754,153.219100
3262.642873,-9326.594869,222.061783,306.438199
3262.643211,-7476.080014,592.164754,1762.019645
3262.643548,-8512.368333,740.205942,2987.772442
3262.643886,-9992.780217,740.205942,1685.410096
3262.644223,-10881.027347,1998.556043,-383.047749
3262.644560,-10955.047942,3849.070898,-995.924147
3262.644898,-9770.718434,1776.494261,-842.705048
3262.645235,-8734.430116,814.226536,-76.609550
3262.645572,-7550.100608,0.000000,1455.581446
3262.645910,-8438.347739,666.185348,2911.162892
3262.646247,-11621.233289,148.041188,1455.581446
3262.646585,-12139.377449,740.205942,-919.314598
3262.646922,-11177.109724,518.144159,-2681.334243
3262.647259,-10140.821405,-814.226536,-2068.457845
3262.647597,-7772.162391,-1258.350101,-612.876398
3262.647934,-7105.977043,-1850.514855,766.095498
3262.648271,-9178.553681,-1702.473667,1532.190996
3262.648609,-12139.377449,-1554.432478,-153.219100
3262.648946,-12139.377449,0.000000,-459.657299
3262.649283,-11917.315666,-296.082377,76.609550
3262.649621,-11103.089130,-1628.453072,1225.752797
3262.649958,-8808.450710,-1332.370696,2145.067394
3262.650296,-8586.388927,-1332.370696,3600.648841
3262.650633,-10584.944971,-1184.329507,3983.696590
3262.650970,-11917.315666,-1036.288319,536.266849
3262.651308,-11917.315666,592.164754,-919.314598
3262.651645,-10881.027347,-518.144159,-1991.848295
3262.651982,-9548.656652,-962.267725,-1532.190996
3262.652320,-7105.977043,-1480.411884,0.000000
3262.652657,-7105.977043,-1184.329507,1685.410096
3262.652995,-10214.842000,-1036.288319,306.438199
3262.653332,-11843.295072,148.041188,-2298.286494
3262.653669,-11251.130318,888.247130,-2528.115143
3262.654007,-10214.842000,74.020594,-1762.019645
3262.654344,-8882.471304,-1480.411884,0.000000
3262.654681,-7698.141797,-888.247130,1149.143247
3262.655019,-8290.306550,-1480.411884,2911.162892
3262.655356,-10881.027347,74.020594,2451.505594
3262.655693,-11991.336260,962.267725,0.000000
3262.656031,-11695.253884,1554.432478,-766.095498
3262.656368,-10807.006753,1110.308913,-536.266849
3262.656706,-8364.327145,370.102971,306.438199
3262.657043,-7179.997637,1184.329507,2528.115143
3262.657380,-9030.512492,814.226536,2987.772442
3262.657718,-11473.192101,1776.494261,459.657299
3262.658055,-11843.295072,2220.617826,-1532.190996
3262.658392,-11547.212695,2368.659014,-689.485948
3262.658730,-10510.924376,888.247130,-766.095498
3262.659067,-8808.450710,-592.164754,919.314598
3262.659404,-7476.080014,-962.267725,2298.286494
3262.659742,-9400.615463,-1258.350101,2451.505594
3262.660079,-11695.253884,-296.082377,612.876398
3262.660417,-11695.253884,0.000000,-2145.067394
3262.660754,-11029.068536,-370.102971,-2451.505594
3262.661091,-9400.615463,-1776.494261,-2298.286494
3262.661429,-7254.018232,-1924.535449,-612.876398
3262.661766,-7846.182985,-3108.864956,1838.629195
3262.662103,-9770.718434,-2368.659014,612.876398
3262.662441,-11547.212695,-1924.535449,-842.705048
3262.662778,-11029.068536,-518.144159,-1072.533697
3262.663115,-11177.109724,-740.205942,306.438199
3262.663453,-10807.006753,-2516.700203,2068.457845
3262.663790,-7846.182985,-1702.473667,2451.505594
3262.664128,-8956.491898,-888.247130,4290.134789
3262.664465,-11991.336260,-296.082377,3294.210641
3262.664802,-12213.398043,962.267725,306.438199
3262.665140,-11917.315666,1554.432478,-766.095498
3262.665477,-10658.965565,814.226536,-766.095498
3262.665814,-8364.327145,444.123565,0.000000
3262.666152,-8142.265362,370.102971,1378.971896
3262.666489,-8956.491898,222.061783,842.705048
3262.666826,-11103.089130,1110.308913,-842.705048
3262.667164,-11399.171507,2146.597232,-2528.115143
3262.667501,-10362.883188,1998.556043,-2221.676944
3262.667839,-9548.656652,0.000000,-1225.752797
3262.668176,-7698.141797,-666.185348,0.000000
3262.668513,-7105.977043,-814.226536,1915.238745
3262.668851,-8734.430116,-888.247130,2298.286494
3262.669188,-11325.150913,0.000000,766.095498
3262.669525,-10881.027347,444.123565,-1532.190996
3262.669863,-10658.965565,296.082377,-1302.362347
3262.670200,-9474.636058,-1110.308913,-919.314598
3262.670537,-7846.182985,-1258.350101,536.266849
3262.670875,-7328.038826,-1184.329507,2681.334243
3262.671212,-10362.883188,-74.020594,1991.848295
3262.671550,-11991.336260,74.020594,-306.438199
3262.671887,-11473.192101,1554.432478,-1225.752797
3262.672224,-11547.212695,-518.144159,536.266849
3262.672562,-10362.883188,-222.061783,383.047749
3262.672899,-8956.491898,-814.226536,1838.629195
3262.673236,-9844.739029,-740.205942,3294.210641
3262.673574,-11399.171507,-148.041188,1225.752797
3262.673911,-12583.501014,148.041188,-1149.143247
3262.674248,-12065.356855,296.082377,-2068.457845
3262.674586,-10732.986159,-1554.432478,-2604.724693
3262.674923,-8364.327145,-2072.576638,-1225.752797
3262.675261,-7772.162391,-2072.576638,689.485948
3262.675598,-8660.409521,-1924.535449,1685.410096
3262.675935,-11029.068536,-1924.535449,459.657299
3262.676273,-11177.109724,0.000000,-919.314598
3262.676610,-10288.862594,-370.102971,-612.876398
3262.676947,-10436.903782,-1184.329507,842.705048
3262.677285,-8512.368333,-1924.535449,1378.971896
3262.677622,-7476.080014,-1628.453072,3830.477490
3262.677960,-9992.780217,-148.041188,4903.011187
3262.678297,-11251.130318,518.144159,2145.067394
3262.678634,-11177.109724,2072.576638,0.000000
3262.678972,-10807.006753,1480.411884,-536.266849
3262.679309,-9474.636058,592.164754,0.000000
3262.679646,-7402.059420,1776.494261,1302.362347
3262.679984,-8290.306550,1702.473667,2374.896044
3262.680321,-10584.944971,1036.288319,536.266849
3262.680658,-11177.109724,2294.638420,-1149.143247
3262.680996,-10584.944971,2812.782580,-1685.410096
3262.681333,-11251.130318,1776.494261,-459.657299
3262.681671,-9918.759623,0.000000,-766.095498
3262.682008,-8438.347739,0.000000,0.000000
3262.682345,-8882.471304,-962.267725,1608.800546
3262.682683,-10658.965565,-962.267725,459.657299
3262.683020,-11621.233289,-148.041188,-1455.581446
3262.683357,-10732.986159,-592.164754,-1915.238745
3262.683695,-9770.718434,-1776.494261,-1685.410096
3262.684032,-8438.347739,-2220.617826,-612.876398
3262.684369,-7550.100608,-962.267725,1072.533697
3262.684707,-9770.718434,-2072.576638,2374.896044
3262.685044,-12139.377449,-1258.350101,1072.533697
3262.685382,-11251.130318,370.102971,-383.047749
3262.685719,-10732.986159,148.041188,229.828649
3262.686056,-10658.965565,-1258.350101,536.266849
3262.686394,-9030.512492,-1924.535449,842.705048
3262.686731,-8512.368333,-962.267725,2221.676944
3262.687068,-10584.944971,-888.247130,2834.553343
3262.687406,-11621.233289,0.000000,-306.438199
3262.687743,-11621.233289,0.000000,-2451.505594
3262.688080,-11103.089130,592.164754,-1685.410096
3262.688418,-9548.656652,-1110.308913,-1302.362347
3262.688755,-8142.265362,-296.082377,-383.047749
3262.689093,-8142.265362,-592.164754,689.485948
3262.689430,-10436.903782,-740.205942,536.266849
3262.689767,-12139.377449,0.000000,-842.705048
3262.690105,-11325.150913,1110.308913,-229.828649
3262.690442,-10584.944971,148.041188,229.828649
3262.690779,-9770.718434,-444.123565,1072.533697
3262.691117,-8438.347739,-444.123565,1915.238745
3262.691454,-8364.327145,-518.144159,3524.039291
3262.691791,-10510.924376,-592.164754,3140.991542
3262.692129,-11103.089130,1776.494261,1302.362347
3262.692466,-11251.130318,1850.514855,459.657299
3262.692804,-9844.739029,1184.329507,0.000000
3262.693141,-8808.450710,444.123565,0.000000
3262.693478,-7179.997637,370.102971,1991.848295
3262.693816,-9030.512492,296.082377,2528.115143
3262.694153,-10955.047942,0.000000,842.705048
3262.694490,-11177.109724,592.164754,-1149.143247
3262.694828,-10214.842000,592.164754,-1455.581446
3262.695165,-9992.780217,-222.061783,-1302.362347
3262.695502,-8438.347739,-1480.411884,-612.876398
3262.695840,-8512.368333,-1480.411884,1072.533697
3262.696177,-10214.842000,-1554.432478,306.438199
3262.696515,-11547.212695,-1110.308913,-1149.143247
3262.696852,-11843.295072,0.000000,-2145.067394
3262.697189,-11547.212695,-1480.411884,-2221.676944
3262.697527,-10510.924376,-2072.576638,-1072.533697
3262.697864,-7994.224174,-2368.659014,-612.876398
3262.698201,-8216.285956,-2368.659014,1532.190996
3262.698539,-11251.130318,-2294.638420,2068.457845
3262.698876,-12435.459826,-1258.350101,842.705048
3262.699213,-11399.171507,148.041188,-383.047749
3262.699551,-11177.109724,296.082377,1072.533697
3262.699888,-10362.883188,-740.205942,1302.362347
3262.700226,-8808.450710,-962.267725,2681.334243
3262.700563,-8808.450710,-740.205942,4060.306139
3262.700900,-10732.986159,0.000000,3524.039291
3262.701238,-11621.233289,1258.350101,-306.438199
3262.701575,-11251.130318,1924.535449,-1838.629195
3262.701912,-10288.862594,518.144159,-1225.752797
3262.702250,-7920.203579,74.020594,-995.924147
3262.702587,-6957.935855,666.185348,-306.438199
3262.702924,-8586.388927,222.061783,689.485948
3262.703262,-10436.903782,296.082377,-612.876398
3262.703599,-10510.924376,814.226536,-1685.410096
3262.703937,-10066.800811,1258.350101,-689.485948
3262.704274,-10066.800811,0.000000,919.314598
3262.704611,-9178.553681,-370.102971,1225.752797
3262.704949,-8660.409521,-518.144159,2604.724693
3262.705286,-10288.862594,74.020594,2681.334243
3262.705623,-12139.377449,0.000000,1762.019645
3262.705961,-11621.233289,444.123565,-612.876398
3262.706298,-10362.883188,296.082377,-612.876398
3262.706635,-9992.780217,-518.144159,-536.266849
3262.706973,-8068.244768,-296.082377,0.000000
3262.707310,-8068.244768,-888.247130,919.314598
3262.707648,-10584.944971,-1332.370696,1762.019645
3262.707985,-11399.171507,148.041188,-229.828649
3262.708322,-10955.047942,1110.308913,-995.924147
3262.708660,-11251.130318,148.041188,-612.876398
3262.708997,-10214.842000,-2368.659014,153.219100
3262.709334,-8068.244768,-2072.576638,459.657299
3262.709672,-8068.244768,-2220.617826,1532.190996
3262.710009,-10658.965565,-1850.514855,306.438199
3262.710346,-10881.027347,-1702.473667,-2911.162892
3262.710684,-10955.047942,-814.226536,-3140.991542
3262.711021,-10288.862594,-2368.659014,-1915.238745
3262.711359,-8660.409521,-1924.535449,-1455.581446
3262.711696,-7624.121203,-2072.576638,306.438199
3262.712033,-9326.594869,-1480.411884,2068.457845
3262.712371,-11769.274478,-1406.391290,1838.629195
3262.712708,-11399.171507,74.020594,919.314598
3262.713045,-11473.192101,370.102971,1838.629195
3262.713383,-11695.253884,148.041188,2221.676944
3262.713720,-10510.924376,-222.061783,2528.115143
3262.714057,-8364.327145,518.144159,3370.820191
3262.714395,-9474.636058,740.205942,4903.011187
3262.714732,-11103.089130,1850.514855,1302.362347
3262.715070,-10881.027347,2812.782580,-1532.190996
3262.715407,-10881.027347,2294.638420,-1608.800546
3262.715744,-9696.697840,1850.514855,-2145.067394
3262.716082,-7105.977043,1110.308913,-1072.533697
3262.716419,-7624.121203,1702.473667,919.314598
3262.716756,-9992.780217,296.082377,1072.533697
3262.717094,-11547.212695,1184.329507,-1225.752797
3262.717431,-10510.924376,1258.350101,-2451.505594
3262.717768,-10288.862594,-296.082377,-1072.533697
3262.718106,-9548.656652,-1554.432478,153.219100
3262.718443,-8142.265362,-2368.659014,1225.752797
3262.718781,-8364.327145,-1332.370696,2451.505594
3262.719118,-10658.965565,-1924.535449,1532.190996
3262.719455,-11473.192101,-148.041188,-766.095498
3262.719793,-11843.295072,-740.205942,-1378.971896
3262.720130,-11029.068536,-1332.370696,-612.876398
3262.720467,-8882.471304,-1776.494261,-689.485948
3262.720805,-8586.388927,-518.144159,1608.800546
3262.721142,-9400.615463,-1184.329507,2451.505594
3262.721479,-11473.192101,-1258.350101,995.924147
3262.721817,-11843.295072,-222.061783,-383.047749
3262.722154,-10955.047942,1184.329507,-229.828649
3262.722492,-11843.295072,-740.205942,1608.800546
3262.722829,-9844.739029,-1332.370696,76.609550
3262.723166,-7846.182985,-1036.288319,1149.143247
3262.723504,-9622.677246,-1036.288319,2374.896044
3262.723841,-11547.212695,-74.020594,0.000000
3262.724178,-11547.212695,74.020594,-2298.286494
3262.724516,-11177.109724,-148.041188,-2374.896044
3262.724853,-9474.636058,-1480.411884,-2221.676944
3262.725190,-8512.368333,-888.247130,-459.657299
3262.725528,-8068.244768,-1332.370696,1608.800546
3262.725865,-9548.656652,-1184.329507,1302.362347
3262.726203,-10955.047942,-666.185348,153.219100
3262.726540,-10362.883188,962.267725,306.438199
3262.726877,-10140.821405,666.185348,1685.410096
3262.727215,-10510.924376,-370.102971,2221.676944
3262.727552,-8586.388927,222.061783,2451.505594
3262.727889,-8586.388927,592.164754,3907.087040
3262.728227,-10214.842000,814.226536,3294.210641
3262.728564,-11547.212695,1406.391290,306.438199
3262.728901,-10955.047942,2220.617826,-919.314598
3262.729239,-10732.986159,740.205942,-612.876398
3262.729576,-9104.533087,740.205942,-766.095498
3262.729914,-7254.018232,74.020594,-536.266849
3262.730251,-8808.450710,-592.164754,536.266849
3262.730588,-10732.986159,-296.082377,0.000000
3262.730926,-10807.006753,-74.020594,-1762.019645
3262.731263,-11177.109724,666.185348,-1378.971896
3262.731600,-11251.130318,-1110.308913,-383.047749
3262.731938,-9770.718434,-1776.494261,-612.876398
3262.732275,-8808.450710,-2516.700203,919.314598
3262.732612,-10288.862594,-2220.617826,2298.286494
3262.732950,-11769.274478,-2368.659014,536.266849
3262.733287,-11843.295072,-1110.308913,-1532.190996
3262.733625,-11547.212695,-1332.370696,-1455.581446
3262.733962,-10362.883188,-2442.679609,-1225.752797
3262.734299,-8216.285956,-2590.720797,153.219100
3262.734637,-8586.388927,-1480.411884,1838.629195
3262.734974,-10066.800811,-1406.391290,3140.991542
3262.735311,-11547.212695,0.000000,1225.752797
3262.735649,-10658.965565,592.164754,536.266849
3262.735986,-11029.068536,518.144159,1532.190996
3262.736324,-11103.089130,370.102971,1378.971896
3262.736661,-8882.471304,-444.123565,1455.581446
3262.736998,-8364.327145,0.000000,2451.505594
3262.737336,-9622.677246,0.000000,1378.971896
3262.737673,-10658.965565,1406.391290,-2068.457845
3262.738010,-10362.883188,1406.391290,-2911.162892
3262.738348,-9918.759623,518.144159,-2681.334243
3262.738685,-8808.450710,0.000000,-2757.943793
3262.739022,-7698.141797,370.102971,-766.095498
3262.739360,-8290.306550,0.000000,1149.143247
3262.739697,-10881.027347,-740.205942,1072.533697
3262.740035,-11621.233289,888.247130,0.000000
3262.740372,-11399.171507,1998.556043,766.095498
3262.740709,-11843.295072,222.061783,1685.410096
3262.741047,-10436.903782,-962.267725,1149.143247
3262.741384,-9030.512492,-444.123565,2528.115143
3262.741721,-9696.697840,-1332.370696,3447.429741
3262.742059,-11177.109724,666.185348,919.314598
3262.742396,-11843.295072,518.144159,-766.095498
3262.742733,-10362.883188,518.144159,-1915.238745
3262.743071,-9178.553681,-296.082377,-2068.457845
3262.743408,-8142.265362,-666.185348,0.000000
3262.743746,-7328.038826,-296.082377,842.705048
3262.744083,-10066.800811,-962.267725,1455.581446
3262.744420,-11769.274478,-1110.308913,76.609550
3262.744758,-10288.862594,0.000000,-1072.533697
3262.745095,-10881.027347,-370.102971,0.000000
3262.745432,-10510.924376,-1924.535449,306.438199
3262.745770,-8586.388927,-2368.659014,0.000000
3262.746107,-8068.244768,-2664.741391,1608.800546
3262.746444,-9844.739029,-2220.617826,612.876398
3262.746782,-11695.253884,-740.205942,-689.485948
3262.747119,-11917.315666,-666.185348,-1915.238745
3262.747457,-10658.965565,-962.267725,-1532.190996
3262.747794,-8956.491898,-1332.370696,-383.047749
3262.748131,-8068.244768,-592.164754,1991.848295
3262.748469,-9474.636058,-740.205942,4136.915689
3262.748806,-11991.336260,-74.020594,2911.162892
3262.749143,-12657.521608,1998.556043,1685.410096
3262.749481,-11843.295072,2442.679609,1455.581446
3262.749818,-11473.192101,1406.391290,1838.629195
3262.750155,-9474.636058,148.041188,1838.629195
3262.750493,-8290.306550,666.185348,2681.334243
3262.750830,-8956.491898,1184.329507,2757.943793
3262.751168,-10288.862594,1258.350101,229.828649
3262.751505,-11177.109724,1702.473667,-2298.286494
3262.751842,-10362.883188,2294.638420,-3064.381992
3262.752180,-9548.656652,740.205942,-2528.115143
3262.752517,-7476.080014,592.164754,-2528.115143
3262.752854,-6809.894666,-888.247130,-1455.581446
3262.753192,-9252.574275,-1184.329507,229.828649
3262.753529,-10140.821405,-1480.411884,-1455.581446
3262.753866,-10066.800811,-148.041188,-1915.238745
3262.754204,-10658.965565,-888.247130,153.219100
3262.754541,-10510.924376,-2294.638420,612.876398
3262.754878,-8956.491898,-2072.576638,689.485948
3262.755215,-9400.615463,-2072.576638,2451.505594
3262.755553,-11029.068536,-1406.391290,2604.724693
3262.755890,-12435.459826,-592.164754,0.000000
3262.756227,-12065.356855,888.247130,-1685.410096
3262.756565,-10732.986159,-518.144159,-2451.505594
3262.756902,-9844.739029,-1258.350101,-766.095498
3262.757239,-7846.182985,-1110.308913,0.000000
3262.757577,-8956.491898,-1036.288319,1915.238745
3262.757914,-12065.356855,-592.164754,1532.190996
3262.758251,-11917.315666,0.000000,-1225.752797
3262.758589,-11177.109724,1332.370696,-766.095498
3262.758926,-11177.109724,-222.061783,995.924147
3262.759263,-9770.718434,-1258.350101,842.705048
3262.759601,-7624.121203,-1480.411884,1532.190996
3262.759938,-9104.533087,-1184.329507,2911.162892
3262.760275,-10955.047942,-1036.288319,1072.533697
3262.760613,-11621.233289,0.000000,-1762.019645
3262.760950,-10214.842000,370.102971,-1685.410096
3262.761287,-9178.553681,-1332.370696,-1302.362347
3262.761625,-7105.977043,-962.267725,-459.657299
3262.761962,-6883.915261,-666.185348,1378.971896
3262.762299,-9770.718434,-1332.370696,3753.867940
3262.762636,-11843.295072,0.000000,1915.238745
3262.762974,-11029.068536,2072.576638,1149.143247
3262.763311,-11251.130318,2368.659014,1991.848295
3262.763648,-11029.068536,1406.391290,2221.676944
3262.763986,-8956.491898,222.061783,2451.505594
3262.764323,-8882.471304,740.205942,3447.429741
3262.764660,-10807.006753,888.247130,2681.334243
3262.764998,-12805.562797,2442.679609,0.000000
3262.765335,-11769.274478,1924.535449,-3140.991542
3262.765672,-9992.780217,888.247130,-3830.477490
3262.766010,-8364.327145,-666.185348,-3140.991542
3262.766347,-6809.894666,-740.205942,-1378.971896
3262.766684,-8216.285956,-1554.432478,153.219100
3262.767022,-11103.089130,-1850.514855,0.000000
3262.767359,-11399.171507,-592.164754,-2911.162892
3262.767696,-11251.130318,-518.144159,-2604.724693
3262.768034,-11325.150913,-1776.494261,153.219100
3262.768371,-9474.636058,-3923.091493,689.485948
3262.768708,-8068.244768,-2812.782580,2145.067394
3262.769046,-9030.512492,-3034.844362,3217.601092
3262.769383,-11695.253884,-2368.659014,995.924147
3262.769720,-12583.501014,-1258.350101,-995.924147
3262.770057,-11251.130318,-666.185348,-1838.629195
3262.770395,-9770.718434,-962.267725,-1455.581446
3262.770732,-8068.244768,-1110.308913,0.000000
3262.771069,-7846.182985,-444.123565,2681.334243
3262.771407,-9844.739029,-888.247130,2987.772442
3262.771744,-11917.315666,444.123565,1378.971896
3262.772081,-11843.295072,2442.679609,-306.438199
3262.772419,-12139.377449,1776.494261,76.609550
3262.772756,-10881.027347,518.144159,536.266849
3262.773093,-8290.306550,222.061783,689.485948
3262.773431,-7698.141797,0.000000,2451.505594
3262.773768,-10066.800811,74.020594,1685.410096
3262.774105,-11843.295072,1036.288319,-1225.752797
3262.774443,-11325.150913,1702.473667,-2374.896044
3262.774780,-10066.800811,814.226536,-2451.505594
3262.775117,-8660.409521,-370.102971,-1302.362347
3262.775455,-6735.874072,0.000000,689.485948
3262.775792,-7624.121203,-148.041188,2451.505594
3262.776129,-10288.862594,-370.102971,1685.410096
3262.776467,-11473.192101,592.164754,306.438199
3262.776804,-11399.171507,1776.494261,1149.143247
3262.777141,-11325.150913,222.061783,2145.067394
3262.777478,-9474.636058,148.041188,1915.238745
3262.777816,-7476.080014,-592.164754,2451.505594
3262.778153,-8364.327145,-370.102971,3524.039291
3262.778490,-10955.047942,0.000000,1072.533697
3262.778828,-11991.336260,888.247130,-1149.143247
3262.779165,-11621.233289,1628.453072,-2757.943793
3262.779502,-10584.944971,74.020594,-3140.991542
3262.779840,-8512.368333,-592.164754,-1838.629195
3262.780177,-6883.915261,-1628.453072,0.000000
3262.780514,-9770.718434,-1258.350101,1302.362347
3262.780852,-11843.295072,-1332.370696,-536.266849
3262.781189,-11695.253884,-666.185348,-2757.943793
3262.781526,-11769.274478,-518.144159,-1685.410096
3262.781864,-11695.253884,-2516.700203,-383.047749
3262.782201,-8734.430116,-2960.823768,1072.533697
3262.782538,-7846.182985,-3034.844362,2451.505594
3262.782876,-10066.800811,-1702.473667,3370.820191
3262.783213,-11917.315666,-962.267725,229.828649
3262.783550,-12287.418637,222.061783,-1225.752797
3262.783888,-11029.068536,-296.082377,-1149.143247
3262.784225,-8734.430116,-666.185348,-229.828649
3262.784562,-7105.977043,0.000000,2068.457845
3262.784899,-8364.327145,-592.164754,3217.601092
3262.785237,-10066.800811,0.000000,1991.848295
3262.785574,-11029.068536,1184.329507,76.609550
3262.785911,-11325.150913,3108.864956,0.000000
3262.786249,-10510.924376,2072.576638,842.705048
3262.786586,-9326.594869,74.020594,612.876398
3262.786923,-7402.059420,74.020594,1915.238745
3262.787261,-8216.285956,222.061783,3064.381992
3262.787598,-11103.089130,888.247130,1762.019645
3262.787935,-11917.315666,1184.329507,-1915.238745
3262.788273,-11177.109724,1036.288319,-3294.210641
3262.788610,-10066.800811,148.041188,-2911.162892
3262.788947,-8142.265362,-1480.411884,-1455.581446
3262.789285,-7179.997637,-1110.308913,0.000000
3262.789622,-8660.409521,-1702.473667,1225.752797
3262.789959,-11325.150913,-370.102971,-76.609550
3262.790297,-11547.212695,74.020594,-2068.457845
3262.790634,-11843.295072,222.061783,0.000000
3262.790971,-11473.192101,-1554.432478,919.314598
3262.791309,-8734.430116,-1480.411884,1455.581446
3262.791646,-8660.409521,-1036.288319,3830.477490
3262.791983,-10140.821405,-1184.329507,2528.115143
3262.792320,-11399.171507,-1110.308913,536.266849
3262.792658,-11843.295072,0.000000,-1378.971896
3262.792995,-10436.903782,-74.020594,-1685.410096
3262.793332,-9326.594869,-888.247130,-1838.629195
3262.793670,-7994.224174,-1184.329507,-689.485948
3262.794007,-7698.141797,-962.267725,306.438199
3262.794344,-10584.944971,-1258.350101,153.219100
3262.794682,-11621.233289,296.082377,-1608.800546
3262.795019,-11029.068536,814.226536,-1378.971896
3262.795356,-11547.212695,0.000000,842.705048
3262.795694,-10140.821405,-1406.391290,536.266849
3262.796031,-7772.162391,-1776.494261,1225.752797
3262.796368,-8956.491898,-1036.288319,3370.820191
3262.796706,-11103.089130,-1258.350101,1991.848295
3262.797043,-11621.233289,962.267725,-306.438199
3262.797380,-11029.068536,1480.411884,-1532.190996
3262.797718,-10214.842000,296.082377,-842.705048
3262.798055,-8660.409521,814.226536,229.828649
3262.798392,-7179.997637,74.020594,1991.848295
3262.798729,-8956.491898,666.185348,3294.210641
3262.799067,-10807.006753,1554.432478,1685.410096
3262.799404,-10807.006753,3404.947333,0.000000
3262.799741,-11325.150913,2220.617826,459.657299
3262.800079,-10881.027347,814.226536,1455.581446
3262.800416,-8660.409521,592.164754,0.000000
3262.800753,-8882.471304,0.000000,2298.286494
3262.801091,-9474.636058,0.000000,2298.286494
3262.801428,-11177.109724,0.000000,-766.095498
3262.801765,-11177.109724,370.102971,-2528.115143
3262.802103,-9252.574275,666.185348,-3524.039291
3262.802440,-9844.739029,-1850.514855,-2145.067394
3262.802777,-7920.203579,-1110.308913,-1225.752797
3262.803115,-8512.368333,-2220.617826,-76.609550
3262.803452,-11399.171507,-2072.576638,1149.143247
3262.803789,-11177.109724,-1554.432478,-919.314598
3262.804127,-10510.924376,-296.082377,-689.485948
3262.804464,-11103.089130,-1480.411884,459.657299
3262.804801,-10214.842000,-2886.803174,459.657299
3262.805139,-9030.512492,-2072.576638,1991.848295
3262.805476,-9474.636058,-1924.535449,4060.306139
3262.805813,-10881.027347,-518.144159,2757.943793
3262.806150,-12435.459826,74.020594,0.000000
3262.806488,-11325.150913,1406.391290,-1685.410096
3262.806825,-9622.677246,0.000000,-1072.533697
3262.807162,-9104.533087,74.020594,459.657299
3262.807500,-7772.162391,296.082377,1532.190996
3262.807837,-9622.677246,0.000000,1149.143247
3262.808174,-11399.171507,888.247130,0.000000
3262.808512,-10807.006753,1406.391290,-2374.896044
3262.808849,-10140.821405,2072.576638,-919.314598
3262.809186,-10584.944971,-444.123565,-612.876398
3262.809524,-8438.347739,-740.205942,536.266849
3262.809861,-7550.100608,-1110.308913,1762.019645
3262.810198,-9474.636058,-444.123565,3140.991542
3262.810536,-11769.274478,296.082377,842.705048
3262.810873,-11177.109724,296.082377,-1532.190996
3262.811210,-10510.924376,814.226536,-919.314598
3262.811548,-9400.615463,-740.205942,153.219100
3262.811885,-7772.162391,0.000000,1072.533697
3262.812222,-8512.368333,-666.185348,2374.896044
3262.812560,-11029.068536,-518.144159,1915.238745
3262.812897,-11547.212695,444.123565,229.828649
3262.813234,-10658.965565,1332.370696,-459.657299
3262.813571,-11029.068536,296.082377,1378.971896
3262.813909,-9918.759623,-814.226536,612.876398
3262.814246,-8512.368333,-666.185348,1991.848295
3262.814583,-9844.739029,0.000000,2681.334243
3262.814921,-11399.171507,-444.123565,1225.752797
3262.815258,-12435.459826,444.123565,-536.266849
3262.815595,-11251.130318,0.000000,-3064.381992
3262.815933,-10214.842000,-1036.288319,-2451.505594
3262.816270,-8808.450710,-2146.597232,-2145.067394
3262.816607,-7550.100608,-2442.679609,-1072.533697
3262.816945,-8882.471304,-2960.823768,919.314598
3262.817282,-11399.171507,-2368.659014,0.000000
3262.817619,-10955.047942,-666.185348,-1762.019645
3262.817957,-11399.171507,-666.185348,-306.438199
3262.818294,-10955.047942,-1480.411884,995.924147
3262.818631,-9326.594869,-2294.638420,766.095498
3262.818969,-8512.368333,-1628.453072,3753.867940
3262.819306,-10140.821405,-962.267725,4979.620737
3262.819643,-11103.089130,-814.226536,2834.553343
3262.819981,-12065.356855,1702.473667,0.000000
3262.820318,-10881.027347,1332.370696,-842.705048
3262.820655,-10362.883188,740.205942,-459.657299
3262.820992,-7772.162391,296.082377,0.000000
3262.821330,-7402.059420,1184.329507,1302.362347
3262.821667,-9548.656652,962.267725,612.876398
3262.822004,-10732.986159,2442.679609,-1532.190996
3262.822342,-9844.739029,1998.556043,-1149.143247
3262.822679,-10584.944971,1702.473667,-536.266849
3262.823016,-9252.574275,666.185348,-1149.143247
3262.823354,-8882.471304,0.000000,0.000000
3262.823691,-8586.388927,148.041188,1762.019645
3262.824028,-10362.883188,-518.144159,766.095498
3262.824366,-11769.274478,0.000000,-1149.143247
3262.824703,-10658.965565,148.041188,-2068.457845
3262.825040,-10066.800811,-1480.411884,-1225.752797
3262.825378,-9178.553681,-1406.391290,-536.266849
3262.825715,-7179.997637,-1332.370696,0.000000
3262.826052,-9918.759623,-2072.576638,1762.019645
3262.826390,-11621.233289,-1036.288319,842.705048
3262.826727,-11103.089130,-592.164754,-306.438199
3262.827064,-11251.130318,370.102971,1225.752797
3262.827402,-10881.027347,-888.247130,919.314598
3262.827739,-9326.594869,-1036.288319,1225.752797
3262.828076,-8438.347739,-1184.329507,2528.115143
3262.828413,-10066.800811,-962.267725,3217.601092
3262.828751,-12139.377449,-74.020594,1225.752797
3262.829088,-12213.398043,222.061783,-383.047749
3262.829425,-10584.944971,0.000000,-842.705048
3262.829763,-9548.656652,-814.226536,-919.314598
3262.830100,-8364.327145,-666.185348,0.000000
3262.830437,-8216.285956,-1332.370696,-459.657299
3262.830775,-9992.780217,-1554.432478,76.609550
3262.831112,-10881.027347,-740.205942,-612.876398
3262.831449,-10658.965565,370.102971,-612.876398
3262.831787,-11029.068536,444.123565,229.828649
3262.832124,-10510.924376,-1554.432478,536.266849
3262.832461,-8364.327145,-814.226536,1149.143247
3262.832799,-8734.430116,-888.247130,3753.867940
3262.833136,-11029.068536,-370.102971,4136.915689
3262.833473,-12139.377449,740.205942,1378.971896
3262.833811,-11029.068536,1332.370696,76.609550
3262.834148,-10288.862594,1332.370696,766.095498
3262.834485,-9104.533087,444.123565,919.314598
3262.834823,-7328.038826,740.205942,919.314598
3262.835160,-8956.491898,0.000000,1225.752797
3262.835497,-10288.862594,740.205942,0.000000
3262.835834,-10436.903782,1998.556043,-1685.410096
3262.836172,-9918.759623,1924.535449,-1608.800546
3262.836509,-9474.636058,0.000000,-2221.676944
3262.836846,-8290.306550,-1332.370696,-2145.067394
3262.837184,-7698.141797,-888.247130,-306.438199
3262.837521,-9400.615463,-1480.411884,995.924147
3262.837858,-11621.233289,-1184.329507,-153.219100
3262.838196,-11843.295072,-1110.308913,-2681.334243
3262.838533,-11325.150913,-962.267725,-2604.724693
3262.838870,-10436.903782,-1998.556043,-383.047749
3262.839208,-9104.533087,-2516.700203,76.609550
3262.839545,-8438.347739,-1776.494261,1302.362347
3262.839882,-11251.130318,-2294.638420,919.314598
3262.840220,-12731.542202,-1628.453072,0.000000
3262.840557,-11473.192101,-518.144159,-766.095498
3262.840894,-11177.109724,-370.102971,1072.533697
3262.841232,-10732.986159,-1332.370696,1302.362347
3262.841569,-8808.450710,-1110.308913,1838.629195
3262.841906,-9252.574275,0.000000,3600.648841
3262.842244,-10732.986159,-592.164754,3370.820191
3262.842581,-11843.295072,1110.308913,919.314598
3262.842918,-11621.233289,1776.494261,-536.266849
3262.843255,-10288.862594,444.123565,-459.657299
3262.843593,-8586.388927,0.000000,-229.828649
3262.843930,-7476.080014,-222.061783,459.657299
3262.844267,-7624.121203,222.061783,1225.752797
3262.844605,-10214.842000,-370.102971,0.000000
3262.844942,-10362.883188,814.226536,-1149.143247
3262.845279,-9770.718434,1628.453072,-1302.362347
3262.845617,-9844.739029,-370.102971,0.000000
3262.845954,-8882.471304,0.000000,459.657299
3262.846291,-7550.100608,-296.082377,2451.505594
3262.846629,-9548.656652,74.020594,3294.210641
3262.846966,-11769.274478,444.123565,1838.629195
3262.847303,-11769.274478,1702.473667,-459.657299
3262.847641,-11325.150913,814.226536,-306.438199
3262.847978,-11103.089130,0.000000,153.219100
3262.848315,-8882.471304,148.041188,0.000000
3262.848653,-8660.409521,222.061783,1302.362347
3262.848990,-10214.842000,-222.061783,1915.238745
3262.849327,-11103.089130,0.000000,-1072.533697
3262.849665,-10584.944971,1036.288319,-1149.143247
3262.850002,-11399.171507,370.102971,-306.438199
3262.850339,-10362.883188,-1184.329507,-995.924147
3262.850676,-8586.388927,-1702.473667,-383.047749
3262.851014,-8660.409521,-1776.494261,2068.457845
3262.851351,-9992.780217,-1702.473667,919.314598
3262.851688,-11547.212695,-2072.576638,-1302.362347
3262.852026,-10732.986159,-1406.391290,-2834.553343
3262.852363,-9992.780217,-2738.761985,-2528.115143
3262.852700,-8956.491898,-3404.947333,-1225.752797
3262.853038,-7476.080014,-2516.700203,-383.047749
3262.853375,-8512.368333,-2960.823768,1455.581446
3262.853712,-10584.944971,-1998.556043,689.485948
3262.854050,-11325.150913,-592.164754,-459.657299
3262.854387,-11251.130318,0.000000,0.000000
3262.854724,-11695.253884,-518.144159,1225.752797
3262.855062,-9474.636058,-1258.350101,1838.629195
3262.855399,-8438.347739,296.082377,3294.210641
3262.855736,-10214.842000,592.164754,5286.058936
3262.856074,-11843.295072,1184.329507,2221.676944
3262.856411,-11769.274478,2072.576638,0.000000
3262.856748,-10807.006753,2368.659014,-229.828649
3262.857086,-10140.821405,1406.391290,-536.266849
3262.857423,-8734.430116,1406.391290,-459.657299
3262.857760,-7772.162391,1480.411884,459.657299
3262.858098,-9178.553681,444.123565,1072.533697
3262.858435,-10955.047942,1924.535449,-229.828649
3262.858772,-10732.986159,1924.535449,-1608.800546
3262.859110,-10362.883188,1258.350101,-689.485948
3262.859447,-9474.636058,-1184.329507,-995.924147
3262.859784,-7624.121203,-1480.411884,842.705048
3262.860122,-7402.059420,-1924.535449,3064.381992
3262.860459,-10140.821405,-1998.556043,2528.115143
3262.860796,-11621.233289,-666.185348,0.000000
3262.861134,-11029.068536,-666.185348,-2145.067394
3262.861471,-10732.986159,-740.205942,-919.314598
3262.861808,-9696.697840,-2220.617826,0.000000
3262.862146,-8068.244768,-814.226536,1532.190996
3262.862483,-9252.574275,-1480.411884,2528.115143
3262.862820,-11843.295072,-1110.308913,1455.581446
3262.863158,-11621.233289,370.102971,-1762.019645
3262.863495,-10881.027347,296.082377,-1225.752797
3262.863832,-11547.212695,-666.185348,383.047749
3262.864170,-9844.739029,-1184.329507,0.000000
3262.864507,-8660.409521,-888.247130,919.314598
3262.864844,-10214.842000,-962.267725,1838.629195
3262.865182,-11547.212695,-962.267725,229.828649
3262.865519,-11621.233289,74.020594,-2298.286494
3262.865856,-10881.027347,0.000000,-2451.505594
3262.866194,-9918.759623,-1258.350101,-1991.848295
3262.866531,-8068.244768,-1850.514855,-995.924147
3262.866868,-7254.018232,-1776.494261,536.266849
3262.867206,-9844.739029,-1332.370696,1072.533697
3262.867543,-11769.274478,-740.205942,383.047749
3262.867880,-10140.821405,518.144159,-995.924147
3262.868218,-9992.780217,222.061783,76.609550
3262.868555,-9844.739029,-222.061783,1532.190996
3262.868892,-7994.224174,-296.082377,2221.676944
3262.869230,-8364.327145,222.061783,4519.963438
3262.869567,-10066.800811,1110.308913,3677.258390
3262.869904,-11621.233289,2220.617826,1149.143247
3262.870242,-11473.192101,2664.741391,-919.314598
3262.870579,-10955.047942,1702.473667,-459.657299
3262.870916,-9326.594869,888.247130,-536.266849
3262.871254,-7698.141797,1554.432478,0.000000
3262.871591,-8660.409521,592.164754,1302.362347
3262.871928,-10955.047942,148.041188,0.000000
3262.872266,-10807.006753,222.061783,-1378.971896
3262.872603,-11177.109724,1184.329507,-1378.971896
3262.872940,-10584.944971,-666.185348,-1685.410096
3262.873278,-8882.471304,-1702.473667,-995.924147
3262.873615,-8364.327145,-2368.659014,995.924147
3262.873952,-9178.553681,-1850.514855,2451.505594
3262.874290,-11473.192101,-1628.453072,1608.800546
3262.874627,-12509.480420,-1480.411884,-1072.533697
3262.874964,-10955.047942,-1480.411884,-1532.190996
3262.875302,-10436.903782,-2442.679609,-919.314598
3262.875639,-8882.471304,-2590.720797,229.828649
3262.875976,-7476.080014,-2960.823768,2068.457845
3262.876314,-9622.677246,-2072.576638,3294.210641
3262.876651,-11695.253884,-1258.350101,1072.533697
3262.876989,-11325.150913,666.185348,-383.047749
3262.877326,-11399.171507,296.082377,153.219100
3262.877663,-10288.862594,-888.247130,689.485948
3262.878001,-8734.430116,-296.082377,1762.019645
3262.878338,-8142.265362,-296.082377,2987.772442
3262.878675,-10510.924376,518.144159,1991.848295
3262.879013,-11843.295072,222.061783,-383.047749
3262.879350,-11621.233289,1554.432478,-2221.676944
3262.879687,-10510.924376,296.082377,-1685.410096
3262.880025,-9252.574275,0.000000,-1302.362347
3262.880362,-7179.997637,-444.123565,-842.705048
3262.880699,-8216.285956,-814.226536,995.924147
3262.881037,-10436.903782,-296.082377,153.219100
3262.881374,-11103.089130,1406.391290,-689.485948
3262.881711,-10584.944971,814.226536,-306.438199
3262.882049,-10436.903782,1184.329507,0.000000
3262.882386,-10066.800811,-1110.308913,1072.533697
3262.882723,-8142.265362,0.000000,2911.162892
3262.883061,-9104.533087,-222.061783,3753.867940
3262.883398,-12287.418637,296.082377,2911.162892
3262.883735,-11769.274478,1184.329507,-1072.533697
3262.884073,-10807.006753,1184.329507,-1838.629195
3262.884410,-10214.842000,-74.020594,-536.266849
3262.884747,-7698.141797,-1258.350101,-766.095498
3262.885085,-6957.935855,-592.164754,689.485948
3262.885422,-9696.697840,-1110.308913,1532.190996
3262.885759,-11399.171507,444.123565,-76.609550
3262.886097,-11695.253884,0.000000,-995.924147
3262.886434,-11251.130318,-74.020594,-1072.533697
3262.886771,-10140.821405,-1628.453072,-1225.752797
3262.887109,-8882.471304,-2294.638420,-383.047749
3262.887446,-8290.306550,-2072.576638,1225.752797
3262.887783,-9696.697840,-2886.803174,1302.362347
3262.888121,-11843.295072,-962.267725,-612.876398
3262.888458,-11991.336260,-666.185348,-2221.676944
3262.888795,-11251.130318,-666.185348,-1915.238745
3262.889133,-9992.780217,-2294.638420,-1225.752797
3262.889470,-7698.141797,-1480.411884,766.095498
3262.889807,-8290.306550,-1110.308913,2681.334243
3262.890145,-11769.274478,-666.185348,3294.210641
3262.890482,-11769.274478,814.226536,459.657299
3262.890819,-11177.109724,2294.638420,-76.609550
3262.891157,-11473.192101,1776.494261,919.314598
3262.891494,-10436.903782,0.000000,1455.581446
3262.891831,-7994.224174,666.185348,1685.410096
3262.892169,-8068.244768,888.247130,2911.162892
3262.892506,-11103.089130,1776.494261,1838.629195
3262.892843,-11177.109724,1998.556043,-1608.800546
3262.893181,-9844.739029,2590.720797,-1838.629195
3262.893518,-9770.718434,740.205942,-1302.362347
3262.893855,-7772.162391,592.164754,-766.095498
3262.894193,-6883.915261,222.061783,842.705048
3262.894530,-9696.697840,0.000000,1302.362347
3262.894867,-10955.047942,-444.123565,-383.047749
3262.895205,-11251.130318,1184.329507,-2145.067394
3262.895542,-9770.718434,444.123565,-1838.629195
3262.895879,-9844.739029,-1258.350101,0.000000
3262.896217,-8290.306550,-1850.514855,689.485948
3262.896554,-7550.100608,-2220.617826,1685.410096
3262.896891,-10140.821405,-1110.308913,3064.381992
3262.897229,-13027.624579,-814.226536,1072.533697
3262.897566,-12213.398043,1036.288319,-1302.362347
3262.897904,-11103.089130,0.000000,-919.314598
3262.898241,-9844.739029,-1036.288319,306.438199
3262.898578,-8364.327145,-1184.329507,919.314598
3262.898916,-8956.491898,-1554.432478,2604.724693
3262.899253,-11177.109724,-962.267725,1149.143247
3262.899590,-11399.171507,0.000000,-766.095498
3262.899928,-11621.233289,666.185348,-1455.581446
3262.900265,-11177.109724,-1036.288319,-689.485948
3262.900602,-9474.636058,-1776.494261,0.000000
3262.900940,-7624.121203,-1554.432478,536.266849
3262.901277,-8660.409521,-1332.370696,1838.629195
3262.901614,-10732.986159,-2072.576638,459.657299
3262.901952,-11769.274478,-518.144159,-1915.238745
3262.902289,-10658.965565,-1036.288319,-1608.800546
3262.902626,-10066.800811,-666.185348,-459.657299
3262.902964,-8586.388927,-1110.308913,76.609550
3262.903301,-8142.265362,-1184.329507,1302.362347
3262.903638,-9326.594869,-1110.308913,1915.238745
3262.903976,-11473.192101,0.000000,1225.752797
3262.904313,-11325.150913,1406.391290,689.485948
3262.904650,-10807.006753,962.267725,536.266849
3262.904988,-10214.842000,592.164754,1225.752797
3262.905325,-8438.347739,592.164754,1378.971896
3262.905662,-7772.162391,888.247130,3677.258390
3262.906000,-10436.903782,592.164754,3140.991542
3262.906337,-11473.192101,1998.556043,76.609550
3262.906674,-11547.212695,2738.761985,-2145.067394
3262.907012,-11029.068536,1554.432478,-2221.676944
3262.907349,-8734.430116,-444.123565,-2451.505594
3262.907686,-6735.874072,-888.247130,-612.876398
3262.908024,-7402.059420,-888.247130,842.705048
3262.908361,-10362.883188,-1184.329507,459.657299
3262.908698,-11251.130318,-592.164754,-2221.676944
3262.909036,-11029.068536,0.000000,-2451.505594
3262.909373,-11177.109724,-1184.329507,-1455.581446
3262.909710,-9622.677246,-1924.535449,-306.438199
3262.910048,-8438.347739,-2368.659014,1225.752797
3262.910385,-9104.533087,-2368.659014,2911.162892
3262.910722,-11473.192101,-2146.597232,1762.019645
3262.911060,-12213.398043,-962.267725,-229.828649
3262.911397,-11621.233289,-1036.288319,-612.876398
3262.911734,-11325.150913,-1554.432478,-229.828649
3262.912072,-9252.574275,-1184.329507,536.266849
3262.912409,-7624.121203,-740.205942,1991.848295
3262.912746,-9548.656652,-1406.391290,2757.943793
3262.913084,-12435.459826,296.082377,1302.362347
3262.913421,-11325.150913,1184.329507,-1149.143247
3262.913758,-10881.027347,1776.494261,76.609550
3262.914096,-10807.006753,148.041188,229.828649
3262.914433,-8660.409521,-370.102971,0.000000
3262.914770,-7328.038826,-296.082377,536.266849
3262.915108,-9178.553681,-74.020594,1455.581446
3262.915445,-10955.047942,888.247130,-766.095498
3262.915782,-10955.047942,1406.391290,-2757.943793
3262.916120,-10288.862594,666.185348,-1762.019645
3262.916457,-8882.471304,-370.102971,-842.705048
3262.916794,-8068.244768,74.020594,919.314598
3262.917132,-8290.306550,0.000000,2374.896044
3262.917469,-10214.842000,0.000000,2145.067394
3262.917806,-11325.150913,962.267725,1072.533697
3262.918144,-11325.150913,1776.494261,153.219100
3262.918481,-11325.150913,1776.494261,1838.629195
3262.918818,-10807.006753,370.102971,1762.019645
3262.919156,-8512.368333,-370.102971,1532.190996
3262.919493,-8660.409521,444.123565,2757.943793
3262.919831,-10955.047942,370.102971,1838.629195
3262.920168,-11177.109724,592.164754,-919.314598
3262.920505,-9992.780217,1480.411884,-1838.629195
3262.920843,-9992.780217,296.082377,-1302.362347
3262.921180,-8956.491898,-888.247130,-1532.190996
3262.921517,-7105.977043,-1110.308913,-766.095498
3262.921855,-9400.615463,-1850.514855,1072.533697
3262.922192,-11251.130318,-1258.350101,229.828649
3262.922529,-11325.150913,-518.144159,-2068.457845
3262.922867,-10807.006753,-1258.350101,-2451.505594
3262.923204,-10436.903782,-3108.864956,-1072.533697
3262.923541,-8660.409521,-3330.926739,0.000000
3262.923879,-8216.285956,-3182.885551,2298.286494
3262.924216,-9770.718434,-2294.638420,2145.067394
3262.924553,-11991.336260,-1998.556043,-76.609550
3262.924891,-11473.192101,-962.267725,-1685.410096
3262.925228,-10807.006753,-370.102971,-995.924147
3262.925565,-10066.800811,-1480.411884,1225.752797
3262.925903,-8808.450710,-888.247130,1762.019645
3262.926240,-8660.409521,-148.041188,3294.210641
3262.926577,-11251.130318,74.020594,3294.210641
3262.926915,-11843.295072,1110.308913,1378.971896
3262.927252,-11103.089130,2664.741391,0.000000
3262.927589,-10955.047942,1702.473667,766.095498
3262.927927,-9992.780217,1702.473667,995.924147
3262.928264,-7698.141797,592.164754,1149.143247
3262.928601,-8290.306550,1036.288319,1455.581446
3262.928939,-10510.924376,592.164754,1608.800546
3262.929276,-11251.130318,1480.411884,-1608.800546
3262.929613,-10436.903782,2368.659014,-2604.724693
3262.929951,-10140.821405,444.123565,-2068.457845
3262.930288,-8068.244768,-370.102971,-1532.190996
3262.930625,-7402.059420,-962.267725,76.609550
3262.930963,-9400.615463,-1110.308913,2145.067394
3262.931300,-11103.089130,-888.247130,995.924147
3262.931637,-10510.924376,-74.020594,-383.047749
3262.931975,-10658.965565,222.061783,229.828649
3262.932312,-10732.986159,-1554.432478,1302.362347
3262.932649,-9400.615463,-1184.329507,1532.190996
3262.932987,-8882.471304,-666.185348,1915.238745
3262.933324,-10436.903782,-592.164754,2987.772442
3262.933661,-11991.336260,74.020594,689.485948
3262.933999,-11547.212695,888.247130,-2145.067394
3262.934336,-10140.821405,0.000000,-1225.752797
3262.934673,-9474.636058,-888.247130,-1072.533697
3262.935011,-7772.162391,-888.247130,-612.876398
3262.935348,-8512.368333,-740.205942,0.000000
3262.935685,-10807.006753,-1480.411884,-306.438199
3262.936023,-11177.109724,-962.267725,-2374.896044
3262.936360,-10436.903782,296.082377,-2298.286494
3262.936697,-10436.903782,0.000000,-1149.143247
3262.937035,-9622.677246,-2220.617826,-1378.971896
3262.937372,-8364.327145,-2072.576638,0.000000
3262.937709,-8808.450710,-1850.514855,1762.019645
3262.938047,-11103.089130,-1184.329507,1762.019645
3262.938384,-12361.439231,0.000000,-766.095498
3262.938721,-11473.192101,148.041188,-1532.190996
3262.939059,-10066.800811,-666.185348,-383.047749
3262.939396,-8660.409521,-814.226536,766.095498
3262.939733,-7846.182985,0.000000,2604.724693
3262.940071,-9548.656652,-296.082377,2681.334243
3262.940408,-11917.315666,1036.288319,2298.286494
3262.940746,-11325.150913,2664.741391,0.000000
3262.941083,-10140.821405,2738.761985,1149.143247
3262.941420,-10584.944971,1776.494261,1455.581446
3262.941758,-9548.656652,296.082377,1685.410096
3262.942095,-8068.244768,1036.288319,1762.019645
3262.942432,-9104.533087,0.000000,1455.581446
3262.942770,-11547.212695,814.226536,689.485948
3262.943107,-10732.986159,740.205942,-2221.676944
3262.943444,-9622.677246,370.102971,-2374.896044
3262.943782,-8512.368333,-592.164754,-1838.629195
3262.944119,-7624.121203,-1258.350101,-1455.581446
3262.944456,-8068.244768,-1850.514855,612.876398
3262.944794,-10732.986159,-2146.597232,842.705048
3262.945131,-11621.233289,-370.102971,76.609550
3262.945468,-11621.233289,0.000000,-612.876398
3262.945806,-11251.130318,-1258.350101,229.828649
3262.946143,-10362.883188,-2590.720797,842.705048
3262.946480,-8956.491898,-2368.659014,1762.019645
3262.946818,-9548.656652,-2072.576638,3294.210641
3262.947155,-11399.171507,-1702.473667,2374.896044
3262.947492,-12361.439231,-518.144159,919.314598
3262.947830,-11029.068536,592.164754,-766.095498
3262.948167,-10436.903782,-444.123565,-383.047749
3262.948504,-9252.574275,-740.205942,-153.219100
3262.948842,-7772.162391,-888.247130,1455.581446
3262.949179,-9252.574275,-740.205942,1991.848295
3262.949516,-10881.027347,0.000000,153.219100
3262.949854,-11029.068536,740.205942,-1225.752797
3262.950191,-10362.883188,666.185348,-1608.800546
3262.950528,-10362.883188,0.000000,-919.314598
3262.950866,-8956.491898,-814.226536,-689.485948
3262.951203,-7698.141797,-814.226536,383.047749
3262.951540,-8882.471304,-666.185348,1762.019645
3262.951878,-10955.047942,0.000000,229.828649
3262.952215,-11103.089130,888.247130,-2068.457845
3262.952552,-10732.986159,1036.288319,-1685.410096
3262.952890,-9844.739029,-444.123565,-919.314598
3262.953227,-8068.244768,222.061783,995.924147
3262.953564,-8438.347739,-370.102971,2374.896044
3262.953902,-10140.821405,148.041188,2604.724693
3262.954239,-11843.295072,444.123565,1378.971896
3262.954576,-11325.150913,2146.597232,0.000000
3262.954914,-10214.842000,1924.535449,383.047749
3262.955251,-10955.047942,592.164754,919.314598
3262.955588,-8734.430116,0.000000,919.314598
3262.955926,-8808.450710,-222.061783,1991.848295
3262.956263,-10436.903782,444.123565,1838.629195
3262.956600,-11843.295072,518.144159,-1608.800546
3262.956938,-10807.006753,1554.432478,-2221.676944
3262.957275,-10584.944971,-518.144159,-2221.676944
3262.957612,-9030.512492,-1332.370696,-1991.848295
3262.957950,-7550.100608,-1036.288319,-612.876398
3262.958287,-9252.574275,-2368.659014,919.314598
3262.958624,-11621.233289,-2072.576638,536.266849
3262.958962,-11325.150913,-1628.453072,-1225.752797
3262.959299,-10881.027347,222.061783,-689.485948
3262.959636,-11029.068536,-2368.659014,383.047749
3262.959974,-9548.656652,-2590.720797,1149.143247
3262.960311,-8142.265362,-2368.659014,1762.019645
3262.960648,-9918.759623,-1628.453072,3830.477490
3262.960986,-11769.274478,-814.226536,2681.334243
3262.961323,-12065.356855,444.123565,459.657299
3262.961660,-11399.171507,444.123565,306.438199
3262.961998,-9696.697840,518.144159,0.000000
3262.962335,-9030.512492,0.000000,1685.410096
3262.962672,-8364.327145,1110.308913,1991.848295
3262.963010,-9992.780217,888.247130,1455.581446
3262.963347,-11547.212695,1332.370696,306.438199
3262.963684,-10214.842000,1850.514855,-1762.019645
3262.964022,-9992.780217,1406.391290,-76.609550
3262.964359,-9992.780217,-296.082377,-153.219100
3262.964696,-7624.121203,-370.102971,76.609550
3262.965034,-7846.182985,370.102971,1455.581446
3262.965371,-10732.986159,0.000000,1149.143247
3262.965708,-11473.192101,444.123565,-1455.581446
3262.966046,-11029.068536,-592.164754,-3217.601092
3262.966383,-9918.759623,74.020594,-1915.238745
3262.966720,-8290.306550,-1776.494261,-689.485948
3262.967058,-7698.141797,-1480.411884,919.314598
3262.967395,-8660.409521,-1850.514855,2145.067394
3262.967732,-11325.150913,-1850.514855,612.876398
3262.968070,-11843.295072,666.185348,-459.657299
3262.968407,-11251.130318,296.082377,0.000000
3262.968744,-10807.006753,-296.082377,689.485948
3262.969082,-10066.800811,-1480.411884,1072.533697
3262.969419,-9252.574275,-296.082377,2145.067394
3262.969756,-9770.718434,-814.226536,2451.505594
3262.970094,-12139.377449,-740.205942,1149.143247
3262.970431,-12213.398043,296.082377,-1991.848295
3262.970768,-10436.903782,0.000000,-2451.505594
3262.971106,-10362.883188,-740.205942,-1455.581446
3262.971443,-8290.306550,-2146.597232,-766.095498
3262.971780,-7772.162391,-1406.391290,612.876398
3262.972118,-9696.697840,-1184.329507,536.266849
3262.972455,-11769.274478,-1258.350101,-383.047749
3262.972792,-10510.924376,-296.082377,-1532.190996
3262.973130,-10362.883188,-444.123565,0.000000
3262.973467,-10584.944971,-1628.453072,1378.971896
3262.973804,-8512.368333,-1184.329507,766.095498
3262.974142,-8068.244768,-1628.453072,2604.724693
3262.974479,-10288.862594,-888.247130,2834.553343
3262.974816,-10881.027347,0.000000,1455.581446
3262.975154,-11029.068536,1998.556043,153.219100
3262.975491,-10436.903782,370.102971,-306.438199
3262.975828,-9326.594869,518.144159,153.219100
3262.976166,-8142.265362,1924.535449,1762.019645
3262.976503,-8882.471304,1480.411884,1838.629195
3262.976841,-11177.109724,1776.494261,1838.629195
3262.977178,-11325.150913,1998.556043,-612.876398
3262.977515,-9918.759623,3330.926739,-766.095498
3262.977853,-10658.965565,666.185348,-689.485948
3262.978190,-9844.739029,0.000000,-459.657299
3262.978527,-7698.141797,-666.185348,76.609550
3262.978865,-8882.471304,-888.247130,1762.019645
3262.979202,-10658.965565,-666.185348,459.657299
3262.979539,-11177.109724,-888.247130,-2757.943793
3262.979877,-10658.965565,-592.164754,-3370.820191
3262.980214,-10140.821405,-2294.638420,-2221.676944
3262.980551,-8512.368333,-1332.370696,-766.095498
3262.980889,-7920.203579,-1480.411884,1149.143247
3262.981226,-10658.965565,-2220.617826,1762.019645
3262.981563,-11399.171507,-1998.556043,0.000000
3262.981901,-11399.171507,-222.061783,-842.705048
3262.982238,-10881.027347,-666.185348,842.705048
3262.982575,-11029.068536,-1924.535449,306.438199
3262.982913,-9178.553681,-1702.473667,1072.533697
3262.983250,-8882.471304,-1332.370696,2987.772442
3262.983587,-10066.800811,-370.102971,3447.429741
3262.983925,-11991.336260,444.123565,995.924147
3262.984262,-11843.295072,1184.329507,-1302.362347
3262.984599,-10658.965565,814.226536,-1991.848295
3262.984937,-9252.574275,-370.102971,-919.314598
3262.985274,-7476.080014,370.102971,229.828649
3262.985611,-8142.265362,-444.123565,1225.752797
3262.985949,-11103.089130,-370.102971,536.266849
3262.986286,-11325.150913,1554.432478,-1838.629195
3262.986623,-10066.800811,1406.391290,-2145.067394
3262.986961,-10658.965565,0.000000,0.000000
3262.987298,-8808.450710,-1258.350101,306.438199
3262.987635,-7550.100608,-814.226536,1762.019645
3262.987973,-8512.368333,-296.082377,3140.991542
3262.988310,-11251.130318,-222.061783,2681.334243
3262.988647,-11325.150913,814.226536,0.000000
3262.988985,-11029.068536,1184.329507,-383.047749
3262.989322,-10362.883188,518.144159,-306.438199
3262.989659,-8660.409521,0.000000,919.314598
3262.989997,-7772.162391,0.000000,1685.410096
3262.990334,-9104.533087,-518.144159,1532.190996
3262.990671,-11029.068536,444.123565,229.828649
3262.991009,-10881.027347,1702.473667,-842.705048
3262.991346,-10881.027347,592.164754,-459.657299
3262.991683,-10658.965565,-222.061783,0.000000
3262.992021,-8956.491898,-1702.473667,842.705048
3262.992358,-8512.368333,-1036.288319,2145.067394
3262.992695,-10732.986159,-1480.411884,2298.286494
3262.993033,-12731.542202,-592.164754,-919.314598
3262.993370,-11917.315666,-444.123565,-3217.601092
3262.993707,-10881.027347,-1850.514855,-3447.429741
3262.994045,-8956.491898,-3108.864956,-1991.848295
3262.994382,-7031.956449,-3404.947333,-612.876398
3262.994719,-8142.265362,-2738.761985,1225.752797
3262.995057,-11473.192101,-2368.659014,612.876398
3262.995394,-11621.233289,-444.123565,-1455.581446
3262.995731,-11103.089130,0.000000,-919.314598
3262.996069,-11473.192101,-740.205942,1149.143247
3262.996406,-9474.636058,-1036.288319,1685.410096
3262.996743,-9030.512492,-1036.288319,4060.306139
3262.997081,-9622.677246,-592.164754,5286.058936
3262.997418,-10807.006753,370.102971,3294.210641
3262.997755,-12213.398043,2220.617826,76.609550
3262.998093,-11843.295072,1776.494261,-1455.581446
3262.998430,-10214.842000,1628.453072,-1072.533697
3262.998767,-8068.244768,1110.308913,-536.266849
3262.999105,-7179.997637,296.082377,612.876398
3262.999442,-8660.409521,740.205942,229.828649
3262.999779,-11547.212695,1406.391290,-153.219100
3263.000117,-10510.924376,1776.494261,-1915.238745
3263.000454,-9548.656652,1702.473667,-1608.800546
3263.000791,-9992.780217,0.000000,76.609550
3263.001129,-8956.491898,-1110.308913,1149.143247
3263.001466,-8364.327145,-1258.350101,2604.724693
3263.001803,-10584.944971,-814.226536,2604.724693
3263.002141,-12065.356855,0.000000,0.000000
3263.002478,-11473.192101,0.000000,-2298.286494
3263.002815,-9918.759623,-962.267725,-1838.629195
3263.003153,-8438.347739,-1776.494261,-306.438199
3263.003490,-7328.038826,-962.267725,995.924147
3263.003827,-8956.491898,-1628.453072,2298.286494
3263.004165,-11251.130318,0.000000,1072.533697
3263.004502,-12139.377449,296.082377,-766.095498
3263.004839,-11621.233289,1480.411884,-306.438199
3263.005177,-11621.233289,444.123565,229.828649
3263.005514,-10140.821405,-1554.432478,536.266849
3263.005851,-8290.306550,-1628.453072,1072.533697
3263.006189,-8586.388927,-1332.370696,2068.457845
3263.006526,-11251.130318,-740.205942,153.219100
3263.006863,-12657.521608,-296.082377,-2068.457845
3263.007201,-11251.130318,0.000000,-3983.696590
3263.007538,-9844.739029,-1480.411884,-2834.553343
3263.007875,-7846.182985,-1406.391290,-919.314598
3263.008213,-6957.935855,-2220.617826,306.438199
3263.008550,-9474.636058,-1850.514855,2298.286494
3263.008887,-11621.233289,-888.247130,995.924147
3263.009225,-11621.233289,592.164754,-766.095498
3263.009562,-11251.130318,518.144159,536.266849
3263.009899,-10955.047942,-1554.432478,2298.286494
3263.010237,-8808.450710,-1628.453072,2528.115143
3263.010574,-7402.059420,370.102971,4519.963438
3263.010911,-9548.656652,74.020594,5209.449386
3263.011249,-11769.274478,1480.411884,1455.581446
3263.011586,-11547.212695,2368.659014,-1455.581446
3263.011923,-10732.986159,2146.597232,-1762.019645
3263.012261,-8882.471304,740.205942,-383.047749
3263.012598,-7624.121203,1184.329507,536.266849
3263.012935,-7550.100608,592.164754,229.828649
3263.013273,-9844.739029,148.041188,766.095498
3263.013610,-12287.418637,1184.329507,-383.047749
3263.013947,-10955.047942,814.226536,-2374.896044
3263.014285,-10510.924376,-148.041188,-689.485948
3263.014622,-9770.718434,-1776.494261,153.219100
3263.014959,-7994.224174,-2294.638420,1072.533697
3263.015297,-8734.430116,-1850.514855,2068.457845
3263.015634,-11325.150913,-2220.617826,1225.752797
3263.015971,-12287.418637,-1036.288319,-1225.752797
3263.016309,-11769.274478,-444.123565,-2068.457845
3263.016646,-10436.903782,-1924.535449,-1302.362347
3263.016983,-8586.388927,-3256.906145,0.000000
3263.017321,-7698.141797,-2368.659014,1685.410096
3263.017658,-9844.739029,-1998.556043,2451.505594
3263.017995,-11843.295072,-962.267725,1072.533697
3263.018333,-11769.274478,444.123565,-842.705048
3263.018670,-11251.130318,370.102971,76.609550
3263.019007,-10658.965565,-296.082377,536.266849
3263.019345,-9104.533087,-888.247130,1762.019645
3263.019682,-8216.285956,-592.164754,3064.381992
3263.020019,-9548.656652,-370.102971,2987.772442
3263.020357,-11695.253884,518.144159,0.000000
3263.020694,-12065.356855,1776.494261,-2528.115143
3263.021031,-10658.965565,592.164754,-2604.724693
3263.021369,-9474.636058,0.000000,-1685.410096
3263.021706,-7402.059420,0.000000,-459.657299
3263.022043,-7179.997637,0.000000,0.000000
3263.022381,-9992.780217,-444.123565,153.219100
3263.022718,-11399.171507,666.185348,0.000000
3263.023055,-10732.986159,1554.432478,-689.485948
3263.023393,-10658.965565,592.164754,689.485948
3263.023730,-10066.800811,-666.185348,1225.752797
3263.024067,-8068.244768,-592.164754,2834.553343
3263.024405,-8216.285956,222.061783,4443.353888
3263.024742,-11399.171507,1036.288319,3294.210641
3263.025079,-12509.480420,2072.576638,153.219100
3263.025417,-11991.336260,1998.556043,-1532.190996
3263.025754,-9844.739029,518.144159,-1072.533697
3263.026091,-8290.306550,222.061783,-612.876398
3263.026429,-7328.038826,0.000000,536.266849
3263.026766,-9178.553681,-296.082377,995.924147
3263.027103,-10584.944971,-222.061783,-612.876398
3263.027441,-10955.047942,740.205942,-1302.362347
3263.027778,-10955.047942,814.226536,-1838.629195
3263.028115,-11103.089130,-592.164754,-842.705048
3263.028453,-9474.636058,-1554.432478,-383.047749
3263.028790,-7846.182985,-2072.576638,919.314598
3263.029127,-9918.759623,-2146.597232,1685.410096
3263.029465,-11695.253884,-1628.453072,-612.876398
3263.029802,-12509.480420,-1480.411884,-2528.115143
3263.030139,-10732.986159,-2220.617826,-2221.676944
3263.030477,-9104.533087,-2590.720797,-919.314598
3263.030814,-8142.265362,-2590.720797,153.219100
3263.031151,-8882.471304,-1924.535449,1991.848295
3263.031489,-11029.068536,-2220.617826,2681.334243
3263.031826,-11843.295072,74.020594,1302.362347
3263.032163,-11325.150913,1628.453072,995.924147
3263.032501,-11843.295072,666.185348,1838.629195
3263.032838,-10436.903782,-370.102971,1685.410096
3263.033175,-8364.327145,370.102971,2451.505594
3263.033513,-9400.615463,666.185348,4136.915689
3263.033850,-10436.903782,1406.391290,1302.362347
3263.034187,-11547.212695,1406.391290,-1225.752797
3263.034525,-10732.986159,1998.556043,-1838.629195
3263.034862,-8808.450710,740.205942,-1915.238745
3263.035199,-8512.368333,444.123565,-842.705048
3263.035537,-7179.997637,0.000000,-383.047749
3263.035874,-8142.265362,0.000000,153.219100
3263.036211,-10881.027347,74.020594,0.000000
3263.036549,-10510.924376,592.164754,-1072.533697
3263.036886,-10140.821405,740.205942,-536.266849
3263.037223,-10436.903782,-1480.411884,536.266849
3263.037561,-8882.471304,-1554.432478,1455.581446
3263.037898,-7994.224174,-1628.453072,2374.896044
3263.038235,-9844.739029,-2220.617826,2911.162892
3263.038573,-11399.171507,-1258.350101,689.485948
3263.038910,-11695.253884,-444.123565,-1149.143247
3263.039247,-11399.171507,740.205942,-1072.533697
3263.039585,-10140.821405,-1702.473667,-536.266849
3263.039922,-8660.409521,-666.185348,306.438199
3263.040259,-9178.553681,-814.226536,919.314598
3263.040597,-11325.150913,-518.144159,1532.190996
3263.040934,-12065.356855,0.000000,-766.095498
3263.041271,-10881.027347,740.205942,-1225.752797
3263.041609,-10732.986159,-592.164754,0.000000
3263.041946,-9770.718434,-1406.391290,-766.095498
3263.042283,-8586.388927,-2368.659014,766.095498
3263.042621,-9030.512492,-1332.370696,1225.752797
3263.042958,-10510.924376,-1184.329507,383.047749
3263.043295,-11843.295072,-962.267725,-1225.752797
3263.043633,-10510.924376,-444.123565,-2374.896044
3263.043970,-9400.615463,-888.247130,-1149.143247
3263.044307,-8660.409521,-1702.473667,0.000000
3263.044645,-7698.141797,-666.185348,919.314598
3263.044982,-9622.677246,-1110.308913,2374.896044
3263.045319,-11695.253884,-222.061783,1915.238745
3263.045657,-10732.986159,1628.453072,0.000000
3263.045994,-10584.944971,1776.494261,689.485948
3263.046331,-10955.047942,814.226536,2221.676944
3263.046669,-9474.636058,148.041188,1762.019645
3263.047006,-8290.306550,1406.391290,3447.429741
3263.047343,-9474.636058,1702.473667,2911.162892
3263.047681,-11325.150913,1850.514855,1225.752797
3263.048018,-12213.398043,3552.988522,-1149.143247
3263.048355,-10732.986159,2294.638420,-2068.457845
3263.048693,-9252.574275,1850.514855,-1838.629195
3263.049030,-8364.327145,148.041188,-459.657299
3263.049367,-8068.244768,0.000000,229.828649
3263.049705,-9770.718434,-888.247130,-306.438199
3263.050042,-10881.027347,0.000000,-1532.190996
3263.050379,-10066.800811,666.185348,-2604.724693
3263.050717,-10658.965565,-740.205942,-1378.971896
3263.051054,-10362.883188,-2146.597232,383.047749
3263.051391,-8660.409521,-2442.679609,1149.143247
3263.051729,-8734.430116,-2146.597232,2528.115143
3263.052066,-10955.047942,-1850.514855,1532.190996
3263.052403,-12657.521608,-1628.453072,153.219100
3263.052741,-10955.047942,-1258.350101,-1072.533697
3263.053078,-10362.883188,-1110.308913,-536.266849
3263.053415,-9400.615463,-1554.432478,612.876398
3263.053753,-8438.347739,-1184.329507,536.266849
3263.054090,-9400.615463,-1924.535449,1915.238745
3263.054427,-11843.295072,-666.185348,383.047749
3263.054765,-10510.924376,962.267725,-229.828649
3263.055102,-10881.027347,1554.432478,0.000000
3263.055439,-11177.109724,-444.123565,536.266849
3263.055777,-9474.636058,-444.123565,459.657299
3263.056113,-8808.450710,74.020594,1915.238745
3263.056451,-9622.677246,-222.061783,2528.115143
3263.056788,-11547.212695,-74.020594,0.000000
3263.057125,-11621.233289,148.041188,-2145.067394
3263.057463,-9696.697840,0.000000,-2451.505594
3263.057800,-8882.471304,-1184.329507,-1225.752797
3263.058138,-8216.285956,-518.144159,383.047749
3263.058475,-7920.203579,-888.247130,766.095498
3263.058813,-10140.821405,-370.102971,1532.190996
3263.059150,-10732.986159,222.061783,0.000000
3263.059488,-9844.739029,1036.288319,153.219100
3263.059825,-10362.883188,740.205942,2145.067394
3263.060162,-10362.883188,-518.144159,2681.334243
3263.060500,-8956.491898,296.082377,2298.286494
3263.060837,-9178.553681,0.000000,3064.381992
3263.061175,-10807.006753,0.000000,3064.381992
3263.061512,-11621.233289,148.041188,0.000000
3263.061850,-10807.006753,1480.411884,-1225.752797
3263.062187,-9770.718434,0.000000,-995.924147
3263.062524,-8956.491898,-888.247130,-1378.971896
3263.062862,-7624.121203,-444.123565,-842.705048
3263.063199,-9474.636058,-740.205942,536.266849
3263.063537,-11029.068536,-518.144159,-766.095498
3263.063874,-11177.109724,-444.123565,-2451.505594
3263.064212,-10658.965565,-370.102971,-1685.410096
3263.064549,-10436.903782,-1924.535449,-1149.143247
3263.064887,-9400.615463,-2960.823768,0.000000
3263.065224,-8586.388927,-2442.679609,1072.533697
3263.065561,-9622.677246,-2886.803174,1608.800546
3263.065899,-11991.336260,-1850.514855,229.828649
3263.066236,-11843.295072,-814.226536,-1378.971896
3263.066574,-10584.944971,-444.123565,-1685.410096
3263.066911,-9844.739029,-1258.350101,0.000000
3263.067249,-8882.471304,-1184.329507,766.095498
3263.067586,-8734.430116,-222.061783,2451.505594
3263.067923,-10955.047942,296.082377,2911.162892
3263.068261,-11843.295072,1036.288319,766.095498
3263.068598,-10807.006753,2368.659014,-383.047749
3263.068936,-10732.986159,2072.576638,766.095498
3263.069273,-10362.883188,518.144159,306.438199
3263.069611,-8364.327145,888.247130,1149.143247
3263.069948,-7846.182985,814.226536,2374.896044
3263.070286,-9844.739029,592.164754,1378.971896
3263.070623,-11399.171507,1554.432478,-1149.143247
3263.070960,-10807.006753,1776.494261,-2221.676944
3263.071298,-9622.677246,666.185348,-1608.800546
3263.071635,-8956.491898,0.000000,-1072.533697
3263.071973,-7920.203579,444.123565,0.000000
3263.072310,-9030.512492,-296.082377,919.314598
3263.072648,-10732.986159,-814.226536,306.438199
3263.072985,-11251.130318,962.267725,-383.047749
3263.073322,-10066.800811,740.205942,-689.485948
3263.073660,-10807.006753,-592.164754,536.266849
3263.073997,-9474.636058,-2072.576638,1455.581446
3263.074335,-8438.347739,-1036.288319,2451.505594
3263.074672,-9474.636058,0.000000,3140.991542
3263.075010,-11917.315666,-518.144159,1532.190996
3263.075347,-11917.315666,814.226536,-306.438199
3263.075685,-11325.150913,518.144159,-766.095498
3263.076022,-10436.903782,-296.082377,-383.047749
3263.076359,-8512.368333,-814.226536,-766.095498
3263.076697,-8586.388927,-962.267725,459.657299
3263.077034,-9770.718434,-1554.432478,306.438199
3263.077372,-11029.068536,-814.226536,-1685.410096
3263.077709,-10807.006753,222.061783,-2298.286494
3263.078047,-10955.047942,-1406.391290,-1915.238745
3263.078384,-9844.739029,-1924.535449,-842.705048
3263.078721,-8734.430116,-1998.556043,0.000000
3263.079059,-8808.450710,-2442.679609,1762.019645
3263.079396,-9770.718434,-1702.473667,1685.410096
3263.079734,-12139.377449,-1110.308913,-306.438199
3263.080071,-11547.212695,0.000000,-383.047749
3263.080409,-9844.739029,-592.164754,-1149.143247
3263.080746,-9622.677246,-592.164754,459.657299
3263.081084,-9104.533087,-1480.411884,1838.629195
3263.081421,-8734.430116,-814.226536,2451.505594
3263.081758,-10584.944971,0.000000,2374.896044
3263.082096,-10732.986159,1998.556043,0.000000
3263.082433,-10288.862594,1554.432478,0.000000
3263.082771,-10288.862594,1480.411884,1149.143247
3263.083108,-9030.512492,888.247130,1302.362347
3263.083446,-8068.244768,592.164754,2145.067394
3263.083783,-9474.636058,296.082377,2528.115143
3263.084120,-11251.130318,1110.308913,766.095498
3263.084458,-11769.274478,1258.350101,-919.314598
3263.084795,-10955.047942,1554.432478,-1838.629195
3263.085133,-9622.677246,-370.102971,-2374.896044
3263.085470,-8068.244768,-1332.370696,-2221.676944
3263.085808,-7402.059420,-1332.370696,-383.047749
3263.086145,-9178.553681,-2294.638420,459.657299
3263.086483,-10955.047942,-962.267725,-766.095498
3263.086820,-10955.047942,-592.164754,-995.924147
3263.087157,-11547.212695,-148.041188,-995.924147
3263.087495,-11029.068536,-1850.514855,995.924147
3263.087832,-9622.677246,-1998.556043,2145.067394
3263.088170,-8882.471304,-2294.638420,3064.381992
3263.088507,-10955.047942,-1480.411884,3217.601092
3263.088845,-12139.377449,-814.226536,995.924147
3263.089182,-11695.253884,0.000000,-842.705048
3263.089519,-10214.842000,0.000000,-919.314598
3263.089857,-9400.615463,-962.267725,-306.438199
3263.090194,-7920.203579,-370.102971,76.609550
3263.090532,-8290.306550,-370.102971,842.705048
3263.090869,-11251.130318,222.061783,306.438199
3263.091207,-10955.047942,814.226536,-1991.848295
3263.091544,-9992.780217,888.247130,-1532.190996
3263.091881,-10732.986159,814.226536,0.000000
3263.092219,-9400.615463,-1406.391290,0.000000
3263.092556,-8216.285956,-444.123565,1225.752797
3263.092894,-9400.615463,-1110.308913,1838.629195
3263.093231,-10510.924376,-370.102971,1302.362347
3263.093569,-11695.253884,666.185348,-536.266849
3263.093906,-11325.150913,1554.432478,-919.314598
3263.094244,-9770.718434,222.061783,-689.485948
3263.094581,-8586.388927,-148.041188,-76.609550
3263.094918,-7476.080014,-444.123565,1762.019645
3263.095256,-9622.677246,-148.041188,2911.162892
3263.095593,-11843.295072,296.082377,1225.752797
3263.095931,-10807.006753,2146.597232,-459.657299
3263.096268,-10584.944971,2146.597232,153.219100
3263.096606,-10140.821405,666.185348,1532.190996
3263.096943,-9252.574275,-740.205942,1685.410096
3263.097280,-8586.388927,148.041188,2987.772442
3263.097618,-10658.965565,148.041188,2221.676944
3263.097955,-11769.274478,592.164754,-459.657299
3263.098293,-11325.150913,370.102971,-1762.019645
3263.098630,-10436.903782,-296.082377,-2451.505594
3263.098968,-9474.636058,-814.226536,-1838.629195
3263.099305,-8438.347739,-1184.329507,-1072.533697
3263.099643,-8586.388927,-1702.473667,536.266849
3263.099980,-10066.800811,-2516.700203,-536.266849
3263.100317,-11177.109724,-1702.473667,-1991.848295
3263.100655,-10732.986159,-592.164754,-1838.629195
3263.100992,-11029.068536,-2368.659014,-153.219100
3263.101330,-9400.615463,-2294.638420,0.000000
3263.101667,-7994.224174,-2664.741391,1991.848295
3263.102005,-9326.594869,-1924.535449,2604.724693
3263.102342,-11547.212695,-1702.473667,2374.896044
3263.102679,-12213.398043,296.082377,1378.971896
3263.103017,-11251.130318,888.247130,0.000000
3263.103354,-10584.944971,0.000000,0.000000
3263.103692,-9326.594869,0.000000,842.705048
3263.104029,-8956.491898,222.061783,2221.676944
3263.104367,-9770.718434,666.185348,2145.067394
3263.104704,-11473.192101,1406.391290,-153.219100
3263.105042,-11325.150913,2590.720797,-1838.629195
3263.105379,-10584.944971,1776.494261,-995.924147
3263.105716,-9844.739029,74.020594,-383.047749
3263.106054,-8068.244768,-296.082377,0.000000
3263.106391,-7920.203579,0.000000,2145.067394
3263.106729,-9548.656652,-370.102971,2068.457845
3263.107066,-10955.047942,-444.123565,-612.876398
3263.107404,-10732.986159,740.205942,-1149.143247
3263.107741,-10214.842000,-370.102971,-1225.752797
3263.108078,-9030.512492,-1110.308913,-612.876398
3263.108416,-7402.059420,-1258.350101,612.876398
3263.108753,-7994.224174,-1998.556043,1378.971896
3263.109091,-10732.986159,-1628.453072,1608.800546
3263.109428,-10955.047942,-444.123565,-995.924147
3263.109766,-10140.821405,0.000000,-383.047749
3263.110103,-10584.944971,-740.205942,536.266849
3263.110441,-9918.759623,-814.226536,766.095498
3263.110778,-9030.512492,-1406.391290,1838.629195
3263.111115,-10066.800811,-962.267725,2987.772442
3263.111453,-11769.274478,0.000000,1378.971896
3263.111790,-13027.624579,1702.473667,-919.314598
3263.112128,-11399.171507,1184.329507,-2298.286494
3263.112465,-10807.006753,-740.205942,-1915.238745
3263.112803,-8882.471304,-1332.370696,-1608.800546
3263.113140,-7994.224174,-148.041188,-383.047749
3263.113477,-10436.903782,-1258.350101,842.705048
3263.113815,-11769.274478,-592.164754,-1991.848295
3263.114152,-10955.047942,-296.082377,-2298.286494
3263.114490,-10658.965565,74.020594,-536.266849
3263.114827,-9474.636058,-1036.288319,0.000000
3263.115165,-8882.471304,-1258.350101,766.095498
3263.115502,-8660.409521,-1554.432478,3064.381992
3263.115840,-9918.759623,-814.226536,3370.820191
3263.116177,-11843.295072,814.226536,1762.019645
3263.116514,-11177.109724,1332.370696,153.219100
3263.116852,-9992.780217,1554.432478,-229.828649
3263.117189,-9030.512492,0.000000,612.876398
3263.117527,-7476.080014,666.185348,1685.410096
3263.117864,-7698.141797,1110.308913,2604.724693
3263.118202,-10436.903782,1480.411884,2145.067394
3263.118539,-11621.233289,3182.885551,-1072.533697
3263.118876,-10584.944971,3182.885551,-995.924147
3263.119214,-10362.883188,2516.700203,-536.266849
3263.119551,-9548.656652,296.082377,0.000000
3263.119889,-7846.182985,370.102971,842.705048
3263.120226,-9030.512492,74.020594,1685.410096
3263.120564,-11103.089130,0.000000,766.095498
3263.120901,-11251.130318,222.061783,-2987.772442
3263.121239,-10362.883188,222.061783,-3447.429741
3263.121576,-9992.780217,-1776.494261,-2068.457845
3263.121913,-8512.368333,-1110.308913,-1072.533697
3263.122251,-8142.265362,-2516.700203,1378.971896
3263.122588,-9918.759623,-2072.576638,1762.019645
3263.122926,-11325.150913,-1628.453072,229.828649
3263.123263,-12213.398043,-370.102971,-76.609550
3263.123601,-11177.109724,-444.123565,76.609550
3263.123938,-10584.944971,-1924.535449,842.705048
3263.124275,-9178.553681,-2072.576638,1608.800546
3263.124613,-8068.244768,-1850.514855,2911.162892
3263.124950,-10140.821405,-1702.473667,2834.553343
3263.125288,-12435.459826,-518.144159,459.657299
3263.125625,-11695.253884,814.226536,-2145.067394
3263.125963,-10807.006753,74.020594,-2145.067394
3263.126300,-9326.594869,-740.205942,-1532.190996
3263.126638,-7031.956449,-1924.535449,0.000000
3263.126975,-8142.265362,-1110.308913,2374.896044
3263.127312,-10288.862594,-518.144159,766.095498
3263.127650,-11843.295072,0.000000,-1608.800546
3263.127987,-11621.233289,1184.329507,-1685.410096
3263.128325,-11103.089130,-666.185348,-612.876398
3263.128662,-9178.553681,-1406.391290,-153.219100
3263.129000,-7920.203579,-1776.494261,1378.971896
3263.129337,-8734.430116,-888.247130,3600.648841
3263.129674,-10881.027347,-814.226536,2374.896044
3263.130012,-12139.377449,444.123565,459.657299
3263.130349,-11621.233289,1554.432478,-153.219100
3263.130687,-10807.006753,370.102971,919.314598
3263.131024,-9326.594869,0.000000,1302.362347
3263.131362,-7772.162391,296.082377,2451.505594
3263.131699,-9104.533087,74.020594,2987.772442
3263.132037,-10807.006753,1110.308913,919.314598
3263.132374,-11843.295072,1406.391290,-536.266849
3263.132711,-10288.862594,1998.556043,-766.095498
3263.133049,-9844.739029,518.144159,-1302.362347
3263.133386,-8956.491898,-814.226536,689.485948
3263.133724,-7846.182985,-1184.329507,689.485948
3263.134061,-9104.533087,-1110.308913,1455.581446
3263.134399,-11399.171507,0.000000,-842.705048
3263.134736,-11103.089130,888.247130,-3064.381992
3263.135073,-11029.068536,-370.102971,-3447.429741
3263.135411,-10066.800811,-2220.617826,-1915.238745
3263.135748,-7846.182985,-2220.617826,-306.438199
3263.136086,-8216.285956,-2146.597232,1225.752797
3263.136423,-10658.965565,-1924.535449,153.219100
3263.136761,-11029.068536,-1036.288319,-1532.190996
3263.137098,-11695.253884,-222.061783,-995.924147
3263.137436,-11029.068536,-814.226536,0.000000
3263.137773,-10140.821405,-1480.411884,1072.533697
3263.138110,-9252.574275,-1110.308913,2987.772442
3263.138448,-9178.553681,-444.123565,3907.087040
3263.138785,-10732.986159,518.144159,2757.943793
3263.139123,-12139.377449,1406.391290,-306.438199
3263.139460,-11769.274478,2368.659014,-1302.362347
3263.139798,-10807.006753,962.267725,-1149.143247
3263.140135,-8882.471304,518.144159,0.000000
3263.140472,-7105.977043,148.041188,383.047749
3263.140810,-8512.368333,518.144159,995.924147
3263.141147,-10732.986159,740.205942,229.828649
3263.141485,-10362.883188,1702.473667,-1608.800546
3263.141822,-9844.739029,2072.576638,-1532.190996
3263.142160,-9844.739029,-222.061783,0.000000
3263.142497,-9030.512492,-1036.288319,1072.533697
3263.142835,-7624.121203,-888.247130,2298.286494
3263.143172,-9622.677246,-222.061783,3370.820191
3263.143509,-11325.150913,518.144159,1072.533697
3263.143847,-12139.377449,444.123565,-1302.362347
3263.144184,-10658.965565,74.020594,-995.924147
3263.144522,-9548.656652,-1258.350101,0.000000
3263.144859,-8216.285956,-888.247130,1149.143247
3263.145197,-8734.430116,-296.082377,2145.067394
3263.145534,-10436.903782,-1110.308913,1378.971896
3263.145871,-11325.150913,518.144159,-766.095498
3263.146209,-11177.109724,1480.411884,-306.438199
3263.146546,-11103.089130,592.164754,536.266849
3263.146884,-10510.924376,-888.247130,612.876398
3263.147221,-9252.574275,-1406.391290,919.314598
3263.147559,-8956.491898,-1184.329507,2298.286494
3263.147896,-10436.903782,-1554.432478,1225.752797
3263.148234,-11325.150913,-1036.288319,-1072.533697
3263.148571,-10881.027347,-370.102971,-2451.505594
3263.148908,-10658.965565,-1258.350101,-2068.457845
3263.149246,-9474.636058,-2442.679609,-2221.676944
3263.149583,-7624.121203,-2442.679609,-153.219100
3263.149921,-8438.347739,-2516.700203,689.485948
3263.150258,-10881.027347,-1776.494261,0.000000
3263.150596,-10955.047942,-518.144159,-919.314598
3263.150933,-10807.006753,-296.082377,-306.438199
3263.151270,-10288.862594,-1332.370696,919.314598
3263.151608,-9622.677246,-1998.556043,1225.752797
3263.151945,-8882.471304,-1258.350101,3677.258390
3263.152283,-9696.697840,-666.185348,3600.648841
3263.152620,-10658.965565,592.164754,1455.581446
3263.152958,-11325.150913,2220.617826,-459.657299
3263.153295,-10732.986159,1480.411884,-536.266849
3263.153633,-10140.821405,444.123565,-306.438199
3263.153970,-8808.450710,1480.411884,383.047749
3263.154307,-8216.285956,1036.288319,995.924147
3263.154645,-9844.739029,1258.350101,306.438199
3263.154982,-11251.130318,1258.350101,-1532.190996
3263.155320,-9992.780217,1776.494261,-2374.896044
3263.155657,-10436.903782,666.185348,-1072.533697
3263.155995,-10584.944971,-222.061783,-229.828649
3263.156332,-8882.471304,-1554.432478,-612.876398
3263.156669,-8512.368333,-1184.329507,1532.190996
3263.157007,-9844.739029,-1258.350101,1302.362347
3263.157344,-10658.965565,-666.185348,-459.657299
3263.157682,-10955.047942,0.000000,-1072.533697
3263.158019,-10955.047942,-1332.370696,0.000000
3263.158357,-9400.615463,-1406.391290,459.657299
3263.158694,-8660.409521,-962.267725,1072.533697
3263.159032,-10436.903782,-1258.350101,2528.115143
3263.159369,-11103.089130,-1110.308913,842.705048
3263.159707,-11103.089130,370.102971,-536.266849
3263.160044,-10140.821405,666.185348,229.828649
3263.160381,-10288.862594,-888.247130,76.609550
3263.160719,-9992.780217,-592.164754,995.924147
3263.161056,-8956.491898,-1110.308913,1532.190996
3263.161394,-9770.718434,74.020594,2068.457845
3263.161731,-11769.274478,0.000000,76.609550
3263.162069,-11325.150913,1258.350101,-1378.971896
3263.162406,-10362.883188,0.000000,-1072.533697
3263.162744,-9400.615463,-814.226536,-842.705048
3263.163081,-8438.347739,0.000000,-306.438199
3263.163419,-8734.430116,-814.226536,459.657299
3263.163756,-10362.883188,-1406.391290,536.266849
3263.164093,-11325.150913,-444.123565,-995.924147
3263.164431,-10362.883188,962.267725,-383.047749
3263.164768,-10066.800811,444.123565,766.095498
3263.165106,-9770.718434,-592.164754,919.314598
3263.165443,-8660.409521,-814.226536,2221.676944
3263.165781,-8882.471304,0.000000,3064.381992
3263.166118,-10436.903782,444.123565,3064.381992
3263.166456,-11473.192101,1258.350101,306.438199
3263.166793,-11325.150913,1776.494261,0.000000
3263.167130,-10140.821405,962.267725,-995.924147
3263.167468,-9104.533087,962.267725,-153.219100
3263.167805,-8216.285956,1110.308913,612.876398
3263.168143,-8956.491898,0.000000,306.438199
3263.168480,-11029.068536,444.123565,-459.657299
3263.168818,-10436.903782,962.267725,-2221.676944
3263.169155,-10066.800811,518.144159,-1532.190996
3263.169493,-10214.842000,-370.102971,-612.876398
3263.169830,-9918.759623,-1480.411884,-383.047749
3263.170168,-8882.471304,-1332.370696,0.000000
3263.170505,-9548.656652,-1776.494261,766.095498
3263.170842,-11251.130318,-2072.576638,-612.876398
3263.171180,-11325.150913,-1850.514855,-2145.067394
3263.171517,-10584.944971,-2220.617826,-1532.190996
3263.171855,-10214.842000,-2294.638420,-995.924147
3263.172192,-8068.244768,-2812.782580,0.000000
3263.172530,-8586.388927,-2072.576638,995.924147
3263.172867,-10881.027347,-2368.659014,1838.629195
3263.173205,-10807.006753,-888.247130,1149.143247
3263.173542,-11177.109724,0.000000,919.314598
3263.173880,-11103.089130,0.000000,1685.410096
3263.174217,-9918.759623,-962.267725,2145.067394
3263.174554,-9548.656652,-592.164754,2987.772442
3263.174892,-9030.512492,-296.082377,3907.087040
3263.175229,-10584.944971,518.144159,2757.943793
3263.175567,-11991.336260,1480.411884,153.219100
3263.175904,-11029.068536,1850.514855,-2451.505594
3263.176242,-10140.821405,1554.432478,-1838.629195
3263.176579,-9178.553681,-370.102971,-1532.190996
3263.176917,-7920.203579,222.061783,-229.828649
3263.177254,-8660.409521,888.247130,536.266849
3263.177592,-10362.883188,0.000000,0.000000
3263.177929,-10066.800811,444.123565,-995.924147
3263.178266,-9696.697840,888.247130,0.000000
3263.178604,-10658.965565,444.123565,1991.848295
3263.178941,-10362.883188,-592.164754,1685.410096
3263.179279,-8956.491898,-740.205942,2221.676944
3263.179616,-8956.491898,-370.102971,3140.991542
3263.179954,-10436.903782,-666.185348,766.095498
3263.180291,-10436.903782,518.144159,-459.657299
3263.180629,-9918.759623,0.000000,-1225.752797
3263.180966,-9548.656652,-1110.308913,-919.314598
3263.181304,-7698.141797,148.041188,-306.438199
3263.181641,-8364.327145,-444.123565,1608.800546
3263.181978,-10436.903782,0.000000,1762.019645
3263.182316,-11325.150913,0.000000,-919.314598
3263.182653,-11251.130318,2368.659014,-995.924147
3263.182991,-11103.089130,666.185348,-536.266849
3263.183328,-10955.047942,-1036.288319,-229.828649
3263.183666,-9548.656652,-1776.494261,-229.828649
3263.184003,-9252.574275,-2072.576638,383.047749
3263.184341,-9696.697840,-1258.350101,536.266849
3263.184678,-11769.274478,-1554.432478,-1685.410096
3263.185016,-10807.006753,-740.205942,-2911.162892
3263.185353,-10436.903782,-1776.494261,-2834.553343
3263.185690,-9622.677246,-1776.494261,-995.924147
3263.186028,-7846.182985,-1332.370696,76.609550
3263.186365,-9474.636058,-1628.453072,1915.238745
3263.186703,-11029.068536,-1258.350101,1302.362347
3263.187040,-10584.944971,0.000000,689.485948
3263.187378,-10732.986159,1332.370696,2298.286494
3263.187715,-11251.130318,0.000000,2374.896044
3263.188053,-9696.697840,0.000000,2221.676944
3263.188390,-8882.471304,666.185348,2987.772442
3263.188728,-9400.615463,740.205942,3217.601092
3263.189065,-10881.027347,1184.329507,1532.190996
3263.189402,-11103.089130,2812.782580,-842.705048
3263.189740,-10510.924376,2516.700203,-1838.629195
3263.190077,-9474.636058,1332.370696,-1532.190996
3263.190415,-7846.182985,1776.494261,-1072.533697
3263.190752,-8290.306550,148.041188,842.705048
3263.191090,-9844.739029,296.082377,612.876398
3263.191427,-10362.883188,0.000000,-1149.143247
3263.191765,-10584.944971,74.020594,-612.876398
3263.192102,-10214.842000,370.102971,153.219100
3263.192440,-10362.883188,-1850.514855,76.609550
3263.192777,-8734.430116,-2220.617826,919.314598
3263.193114,-8364.327145,-1258.350101,2298.286494
3263.193452,-10658.965565,-1702.473667,2528.115143
3263.193789,-11843.295072,-444.123565,-383.047749
3263.194127,-11029.068536,-592.164754,-1302.362347
3263.194464,-11547.212695,-592.164754,-76.609550
3263.194802,-9178.553681,-1702.473667,-229.828649
3263.195139,-8216.285956,-1110.308913,1762.019645
3263.195477,-9548.656652,-1480.411884,2757.943793
3263.195814,-11177.109724,-1036.288319,1532.190996
3263.196152,-11695.253884,74.020594,-229.828649
3263.196489,-11325.150913,0.000000,0.000000
3263.196826,-10658.965565,-888.247130,766.095498
3263.197164,-9696.697840,-1776.494261,383.047749
3263.197501,-8512.368333,-1036.288319,1685.410096
3263.197839,-9178.553681,-1554.432478,2068.457845
3263.198176,-11029.068536,-814.226536,536.266849
3263.198514,-11769.274478,666.185348,-2068.457845
3263.198851,-10881.027347,-592.164754,-2451.505594
3263.199189,-10362.883188,-1110.308913,-1608.800546
3263.199526,-8290.306550,-1924.535449,-612.876398
3263.199864,-7698.141797,-962.267725,1608.800546
3263.200201,-9474.636058,-962.267725,1762.019645
3263.200538,-11695.253884,-74.020594,153.219100
3263.200876,-10807.006753,370.102971,-689.485948
3263.201213,-10658.965565,1110.308913,612.876398
3263.201551,-10510.924376,-148.041188,2221.676944
3263.201888,-9326.594869,222.061783,2451.505594
3263.202226,-8586.388927,296.082377,3830.477490
3263.202563,-10732.986159,1184.329507,2681.334243
3263.202901,-11325.150913,1406.391290,-459.657299
3263.203238,-11843.295072,2220.617826,-1685.410096
3263.203575,-10436.903782,740.205942,-2145.067394
3263.203913,-8882.471304,370.102971,-2221.676944
3263.204250,-7624.121203,-370.102971,-689.485948
3263.204588,-8068.244768,-666.185348,76.609550
3263.204925,-9622.677246,-962.267725,-459.657299
3263.205263,-10955.047942,370.102971,-1532.190996
3263.205600,-10584.944971,888.247130,-2221.676944
3263.205938,-11325.150913,-1184.329507,-1072.533697
3263.206275,-10436.903782,-1998.556043,76.609550
3263.206613,-8808.450710,-2664.741391,1378.971896
3263.206950,-9030.512492,-1998.556043,3064.381992
3263.207287,-11325.150913,-1998.556043,689.485948
3263.207625,-11621.233289,-1258.350101,-995.924147
3263.207962,-11103.089130,-1184.329507,-1685.410096
3263.208300,-10436.903782,-2220.617826,153.219100
3263.208637,-8586.388927,-962.267725,919.314598
3263.208975,-8956.491898,-814.226536,2528.115143
3263.209312,-10658.965565,-740.205942,2451.505594
3263.209650,-11325.150913,-370.102971,842.705048
3263.209987,-11029.068536,1776.494261,1225.752797
3263.210325,-11177.109724,1628.453072,1302.362347
3263.210662,-11251.130318,148.041188,1378.971896
3263.210999,-9696.697840,74.020594,842.705048
3263.211337,-8438.347739,518.144159,1532.190996
3263.211674,-9622.677246,74.020594,1302.362347
3263.212012,-10510.924376,814.226536,-919.314598
3263.212349,-10807.006753,1110.308913,-2451.505594
3263.212687,-9474.636058,740.205942,-2911.162892
3263.213024,-8438.347739,0.000000,-2681.334243
3263.213362,-7550.100608,74.020594,0.000000
3263.213699,-8438.347739,-518.144159,1149.143247
3263.214037,-10288.862594,0.000000,1991.848295
3263.214374,-11621.233289,1036.288319,76.609550
3263.214711,-10140.821405,1776.494261,-766.095498
3263.215049,-10584.944971,-592.164754,1302.362347
3263.215386,-10436.903782,-814.226536,2221.676944
3263.215724,-8216.285956,-296.082377,2604.724693
3263.216061,-9696.697840,0.000000,3447.429741
3263.216399,-11399.171507,148.041188,1149.143247
3263.216736,-11399.171507,962.267725,-1378.971896
3263.217074,-11029.068536,1332.370696,-1072.533697
3263.217411,-10214.842000,74.020594,-1225.752797
3263.217749,-8882.471304,-74.020594,-1378.971896
3263.218086,-8438.347739,-222.061783,459.657299
3263.218423,-9770.718434,-1110.308913,766.095498
3263.218761,-10955.047942,-518.144159,-229.828649
3263.219098,-10955.047942,-296.082377,-1915.238745
3263.219436,-10584.944971,-148.041188,-1149.143247
3263.219773,-10362.883188,-2590.720797,-1378.971896
3263.220111,-9104.533087,-2664.741391,0.000000
3263.220448,-8364.327145,-3478.967927,1838.629195
3263.220786,-9622.677246,-2294.638420,2528.115143
3263.221123,-11177.109724,-1554.432478,0.000000
3263.221461,-11399.171507,-666.185348,-1608.800546
3263.221798,-11177.109724,-1110.308913,-842.705048
3263.222135,-9474.636058,-2146.597232,153.219100
3263.222473,-8290.306550,-2294.638420,1685.410096
3263.222810,-8882.471304,-1258.350101,3217.601092
3263.223148,-11547.212695,-74.020594,3217.601092
3263.223485,-11991.336260,1480.411884,919.314598
3263.223823,-11325.150913,2072.576638,0.000000
3263.224160,-11547.212695,1554.432478,1455.581446
3263.224498,-10436.903782,222.061783,536.266849
3263.224835,-7994.224174,148.041188,1685.410096
3263.225173,-8364.327145,592.164754,2451.505594
3263.225510,-10066.800811,370.102971,766.095498
3263.225847,-11769.274478,1776.494261,-1685.410096
3263.226185,-11029.068536,1332.370696,-2834.553343
3263.226522,-9474.636058,518.144159,-2834.553343
3263.226860,-8364.327145,-666.185348,-1532.190996
3263.227197,-7402.059420,-962.267725,-153.219100
3263.227535,-8660.409521,-1850.514855,1149.143247
3263.227872,-10436.903782,-1110.308913,0.000000
3263.228210,-10066.800811,0.000000,-919.314598
3263.228547,-10436.903782,0.000000,-689.485948
3263.228885,-10732.986159,-1628.453072,306.438199
3263.229222,-9474.636058,-2664.741391,1455.581446
3263.229559,-8660.409521,-1850.514855,2987.772442
3263.229897,-9474.636058,-1110.308913,2987.772442
3263.230234,-12065.356855,0.000000,919.314598
3263.230572,-12509.480420,592.164754,-1225.752797
3263.230909,-11029.068536,0.000000,-1225.752797
3263.231247,-9696.697840,-1110.308913,-612.876398
3263.231584,-8216.285956,-1184.329507,842.705048
3263.231922,-8956.491898,-444.123565,2221.676944
3263.232259,-11695.253884,-740.205942,1072.533697
3263.232597,-10807.006753,666.185348,-1455.581446
3263.232934,-10807.006753,1480.411884,-1608.800546
3263.233271,-11547.212695,0.000000,153.219100
3263.233609,-10066.800811,-1480.411884,-153.219100
3263.233946,-7994.224174,-1628.453072,536.266849
3263.234284,-8438.347739,-1332.370696,2451.505594
3263.234621,-10584.944971,-740.205942,919.314598
3263.234959,-11843.295072,0.000000,-536.266849
3263.235296,-10955.047942,814.226536,-1838.629195
3263.235634,-9770.718434,-222.061783,-1225.752797
3263.235971,-8364.327145,-740.205942,76.609550
3263.236309,-7624.121203,-592.164754,2298.286494
3263.236646,-9474.636058,-888.247130,2911.162892
3263.236983,-10807.006753,1110.308913,1149.143247
3263.237321,-10658.965565,2294.638420,0.000000
3263.237658,-11103.089130,2886.803174,76.609550
3263.237996,-10732.986159,666.185348,842.705048
3263.238333,-8660.409521,370.102971,919.314598
3263.238671,-7846.182985,888.247130,1991.848295
3263.239008,-10066.800811,518.144159,2068.457845
3263.239346,-11177.109724,1184.329507,-1225.752797
3263.239683,-11029.068536,1332.370696,-2681.334243
3263.240020,-9548.656652,518.144159,-2374.896044
3263.240358,-8956.491898,-814.226536,-2604.724693
3263.240695,-8142.265362,-592.164754,-689.485948
3263.241033,-8956.491898,-1406.391290,766.095498
3263.241370,-10362.883188,-1850.514855,-306.438199
3263.241708,-11843.295072,-814.226536,-1608.800546
3263.242045,-11177.109724,592.164754,-1302.362347
3263.242383,-11325.150913,-1184.329507,-76.609550
3263.242720,-9918.759623,-2516.700203,459.657299
3263.243058,-8512.368333,-2664.741391,1838.629195
3263.243395,-9474.636058,-2146.597232,4136.915689
3263.243732,-10881.027347,-1850.514855,2604.724693
3263.244070,-12065.356855,-74.020594,689.485948
3263.244407,-11769.274478,518.144159,-383.047749
3263.244745,-10362.883188,-370.102971,-383.047749
3263.245082,-8438.347739,-1332.370696,842.705048
3263.245420,-7254.018232,-1184.329507,1685.410096
3263.245757,-9622.677246,-74.020594,2451.505594
3263.246095,-11399.171507,222.061783,459.657299
3263.246432,-10955.047942,1406.391290,-1608.800546
3263.246770,-10732.986159,1554.432478,842.705048
3263.247107,-10362.883188,-592.164754,0.000000
3263.247444,-8660.409521,-1036.288319,536.266849
3263.247782,-7402.059420,-1332.370696,2298.286494
3263.248119,-9474.636058,-592.164754,2145.067394
3263.248457,-11547.212695,444.123565,76.609550
3263.248794,-11251.130318,296.082377,-2145.067394
3263.249132,-9992.780217,-592.164754,-2374.896044
3263.249469,-9178.553681,-592.164754,-842.705048
3263.249807,-7994.224174,-370.102971,459.657299
3263.250144,-8512.368333,-888.247130,1149.143247
3263.250482,-10362.883188,-814.226536,1072.533697
3263.250819,-11843.295072,222.061783,459.657299
3263.251156,-11325.150913,1184.329507,229.828649
3263.251494,-10955.047942,444.123565,1455.581446
3263.251831,-10436.903782,-888.247130,995.924147
3263.252169,-8290.306550,-1184.329507,1915.238745
3263.252506,-8734.430116,-370.102971,2757.943793
3263.252844,-11251.130318,0.000000,1685.410096
