#time,accel_x,accel_y,accel_z
2950.226793,-9622.677246,-2146.597232,-306.438199
2950.227130,-9770.718434,-1776.494261,0.000000
2950.227468,-10066.800811,-1702.473667,153.219100
2950.227805,-10362.883188,-1110.308913,306.438199
2950.228142,-10436.903782,-1850.514855,842.705048
2950.228479,-10362.883188,-814.226536,689.485948
2950.228816,-10807.006753,-592.164754,1455.581446
2950.229154,-11177.109724,-370.102971,1685.410096
2950.229491,-10362.883188,-740.205942,1532.190996
2950.229828,-10955.047942,-370.102971,2221.676944
2950.230165,-10510.924376,-74.020594,1302.362347
2950.230502,-10288.862594,74.020594,995.924147
2950.230840,-10510.924376,296.082377,919.314598
2950.231177,-10288.862594,-148.041188,-229.828649
2950.231514,-9474.636058,296.082377,-153.219100
2950.231851,-9918.759623,222.061783,0.000000
2950.232189,-9622.677246,-296.082377,536.266849
2950.232526,-9030.512492,-592.164754,0.000000
2950.232863,-9770.718434,-370.102971,536.266849
2950.233200,-10362.883188,-518.144159,689.485948
2950.233537,-9474.636058,-444.123565,-229.828649
2950.233875,-9696.697840,-518.144159,383.047749
2950.234212,-10140.821405,-1776.494261,612.876398
2950.234549,-9770.718434,-222.061783,536.266849
2950.234886,-8956.491898,-666.185348,0.000000
2950.235223,-9696.697840,296.082377,689.485948
2950.235561,-10214.842000,0.000000,536.266849
2950.235898,-10955.047942,370.102971,0.000000
2950.236235,-10214.842000,1110.308913,459.657299
2950.236572,-10066.800811,592.164754,76.609550
2950.236909,-10436.903782,518.144159,-842.705048
2950.237247,-10510.924376,814.226536,-1378.971896
2950.237584,-9992.780217,-740.205942,-995.924147
2950.237921,-9844.739029,-592.164754,-689.485948
2950.238258,-9622.677246,-592.164754,-1608.800546
2950.238596,-10288.862594,-1036.288319,-2145.067394
2950.238933,-10362.883188,-1332.370696,-1915.238745
2950.239270,-9474.636058,-2516.700203,-2221.676944
2950.239607,-8956.491898,-2146.597232,-1685.410096
2950.239944,-10288.862594,-2442.679609,-995.924147
2950.240282,-10510.924376,-2516.700203,-2451.505594
2950.240619,-9918.759623,-3478.967927,-1991.848295
2950.240956,-9400.615463,-3478.967927,0.000000
2950.241293,-9474.636058,-2738.761985,689.485948
2950.241630,-11177.109724,-1776.494261,842.705048
2950.241968,-11621.233289,-1850.514855,-2298.286494
2950.242305,-10288.862594,-3404.947333,-1685.410096
2950.242642,-9548.656652,-2368.659014,-459.657299
2950.242979,-9918.759623,-1924.535449,1149.143247
2950.243316,-10881.027347,-814.226536,153.219100
2950.243654,-10584.944971,-1036.288319,-1225.752797
2950.243991,-9918.759623,-592.164754,-689.485948
2950.244328,-10066.800811,-888.247130,306.438199
2950.244665,-10436.903782,-592.164754,-153.219100
2950.245003,-11029.068536,-666.185348,-2145.067394
2950.245340,-10288.862594,-518.144159,-3983.696590
2950.245677,-9474.636058,-1702.473667,-3830.477490
2950.246014,-8586.388927,-2590.720797,-3447.429741
2950.246351,-7846.182985,-2886.803174,-1991.848295
2950.246689,-8290.306550,-2812.782580,-1378.971896
2950.247026,-9326.594869,-2220.617826,-2604.724693
2950.247363,-9474.636058,-1850.514855,-2451.505594
2950.247700,-10955.047942,-2072.576638,-2757.943793
2950.248037,-10510.924376,-2886.803174,-2987.772442
2950.248375,-9770.718434,-3034.844362,-3370.820191
2950.248712,-10214.842000,-4885.359217,-2068.457845
2950.249049,-9178.553681,-4811.338623,-2145.067394
2950.249386,-8290.306550,-5255.462188,-1302.362347
2950.249724,-8734.430116,-4293.194464,-919.314598
2950.250061,-10288.862594,-2738.761985,-1072.533697
2950.250398,-11621.233289,-2146.597232,-2451.505594
2950.250735,-11177.109724,-1998.556043,-4060.306139
2950.251072,-10881.027347,-2590.720797,-3447.429741
2950.251410,-11029.068536,-3775.050304,-2145.067394
2950.251747,-10436.903782,-4219.173869,-1685.410096
2950.252084,-9548.656652,-3108.864956,-1532.190996
2950.252421,-9696.697840,-3701.029710,-1838.629195
2950.252758,-9474.636058,-3849.070898,-2374.896044
2950.253096,-9770.718434,-4219.173869,-2681.334243
2950.253433,-9844.739029,-3627.009116,-1685.410096
2950.253770,-9474.636058,-2886.803174,-1072.533697
2950.254107,-9992.780217,-1258.350101,-1532.190996
2950.254444,-11473.192101,-666.185348,-2911.162892
2950.254782,-11695.253884,-3034.844362,-3217.601092
2950.255119,-10436.903782,-3923.091493,-2451.505594
2950.255456,-9474.636058,-4145.153275,-842.705048
2950.255793,-9104.533087,-2664.741391,-383.047749
2950.256131,-8808.450710,-3034.844362,-1608.800546
2950.256468,-9918.759623,-3404.947333,-1455.581446
2950.256805,-9696.697840,-2368.659014,-536.266849
2950.257142,-9400.615463,222.061783,-383.047749
2950.257479,-9326.594869,1554.432478,-153.219100
2950.257817,-11621.233289,888.247130,-536.266849
2950.258154,-12139.377449,814.226536,-383.047749
2950.258491,-11103.089130,1480.411884,-689.485948
2950.258828,-8512.368333,74.020594,-536.266849
2950.259165,-9252.574275,-1776.494261,766.095498
2950.259503,-9474.636058,-1184.329507,536.266849
2950.259840,-9030.512492,-814.226536,-2221.676944
2950.260177,-8364.327145,-888.247130,-2374.896044
2950.260514,-10288.862594,-1702.473667,-2145.067394
2950.260852,-11621.233289,-1332.370696,-4903.011187
2950.261189,-10658.965565,-1184.329507,-5132.839837
2950.261526,-8956.491898,-2146.597232,-2987.772442
2950.261863,-8438.347739,-2664.741391,-2451.505594
2950.262200,-9696.697840,-3627.009116,-2221.676944
2950.262538,-10214.842000,-4293.194464,-2221.676944
2950.262875,-9918.759623,-4811.338623,-1685.410096
2950.263212,-9030.512492,-4515.256246,-995.924147
2950.263549,-10214.842000,-3997.112087,459.657299
2950.263886,-11325.150913,-2960.823768,612.876398
2950.264224,-11029.068536,-1924.535449,-1532.190996
2950.264561,-11695.253884,-1480.411884,-3140.991542
2950.264898,-11547.212695,-2812.782580,-3447.429741
2950.265235,-9918.759623,-2516.700203,-3447.429741
2950.265572,-9696.697840,-2738.761985,-2374.896044
2950.265910,-8512.368333,-2220.617826,-2604.724693
2950.266247,-9844.739029,-2368.659014,-2451.505594
2950.266584,-11325.150913,-2368.659014,-1685.410096
2950.266921,-8512.368333,-1480.411884,-2834.553343
2950.267259,-10362.883188,-1332.370696,-766.095498
2950.267596,-11547.212695,-1184.329507,-842.705048
2950.267933,-10881.027347,-1628.453072,-2451.505594
2950.268270,-10955.047942,-1702.473667,-2911.162892
2950.268607,-9992.780217,-3034.844362,-3294.210641
2950.268945,-9548.656652,-2368.659014,-2681.334243
2950.269282,-8660.409521,-3256.906145,-2681.334243
2950.269619,-7624.121203,-3997.112087,-1915.238745
2950.269956,-8734.430116,-3108.864956,-689.485948
2950.270293,-8586.388927,-1554.432478,-383.047749
2950.270631,-10584.944971,370.102971,2221.676944
2950.270968,-11177.109724,222.061783,1608.800546
2950.271305,-11621.233289,740.205942,1991.848295
2950.271642,-11695.253884,1554.432478,1072.533697
2950.271980,-10732.986159,0.000000,612.876398
2950.272317,-10881.027347,-1702.473667,612.876398
2950.272654,-8660.409521,-2960.823768,-1762.019645
2950.272991,-8364.327145,-3404.947333,-1225.752797
2950.273328,-8290.306550,-3256.906145,-919.314598
2950.273666,-9104.533087,-2368.659014,-766.095498
2950.274003,-9326.594869,-1406.391290,-1225.752797
2950.274340,-10140.821405,296.082377,-995.924147
2950.274677,-11177.109724,-74.020594,0.000000
2950.275014,-12657.521608,0.000000,-1225.752797
2950.275352,-12731.542202,-2220.617826,-1915.238745
2950.275689,-10436.903782,-3552.988522,-3217.601092
2950.276026,-9178.553681,-6809.894666,-1225.752797
2950.276363,-6809.894666,-7328.038826,0.000000
2950.276700,-7772.162391,-5847.626942,153.219100
2950.277038,-7772.162391,-3849.070898,-1608.800546
2950.277375,-9400.615463,-2368.659014,-1302.362347
2950.277712,-11399.171507,-666.185348,-1608.800546
2950.278049,-12213.398043,296.082377,-229.828649
2950.278387,-13693.809927,814.226536,766.095498
2950.278724,-11251.130318,740.205942,153.219100
2950.279061,-9474.636058,-1554.432478,842.705048
2950.279398,-9474.636058,-1998.556043,3830.477490
2950.279735,-9400.615463,-2294.638420,2911.162892
2950.280073,-10362.883188,-962.267725,1838.629195
2950.280410,-10436.903782,0.000000,-1149.143247
2950.280747,-9770.718434,592.164754,-2528.115143
2950.281084,-9992.780217,2146.597232,-995.924147
2950.281421,-9400.615463,1924.535449,-1225.752797
2950.281759,-9844.739029,2590.720797,-306.438199
2950.282096,-10658.965565,2072.576638,383.047749
2950.282433,-11769.274478,2590.720797,-76.609550
2950.282770,-10955.047942,1628.453072,76.609550
2950.283108,-9474.636058,-370.102971,0.000000
2950.283445,-8586.388927,-1702.473667,1608.800546
2950.283782,-8512.368333,-2738.761985,459.657299
2950.284119,-7179.997637,-1554.432478,689.485948
2950.284456,-7994.224174,-1480.411884,153.219100
2950.284794,-10288.862594,296.082377,1072.533697
2950.285131,-11769.274478,2590.720797,153.219100
2950.285468,-10881.027347,3330.926739,459.657299
2950.285805,-9918.759623,3478.967927,1762.019645
2950.286142,-10288.862594,1554.432478,1072.533697
2950.286480,-11473.192101,-814.226536,1378.971896
2950.286817,-9178.553681,-2294.638420,536.266849
2950.287154,-8808.450710,-3627.009116,1838.629195
2950.287491,-9400.615463,-2738.761985,1838.629195
2950.287828,-10807.006753,-1702.473667,1225.752797
2950.288166,-10807.006753,148.041188,-842.705048
2950.288503,-9622.677246,2072.576638,-2987.772442
2950.288841,-11103.089130,2516.700203,-2528.115143
2950.289178,-12953.603985,1110.308913,-3140.991542
2950.289516,-11621.233289,-444.123565,-2757.943793
2950.289853,-10066.800811,-1554.432478,-1762.019645
2950.290191,-9252.574275,-3552.988522,1455.581446
2950.290528,-9030.512492,-3997.112087,3064.381992
2950.290866,-9326.594869,-3552.988522,2911.162892
2950.291203,-9474.636058,-2368.659014,1838.629195
2950.291541,-10066.800811,-1332.370696,-995.924147
2950.291878,-12065.356855,518.144159,-1455.581446
2950.292216,-10732.986159,518.144159,-1455.581446
2950.292553,-8216.285956,888.247130,-1072.533697
2950.292891,-8438.347739,814.226536,1762.019645
2950.293228,-9326.594869,592.164754,2604.724693
2950.293566,-9548.656652,1776.494261,2757.943793
2950.293903,-11029.068536,1702.473667,2911.162892
2950.294241,-12065.356855,444.123565,2221.676944
2950.294578,-11769.274478,0.000000,1072.533697
2950.294916,-10214.842000,-148.041188,766.095498
2950.295253,-7698.141797,-74.020594,766.095498
2950.295591,-8068.244768,0.000000,383.047749
2950.295928,-9696.697840,1924.535449,-766.095498
2950.296266,-11029.068536,3108.864956,-1455.581446
2950.296603,-11325.150913,2294.638420,-2221.676944
2950.296941,-10510.924376,962.267725,-1991.848295
2950.297278,-10955.047942,-962.267725,-689.485948
2950.297616,-10436.903782,-2590.720797,1072.533697
2950.297953,-8068.244768,-3923.091493,1915.238745
2950.298291,-8290.306550,-4293.194464,1455.581446
2950.298628,-9770.718434,-3256.906145,459.657299
2950.298966,-10658.965565,-1998.556043,0.000000
2950.299303,-9770.718434,-1406.391290,-1149.143247
2950.299641,-9770.718434,-1258.350101,-612.876398
2950.299978,-10288.862594,148.041188,383.047749
2950.300316,-10584.944971,-444.123565,76.609550
2950.300653,-10881.027347,-1036.288319,536.266849
2950.300991,-10732.986159,-2146.597232,229.828649
2950.301328,-10881.027347,-2664.741391,1838.629195
2950.301666,-10288.862594,-2368.659014,1991.848295
2950.302003,-9252.574275,-2812.782580,1685.410096
2950.302341,-9178.553681,-2590.720797,0.000000
2950.302678,-10288.862594,-1406.391290,-1149.143247
2950.303016,-10362.883188,222.061783,-2604.724693
2950.303353,-9844.739029,222.061783,-2987.772442
2950.303691,-10214.842000,-444.123565,-2298.286494
2950.304028,-10658.965565,-666.185348,-689.485948
2950.304366,-9770.718434,-148.041188,229.828649
2950.304703,-9622.677246,0.000000,2145.067394
2950.305041,-10658.965565,-1480.411884,2757.943793
2950.305378,-10881.027347,-444.123565,2834.553343
2950.305716,-11251.130318,0.000000,1225.752797
2950.306053,-9400.615463,296.082377,1532.190996
2950.306391,-8586.388927,0.000000,1378.971896
2950.306728,-9030.512492,962.267725,383.047749
2950.307066,-9400.615463,2664.741391,306.438199
2950.307403,-9252.574275,3997.112087,766.095498
2950.307741,-10807.006753,3923.091493,1302.362347
2950.308078,-11917.315666,2886.803174,1225.752797
2950.308416,-11251.130318,1850.514855,306.438199
2950.308753,-10066.800811,962.267725,1225.752797
2950.309091,-8586.388927,-1554.432478,919.314598
2950.309428,-8956.491898,-2072.576638,1685.410096
2950.309766,-8142.265362,-888.247130,995.924147
2950.310103,-7920.203579,74.020594,0.000000
2950.310441,-9548.656652,1036.288319,-2145.067394
2950.310778,-11621.233289,1110.308913,-2451.505594
2950.311116,-11325.150913,814.226536,-3753.867940
2950.311453,-10288.862594,-666.185348,-2451.505594
2950.311791,-9992.780217,-1776.494261,-536.266849
2950.312128,-10140.821405,-3775.050304,1149.143247
2950.312466,-9548.656652,-2960.823768,1302.362347
2950.312803,-9030.512492,-2368.659014,1991.848295
2950.313141,-9696.697840,-2368.659014,2604.724693
2950.313478,-11991.336260,-1258.350101,1838.629195
2950.313816,-12509.480420,-296.082377,-306.438199
2950.314153,-11029.068536,592.164754,-1225.752797
2950.314491,-9770.718434,74.020594,-919.314598
2950.314828,-10214.842000,0.000000,1455.581446
2950.315166,-9696.697840,666.185348,689.485948
2950.315503,-9548.656652,74.020594,1149.143247
2950.315841,-10584.944971,222.061783,1302.362347
2950.316178,-11251.130318,148.041188,383.047749
2950.316516,-11029.068536,74.020594,-153.219100
2950.316853,-9030.512492,-592.164754,-919.314598
2950.317191,-8216.285956,-222.061783,-689.485948
2950.317528,-8364.327145,-444.123565,-383.047749
2950.317866,-8512.368333,222.061783,-766.095498
2950.318203,-8438.347739,0.000000,0.000000
2950.318541,-9992.780217,148.041188,229.828649
2950.318878,-10881.027347,888.247130,689.485948
2950.319216,-11103.089130,0.000000,689.485948
2950.319553,-9400.615463,-814.226536,1915.238745
2950.319891,-8882.471304,-1702.473667,1608.800546
2950.320228,-10510.924376,-1184.329507,2374.896044
2950.320566,-10362.883188,-222.061783,1072.533697
2950.320903,-9918.759623,-370.102971,612.876398
2950.321241,-10140.821405,518.144159,766.095498
2950.321578,-10584.944971,888.247130,383.047749
2950.321916,-10807.006753,1110.308913,-459.657299
2950.322253,-9696.697840,0.000000,153.219100
2950.322591,-9918.759623,0.000000,0.000000
2950.322928,-11473.192101,-1628.453072,306.438199
2950.323266,-10955.047942,-2146.597232,383.047749
2950.323603,-9104.533087,-1480.411884,383.047749
2950.323941,-9696.697840,-2368.659014,459.657299
2950.324278,-10140.821405,-2146.597232,-612.876398
2950.324616,-9696.697840,-1332.370696,-2451.505594
2950.324953,-9844.739029,-1850.514855,-2911.162892
2950.325291,-8882.471304,-2146.597232,-2987.772442
2950.325628,-10362.883188,-2738.761985,-536.266849
2950.325966,-10362.883188,-1554.432478,536.266849
2950.326303,-9622.677246,-1258.350101,1302.362347
2950.326641,-10732.986159,-1554.432478,2374.896044
2950.326978,-10955.047942,-1850.514855,919.314598
2950.327316,-11325.150913,-1480.411884,1991.848295
2950.327653,-10732.986159,-592.164754,1302.362347
2950.327991,-9178.553681,-444.123565,1532.190996
2950.328328,-9918.759623,740.205942,1838.629195
2950.328666,-9548.656652,1332.370696,612.876398
2950.329003,-9992.780217,3478.967927,536.266849
2950.329341,-10732.986159,2294.638420,919.314598
2950.329678,-11399.171507,2368.659014,766.095498
2950.330016,-11029.068536,2960.823768,1225.752797
2950.330353,-10362.883188,1924.535449,459.657299
2950.330691,-8364.327145,814.226536,766.095498
2950.331028,-8364.327145,518.144159,842.705048
2950.331366,-8734.430116,888.247130,766.095498
2950.331703,-8586.388927,1702.473667,-1072.533697
2950.332041,-9474.636058,814.226536,-1149.143247
2950.332378,-10066.800811,370.102971,-2068.457845
2950.332716,-9992.780217,222.061783,-1685.410096
2950.333053,-9178.553681,888.247130,-383.047749
2950.333391,-8882.471304,-666.185348,842.705048
2950.333728,-9178.553681,-1628.453072,1225.752797
2950.334066,-9770.718434,-2072.576638,1762.019645
2950.334403,-11177.109724,-962.267725,2221.676944
2950.334741,-10584.944971,-1924.535449,2298.286494
2950.335078,-10955.047942,-1480.411884,1302.362347
2950.335416,-11325.150913,-444.123565,1378.971896
2950.335753,-10436.903782,444.123565,-459.657299
2950.336091,-10066.800811,0.000000,-842.705048
2950.336428,-10436.903782,-444.123565,0.000000
2950.336766,-10881.027347,148.041188,229.828649
2950.337103,-10881.027347,222.061783,-459.657299
2950.337441,-11177.109724,-1110.308913,689.485948
2950.337778,-10288.862594,-740.205942,-536.266849
2950.338116,-10288.862594,-1998.556043,0.000000
2950.338453,-9844.739029,-1184.329507,0.000000
2950.338791,-8438.347739,-1332.370696,-919.314598
2950.339128,-9252.574275,-1184.329507,-766.095498
2950.339466,-10510.924376,-1110.308913,-459.657299
2950.339803,-9622.677246,-888.247130,-1072.533697
2950.340141,-9548.656652,222.061783,153.219100
2950.340478,-9622.677246,-1184.329507,0.000000
2950.340816,-9548.656652,-518.144159,995.924147
2950.341153,-9474.636058,-370.102971,1072.533697
2950.341491,-9548.656652,-518.144159,1991.848295
2950.341828,-10140.821405,0.000000,1991.848295
2950.342166,-10362.883188,296.082377,1991.848295
2950.342503,-10140.821405,1480.411884,1225.752797
2950.342841,-9622.677246,1406.391290,1378.971896
2950.343178,-9992.780217,2368.659014,1532.190996
2950.343516,-10732.986159,1554.432478,689.485948
2950.343853,-10362.883188,3182.885551,-612.876398
2950.344191,-10584.944971,2294.638420,-229.828649
2950.344528,-10362.883188,1184.329507,-612.876398
2950.344866,-10140.821405,-518.144159,0.000000
2950.345203,-9548.656652,0.000000,536.266849
2950.345541,-9992.780217,-370.102971,612.876398
2950.345878,-9992.780217,-370.102971,-842.705048
2950.346216,-10140.821405,-1036.288319,-1455.581446
2950.346553,-9622.677246,-888.247130,-995.924147
2950.346891,-8734.430116,-1628.453072,-766.095498
2950.347228,-8956.491898,-1036.288319,0.000000
2950.347566,-10140.821405,-1258.350101,-153.219100
2950.347903,-10214.842000,-1628.453072,-536.266849
2950.348241,-10214.842000,-2072.576638,612.876398
2950.348578,-10288.862594,-1924.535449,842.705048
2950.348916,-10658.965565,-1110.308913,995.924147
2950.349253,-10214.842000,-1924.535449,1378.971896
2950.349591,-9474.636058,0.000000,766.095498
2950.349928,-9400.615463,-518.144159,689.485948
2950.350266,-10955.047942,666.185348,1149.143247
2950.350603,-11029.068536,1258.350101,229.828649
2950.350941,-11399.171507,1258.350101,306.438199
2950.351278,-10140.821405,1036.288319,-153.219100
2950.351616,-9918.759623,518.144159,0.000000
2950.351953,-10214.842000,222.061783,459.657299
2950.352291,-8660.409521,-740.205942,-229.828649
2950.352628,-9252.574275,-148.041188,229.828649
2950.352966,-10288.862594,444.123565,459.657299
2950.353303,-10362.883188,888.247130,-995.924147
2950.353641,-9474.636058,1184.329507,-995.924147
2950.353978,-9696.697840,222.061783,-383.047749
2950.354316,-10436.903782,0.000000,0.000000
2950.354653,-9622.677246,518.144159,536.266849
2950.354991,-8808.450710,592.164754,1915.238745
2950.355328,-9474.636058,0.000000,1915.238745
2950.355666,-10214.842000,0.000000,1685.410096
2950.356003,-10732.986159,518.144159,1838.629195
2950.356341,-10362.883188,148.041188,1608.800546
2950.356678,-9548.656652,0.000000,919.314598
2950.357016,-10066.800811,74.020594,842.705048
2950.357353,-10436.903782,0.000000,1072.533697
2950.357691,-9326.594869,888.247130,153.219100
2950.358028,-9400.615463,0.000000,306.438199
2950.358366,-10658.965565,592.164754,1149.143247
2950.358703,-11177.109724,222.061783,0.000000
2950.359041,-10510.924376,0.000000,-229.828649
2950.359378,-10214.842000,-962.267725,-612.876398
2950.359716,-10362.883188,-1480.411884,-229.828649
2950.360053,-9918.759623,-1924.535449,-995.924147
2950.360391,-9326.594869,-2146.597232,-689.485948
2950.360728,-9030.512492,-2442.679609,-536.266849
2950.361066,-9696.697840,-2886.803174,0.000000
2950.361403,-10732.986159,-1036.288319,0.000000
2950.361741,-11029.068536,-592.164754,-536.266849
2950.362078,-10288.862594,-814.226536,-229.828649
2950.362416,-10288.862594,-1924.535449,689.485948
2950.362753,-10584.944971,-1628.453072,2374.896044
2950.363091,-10362.883188,-888.247130,2987.772442
2950.363428,-9992.780217,-962.267725,2528.115143
2950.363766,-9918.759623,0.000000,1991.848295
2950.364103,-10658.965565,444.123565,1685.410096
2950.364441,-10955.047942,2146.597232,766.095498
2950.364778,-9918.759623,1406.391290,-612.876398
2950.365116,-10510.924376,1332.370696,-153.219100
2950.365453,-10066.800811,962.267725,-995.924147
2950.365791,-9252.574275,1850.514855,-995.924147
2950.366128,-8586.388927,296.082377,76.609550
2950.366466,-9400.615463,814.226536,1608.800546
2950.366803,-10140.821405,1406.391290,842.705048
2950.367141,-9918.759623,1850.514855,-1838.629195
2950.367478,-9252.574275,-370.102971,-1608.800546
2950.367816,-9992.780217,-1036.288319,-766.095498
2950.368153,-9622.677246,-1850.514855,-766.095498
2950.368491,-8512.368333,-444.123565,689.485948
2950.368828,-8586.388927,-888.247130,1225.752797
2950.369166,-9844.739029,-148.041188,919.314598
2950.369503,-11251.130318,296.082377,536.266849
2950.369841,-11547.212695,148.041188,612.876398
2950.370178,-10807.006753,296.082377,689.485948
2950.370516,-11325.150913,-666.185348,306.438199
2950.370853,-10807.006753,-740.205942,919.314598
2950.371191,-8808.450710,-148.041188,1225.752797
2950.371528,-9326.594869,-370.102971,2221.676944
2950.371866,-10362.883188,592.164754,1455.581446
2950.372203,-12139.377449,814.226536,229.828649
2950.372541,-11473.192101,1850.514855,-689.485948
2950.372878,-11399.171507,222.061783,-76.609550
2950.373216,-11251.130318,-518.144159,-536.266849
2950.373553,-9770.718434,-1258.350101,-536.266849
2950.373891,-8438.347739,-1184.329507,689.485948
2950.374228,-7772.162391,-1850.514855,459.657299
2950.374566,-9400.615463,-1332.370696,383.047749
2950.374903,-10510.924376,-1036.288319,459.657299
2950.375241,-9400.615463,370.102971,-689.485948
2950.375578,-9474.636058,-148.041188,-842.705048
2950.375916,-10436.903782,-814.226536,-995.924147
2950.376253,-8734.430116,-888.247130,-383.047749
2950.376591,-8142.265362,-1998.556043,1455.581446
2950.376928,-8882.471304,-1998.556043,3064.381992
2950.377266,-9696.697840,-74.020594,3140.991542
2950.377603,-11843.295072,1480.411884,2528.115143
2950.377941,-10881.027347,1998.556043,306.438199
2950.378278,-10510.924376,1184.329507,459.657299
2950.378616,-10881.027347,1258.350101,919.314598
2950.378953,-11325.150913,888.247130,1149.143247
2950.379291,-9844.739029,444.123565,-306.438199
2950.379628,-9474.636058,962.267725,-612.876398
2950.379966,-9844.739029,592.164754,-459.657299
2950.380303,-10584.944971,592.164754,0.000000
2950.380641,-10214.842000,740.205942,-766.095498
2950.380978,-10066.800811,-592.164754,-919.314598
2950.381316,-10658.965565,-518.144159,-1762.019645
2950.381653,-10362.883188,-1480.411884,-2221.676944
2950.381991,-8808.450710,-1776.494261,-1915.238745
2950.382328,-8660.409521,-3404.947333,0.000000
2950.382666,-8808.450710,-2146.597232,1149.143247
2950.383003,-9992.780217,-1480.411884,1149.143247
2950.383341,-9918.759623,-592.164754,689.485948
2950.383678,-10214.842000,-1406.391290,0.000000
2950.384016,-11251.130318,-2146.597232,766.095498
2950.384353,-11399.171507,-1850.514855,612.876398
2950.384691,-9326.594869,-2146.597232,919.314598
2950.385028,-8438.347739,-1480.411884,1302.362347
2950.385366,-8586.388927,-370.102971,1608.800546
2950.385703,-11251.130318,1110.308913,1608.800546
2950.386041,-11399.171507,1702.473667,0.000000
2950.386378,-11103.089130,1702.473667,0.000000
2950.386716,-11473.192101,1036.288319,766.095498
2950.387053,-11917.315666,518.144159,0.000000
2950.387391,-9474.636058,222.061783,0.000000
2950.387728,-8882.471304,-666.185348,842.705048
2950.388066,-8734.430116,-518.144159,1072.533697
2950.388403,-10288.862594,370.102971,919.314598
2950.388741,-10140.821405,666.185348,-383.047749
2950.389078,-9400.615463,74.020594,-766.095498
2950.389416,-10807.006753,-666.185348,-689.485948
2950.389753,-10807.006753,-666.185348,-1072.533697
2950.390091,-8364.327145,0.000000,-842.705048
2950.390428,-7772.162391,-1184.329507,612.876398
2950.390765,-8586.388927,-1332.370696,2298.286494
2950.391103,-10140.821405,-296.082377,2604.724693
2950.391440,-10807.006753,666.185348,2528.115143
2950.391777,-11103.089130,666.185348,995.924147
2950.392115,-10807.006753,0.000000,689.485948
2950.392452,-10955.047942,0.000000,306.438199
2950.392790,-8882.471304,-666.185348,76.609550
2950.393127,-8290.306550,-592.164754,536.266849
2950.393464,-9474.636058,-444.123565,536.266849
2950.393802,-11325.150913,222.061783,-383.047749
2950.394139,-10955.047942,1110.308913,-1608.800546
2950.394476,-10881.027347,1184.329507,-1838.629195
2950.394814,-10510.924376,-518.144159,-1838.629195
2950.395151,-10658.965565,-814.226536,-2374.896044
2950.395488,-9548.656652,-2368.659014,-1302.362347
2950.395826,-9474.636058,-1850.514855,-689.485948
2950.396163,-9178.553681,-2442.679609,-612.876398
2950.396500,-11177.109724,-2146.597232,995.924147
2950.396838,-10732.986159,-740.205942,0.000000
2950.397175,-10140.821405,0.000000,-153.219100
2950.397513,-10807.006753,-1036.288319,383.047749
2950.397850,-11029.068536,-1258.350101,383.047749
2950.398187,-10214.842000,-1184.329507,536.266849
2950.398525,-8956.491898,-888.247130,1685.410096
2950.398862,-9252.574275,-1332.370696,2374.896044
2950.399199,-10362.883188,0.000000,2604.724693
2950.399537,-9770.718434,1184.329507,2068.457845
2950.399874,-9252.574275,1628.453072,1225.752797
2950.400211,-10214.842000,1628.453072,536.266849
2950.400549,-11399.171507,1554.432478,0.000000
2950.400886,-10214.842000,1332.370696,-995.924147
2950.401223,-9030.512492,666.185348,0.000000
2950.401561,-8438.347739,-518.144159,689.485948
2950.401898,-9326.594869,222.061783,1455.581446
2950.402236,-9992.780217,518.144159,1302.362347
2950.402573,-10066.800811,1554.432478,229.828649
2950.402910,-10807.006753,740.205942,-612.876398
2950.403248,-11547.212695,0.000000,-766.095498
2950.403585,-11103.089130,-962.267725,-995.924147
2950.403922,-9030.512492,-1480.411884,0.000000
2950.404260,-8142.265362,-2146.597232,689.485948
2950.404597,-9400.615463,-1776.494261,1532.190996
2950.404934,-10362.883188,-740.205942,919.314598
2950.405272,-10436.903782,296.082377,842.705048
2950.405609,-11769.274478,740.205942,153.219100
2950.405946,-12583.501014,-148.041188,0.000000
2950.406284,-11695.253884,-222.061783,0.000000
2950.406621,-9104.533087,-1554.432478,919.314598
2950.406959,-7920.203579,-1850.514855,1149.143247
2950.407296,-9474.636058,-740.205942,1685.410096
2950.407633,-10510.924376,148.041188,76.609550
2950.407971,-10140.821405,962.267725,-995.924147
2950.408308,-10732.986159,148.041188,-1302.362347
2950.408645,-10510.924376,0.000000,-2068.457845
2950.408983,-10436.903782,-1110.308913,-1915.238745
2950.409320,-9252.574275,-1924.535449,-919.314598
2950.409657,-8438.347739,-2146.597232,-995.924147
2950.409995,-8882.471304,-1258.350101,76.609550
2950.410332,-9474.636058,-1036.288319,0.000000
2950.410669,-9104.533087,-444.123565,536.266849
2950.411007,-10214.842000,-370.102971,76.609550
2950.411344,-11251.130318,-1184.329507,76.609550
2950.411682,-11473.192101,-592.164754,612.876398
2950.412019,-9844.739029,-740.205942,536.266849
2950.412356,-9104.533087,-1480.411884,1532.190996
2950.412694,-9400.615463,222.061783,1991.848295
2950.413031,-10288.862594,1110.308913,2451.505594
2950.413368,-10584.944971,1258.350101,1608.800546
2950.413706,-10214.842000,1702.473667,1685.410096
2950.414043,-11547.212695,2220.617826,1455.581446
2950.414380,-12361.439231,1480.411884,536.266849
2950.414718,-10436.903782,370.102971,-766.095498
2950.415055,-9104.533087,-444.123565,-306.438199
2950.415392,-8586.388927,-740.205942,919.314598
2950.415730,-8808.450710,-1110.308913,995.924147
2950.416067,-9178.553681,-296.082377,0.000000
2950.416405,-10140.821405,0.000000,-995.924147
2950.416742,-11029.068536,-444.123565,-1378.971896
2950.417079,-11399.171507,-2220.617826,-2298.286494
2950.417417,-9178.553681,-1628.453072,-1762.019645
2950.417754,-8438.347739,-3108.864956,-995.924147
2950.418091,-8438.347739,-3478.967927,995.924147
2950.418429,-9178.553681,-1702.473667,1225.752797
2950.418766,-9918.759623,-1036.288319,1225.752797
2950.419103,-11473.192101,-962.267725,1302.362347
2950.419441,-12287.418637,-1184.329507,383.047749
2950.419778,-11769.274478,-1258.350101,-459.657299
2950.420115,-10362.883188,-1628.453072,0.000000
2950.420453,-8512.368333,-1628.453072,76.609550
2950.420790,-8882.471304,-1184.329507,2298.286494
2950.421128,-10362.883188,0.000000,2068.457845
2950.421465,-10658.965565,1332.370696,612.876398
2950.421802,-12139.377449,2442.679609,76.609550
2950.422140,-11769.274478,1776.494261,-76.609550
2950.422477,-11399.171507,740.205942,-1838.629195
2950.422814,-9474.636058,666.185348,-1455.581446
2950.423152,-8364.327145,-592.164754,0.000000
2950.423489,-8216.285956,-1332.370696,153.219100
2950.423826,-9474.636058,-444.123565,0.000000
2950.424164,-9400.615463,518.144159,0.000000
2950.424501,-9844.739029,222.061783,76.609550
2950.424838,-10362.883188,-444.123565,-383.047749
2950.425176,-10214.842000,148.041188,-536.266849
2950.425513,-8364.327145,-222.061783,-689.485948
2950.425851,-8438.347739,-518.144159,0.000000
2950.426188,-9548.656652,-1184.329507,766.095498
2950.426525,-10436.903782,-444.123565,766.095498
2950.426863,-9548.656652,814.226536,1302.362347
2950.427200,-10584.944971,1628.453072,1302.362347
2950.427537,-10955.047942,1036.288319,1378.971896
2950.427875,-11843.295072,370.102971,919.314598
2950.428212,-10658.965565,-666.185348,229.828649
2950.428549,-9918.759623,0.000000,919.314598
2950.428887,-10066.800811,-370.102971,2145.067394
2950.429224,-10807.006753,-222.061783,1378.971896
2950.429561,-10066.800811,888.247130,383.047749
2950.429899,-9992.780217,1332.370696,-612.876398
2950.430236,-10881.027347,814.226536,-842.705048
2950.430574,-12139.377449,-370.102971,-1915.238745
2950.430911,-9992.780217,-1850.514855,-2987.772442
2950.431248,-9104.533087,-2368.659014,-1838.629195
2950.431586,-8660.409521,-2664.741391,0.000000
2950.431923,-8956.491898,-2960.823768,1455.581446
2950.432260,-8882.471304,-1480.411884,919.314598
2950.432598,-9474.636058,-1554.432478,1991.848295
2950.432935,-11843.295072,-1332.370696,1838.629195
2950.433272,-12139.377449,-1332.370696,842.705048
2950.433610,-9770.718434,-1184.329507,842.705048
2950.433947,-9178.553681,-888.247130,1608.800546
2950.434284,-8364.327145,-888.247130,1532.190996
2950.434622,-9474.636058,222.061783,1762.019645
2950.434959,-10510.924376,888.247130,2068.457845
2950.435297,-10881.027347,1998.556043,1378.971896
2950.435634,-11251.130318,2146.597232,-153.219100
2950.435971,-12065.356855,1776.494261,383.047749
2950.436309,-10288.862594,296.082377,-1225.752797
2950.436646,-8734.430116,0.000000,-919.314598
2950.436983,-7698.141797,-814.226536,0.000000
2950.437321,-9178.553681,-740.205942,919.314598
2950.437658,-10288.862594,518.144159,-153.219100
2950.437995,-10436.903782,814.226536,-1072.533697
2950.438333,-10288.862594,666.185348,-1455.581446
2950.438670,-11325.150913,-740.205942,-995.924147
2950.439007,-9992.780217,-1332.370696,-1608.800546
2950.439345,-8586.388927,-2072.576638,-1302.362347
2950.439682,-7994.224174,-2664.741391,153.219100
2950.440020,-9474.636058,-2590.720797,1378.971896
2950.440357,-9770.718434,-1924.535449,995.924147
2950.440694,-9992.780217,-962.267725,1685.410096
2950.441032,-10288.862594,-518.144159,1455.581446
2950.441369,-11547.212695,-296.082377,1455.581446
2950.441706,-11621.233289,0.000000,459.657299
2950.442044,-10214.842000,-1036.288319,229.828649
2950.442381,-10288.862594,-1998.556043,919.314598
2950.442718,-10066.800811,-888.247130,1685.410096
2950.443056,-10140.821405,0.000000,459.657299
2950.443393,-9400.615463,-518.144159,0.000000
2950.443730,-10214.842000,-444.123565,-612.876398
2950.444068,-10658.965565,-666.185348,-612.876398
2950.444405,-10955.047942,0.000000,-995.924147
2950.444743,-9178.553681,-666.185348,-612.876398
2950.445080,-9474.636058,-1776.494261,-536.266849
2950.445417,-9918.759623,-2072.576638,306.438199
2950.445755,-10214.842000,-962.267725,612.876398
2950.446092,-9326.594869,-370.102971,1072.533697
2950.446429,-9178.553681,0.000000,1149.143247
2950.446767,-11029.068536,0.000000,1532.190996
2950.447104,-10807.006753,222.061783,-919.314598
2950.447441,-9252.574275,74.020594,306.438199
2950.447779,-9400.615463,-148.041188,1072.533697
2950.448116,-9474.636058,296.082377,1762.019645
2950.448453,-10066.800811,1480.411884,1455.581446
2950.448791,-9696.697840,1924.535449,1455.581446
2950.449128,-9474.636058,2072.576638,2068.457845
2950.449466,-10955.047942,2294.638420,1838.629195
2950.449803,-11621.233289,1776.494261,0.000000
2950.450140,-9770.718434,2294.638420,-153.219100
2950.450478,-9622.677246,0.000000,-1302.362347
2950.450815,-9252.574275,-518.144159,-536.266849
2950.451152,-9252.574275,0.000000,-1072.533697
2950.451490,-8438.347739,888.247130,-995.924147
2950.451827,-9844.739029,296.082377,-1838.629195
2950.452164,-10436.903782,-1406.391290,-1532.190996
2950.452502,-11029.068536,-740.205942,-1915.238745
2950.452839,-9474.636058,-1924.535449,-766.095498
2950.453176,-9252.574275,-2442.679609,536.266849
2950.453514,-10066.800811,-2812.782580,689.485948
2950.453851,-10362.883188,-1998.556043,306.438199
2950.454189,-9770.718434,-1480.411884,153.219100
2950.454526,-10214.842000,-1406.391290,0.000000
2950.454863,-11695.253884,-1554.432478,612.876398
2950.455201,-11695.253884,0.000000,-76.609550
2950.455538,-10584.944971,-666.185348,1149.143247
2950.455875,-9548.656652,-444.123565,919.314598
2950.456213,-9400.615463,-1184.329507,1685.410096
2950.456550,-10732.986159,-1184.329507,2528.115143
2950.456887,-9474.636058,296.082377,2221.676944
2950.457225,-10066.800811,518.144159,1455.581446
2950.457562,-11769.274478,444.123565,1762.019645
2950.457899,-10955.047942,1036.288319,-306.438199
2950.458237,-9178.553681,1110.308913,-919.314598
2950.458574,-8956.491898,0.000000,-383.047749
2950.458912,-9252.574275,0.000000,-612.876398
2950.459249,-10288.862594,-888.247130,-612.876398
2950.459586,-9030.512492,296.082377,229.828649
2950.459924,-8808.450710,0.000000,229.828649
2950.460261,-10140.821405,370.102971,1532.190996
2950.460598,-10955.047942,592.164754,1302.362347
2950.460936,-10066.800811,666.185348,536.266849
2950.461273,-9548.656652,296.082377,689.485948
2950.461610,-10510.924376,-1110.308913,1225.752797
2950.461948,-9844.739029,592.164754,1378.971896
2950.462285,-9548.656652,518.144159,919.314598
2950.462622,-9918.759623,962.267725,766.095498
2950.462960,-10436.903782,740.205942,612.876398
2950.463297,-11325.150913,74.020594,766.095498
2950.463635,-9770.718434,148.041188,0.000000
2950.463972,-8882.471304,-370.102971,612.876398
2950.464309,-10214.842000,444.123565,1455.581446
2950.464647,-10658.965565,-814.226536,0.000000
2950.464984,-9622.677246,-296.082377,-383.047749
2950.465321,-9474.636058,0.000000,-766.095498
2950.465659,-10807.006753,-962.267725,-1302.362347
2950.465996,-11177.109724,-1184.329507,-2068.457845
2950.466333,-9770.718434,-888.247130,-2451.505594
2950.466671,-9178.553681,-2220.617826,-1378.971896
2950.467008,-8808.450710,-2442.679609,-1072.533697
2950.467345,-10362.883188,-2368.659014,536.266849
2950.467683,-10658.965565,-1332.370696,0.000000
2950.468020,-9622.677246,-1628.453072,153.219100
2950.468358,-10584.944971,-1258.350101,919.314598
2950.468695,-11029.068536,-666.185348,919.314598
2950.469032,-10140.821405,-296.082377,1072.533697
2950.469370,-9622.677246,-740.205942,1685.410096
2950.469707,-9770.718434,0.000000,2451.505594
2950.470044,-11251.130318,888.247130,1991.848295
2950.470382,-11695.253884,1036.288319,1378.971896
2950.470719,-10362.883188,1406.391290,0.000000
2950.471056,-9770.718434,0.000000,-153.219100
2950.471394,-9326.594869,592.164754,766.095498
2950.471731,-7698.141797,1554.432478,842.705048
2950.472068,-8734.430116,592.164754,1608.800546
2950.472406,-10140.821405,74.020594,0.000000
2950.472743,-11177.109724,1110.308913,153.219100
2950.473081,-10066.800811,1850.514855,0.000000
2950.473418,-9474.636058,592.164754,76.609550
2950.473755,-9474.636058,0.000000,-612.876398
2950.474093,-9252.574275,-888.247130,76.609550
2950.474430,-10584.944971,0.000000,0.000000
2950.474767,-9548.656652,-666.185348,0.000000
2950.475105,-10140.821405,-222.061783,-383.047749
2950.475442,-10732.986159,-888.247130,842.705048
2950.475779,-10658.965565,0.000000,766.095498
2950.476117,-10066.800811,-740.205942,1608.800546
2950.476454,-10658.965565,-740.205942,1608.800546
2950.476791,-10807.006753,-296.082377,2145.067394
2950.477129,-10881.027347,0.000000,919.314598
2950.477466,-9548.656652,-592.164754,1225.752797
2950.477804,-9844.739029,-592.164754,689.485948
2950.478141,-9844.739029,-370.102971,76.609550
2950.478478,-9918.759623,222.061783,-1225.752797
2950.478816,-9326.594869,-296.082377,-1991.848295
2950.479153,-9104.533087,-1332.370696,-689.485948
2950.479490,-10066.800811,-1480.411884,-1225.752797
2950.479828,-9474.636058,-1036.288319,-1302.362347
2950.480165,-9104.533087,-148.041188,-1302.362347
2950.480502,-9326.594869,-1258.350101,-689.485948
2950.480840,-11103.089130,-888.247130,229.828649
2950.481177,-10658.965565,-592.164754,-153.219100
2950.481514,-10362.883188,-222.061783,0.000000
2950.481852,-10732.986159,-592.164754,766.095498
2950.482189,-11177.109724,-962.267725,1685.410096
2950.482527,-9918.759623,-370.102971,766.095498
2950.482864,-9844.739029,0.000000,1608.800546
2950.483201,-10214.842000,222.061783,1838.629195
2950.483539,-9992.780217,370.102971,1838.629195
2950.483876,-10510.924376,2146.597232,1302.362347
2950.484213,-10362.883188,1924.535449,689.485948
2950.484551,-9844.739029,1480.411884,536.266849
2950.484888,-9770.718434,1184.329507,842.705048
2950.485225,-9918.759623,666.185348,919.314598
2950.485563,-9400.615463,1554.432478,1302.362347
2950.485900,-9622.677246,1406.391290,306.438199
2950.486237,-9622.677246,518.144159,76.609550
2950.486575,-9770.718434,0.000000,-1072.533697
2950.486912,-9770.718434,222.061783,-766.095498
2950.487250,-9400.615463,-592.164754,-1532.190996
2950.487587,-9030.512492,-1332.370696,-1532.190996
2950.487924,-9474.636058,-1332.370696,-536.266849
2950.488262,-9696.697840,-444.123565,-689.485948
2950.488599,-9474.636058,-592.164754,-459.657299
2950.488936,-11177.109724,-814.226536,1072.533697
2950.489274,-11251.130318,-1110.308913,153.219100
2950.489611,-10510.924376,-740.205942,153.219100
2950.489948,-10066.800811,-1480.411884,995.924147
2950.490286,-10436.903782,-1998.556043,1915.238745
2950.490623,-11473.192101,-1554.432478,1685.410096
2950.490960,-10288.862594,-148.041188,1455.581446
2950.491298,-9400.615463,444.123565,919.314598
2950.491635,-10510.924376,814.226536,1762.019645
2950.491973,-11695.253884,1332.370696,842.705048
2950.492310,-10881.027347,370.102971,-536.266849
2950.492647,-9918.759623,518.144159,-306.438199
2950.492985,-9844.739029,0.000000,0.000000
2950.493322,-9992.780217,-888.247130,306.438199
2950.493659,-8734.430116,-370.102971,-612.876398
2950.493997,-8660.409521,-296.082377,0.000000
2950.494334,-9474.636058,0.000000,459.657299
2950.494672,-10066.800811,-740.205942,-536.266849
2950.495009,-10436.903782,-518.144159,-536.266849
2950.495346,-8734.430116,-1406.391290,-995.924147
2950.495684,-9696.697840,-1628.453072,766.095498
2950.496021,-9992.780217,-888.247130,1072.533697
2950.496358,-8734.430116,-296.082377,536.266849
2950.496696,-8882.471304,-222.061783,1608.800546
2950.497033,-11029.068536,0.000000,2221.676944
2950.497370,-11843.295072,1036.288319,1608.800546
2950.497708,-11695.253884,740.205942,842.705048
2950.498045,-10362.883188,444.123565,306.438199
2950.498383,-9992.780217,0.000000,766.095498
2950.498720,-10807.006753,0.000000,689.485948
2950.499057,-9400.615463,370.102971,536.266849
2950.499395,-9178.553681,0.000000,0.000000
2950.499732,-10362.883188,444.123565,842.705048
2950.500069,-11843.295072,740.205942,0.000000
2950.500407,-11399.171507,1184.329507,-995.924147
2950.500744,-10510.924376,0.000000,-1991.848295
2950.501082,-10066.800811,-740.205942,-1915.238745
2950.501419,-9548.656652,-1554.432478,-1149.143247
2950.501756,-8290.306550,-1554.432478,-1225.752797
2950.502094,-8290.306550,-2442.679609,-459.657299
2950.502431,-9696.697840,-2664.741391,-536.266849
2950.502768,-10436.903782,-1332.370696,-459.657299
2950.503106,-10140.821405,-740.205942,-919.314598
2950.503443,-9548.656652,-1110.308913,-1072.533697
2950.503781,-9474.636058,-1628.453072,459.657299
2950.504118,-10436.903782,-1850.514855,2221.676944
2950.504455,-9770.718434,-518.144159,2451.505594
2950.504793,-9326.594869,-592.164754,2604.724693
2950.505130,-10510.924376,370.102971,3064.381992
2950.505467,-11399.171507,814.226536,1838.629195
2950.505805,-11251.130318,1776.494261,612.876398
2950.506142,-9992.780217,1998.556043,-1455.581446
2950.506479,-10140.821405,740.205942,0.000000
2950.506817,-10732.986159,888.247130,459.657299
2950.507154,-9252.574275,1184.329507,-1225.752797
2950.507492,-9030.512492,592.164754,76.609550
2950.507829,-10066.800811,148.041188,842.705048
2950.508166,-10214.842000,888.247130,229.828649
2950.508504,-9992.780217,2294.638420,-612.876398
2950.508841,-10584.944971,370.102971,-1225.752797
2950.509178,-9992.780217,-1036.288319,-995.924147
2950.509516,-10436.903782,-1776.494261,0.000000
2950.509853,-9030.512492,-1702.473667,0.000000
2950.510191,-7328.038826,-1554.432478,306.438199
2950.510528,-8438.347739,-1628.453072,766.095498
2950.510865,-9844.739029,-962.267725,842.705048
2950.511203,-10066.800811,0.000000,0.000000
2950.511540,-11251.130318,148.041188,459.657299
2950.511877,-11547.212695,-148.041188,383.047749
2950.512215,-11621.233289,-370.102971,995.924147
2950.512552,-9844.739029,74.020594,383.047749
2950.512889,-8586.388927,-962.267725,1149.143247
2950.513227,-9326.594869,-370.102971,2221.676944
2950.513564,-10955.047942,222.061783,1378.971896
2950.513902,-11325.150913,1184.329507,-919.314598
2950.514239,-10955.047942,1110.308913,-1608.800546
2950.514576,-11103.089130,666.185348,-1838.629195
2950.514914,-11695.253884,-1332.370696,-1225.752797
2950.515251,-9474.636058,-592.164754,-1532.190996
2950.515588,-8734.430116,-1258.350101,-689.485948
2950.515926,-9326.594869,-1628.453072,689.485948
2950.516263,-10140.821405,-962.267725,919.314598
2950.516601,-10362.883188,-592.164754,1225.752797
2950.516938,-10732.986159,-518.144159,1072.533697
2950.517275,-10658.965565,-740.205942,383.047749
2950.517613,-11621.233289,-1776.494261,1378.971896
2950.517950,-9474.636058,-1036.288319,612.876398
2950.518287,-7772.162391,-1628.453072,1225.752797
2950.518625,-8808.450710,-296.082377,2451.505594
2950.518962,-10214.842000,1110.308913,2374.896044
2950.519299,-10436.903782,1776.494261,1072.533697
2950.519637,-9770.718434,1554.432478,536.266849
2950.519974,-10214.842000,1110.308913,842.705048
2950.520312,-11103.089130,1110.308913,1302.362347
2950.520649,-10288.862594,296.082377,76.609550
2950.520986,-8882.471304,888.247130,-383.047749
2950.521324,-8808.450710,740.205942,383.047749
2950.521661,-10362.883188,444.123565,76.609550
2950.521998,-9844.739029,0.000000,-1072.533697
2950.522336,-9474.636058,-666.185348,-1302.362347
2950.522673,-9548.656652,-666.185348,-766.095498
2950.523011,-11029.068536,-2146.597232,-995.924147
2950.523348,-9992.780217,-2072.576638,-766.095498
2950.523685,-8734.430116,-3034.844362,0.000000
2950.524023,-8956.491898,-2590.720797,1225.752797
2950.524360,-10658.965565,-1776.494261,2068.457845
2950.524697,-11325.150913,-1036.288319,766.095498
2950.525035,-10807.006753,-1332.370696,0.000000
2950.525372,-10584.944971,-2072.576638,-536.266849
2950.525709,-12139.377449,-1702.473667,612.876398
2950.526047,-10658.965565,-1554.432478,-689.485948
2950.526384,-9030.512492,-1924.535449,-153.219100
2950.526722,-8364.327145,-1850.514855,1072.533697
2950.527059,-9474.636058,-518.144159,1838.629195
2950.527396,-10140.821405,1258.350101,842.705048
2950.527734,-10362.883188,1258.350101,-689.485948
2950.528071,-10436.903782,444.123565,-1455.581446
2950.528408,-11917.315666,-74.020594,-995.924147
2950.528746,-10436.903782,-444.123565,-383.047749
2950.529083,-7846.182985,0.000000,153.219100
2950.529421,-8364.327145,-888.247130,1225.752797
2950.529758,-10066.800811,814.226536,459.657299
2950.530095,-11473.192101,1110.308913,-536.266849
2950.530433,-10955.047942,1184.329507,-459.657299
2950.530770,-10288.862594,0.000000,-306.438199
2950.531107,-11621.233289,0.000000,919.314598
2950.531445,-10584.944971,0.000000,459.657299
2950.531782,-8660.409521,0.000000,766.095498
2950.532120,-8364.327145,-888.247130,1685.410096
2950.532457,-9992.780217,0.000000,2451.505594
2950.532794,-9844.739029,1110.308913,2145.067394
2950.533132,-10140.821405,1406.391290,1225.752797
2950.533469,-10732.986159,592.164754,766.095498
2950.533806,-11399.171507,148.041188,919.314598
2950.534144,-10214.842000,74.020594,-383.047749
2950.534481,-8290.306550,0.000000,-383.047749
2950.534818,-8068.244768,-1258.350101,-229.828649
2950.535156,-9252.574275,-296.082377,689.485948
2950.535493,-10732.986159,-370.102971,612.876398
2950.535831,-9178.553681,1036.288319,-1072.533697
2950.536168,-10510.924376,0.000000,-766.095498
2950.536505,-12583.501014,-962.267725,-995.924147
2950.536843,-11251.130318,-962.267725,-2068.457845
2950.537180,-9474.636058,-2072.576638,-2068.457845
2950.537517,-8734.430116,-3478.967927,0.000000
2950.537855,-9326.594869,-2664.741391,842.705048
2950.538192,-10436.903782,-1998.556043,1072.533697
2950.538530,-10066.800811,-296.082377,-229.828649
2950.538867,-10658.965565,-1110.308913,-306.438199
2950.539204,-12509.480420,-1184.329507,1072.533697
2950.539542,-11621.233289,-1628.453072,459.657299
2950.539879,-9548.656652,-740.205942,919.314598
2950.540216,-9030.512492,-814.226536,1838.629195
2950.540554,-9548.656652,-592.164754,2757.943793
2950.540891,-10584.944971,444.123565,2681.334243
2950.541228,-10066.800811,1406.391290,2145.067394
2950.541566,-10510.924376,2072.576638,229.828649
2950.541903,-11621.233289,1406.391290,0.000000
2950.542241,-10955.047942,814.226536,0.000000
2950.542578,-8142.265362,888.247130,-842.705048
2950.542915,-7402.059420,-296.082377,0.000000
2950.543253,-9104.533087,0.000000,1455.581446
2950.543590,-9104.533087,222.061783,-536.266849
2950.543927,-9400.615463,1924.535449,-1149.143247
2950.544265,-10066.800811,592.164754,-842.705048
2950.544602,-10881.027347,148.041188,-306.438199
2950.544940,-11251.130318,-296.082377,-919.314598
2950.545277,-9770.718434,0.000000,-766.095498
2950.545614,-8956.491898,-2146.597232,76.609550
2950.545952,-8882.471304,-2294.638420,1302.362347
2950.546289,-9770.718434,-1184.329507,2068.457845
2950.546626,-10436.903782,-148.041188,2681.334243
2950.546964,-10881.027347,370.102971,1149.143247
2950.547301,-12435.459826,222.061783,306.438199
2950.547638,-11769.274478,-148.041188,76.609550
2950.547976,-10288.862594,-74.020594,0.000000
2950.548313,-9104.533087,-740.205942,-612.876398
2950.548651,-8660.409521,-296.082377,-306.438199
2950.548988,-10066.800811,-148.041188,-612.876398
2950.549325,-10214.842000,0.000000,-612.876398
2950.549663,-9918.759623,0.000000,-842.705048
2950.550000,-11103.089130,-148.041188,459.657299
2950.550337,-11991.336260,-1776.494261,0.000000
2950.550675,-10140.821405,-1776.494261,-842.705048
2950.551012,-8142.265362,-3034.844362,-383.047749
2950.551350,-7920.203579,-2960.823768,1455.581446
2950.551687,-9400.615463,-1850.514855,1532.190996
2950.552024,-10066.800811,-518.144159,612.876398
2950.552362,-10732.986159,-592.164754,-536.266849
2950.552699,-9918.759623,0.000000,-1072.533697
2950.553036,-10955.047942,-74.020594,-306.438199
2950.553374,-10140.821405,-1110.308913,306.438199
2950.553711,-9326.594869,-1702.473667,459.657299
2950.554048,-8512.368333,-814.226536,2604.724693
2950.554386,-10066.800811,0.000000,3447.429741
2950.554723,-10066.800811,1628.453072,3064.381992
2950.555061,-10881.027347,2294.638420,2068.457845
2950.555398,-11029.068536,1628.453072,1225.752797
2950.555735,-12583.501014,2220.617826,766.095498
2950.556073,-11621.233289,1110.308913,-766.095498
2950.556410,-8956.491898,1258.350101,-1762.019645
2950.556747,-8290.306550,-666.185348,-995.924147
2950.557085,-9178.553681,-444.123565,-919.314598
2950.557422,-8882.471304,518.144159,-1225.752797
2950.557760,-9622.677246,592.164754,-1532.190996
2950.558097,-9622.677246,-222.061783,-1455.581446
2950.558434,-11547.212695,-1036.288319,-1608.800546
2950.558772,-11325.150913,-1554.432478,-1225.752797
2950.559109,-9770.718434,-3034.844362,0.000000
2950.559446,-8216.285956,-2960.823768,1378.971896
2950.559784,-8882.471304,-2516.700203,1915.238745
2950.560121,-10214.842000,-1258.350101,1072.533697
2950.560458,-10658.965565,-1406.391290,-766.095498
2950.560796,-10732.986159,-962.267725,-689.485948
2950.561133,-11621.233289,-1184.329507,-229.828649
2950.561471,-10955.047942,-740.205942,-383.047749
2950.561808,-9548.656652,-1110.308913,0.000000
2950.562145,-8956.491898,-1554.432478,612.876398
2950.562483,-9696.697840,-888.247130,1685.410096
2950.562820,-10214.842000,1184.329507,2451.505594
2950.563157,-10807.006753,1702.473667,1302.362347
2950.563495,-11473.192101,1554.432478,689.485948
2950.563832,-12213.398043,1258.350101,-536.266849
2950.564170,-11103.089130,814.226536,-842.705048
2950.564507,-9326.594869,0.000000,-536.266849
2950.564844,-8364.327145,-666.185348,153.219100
2950.565182,-9030.512492,-296.082377,229.828649
2950.565519,-9548.656652,296.082377,0.000000
2950.565856,-9770.718434,666.185348,-459.657299
2950.566194,-9770.718434,74.020594,0.000000
2950.566531,-10362.883188,0.000000,306.438199
2950.566869,-10214.842000,444.123565,612.876398
2950.567206,-9474.636058,0.000000,383.047749
2950.567543,-8438.347739,-444.123565,1149.143247
2950.567881,-9992.780217,-814.226536,2757.943793
2950.568218,-9992.780217,1110.308913,2145.067394
2950.568555,-9844.739029,1702.473667,1378.971896
2950.568893,-10214.842000,1702.473667,995.924147
2950.569230,-10955.047942,1258.350101,536.266849
2950.569567,-11251.130318,666.185348,0.000000
2950.569905,-9770.718434,74.020594,-689.485948
2950.570242,-9030.512492,-592.164754,-306.438199
2950.570580,-9696.697840,-74.020594,766.095498
2950.570917,-9474.636058,-222.061783,76.609550
2950.571254,-9474.636058,888.247130,-536.266849
2950.571592,-10584.944971,444.123565,-995.924147
2950.571929,-12361.439231,-444.123565,-1378.971896
2950.572266,-11843.295072,-1406.391290,-2068.457845
2950.572604,-9104.533087,-1480.411884,-2374.896044
2950.572941,-9030.512492,-2960.823768,-995.924147
2950.573279,-9918.759623,-3552.988522,229.828649
2950.573616,-9622.677246,-2590.720797,-153.219100
2950.573953,-9622.677246,-1776.494261,536.266849
2950.574291,-9918.759623,-1850.514855,995.924147
2950.574628,-11399.171507,-1702.473667,1225.752797
2950.574965,-11843.295072,-1850.514855,1455.581446
2950.575303,-9252.574275,-962.267725,766.095498
2950.575640,-9104.533087,-1406.391290,1225.752797
2950.575977,-9474.636058,-1332.370696,2681.334243
2950.576315,-9622.677246,-444.123565,2145.067394
2950.576652,-10140.821405,74.020594,2451.505594
2950.576990,-9992.780217,1628.453072,1378.971896
2950.577327,-11473.192101,1480.411884,1072.533697
2950.577664,-12213.398043,1036.288319,-306.438199
2950.578002,-9252.574275,518.144159,-1608.800546
2950.578339,-8142.265362,-518.144159,-536.266849
2950.578676,-8660.409521,-370.102971,842.705048
2950.579014,-9326.594869,222.061783,-306.438199
2950.579351,-9474.636058,962.267725,-842.705048
2950.579689,-10066.800811,740.205942,-459.657299
2950.580026,-11621.233289,1406.391290,0.000000
2950.580363,-11251.130318,0.000000,-995.924147
2950.580701,-9992.780217,-962.267725,-459.657299
2950.581038,-8068.244768,-2368.659014,-536.266849
2950.581375,-8290.306550,-2516.700203,1762.019645
2950.581713,-8808.450710,-1480.411884,2681.334243
2950.582050,-8882.471304,-1184.329507,1762.019645
2950.582387,-10436.903782,0.000000,1455.581446
2950.582725,-11917.315666,296.082377,1685.410096
2950.583062,-11917.315666,1110.308913,766.095498
2950.583400,-10584.944971,444.123565,229.828649
2950.583737,-9474.636058,0.000000,0.000000
2950.584074,-9400.615463,-222.061783,229.828649
2950.584412,-9844.739029,296.082377,0.000000
2950.584749,-9400.615463,-296.082377,-919.314598
2950.585086,-10436.903782,0.000000,-1455.581446
2950.585424,-11547.212695,0.000000,-842.705048
2950.585761,-11843.295072,74.020594,-1302.362347
2950.586099,-10362.883188,74.020594,-1685.410096
2950.586436,-8956.491898,-1332.370696,-919.314598
2950.586773,-9622.677246,-2146.597232,306.438199
2950.587111,-9252.574275,-2294.638420,306.438199
2950.587448,-9178.553681,-1332.370696,842.705048
2950.587785,-9770.718434,-888.247130,842.705048
2950.588123,-9844.739029,-666.185348,689.485948
2950.588460,-11325.150913,148.041188,1072.533697
2950.588797,-9918.759623,0.000000,0.000000
2950.589135,-9326.594869,-370.102971,459.657299
2950.589472,-9918.759623,222.061783,2451.505594
2950.589810,-9770.718434,1184.329507,1455.581446
2950.590147,-9696.697840,2146.597232,1378.971896
2950.590484,-9770.718434,1480.411884,1455.581446
2950.590822,-10658.965565,2072.576638,1838.629195
2950.591159,-11399.171507,2738.761985,1072.533697
2950.591496,-10436.903782,1998.556043,0.000000
2950.591834,-9252.574275,814.226536,-383.047749
2950.592171,-10214.842000,-370.102971,1149.143247
2950.592509,-10066.800811,148.041188,536.266849
2950.592846,-8808.450710,296.082377,-536.266849
2950.593184,-9326.594869,74.020594,-536.266849
2950.593521,-9474.636058,-444.123565,-919.314598
2950.593858,-10436.903782,-666.185348,-1302.362347
2950.594196,-10066.800811,-444.123565,-1302.362347
2950.594533,-9622.677246,-1184.329507,-766.095498
2950.594871,-9474.636058,-2072.576638,153.219100
2950.595208,-9992.780217,-2072.576638,1072.533697
2950.595546,-9844.739029,-1998.556043,1455.581446
2950.595883,-9844.739029,-1850.514855,1149.143247
2950.596220,-10288.862594,-1998.556043,1225.752797
2950.596558,-11621.233289,-1628.453072,1762.019645
2950.596895,-9918.759623,-592.164754,536.266849
2950.597233,-9252.574275,-962.267725,306.438199
2950.597570,-10140.821405,-1702.473667,1072.533697
2950.597908,-10807.006753,-1184.329507,766.095498
2950.598245,-10066.800811,74.020594,229.828649
2950.598582,-9400.615463,592.164754,-306.438199
2950.598920,-9696.697840,592.164754,383.047749
2950.599257,-11843.295072,0.000000,306.438199
2950.599595,-10807.006753,0.000000,-612.876398
2950.599932,-9104.533087,-222.061783,-1685.410096
2950.600270,-9400.615463,-1184.329507,153.219100
2950.600607,-9918.759623,-1036.288319,0.000000
2950.600944,-8882.471304,-666.185348,-383.047749
2950.601282,-9326.594869,0.000000,383.047749
2950.601619,-9770.718434,0.000000,0.000000
2950.601957,-11251.130318,148.041188,-76.609550
2950.602294,-10732.986159,0.000000,0.000000
2950.602632,-8512.368333,-592.164754,0.000000
2950.602969,-8956.491898,-592.164754,1838.629195
2950.603306,-10658.965565,148.041188,3524.039291
2950.603644,-9992.780217,666.185348,2068.457845
2950.603981,-10140.821405,888.247130,1149.143247
2950.604319,-10584.944971,1036.288319,1149.143247
2950.604656,-11251.130318,518.144159,1455.581446
2950.604994,-10510.924376,370.102971,995.924147
2950.605331,-8882.471304,1406.391290,0.000000
2950.605668,-9918.759623,148.041188,0.000000
2950.606006,-10510.924376,0.000000,-306.438199
2950.606343,-9696.697840,296.082377,-1149.143247
2950.606681,-9844.739029,518.144159,0.000000
2950.607018,-10510.924376,0.000000,-612.876398
2950.607356,-10881.027347,0.000000,-1838.629195
2950.607693,-10658.965565,-370.102971,-1762.019645
2950.608030,-8956.491898,-1776.494261,-1378.971896
2950.608368,-9326.594869,-1998.556043,229.828649
2950.608705,-9918.759623,-1850.514855,536.266849
2950.609043,-9992.780217,-1332.370696,536.266849
2950.609380,-10732.986159,-2220.617826,383.047749
2950.609718,-9770.718434,-1406.391290,459.657299
2950.610055,-10140.821405,-1480.411884,2681.334243
2950.610392,-10510.924376,-888.247130,1915.238745
2950.610730,-9844.739029,-370.102971,1225.752797
2950.611067,-10066.800811,0.000000,1455.581446
2950.611405,-10214.842000,74.020594,1991.848295
2950.611742,-9918.759623,1036.288319,1225.752797
2950.612080,-10362.883188,1406.391290,459.657299
2950.612417,-9400.615463,1332.370696,-536.266849
2950.612754,-10732.986159,1184.329507,306.438199
2950.613092,-10436.903782,1036.288319,-612.876398
2950.613429,-9474.636058,666.185348,-383.047749
2950.613767,-9548.656652,0.000000,-536.266849
2950.614104,-10066.800811,296.082377,383.047749
2950.614442,-10140.821405,444.123565,0.000000
2950.614779,-9770.718434,148.041188,-306.438199
2950.615116,-9696.697840,-148.041188,-536.266849
2950.615454,-10140.821405,-222.061783,-459.657299
2950.615791,-10288.862594,-296.082377,-153.219100
2950.616129,-9770.718434,-592.164754,76.609550
2950.616466,-8808.450710,-1554.432478,306.438199
2950.616803,-9474.636058,-1258.350101,459.657299
2950.617141,-10288.862594,-888.247130,536.266849
2950.617478,-10436.903782,-888.247130,229.828649
2950.617816,-9474.636058,-1036.288319,0.000000
2950.618153,-10140.821405,-1554.432478,1915.238745
2950.618491,-10214.842000,0.000000,1685.410096
2950.618828,-10584.944971,148.041188,1149.143247
2950.619165,-10214.842000,0.000000,536.266849
2950.619503,-10362.883188,444.123565,0.000000
2950.619840,-10732.986159,370.102971,0.000000
2950.620178,-10510.924376,74.020594,-459.657299
2950.620515,-9770.718434,-666.185348,-1302.362347
2950.620853,-9918.759623,-1184.329507,-766.095498
2950.621190,-10288.862594,-1406.391290,-995.924147
2950.621527,-9178.553681,-740.205942,-766.095498
2950.621865,-10066.800811,-1110.308913,0.000000
2950.622202,-11103.089130,-1036.288319,842.705048
2950.622540,-10658.965565,-518.144159,-306.438199
2950.622877,-10288.862594,0.000000,689.485948
2950.623215,-9992.780217,-814.226536,766.095498
2950.623552,-10436.903782,-1258.350101,995.924147
2950.623889,-10436.903782,-518.144159,1608.800546
2950.624227,-9548.656652,-518.144159,2145.067394
2950.624564,-9178.553681,1036.288319,1608.800546
2950.624902,-9622.677246,518.144159,1991.848295
2950.625239,-10214.842000,1776.494261,612.876398
2950.625577,-9548.656652,1554.432478,229.828649
2950.625914,-9474.636058,1628.453072,383.047749
2950.626251,-9622.677246,1184.329507,1762.019645
2950.626589,-10066.800811,888.247130,1685.410096
2950.626926,-9696.697840,1258.350101,1608.800546
2950.627264,-9326.594869,1628.453072,0.000000
2950.627601,-9770.718434,1110.308913,1072.533697
2950.627939,-10436.903782,1036.288319,0.000000
2950.628276,-9548.656652,592.164754,-1915.238745
2950.628613,-9696.697840,0.000000,-2451.505594
2950.628951,-10066.800811,-1184.329507,-2221.676944
2950.629288,-10066.800811,-2664.741391,-1532.190996
2950.629626,-9030.512492,-1258.350101,-689.485948
2950.629963,-9252.574275,-1628.453072,76.609550
2950.630301,-9548.656652,-888.247130,76.609550
2950.630638,-11547.212695,-1036.288319,-459.657299
2950.630975,-11621.233289,-1184.329507,-153.219100
2950.631313,-10955.047942,-2294.638420,0.000000
2950.631650,-10881.027347,-2146.597232,2068.457845
2950.631988,-10584.944971,-2220.617826,2298.286494
2950.632325,-9252.574275,-1998.556043,1762.019645
2950.632663,-8660.409521,-666.185348,1072.533697
2950.633000,-9918.759623,-740.205942,1455.581446
2950.633337,-11621.233289,-148.041188,383.047749
2950.633675,-10807.006753,148.041188,-1532.190996
2950.634012,-11029.068536,592.164754,-536.266849
2950.634350,-10584.944971,-518.144159,-459.657299
2950.634687,-9992.780217,-1110.308913,0.000000
2950.635025,-8956.491898,-1110.308913,1225.752797
2950.635362,-7994.224174,-592.164754,1532.190996
2950.635699,-9992.780217,-740.205942,2145.067394
2950.636037,-11621.233289,-444.123565,0.000000
2950.636374,-10288.862594,0.000000,-1225.752797
2950.636712,-10066.800811,-1184.329507,-689.485948
2950.637049,-9770.718434,-1036.288319,229.828649
2950.637387,-9474.636058,-740.205942,536.266849
2950.637724,-9400.615463,518.144159,383.047749
2950.638061,-8068.244768,0.000000,0.000000
2950.638399,-10066.800811,1258.350101,1532.190996
2950.638736,-12065.356855,1480.411884,2374.896044
2950.639074,-11251.130318,2294.638420,229.828649
2950.639411,-10881.027347,666.185348,536.266849
2950.639749,-10066.800811,1036.288319,1455.581446
2950.640086,-9844.739029,370.102971,2068.457845
2950.640423,-8882.471304,592.164754,1608.800546
2950.640761,-8512.368333,592.164754,76.609550
2950.641098,-9918.759623,888.247130,-153.219100
2950.641436,-11695.253884,1406.391290,-766.095498
2950.641773,-10584.944971,1480.411884,-2298.286494
2950.642111,-8660.409521,296.082377,-2451.505594
2950.642448,-9252.574275,-814.226536,-1685.410096
2950.642785,-10066.800811,-518.144159,-919.314598
2950.643123,-9178.553681,-1924.535449,-2298.286494
2950.643460,-8882.471304,-2516.700203,-1608.800546
2950.643798,-8734.430116,-2812.782580,612.876398
2950.644135,-10436.903782,-1850.514855,1072.533697
2950.644473,-10510.924376,74.020594,229.828649
2950.644810,-10955.047942,-1406.391290,-229.828649
2950.645147,-11325.150913,-1258.350101,153.219100
2950.645485,-11695.253884,-1924.535449,842.705048
2950.645822,-10362.883188,-444.123565,1378.971896
2950.646160,-8808.450710,-1184.329507,1838.629195
2950.646497,-9326.594869,-592.164754,2987.772442
2950.646835,-11103.089130,1036.288319,2987.772442
2950.647172,-11177.109724,2368.659014,612.876398
2950.647509,-11473.192101,2220.617826,0.000000
2950.647847,-12287.418637,1110.308913,-1302.362347
2950.648184,-11103.089130,1110.308913,-459.657299
2950.648522,-9178.553681,740.205942,306.438199
2950.648859,-7179.997637,-444.123565,612.876398
2950.649197,-7772.162391,-666.185348,1149.143247
2950.649534,-9918.759623,1110.308913,842.705048
2950.649871,-10362.883188,1480.411884,-459.657299
2950.650209,-10362.883188,518.144159,-1302.362347
2950.650546,-10436.903782,-518.144159,-306.438199
2950.650884,-10732.986159,-1036.288319,-306.438199
2950.651221,-9104.533087,-1184.329507,0.000000
2950.651559,-7179.997637,-1332.370696,459.657299
2950.651896,-7624.121203,-2072.576638,536.266849
2950.652233,-10510.924376,-1998.556043,2068.457845
2950.652571,-10807.006753,0.000000,0.000000
2950.652908,-10214.842000,74.020594,-612.876398
2950.653246,-11251.130318,-592.164754,-459.657299
2950.653583,-11991.336260,-1184.329507,383.047749
2950.653921,-10288.862594,-1036.288319,306.438199
2950.654258,-8438.347739,-1258.350101,1072.533697
2950.654595,-8808.450710,-1036.288319,1915.238745
2950.654933,-11399.171507,-1258.350101,1762.019645
2950.655270,-11473.192101,518.144159,-919.314598
2950.655608,-11399.171507,0.000000,-1378.971896
2950.655945,-10955.047942,-888.247130,-1378.971896
2950.656283,-11177.109724,-888.247130,-1302.362347
2950.656620,-10362.883188,-2368.659014,-1072.533697
2950.656957,-7328.038826,-2294.638420,-1149.143247
2950.657295,-7624.121203,-2738.761985,-459.657299
2950.657632,-10214.842000,-2294.638420,1838.629195
2950.657970,-10214.842000,-962.267725,153.219100
2950.658307,-10955.047942,-1036.288319,0.000000
2950.658645,-11177.109724,-1406.391290,0.000000
2950.658982,-10955.047942,-1480.411884,689.485948
2950.659319,-9474.636058,-1036.288319,1455.581446
2950.659657,-7624.121203,-1036.288319,1915.238745
2950.659994,-8290.306550,-148.041188,3064.381992
2950.660332,-11399.171507,666.185348,2757.943793
2950.660669,-11251.130318,2294.638420,842.705048
2950.661007,-10214.842000,1998.556043,0.000000
2950.661344,-10066.800811,2368.659014,459.657299
2950.661681,-10807.006753,1998.556043,1149.143247
2950.662019,-9770.718434,1110.308913,0.000000
2950.662356,-9030.512492,1258.350101,229.828649
2950.662694,-8512.368333,1184.329507,919.314598
2950.663031,-11177.109724,2072.576638,842.705048
2950.663369,-11029.068536,1998.556043,-612.876398
2950.663706,-10140.821405,1776.494261,-1532.190996
2950.664043,-9548.656652,592.164754,-1532.190996
2950.664381,-10955.047942,-666.185348,-612.876398
2950.664718,-10436.903782,-1480.411884,-459.657299
2950.665056,-8364.327145,-1258.350101,-689.485948
2950.665393,-8290.306550,-2368.659014,1149.143247
2950.665731,-10140.821405,-962.267725,1532.190996
2950.666068,-10214.842000,-888.247130,153.219100
2950.666405,-10214.842000,74.020594,-306.438199
2950.666743,-10584.944971,-740.205942,-995.924147
2950.667080,-11547.212695,74.020594,-536.266849
2950.667418,-11325.150913,-1110.308913,-306.438199
2950.667755,-8956.491898,-1554.432478,459.657299
2950.668093,-7994.224174,-2072.576638,1532.190996
2950.668430,-10362.883188,-888.247130,3064.381992
2950.668767,-10510.924376,814.226536,1378.971896
2950.669105,-10584.944971,370.102971,536.266849
2950.669442,-11695.253884,888.247130,0.000000
2950.669780,-11621.233289,0.000000,-842.705048
2950.670117,-11621.233289,74.020594,-459.657299
2950.670455,-9326.594869,-1036.288319,-1225.752797
2950.670792,-8290.306550,-1480.411884,-1302.362347
2950.671129,-8956.491898,-592.164754,-306.438199
2950.671467,-9474.636058,-1036.288319,-229.828649
2950.671804,-9622.677246,666.185348,229.828649
2950.672142,-10955.047942,-222.061783,0.000000
2950.672479,-12583.501014,-296.082377,153.219100
2950.672817,-11177.109724,-888.247130,153.219100
2950.673154,-9474.636058,-888.247130,1455.581446
2950.673491,-7550.100608,-1998.556043,2221.676944
2950.673829,-7994.224174,-1110.308913,3217.601092
2950.674166,-9252.574275,592.164754,2757.943793
2950.674504,-10140.821405,1184.329507,459.657299
2950.674841,-11325.150913,1036.288319,-995.924147
2950.675179,-11399.171507,1332.370696,-995.924147
2950.675516,-11325.150913,370.102971,-306.438199
2950.675853,-9844.739029,740.205942,-153.219100
2950.676191,-8290.306550,-962.267725,-459.657299
2950.676528,-8438.347739,-592.164754,1455.581446
2950.676866,-9770.718434,0.000000,1072.533697
2950.677203,-10732.986159,444.123565,306.438199
2950.677541,-11843.295072,666.185348,-842.705048
2950.677878,-11621.233289,0.000000,-1532.190996
2950.678215,-11177.109724,-666.185348,-1915.238745
2950.678553,-8956.491898,-1776.494261,-1685.410096
2950.678890,-7994.224174,-2960.823768,-689.485948
2950.679228,-9178.553681,-2812.782580,689.485948
2950.679565,-9770.718434,-1776.494261,0.000000
2950.679903,-10066.800811,-296.082377,-842.705048
2950.680240,-10658.965565,-740.205942,-383.047749
2950.680577,-10807.006753,-1258.350101,383.047749
2950.680915,-11399.171507,-1776.494261,1225.752797
2950.681252,-10214.842000,-518.144159,1838.629195
2950.681590,-8956.491898,-1332.370696,1762.019645
2950.681927,-9844.739029,-444.123565,2834.553343
2950.682265,-10658.965565,0.000000,3064.381992
2950.682602,-10288.862594,1258.350101,1608.800546
2950.682939,-10881.027347,2368.659014,995.924147
2950.683277,-11325.150913,1998.556043,-459.657299
2950.683614,-11399.171507,1332.370696,-1762.019645
2950.683952,-9770.718434,740.205942,-2145.067394
2950.684289,-8364.327145,0.000000,-842.705048
2950.684627,-7254.018232,0.000000,0.000000
2950.684964,-8808.450710,-592.164754,995.924147
2950.685301,-9400.615463,1184.329507,0.000000
2950.685639,-10066.800811,888.247130,-306.438199
2950.685976,-10510.924376,740.205942,689.485948
2950.686314,-12139.377449,-222.061783,306.438199
2950.686651,-11325.150913,-740.205942,919.314598
2950.686989,-9252.574275,-1628.453072,536.266849
2950.687326,-8290.306550,-2146.597232,1072.533697
2950.687663,-8808.450710,-1776.494261,1915.238745
2950.688001,-9030.512492,-74.020594,919.314598
2950.688338,-9622.677246,666.185348,0.000000
2950.688676,-11103.089130,888.247130,-229.828649
2950.689013,-12805.562797,814.226536,-383.047749
2950.689351,-11251.130318,666.185348,-995.924147
2950.689688,-9474.636058,-518.144159,0.000000
2950.690025,-9252.574275,-814.226536,1838.629195
2950.690363,-9770.718434,-1628.453072,1302.362347
2950.690700,-9992.780217,0.000000,1455.581446
2950.691038,-10140.821405,-296.082377,-689.485948
2950.691375,-11177.109724,0.000000,-1225.752797
2950.691713,-12361.439231,-740.205942,-1991.848295
2950.692050,-10510.924376,-1850.514855,-2374.896044
2950.692387,-8290.306550,-1850.514855,-2068.457845
2950.692725,-7920.203579,-2220.617826,-459.657299
2950.693062,-9326.594869,-1554.432478,459.657299
2950.693400,-9326.594869,-1554.432478,0.000000
2950.693737,-10288.862594,-962.267725,0.000000
2950.694075,-11103.089130,-444.123565,1455.581446
2950.694412,-12139.377449,-1258.350101,1532.190996
2950.694749,-11473.192101,-962.267725,1915.238745
2950.695087,-10214.842000,-1406.391290,2145.067394
2950.695424,-8882.471304,-518.144159,2298.286494
2950.695762,-9400.615463,-592.164754,2451.505594
2950.696099,-10066.800811,592.164754,2451.505594
2950.696437,-9474.636058,1776.494261,459.657299
2950.696774,-9918.759623,2664.741391,0.000000
2950.697112,-11843.295072,2738.761985,0.000000
2950.697449,-11029.068536,2220.617826,-766.095498
2950.697786,-9622.677246,1332.370696,-1302.362347
2950.698124,-9400.615463,148.041188,0.000000
2950.698461,-8808.450710,0.000000,842.705048
2950.698799,-9400.615463,222.061783,919.314598
2950.699136,-9474.636058,222.061783,0.000000
2950.699474,-10214.842000,814.226536,-919.314598
2950.699811,-11991.336260,0.000000,-1225.752797
2950.700149,-11251.130318,-888.247130,-1762.019645
2950.700486,-8882.471304,-1554.432478,-1915.238745
2950.700823,-8364.327145,-2220.617826,0.000000
2950.701161,-8364.327145,-1776.494261,919.314598
2950.701498,-9400.615463,-1110.308913,842.705048
2950.701836,-10214.842000,74.020594,1685.410096
2950.702173,-10510.924376,-888.247130,842.705048
2950.702511,-11769.274478,370.102971,306.438199
2950.702848,-11399.171507,-296.082377,306.438199
2950.703186,-9918.759623,-1036.288319,76.609550
2950.703523,-8956.491898,-1258.350101,766.095498
2950.703860,-9252.574275,-888.247130,1838.629195
2950.704198,-9696.697840,0.000000,1378.971896
2950.704535,-9548.656652,1184.329507,383.047749
2950.704873,-10214.842000,814.226536,383.047749
2950.705210,-11843.295072,592.164754,229.828649
2950.705548,-11621.233289,222.061783,0.000000
2950.705885,-10658.965565,148.041188,-995.924147
2950.706222,-8882.471304,-888.247130,-1072.533697
2950.706560,-9474.636058,-814.226536,383.047749
2950.706897,-9548.656652,-1184.329507,-229.828649
2950.707235,-8808.450710,0.000000,-612.876398
2950.707572,-9252.574275,-962.267725,-612.876398
2950.707910,-11325.150913,-222.061783,229.828649
2950.708247,-10955.047942,0.000000,-766.095498
2950.708585,-9992.780217,-444.123565,-766.095498
2950.708922,-8660.409521,-1332.370696,995.924147
2950.709259,-8882.471304,-1628.453072,2681.334243
2950.709597,-9844.739029,296.082377,2604.724693
2950.709934,-9178.553681,592.164754,1762.019645
2950.710272,-10140.821405,1184.329507,1532.190996
2950.710609,-11769.274478,814.226536,1455.581446
2950.710947,-12213.398043,222.061783,0.000000
2950.711284,-10140.821405,888.247130,-919.314598
2950.711622,-8512.368333,-1184.329507,-1225.752797
2950.711959,-8290.306550,-814.226536,153.219100
2950.712296,-8808.450710,-1258.350101,-459.657299
2950.712634,-8586.388927,370.102971,-612.876398
2950.712971,-10510.924376,-1036.288319,-842.705048
2950.713309,-12435.459826,-444.123565,-76.609550
2950.713646,-11991.336260,-814.226536,-1532.190996
2950.713984,-10658.965565,-1258.350101,-689.485948
2950.714321,-8734.430116,-2664.741391,-689.485948
2950.714659,-9178.553681,-2886.803174,919.314598
2950.714996,-10140.821405,-2886.803174,1302.362347
2950.715333,-9474.636058,-814.226536,-229.828649
2950.715671,-10214.842000,-1554.432478,153.219100
2950.716008,-11029.068536,-370.102971,306.438199
2950.716346,-11473.192101,-740.205942,229.828649
2950.716683,-10807.006753,0.000000,1302.362347
2950.717021,-8808.450710,0.000000,842.705048
2950.717358,-9844.739029,-222.061783,1991.848295
2950.717696,-10436.903782,222.061783,2911.162892
2950.718033,-9252.574275,1184.329507,1991.848295
2950.718370,-10066.800811,1776.494261,1838.629195
2950.718708,-11473.192101,1554.432478,766.095498
2950.719045,-10807.006753,1998.556043,-919.314598
2950.719383,-9622.677246,370.102971,-1072.533697
2950.719720,-8068.244768,148.041188,-1225.752797
2950.720058,-8512.368333,0.000000,0.000000
2950.720395,-9918.759623,-296.082377,0.000000
2950.720732,-8364.327145,814.226536,-536.266849
2950.721070,-8290.306550,-148.041188,-459.657299
2950.721407,-10288.862594,518.144159,1608.800546
2950.721745,-11473.192101,592.164754,689.485948
2950.722082,-10732.986159,1110.308913,-153.219100
2950.722420,-9918.759623,-962.267725,0.000000
2950.722757,-10140.821405,-1036.288319,1149.143247
2950.723095,-10288.862594,-888.247130,919.314598
2950.723432,-9474.636058,-666.185348,1225.752797
2950.723769,-8882.471304,-444.123565,459.657299
2950.724107,-10362.883188,0.000000,1225.752797
2950.724444,-12139.377449,1036.288319,766.095498
2950.724782,-11103.089130,-148.041188,-229.828649
2950.725119,-9252.574275,74.020594,-612.876398
2950.725457,-9992.780217,370.102971,459.657299
2950.725794,-11399.171507,74.020594,459.657299
2950.726132,-9622.677246,0.000000,-612.876398
2950.726469,-8734.430116,-592.164754,-689.485948
2950.726806,-10510.924376,-814.226536,459.657299
2950.727144,-11547.212695,-222.061783,-536.266849
2950.727481,-10066.800811,-1110.308913,-1149.143247
2950.727819,-9844.739029,-1480.411884,-1532.190996
2950.728156,-9548.656652,-2812.782580,-536.266849
2950.728494,-9918.759623,-1924.535449,0.000000
2950.728831,-8364.327145,-1628.453072,0.000000
2950.729169,-8734.430116,-1258.350101,306.438199
2950.729506,-10288.862594,-666.185348,842.705048
2950.729843,-11473.192101,-444.123565,536.266849
2950.730181,-11029.068536,0.000000,995.924147
2950.730518,-10066.800811,-814.226536,1225.752797
2950.730856,-9770.718434,0.000000,2068.457845
2950.731193,-10584.944971,0.000000,2451.505594
2950.731531,-9622.677246,444.123565,2374.896044
2950.731868,-9400.615463,370.102971,1225.752797
2950.732205,-10807.006753,1332.370696,2298.286494
2950.732543,-11843.295072,1998.556043,995.924147
2950.732880,-10658.965565,1702.473667,-612.876398
2950.733218,-9178.553681,1924.535449,-689.485948
2950.733555,-9178.553681,0.000000,-383.047749
2950.733893,-10436.903782,370.102971,0.000000
2950.734230,-9474.636058,148.041188,-689.485948
2950.734568,-9178.553681,296.082377,-1225.752797
2950.734905,-9326.594869,-814.226536,-383.047749
2950.735242,-10510.924376,-740.205942,-919.314598
2950.735580,-10584.944971,-1258.350101,-383.047749
2950.735917,-9696.697840,-1036.288319,-612.876398
2950.736255,-9400.615463,-1776.494261,0.000000
2950.736592,-10362.883188,-1702.473667,766.095498
2950.736930,-9326.594869,-1480.411884,0.000000
2950.737267,-9770.718434,-962.267725,153.219100
2950.737605,-9622.677246,-1776.494261,1225.752797
2950.737942,-11251.130318,-888.247130,1685.410096
2950.738279,-11547.212695,-296.082377,1762.019645
2950.738617,-10807.006753,-592.164754,1762.019645
2950.738954,-9770.718434,-518.144159,1149.143247
2950.739292,-10658.965565,-1110.308913,1762.019645
2950.739629,-9548.656652,740.205942,459.657299
2950.739967,-10066.800811,592.164754,383.047749
2950.740304,-10955.047942,1110.308913,0.000000
2950.740642,-11029.068536,370.102971,-842.705048
2950.740979,-10807.006753,444.123565,-153.219100
2950.741316,-9696.697840,518.144159,229.828649
2950.741654,-9474.636058,-148.041188,306.438199
2950.741991,-10658.965565,-370.102971,459.657299
2950.742329,-9918.759623,-296.082377,306.438199
2950.742666,-9474.636058,-296.082377,76.609550
2950.743004,-9178.553681,-740.205942,1072.533697
2950.743341,-10362.883188,-444.123565,995.924147
2950.743679,-9918.759623,0.000000,0.000000
2950.744016,-9030.512492,222.061783,-153.219100
2950.744353,-8808.450710,370.102971,459.657299
2950.744691,-10214.842000,-370.102971,1838.629195
2950.745028,-9770.718434,444.123565,1455.581446
2950.745366,-10140.821405,518.144159,1838.629195
2950.745703,-9770.718434,740.205942,689.485948
2950.746041,-10066.800811,74.020594,1378.971896
2950.746378,-9992.780217,0.000000,919.314598
2950.746715,-9252.574275,296.082377,-76.609550
2950.747053,-9696.697840,0.000000,-306.438199
2950.747390,-11177.109724,-296.082377,0.000000
2950.747728,-10288.862594,0.000000,-1915.238745
2950.748065,-9770.718434,148.041188,-1915.238745
2950.748403,-10140.821405,-222.061783,-2068.457845
2950.748740,-11029.068536,-1184.329507,-766.095498
2950.749078,-11325.150913,-1480.411884,-919.314598
2950.749415,-10436.903782,-1628.453072,-766.095498
2950.749752,-9992.780217,-1850.514855,-306.438199
2950.750090,-10658.965565,-1850.514855,76.609550
2950.750427,-10436.903782,-1628.453072,-459.657299
2950.750765,-10214.842000,-1628.453072,-919.314598
2950.751102,-9622.677246,-1850.514855,-459.657299
2950.751440,-10214.842000,-2072.576638,0.000000
2950.751777,-9992.780217,-1480.411884,842.705048
2950.752115,-9326.594869,-444.123565,1838.629195
2950.752452,-8956.491898,0.000000,1685.410096
2950.752789,-10140.821405,222.061783,3140.991542
2950.753127,-11029.068536,0.000000,3217.601092
2950.753464,-10436.903782,222.061783,2068.457845
2950.753802,-9474.636058,740.205942,1532.190996
2950.754139,-10362.883188,1184.329507,1762.019645
2950.754477,-10807.006753,962.267725,459.657299
2950.754814,-9104.533087,1184.329507,-1149.143247
2950.755152,-8586.388927,1332.370696,-1532.190996
2950.755489,-9326.594869,1110.308913,0.000000
2950.755826,-10584.944971,1258.350101,-919.314598
2950.756164,-10807.006753,1110.308913,-1685.410096
2950.756501,-9400.615463,74.020594,-919.314598
2950.756839,-10140.821405,0.000000,1378.971896
2950.757176,-10807.006753,-666.185348,1762.019645
2950.757514,-9474.636058,148.041188,1455.581446
2950.757851,-9474.636058,0.000000,1149.143247
2950.758189,-10436.903782,-888.247130,1685.410096
2950.758526,-11103.089130,0.000000,536.266849
2950.758863,-10732.986159,74.020594,842.705048
2950.759201,-9770.718434,0.000000,-612.876398
2950.759538,-9474.636058,148.041188,0.000000
2950.759876,-9844.739029,148.041188,842.705048
2950.760213,-10066.800811,-74.020594,1072.533697
2950.760551,-9474.636058,-518.144159,459.657299
2950.760888,-9548.656652,-296.082377,689.485948
2950.761225,-10881.027347,74.020594,-383.047749
2950.761563,-9918.759623,-222.061783,-536.266849
2950.761900,-9474.636058,-296.082377,-1225.752797
2950.762238,-9696.697840,-1036.288319,-689.485948
2950.762575,-10436.903782,-1554.432478,-1991.848295
2950.762913,-9622.677246,-888.247130,-1072.533697
2950.763250,-9030.512492,-1924.535449,-612.876398
2950.763588,-9104.533087,-1332.370696,0.000000
2950.763925,-10658.965565,-1480.411884,612.876398
2950.764262,-11621.233289,-888.247130,919.314598
2950.764600,-10955.047942,-962.267725,-229.828649
2950.764937,-10214.842000,-1184.329507,919.314598
2950.765275,-11103.089130,-592.164754,1762.019645
2950.765612,-10066.800811,-518.144159,2068.457845
2950.765950,-10214.842000,0.000000,1838.629195
2950.766287,-10436.903782,1110.308913,1685.410096
2950.766625,-11251.130318,1110.308913,1378.971896
2950.766962,-10214.842000,1702.473667,383.047749
2950.767299,-9622.677246,1110.308913,0.000000
2950.767637,-9844.739029,444.123565,1685.410096
2950.767974,-10436.903782,666.185348,1532.190996
2950.768312,-8660.409521,962.267725,1072.533697
2950.768649,-8586.388927,666.185348,536.266849
2950.768987,-8956.491898,222.061783,919.314598
2950.769324,-10362.883188,444.123565,76.609550
2950.769662,-10362.883188,296.082377,-536.266849
2950.769999,-9696.697840,-296.082377,-1608.800546
2950.770336,-9178.553681,-1554.432478,-1532.190996
2950.770674,-9696.697840,-2220.617826,-1072.533697
2950.771011,-8364.327145,-2220.617826,-766.095498
2950.771349,-8216.285956,-2072.576638,-612.876398
2950.771686,-9622.677246,-1628.453072,153.219100
2950.772024,-11029.068536,-1924.535449,0.000000
2950.772361,-11325.150913,-962.267725,229.828649
2950.772699,-11399.171507,-740.205942,383.047749
2950.773036,-11177.109724,-962.267725,1225.752797
2950.773373,-11621.233289,-1702.473667,1608.800546
2950.773711,-10658.965565,-1258.350101,1532.190996
2950.774048,-9622.677246,-666.185348,919.314598
2950.774386,-9622.677246,-444.123565,766.095498
2950.774723,-11177.109724,74.020594,842.705048
2950.775061,-10807.006753,444.123565,0.000000
2950.775398,-10288.862594,1184.329507,-1225.752797
2950.775735,-10807.006753,370.102971,-1072.533697
2950.776073,-10955.047942,-370.102971,-229.828649
2950.776410,-8956.491898,-592.164754,-689.485948
2950.776748,-8068.244768,-148.041188,76.609550
2950.777085,-8290.306550,-222.061783,842.705048
2950.777423,-10066.800811,74.020594,0.000000
2950.777760,-10140.821405,222.061783,-612.876398
2950.778098,-10140.821405,296.082377,-842.705048
2950.778435,-9548.656652,-666.185348,0.000000
2950.778772,-10658.965565,-1184.329507,1149.143247
2950.779110,-9104.533087,-518.144159,1149.143247
2950.779447,-8068.244768,-74.020594,1225.752797
2950.779785,-8882.471304,222.061783,2528.115143
2950.780122,-10658.965565,888.247130,2298.286494
2950.780460,-11177.109724,2368.659014,1378.971896
2950.780797,-11029.068536,2220.617826,612.876398
2950.781135,-10807.006753,1776.494261,153.219100
2950.781472,-11473.192101,444.123565,919.314598
2950.781809,-10288.862594,370.102971,995.924147
2950.782147,-8216.285956,0.000000,919.314598
2950.782484,-9400.615463,0.000000,1225.752797
2950.782822,-10732.986159,296.082377,1149.143247
2950.783159,-10436.903782,444.123565,-536.266849
2950.783497,-10510.924376,296.082377,-1378.971896
2950.783834,-10140.821405,-444.123565,-1838.629195
2950.784172,-11399.171507,-740.205942,-1608.800546
2950.784509,-10288.862594,-1628.453072,-2451.505594
2950.784846,-8364.327145,-2146.597232,-1072.533697
2950.785184,-8364.327145,-1776.494261,0.000000
2950.785521,-9548.656652,-2294.638420,919.314598
2950.785859,-11547.212695,-1628.453072,689.485948
2950.786196,-11177.109724,-1776.494261,-383.047749
2950.786534,-10955.047942,-1998.556043,0.000000
2950.786871,-11991.336260,-2368.659014,306.438199
2950.787209,-9770.718434,-2368.659014,995.924147
2950.787546,-8290.306550,-2072.576638,1762.019645
2950.787883,-8142.265362,-666.185348,2451.505594
2950.788221,-9178.553681,74.020594,2221.676944
2950.788558,-11769.274478,1628.453072,689.485948
2950.788896,-11843.295072,1850.514855,-842.705048
2950.789233,-11029.068536,1628.453072,-995.924147
2950.789571,-11843.295072,1184.329507,0.000000
2950.789908,-9104.533087,74.020594,-612.876398
2950.790245,-7846.182985,-296.082377,612.876398
2950.790583,-7698.141797,-1036.288319,1685.410096
2950.790920,-9770.718434,0.000000,1149.143247
2950.791258,-10881.027347,1628.453072,0.000000
2950.791596,-10732.986159,518.144159,-766.095498
2950.791933,-10214.842000,370.102971,-919.314598
2950.792271,-10881.027347,-444.123565,-536.266849
2950.792608,-10066.800811,74.020594,-612.876398
2950.792946,-8512.368333,-1258.350101,76.609550
2950.793283,-8068.244768,-962.267725,842.705048
2950.793621,-9622.677246,-1036.288319,1302.362347
2950.793958,-10214.842000,-148.041188,1072.533697
2950.794296,-9918.759623,222.061783,919.314598
2950.794633,-10436.903782,0.000000,766.095498
2950.794971,-11695.253884,-296.082377,1455.581446
2950.795308,-10955.047942,518.144159,612.876398
2950.795646,-9844.739029,-814.226536,1532.190996
2950.795983,-8512.368333,-666.185348,1225.752797
2950.796321,-9622.677246,592.164754,1149.143247
2950.796658,-10955.047942,666.185348,459.657299
2950.796996,-9474.636058,0.000000,-1225.752797
2950.797333,-10140.821405,-444.123565,-1072.533697
2950.797671,-11473.192101,-1036.288319,0.000000
2950.798008,-10807.006753,-888.247130,-1532.190996
2950.798346,-9400.615463,-592.164754,-1302.362347
2950.798683,-8882.471304,-2738.761985,-1072.533697
2950.799021,-9622.677246,-2220.617826,842.705048
2950.799358,-9992.780217,-1702.473667,995.924147
2950.799696,-9770.718434,-148.041188,766.095498
2950.800033,-10807.006753,-592.164754,229.828649
2950.800371,-12435.459826,-666.185348,536.266849
2950.800708,-11695.253884,-740.205942,536.266849
2950.801046,-9326.594869,-1480.411884,919.314598
2950.801383,-8882.471304,-1184.329507,2068.457845
2950.801721,-9400.615463,-592.164754,2681.334243
2950.802058,-10066.800811,666.185348,2374.896044
2950.802395,-9178.553681,2146.597232,1072.533697
2950.802733,-9326.594869,2516.700203,-76.609550
2950.803070,-12435.459826,1554.432478,306.438199
2950.803408,-11695.253884,1036.288319,-842.705048
2950.803745,-8586.388927,1184.329507,-842.705048
2950.804083,-7994.224174,518.144159,0.000000
2950.804420,-9474.636058,592.164754,919.314598
2950.804758,-9770.718434,0.000000,-306.438199
2950.805095,-9474.636058,962.267725,-995.924147
2950.805433,-9326.594869,296.082377,-1455.581446
2950.805770,-10807.006753,-814.226536,-306.438199
2950.806108,-10732.986159,-2146.597232,-1149.143247
2950.806445,-8956.491898,-2220.617826,-919.314598
2950.806783,-8882.471304,-1554.432478,-459.657299
2950.807120,-8956.491898,-888.247130,0.000000
2950.807458,-10510.924376,-1036.288319,536.266849
2950.807795,-10510.924376,814.226536,536.266849
2950.808133,-11251.130318,74.020594,153.219100
2950.808470,-12805.562797,0.000000,153.219100
2950.808808,-12435.459826,-962.267725,459.657299
2950.809145,-10510.924376,-444.123565,1302.362347
2950.809483,-9400.615463,-1184.329507,1225.752797
2950.809820,-9030.512492,-1184.329507,1302.362347
2950.810158,-10066.800811,-74.020594,2145.067394
2950.810495,-9844.739029,74.020594,842.705048
2950.810833,-10214.842000,814.226536,0.000000
2950.811170,-11695.253884,148.041188,-689.485948
2950.811508,-11251.130318,-814.226536,-766.095498
2950.811845,-9252.574275,-888.247130,-689.485948
2950.812183,-7920.203579,-2146.597232,153.219100
2950.812520,-7920.203579,-1258.350101,612.876398
2950.812858,-9104.533087,-1332.370696,229.828649
2950.813195,-9400.615463,0.000000,766.095498
2950.813533,-10140.821405,-888.247130,-76.609550
2950.813870,-11177.109724,444.123565,842.705048
2950.814208,-11991.336260,-592.164754,766.095498
2950.814545,-10658.965565,0.000000,459.657299
2950.814883,-8438.347739,-814.226536,919.314598
2950.815220,-8586.388927,-518.144159,2068.457845
2950.815558,-9252.574275,-148.041188,2834.553343
2950.815895,-9696.697840,1776.494261,2221.676944
2950.816233,-10732.986159,1702.473667,1225.752797
2950.816570,-11695.253884,2664.741391,536.266849
2950.816908,-12583.501014,1332.370696,-612.876398
2950.817245,-11177.109724,1110.308913,-842.705048
2950.817583,-8882.471304,-74.020594,-689.485948
2950.817920,-8364.327145,-296.082377,306.438199
2950.818258,-8734.430116,-1110.308913,612.876398
2950.818595,-9030.512492,0.000000,0.000000
2950.818933,-9400.615463,0.000000,-459.657299
2950.819270,-11029.068536,-444.123565,-689.485948
2950.819608,-11325.150913,0.000000,-1685.410096
2950.819945,-10584.944971,-1332.370696,-2145.067394
2950.820283,-9474.636058,-2516.700203,-689.485948
2950.820620,-7698.141797,-2960.823768,-229.828649
2950.820958,-8882.471304,-2442.679609,153.219100
2950.821295,-9252.574275,-1184.329507,-76.609550
2950.821633,-9918.759623,-1258.350101,-1378.971896
2950.821970,-10881.027347,-518.144159,-76.609550
2950.822308,-11473.192101,-1702.473667,0.000000
2950.822645,-10881.027347,-888.247130,1378.971896
2950.822983,-10214.842000,-1702.473667,2451.505594
2950.823320,-10140.821405,-1406.391290,2987.772442
2950.823658,-9844.739029,-592.164754,3217.601092
2950.823995,-10140.821405,740.205942,3140.991542
2950.824333,-10436.903782,1554.432478,1991.848295
2950.824670,-11325.150913,1406.391290,76.609550
2950.825008,-12361.439231,1628.453072,-995.924147
2950.825345,-11103.089130,888.247130,-2451.505594
2950.825683,-9178.553681,222.061783,-1685.410096
2950.826020,-8364.327145,-1258.350101,-689.485948
2950.826358,-8438.347739,-740.205942,153.219100
2950.826695,-8290.306550,296.082377,153.219100
2950.827033,-9844.739029,444.123565,536.266849
2950.827370,-10362.883188,74.020594,536.266849
2950.827707,-11103.089130,-370.102971,612.876398
2950.828045,-11399.171507,-444.123565,1149.143247
2950.828382,-9696.697840,-444.123565,153.219100
2950.828720,-8438.347739,-1850.514855,689.485948
2950.829057,-8882.471304,-888.247130,1915.238745
2950.829395,-8734.430116,-518.144159,995.924147
2950.829732,-9474.636058,814.226536,306.438199
2950.830070,-10140.821405,444.123565,-766.095498
2950.830407,-11473.192101,296.082377,-1149.143247
2950.830745,-10732.986159,370.102971,-766.095498
2950.831082,-9992.780217,-296.082377,459.657299
2950.831420,-9030.512492,-592.164754,995.924147
2950.831757,-10584.944971,-1036.288319,1838.629195
2950.832095,-10288.862594,296.082377,1225.752797
2950.832432,-10658.965565,74.020594,383.047749
2950.832770,-10732.986159,370.102971,76.609550
2950.833107,-12213.398043,-592.164754,-612.876398
2950.833445,-11917.315666,-1184.329507,-2298.286494
2950.833782,-9622.677246,-888.247130,-2604.724693
2950.834120,-8586.388927,-2664.741391,-1685.410096
2950.834457,-8660.409521,-2294.638420,-306.438199
2950.834795,-8586.388927,-2146.597232,-229.828649
2950.835132,-10362.883188,-296.082377,153.219100
2950.835470,-10140.821405,0.000000,229.828649
2950.835807,-11547.212695,-370.102971,842.705048
2950.836145,-11769.274478,-1184.329507,1838.629195
2950.836482,-9844.739029,-1110.308913,1838.629195
2950.836820,-9400.615463,-740.205942,3524.039291
2950.837157,-10140.821405,-296.082377,3370.820191
2950.837495,-9548.656652,666.185348,2834.553343
2950.837832,-10066.800811,2442.679609,1915.238745
2950.838170,-9252.574275,1628.453072,-842.705048
2950.838507,-10140.821405,1258.350101,-1072.533697
2950.838845,-10214.842000,1406.391290,-612.876398
2950.839182,-9178.553681,1628.453072,-995.924147
2950.839520,-8512.368333,518.144159,-689.485948
2950.839857,-9252.574275,370.102971,842.705048
2950.840195,-9992.780217,222.061783,153.219100
2950.840532,-9770.718434,444.123565,229.828649
2950.840870,-9844.739029,814.226536,459.657299
2950.841207,-11325.150913,-296.082377,76.609550
2950.841545,-11695.253884,-740.205942,-995.924147
2950.841882,-10140.821405,-1184.329507,-1072.533697
2950.842220,-9770.718434,-2072.576638,-842.705048
2950.842557,-8956.491898,-1258.350101,-536.266849
2950.842895,-9104.533087,-1480.411884,0.000000
2950.843232,-9548.656652,-370.102971,612.876398
2950.843570,-9696.697840,-1036.288319,306.438199
2950.843907,-11695.253884,148.041188,842.705048
2950.844245,-12361.439231,-592.164754,306.438199
2950.844582,-10436.903782,-592.164754,76.609550
2950.844920,-9474.636058,-1850.514855,995.924147
2950.845257,-9548.656652,-1480.411884,1532.190996
2950.845595,-9178.553681,-1332.370696,842.705048
2950.845932,-9474.636058,-222.061783,76.609550
2950.846270,-8882.471304,148.041188,0.000000
2950.846607,-10807.006753,0.000000,0.000000
2950.846945,-11177.109724,0.000000,-1072.533697
2950.847282,-9696.697840,148.041188,-1991.848295
2950.847620,-9474.636058,-1110.308913,-1302.362347
2950.847957,-9400.615463,-1184.329507,-536.266849
2950.848295,-9252.574275,-1332.370696,-306.438199
2950.848632,-9252.574275,-370.102971,689.485948
2950.848970,-9474.636058,-518.144159,229.828649
2950.849307,-11029.068536,0.000000,1072.533697
2950.849645,-12509.480420,370.102971,766.095498
2950.849982,-10510.924376,-296.082377,0.000000
2950.850320,-9474.636058,-814.226536,766.095498
2950.850657,-9326.594869,-444.123565,3524.039291
2950.850995,-9622.677246,0.000000,2374.896044
2950.851332,-9474.636058,1110.308913,2145.067394
2950.851670,-9918.759623,74.020594,2068.457845
2950.852007,-10362.883188,1628.453072,1072.533697
2950.852344,-11843.295072,666.185348,612.876398
2950.852682,-10658.965565,1998.556043,0.000000
2950.853019,-9400.615463,-222.061783,-1072.533697
2950.853357,-9474.636058,-370.102971,0.000000
2950.853694,-8808.450710,-444.123565,-229.828649
2950.854032,-8364.327145,-518.144159,0.000000
2950.854369,-9178.553681,-740.205942,0.000000
2950.854707,-10214.842000,-222.061783,0.000000
2950.855044,-11991.336260,-222.061783,-766.095498
2950.855382,-10436.903782,0.000000,-1532.190996
2950.855719,-10066.800811,-1628.453072,-612.876398
2950.856057,-9474.636058,-2442.679609,-383.047749
2950.856394,-9548.656652,-2368.659014,0.000000
2950.856732,-9252.574275,-1332.370696,919.314598
2950.857069,-9474.636058,-1406.391290,-383.047749
2950.857407,-9844.739029,-1110.308913,0.000000
2950.857744,-12139.377449,-962.267725,0.000000
2950.858082,-10732.986159,962.267725,76.609550
2950.858419,-10214.842000,-592.164754,229.828649
2950.858757,-10288.862594,-888.247130,1838.629195
2950.859094,-10140.821405,0.000000,2451.505594
2950.859432,-10140.821405,370.102971,2911.162892
2950.859769,-9844.739029,962.267725,1072.533697
2950.860107,-9918.759623,888.247130,536.266849
2950.860444,-11843.295072,666.185348,153.219100
2950.860782,-10066.800811,1036.288319,-1532.190996
2950.861119,-8808.450710,666.185348,-1685.410096
2950.861457,-9400.615463,222.061783,-689.485948
2950.861794,-9770.718434,0.000000,-1302.362347
2950.862132,-8512.368333,888.247130,-1378.971896
2950.862469,-8290.306550,148.041188,-536.266849
2950.862807,-8808.450710,148.041188,766.095498
2950.863144,-10881.027347,74.020594,689.485948
2950.863482,-10807.006753,740.205942,689.485948
2950.863819,-10510.924376,0.000000,0.000000
2950.864157,-10140.821405,-666.185348,459.657299
2950.864494,-10214.842000,-962.267725,1378.971896
2950.864832,-8956.491898,-1554.432478,2298.286494
2950.865169,-9474.636058,0.000000,1455.581446
2950.865507,-9918.759623,0.000000,919.314598
2950.865844,-11399.171507,0.000000,0.000000
2950.866182,-10436.903782,148.041188,-229.828649
2950.866519,-10066.800811,74.020594,689.485948
2950.866857,-10362.883188,518.144159,459.657299
2950.867194,-10658.965565,-444.123565,229.828649
2950.867532,-10288.862594,0.000000,536.266849
2950.867869,-9548.656652,222.061783,76.609550
2950.868207,-10214.842000,-518.144159,0.000000
2950.868544,-11843.295072,-666.185348,229.828649
2950.868882,-10807.006753,-1036.288319,-1838.629195
2950.869219,-10066.800811,-666.185348,-1302.362347
2950.869557,-9770.718434,-1776.494261,-842.705048
2950.869894,-9252.574275,-2368.659014,-459.657299
2950.870232,-9400.615463,-1924.535449,0.000000
2950.870569,-8808.450710,-1406.391290,536.266849
2950.870907,-9474.636058,-1258.350101,1072.533697
2950.871244,-11621.233289,-962.267725,919.314598
2950.871582,-10658.965565,-740.205942,459.657299
2950.871919,-9844.739029,-518.144159,1302.362347
2950.872257,-10066.800811,-74.020594,2451.505594
2950.872594,-10214.842000,-148.041188,1915.238745
2950.872932,-9844.739029,740.205942,1685.410096
2950.873269,-9770.718434,1406.391290,1685.410096
2950.873607,-10584.944971,1554.432478,689.485948
2950.873944,-11843.295072,1628.453072,842.705048
2950.874282,-10732.986159,2072.576638,229.828649
2950.874619,-9252.574275,1776.494261,-229.828649
2950.874957,-8734.430116,888.247130,0.000000
2950.875294,-9770.718434,740.205942,919.314598
2950.875632,-10510.924376,814.226536,0.000000
2950.875969,-10436.903782,370.102971,-689.485948
2950.876307,-10510.924376,148.041188,-1072.533697
2950.876644,-9992.780217,-444.123565,-612.876398
2950.876982,-9548.656652,-666.185348,-689.485948
2950.877319,-8956.491898,-1554.432478,-459.657299
2950.877656,-9030.512492,-2146.597232,-995.924147
2950.877994,-10140.821405,-740.205942,459.657299
2950.878331,-10288.862594,-1406.391290,-536.266849
2950.878669,-10214.842000,-1110.308913,153.219100
2950.879006,-10288.862594,-2368.659014,612.876398
2950.879344,-10658.965565,-1850.514855,1685.410096
2950.879681,-9548.656652,-888.247130,1072.533697
2950.880019,-9400.615463,-148.041188,1149.143247
2950.880356,-9474.636058,-1110.308913,76.609550
2950.880694,-10214.842000,-1554.432478,0.000000
2950.881031,-11103.089130,0.000000,0.000000
2950.881369,-10436.903782,-444.123565,0.000000
2950.881706,-9548.656652,-444.123565,-306.438199
2950.882044,-10140.821405,0.000000,76.609550
2950.882381,-10807.006753,-296.082377,0.000000
2950.882719,-9622.677246,-148.041188,-306.438199
2950.883056,-9992.780217,-962.267725,0.000000
2950.883394,-10732.986159,-444.123565,1378.971896
2950.883731,-11547.212695,-740.205942,-229.828649
2950.884069,-10732.986159,222.061783,76.609550
2950.884406,-10214.842000,-444.123565,-612.876398
2950.884744,-10066.800811,-444.123565,-229.828649
2950.885081,-10362.883188,-370.102971,229.828649
2950.885419,-9252.574275,370.102971,766.095498
2950.885756,-9252.574275,-370.102971,536.266849
2950.886094,-9844.739029,0.000000,1532.190996
2950.886431,-10510.924376,1258.350101,1532.190996
2950.886769,-9918.759623,1998.556043,1762.019645
2950.887106,-9770.718434,1184.329507,766.095498
2950.887444,-9770.718434,1332.370696,995.924147
2950.887781,-10732.986159,518.144159,995.924147
2950.888119,-9548.656652,1258.350101,995.924147
2950.888456,-8586.388927,666.185348,0.000000
2950.888794,-9326.594869,148.041188,383.047749
2950.889131,-9918.759623,518.144159,0.000000
2950.889469,-9918.759623,148.041188,-1302.362347
2950.889806,-9770.718434,0.000000,-1991.848295
2950.890144,-10066.800811,-1110.308913,-1149.143247
2950.890481,-10214.842000,-592.164754,-1149.143247
2950.890819,-9992.780217,-962.267725,-612.876398
2950.891156,-10362.883188,-1258.350101,0.000000
2950.891494,-9770.718434,-1702.473667,229.828649
2950.891831,-11251.130318,-1332.370696,229.828649
2950.892169,-11103.089130,-1480.411884,459.657299
2950.892506,-10807.006753,-2590.720797,-766.095498
2950.892844,-10732.986159,-1258.350101,919.314598
2950.893181,-10955.047942,-2072.576638,1455.581446
2950.893518,-9104.533087,-592.164754,1072.533697
2950.893856,-8808.450710,-296.082377,536.266849
2950.894193,-10436.903782,148.041188,1838.629195
2950.894531,-10955.047942,74.020594,995.924147
2950.894868,-10584.944971,370.102971,766.095498
2950.895206,-10140.821405,592.164754,919.314598
2950.895543,-9474.636058,0.000000,306.438199
2950.895881,-10140.821405,-592.164754,459.657299
2950.896218,-8586.388927,0.000000,306.438199
2950.896556,-7476.080014,296.082377,-536.266849
2950.896893,-9326.594869,222.061783,229.828649
2950.897230,-11029.068536,-296.082377,-1302.362347
2950.897568,-10140.821405,740.205942,-1302.362347
2950.897905,-9992.780217,444.123565,-1302.362347
2950.898243,-8956.491898,0.000000,-76.609550
2950.898580,-9696.697840,296.082377,842.705048
2950.898918,-9696.697840,-222.061783,536.266849
2950.899255,-8660.409521,-296.082377,0.000000
2950.899593,-10214.842000,0.000000,1685.410096
2950.899930,-11695.253884,148.041188,1762.019645
2950.900267,-11547.212695,370.102971,1149.143247
2950.900605,-10955.047942,444.123565,842.705048
2950.900942,-10288.862594,0.000000,1225.752797
2950.901280,-11029.068536,-370.102971,1302.362347
2950.901617,-9844.739029,0.000000,1455.581446
2950.901955,-9548.656652,-740.205942,1225.752797
2950.902292,-9252.574275,148.041188,306.438199
2950.902630,-10807.006753,-666.185348,0.000000
2950.902967,-10288.862594,0.000000,459.657299
2950.903304,-9474.636058,-888.247130,-612.876398
2950.903642,-9844.739029,-740.205942,-229.828649
2950.903979,-10584.944971,-1480.411884,-383.047749
2950.904317,-9474.636058,-2294.638420,-1149.143247
2950.904654,-8660.409521,-2146.597232,-919.314598
2950.904992,-8808.450710,-2664.741391,0.000000
2950.905329,-10066.800811,-2220.617826,1225.752797
2950.905667,-10807.006753,-1702.473667,536.266849
2950.906004,-10584.944971,-1036.288319,0.000000
2950.906342,-10584.944971,-740.205942,0.000000
2950.906679,-11251.130318,-1480.411884,76.609550
2950.907016,-9918.759623,-592.164754,995.924147
2950.907354,-9104.533087,-370.102971,1149.143247
2950.907691,-9474.636058,0.000000,1991.848295
2950.908029,-11029.068536,444.123565,1532.190996
2950.908366,-10732.986159,1406.391290,1225.752797
2950.908704,-11177.109724,1184.329507,1225.752797
2950.909041,-10510.924376,1702.473667,1149.143247
2950.909379,-10807.006753,1110.308913,1072.533697
2950.909716,-10362.883188,1258.350101,842.705048
2950.910053,-8586.388927,962.267725,0.000000
2950.910391,-8364.327145,888.247130,0.000000
2950.910728,-10140.821405,444.123565,306.438199
2950.911066,-10214.842000,1258.350101,-1685.410096
2950.911403,-9548.656652,888.247130,-2145.067394
2950.911741,-9178.553681,296.082377,-1991.848295
2950.912078,-9400.615463,-962.267725,-1685.410096
2950.912416,-9252.574275,-1332.370696,-1302.362347
2950.912753,-8364.327145,-1184.329507,-536.266849
2950.913090,-8734.430116,-1924.535449,153.219100
2950.913428,-9770.718434,-888.247130,536.266849
2950.913765,-10658.965565,0.000000,229.828649
2950.914103,-11251.130318,-296.082377,459.657299
2950.914440,-11251.130318,-740.205942,612.876398
2950.914778,-11103.089130,-814.226536,919.314598
2950.915115,-10140.821405,-1184.329507,1378.971896
2950.915453,-9252.574275,-740.205942,995.924147
2950.915790,-9252.574275,-888.247130,1608.800546
2950.916128,-9770.718434,-740.205942,1072.533697
2950.916465,-9992.780217,888.247130,0.000000
2950.916802,-11473.192101,296.082377,0.000000
2950.917140,-11029.068536,296.082377,-766.095498
2950.917477,-11103.089130,-888.247130,-383.047749
2950.917815,-10510.924376,-814.226536,689.485948
2950.918152,-8438.347739,-814.226536,383.047749
2950.918490,-9696.697840,-888.247130,1225.752797
2950.918827,-10584.944971,-888.247130,995.924147
2950.919165,-10436.903782,0.000000,-306.438199
2950.919502,-11177.109724,222.061783,0.000000
2950.919839,-10658.965565,-888.247130,-766.095498
2950.920177,-10807.006753,-962.267725,0.000000
2950.920514,-9252.574275,-1036.288319,-153.219100
2950.920852,-7698.141797,-888.247130,0.000000
2950.921189,-8068.244768,-962.267725,995.924147
2950.921527,-9178.553681,444.123565,2681.334243
2950.921864,-9770.718434,1702.473667,1762.019645
2950.922202,-10584.944971,1702.473667,919.314598
2950.922539,-11103.089130,1702.473667,1072.533697
2950.922876,-11917.315666,296.082377,1762.019645
2950.923214,-10807.006753,148.041188,1378.971896
2950.923551,-8660.409521,222.061783,1378.971896
2950.923889,-7846.182985,0.000000,995.924147
2950.924226,-9326.594869,-222.061783,0.000000
2950.924564,-9548.656652,222.061783,-1532.190996
2950.924901,-9104.533087,222.061783,-2451.505594
2950.925239,-9622.677246,0.000000,-3064.381992
2950.925576,-11917.315666,-1332.370696,-1838.629195
2950.925914,-10732.986159,-444.123565,-2298.286494
2950.926251,-9104.533087,-1628.453072,-1685.410096
2950.926588,-9474.636058,-1776.494261,229.828649
2950.926926,-10510.924376,-1628.453072,536.266849
2950.927263,-11621.233289,-1480.411884,153.219100
2950.927601,-11547.212695,-740.205942,-76.609550
2950.927938,-11029.068536,-1776.494261,-306.438199
2950.928276,-11325.150913,-1480.411884,229.828649
2950.928613,-11029.068536,-2146.597232,306.438199
2950.928951,-8956.491898,-1702.473667,919.314598
2950.929288,-7698.141797,-1702.473667,1915.238745
2950.929625,-9844.739029,0.000000,3217.601092
2950.929963,-10658.965565,444.123565,2374.896044
2950.930300,-10732.986159,1406.391290,1225.752797
2950.930638,-10732.986159,1036.288319,229.828649
2950.930975,-10955.047942,518.144159,0.000000
2950.931313,-10658.965565,-296.082377,766.095498
2950.931650,-8068.244768,-1480.411884,612.876398
2950.931988,-7179.997637,-666.185348,612.876398
2950.932325,-9178.553681,0.000000,1762.019645
2950.932662,-10140.821405,740.205942,-383.047749
2950.933000,-9400.615463,1036.288319,-842.705048
2950.933337,-10214.842000,666.185348,-1455.581446
2950.933675,-10732.986159,444.123565,-842.705048
2950.934012,-10658.965565,0.000000,-306.438199
2950.934350,-9474.636058,0.000000,995.924147
2950.934687,-8660.409521,-296.082377,612.876398
2950.935025,-9548.656652,-740.205942,2451.505594
2950.935362,-10807.006753,814.226536,1991.848295
2950.935699,-11029.068536,888.247130,1302.362347
2950.936037,-11325.150913,444.123565,459.657299
2950.936374,-11325.150913,222.061783,536.266849
2950.936712,-11177.109724,-296.082377,229.828649
2950.937049,-8660.409521,148.041188,0.000000
2950.937387,-8068.244768,-1628.453072,229.828649
2950.937724,-8882.471304,-296.082377,1608.800546
2950.938062,-10214.842000,444.123565,842.705048
2950.938399,-9992.780217,1036.288319,-76.609550
2950.938737,-10214.842000,74.020594,-1608.800546
2950.939074,-10807.006753,-444.123565,-1608.800546
2950.939411,-10881.027347,-1480.411884,-2451.505594
2950.939749,-8512.368333,-1924.535449,-2374.896044
2950.940086,-7846.182985,-2812.782580,-1072.533697
2950.940424,-9178.553681,-2738.761985,766.095498
2950.940761,-9770.718434,-1258.350101,76.609550
2950.941099,-10510.924376,-518.144159,229.828649
2950.941436,-11473.192101,-740.205942,-459.657299
2950.941774,-11399.171507,-962.267725,-306.438199
2950.942111,-11991.336260,-1184.329507,229.828649
2950.942448,-10214.842000,-1332.370696,1685.410096
2950.942786,-8660.409521,-1258.350101,1685.410096
2950.943123,-10140.821405,-444.123565,3064.381992
2950.943461,-11695.253884,444.123565,2604.724693
2950.943798,-10436.903782,2368.659014,766.095498
2950.944136,-10732.986159,1702.473667,0.000000
2950.944473,-11325.150913,1702.473667,0.000000
2950.944811,-10881.027347,1184.329507,-459.657299
2950.945148,-9622.677246,1110.308913,-153.219100
2950.945485,-8290.306550,888.247130,383.047749
2950.945823,-8512.368333,74.020594,919.314598
2950.946160,-9400.615463,370.102971,1072.533697
2950.946498,-9770.718434,2146.597232,-229.828649
2950.946835,-10881.027347,666.185348,-612.876398
2950.947173,-11251.130318,-444.123565,-995.924147
2950.947510,-10288.862594,-2072.576638,-1225.752797
2950.947848,-8660.409521,-1776.494261,0.000000
2950.948185,-7179.997637,-2664.741391,689.485948
2950.948523,-7994.224174,-2664.741391,1302.362347
2950.948860,-9326.594869,-1998.556043,919.314598
2950.949197,-9326.594869,-148.041188,306.438199
2950.949535,-10362.883188,444.123565,-306.438199
2950.949872,-11621.233289,-148.041188,76.609550
2950.950210,-12287.418637,-74.020594,612.876398
2950.950547,-10732.986159,-740.205942,153.219100
2950.950885,-9104.533087,-1184.329507,1225.752797
2950.951222,-8882.471304,-888.247130,2221.676944
2950.951560,-10288.862594,-888.247130,1991.848295
2950.951897,-10658.965565,1406.391290,689.485948
2950.952234,-11547.212695,1702.473667,-612.876398
2950.952572,-11769.274478,1554.432478,-1302.362347
2950.952909,-12287.418637,666.185348,-1302.362347
2950.953247,-10510.924376,0.000000,-689.485948
2950.953584,-8586.388927,-962.267725,-383.047749
2950.953922,-9104.533087,-1258.350101,536.266849
2950.954259,-9548.656652,-1258.350101,76.609550
2950.954597,-9104.533087,-592.164754,-766.095498
2950.954934,-9918.759623,222.061783,-612.876398
2950.955271,-10584.944971,74.020594,-689.485948
2950.955609,-10807.006753,-370.102971,0.000000
2950.955946,-9844.739029,-666.185348,229.828649
2950.956284,-8956.491898,-1258.350101,1455.581446
2950.956621,-8216.285956,-740.205942,1762.019645
2950.956959,-9400.615463,-592.164754,2757.943793
2950.957296,-9622.677246,74.020594,2451.505594
2950.957634,-9474.636058,1258.350101,1915.238745
2950.957971,-9770.718434,1332.370696,1302.362347
2950.958309,-11547.212695,1110.308913,689.485948
2950.958646,-11251.130318,814.226536,0.000000
2950.958983,-9326.594869,518.144159,-766.095498
2950.959321,-9326.594869,0.000000,229.828649
2950.959658,-10288.862594,222.061783,995.924147
2950.959996,-9252.574275,148.041188,-229.828649
2950.960333,-10510.924376,148.041188,0.000000
2950.960671,-11177.109724,148.041188,-689.485948
2950.961008,-12435.459826,-592.164754,-1302.362347
2950.961346,-11843.295072,-740.205942,-2145.067394
2950.961683,-9844.739029,-2738.761985,-383.047749
2950.962020,-9326.594869,-2590.720797,306.438199
2950.962358,-9622.677246,-2738.761985,995.924147
2950.962695,-9622.677246,-1406.391290,0.000000
2950.963033,-10288.862594,-1036.288319,-153.219100
2950.963370,-10881.027347,-1332.370696,-919.314598
2950.963708,-11547.212695,-888.247130,-995.924147
2950.964045,-11103.089130,-1554.432478,-306.438199
2950.964383,-9548.656652,-2220.617826,1149.143247
2950.964720,-8216.285956,-2072.576638,1685.410096
2950.965057,-9178.553681,-1258.350101,3677.258390
2950.965395,-9104.533087,222.061783,2528.115143
2950.965732,-9992.780217,592.164754,1685.410096
2950.966070,-10510.924376,1628.453072,536.266849
2950.966407,-11251.130318,1924.535449,-1532.190996
2950.966745,-11103.089130,1110.308913,-1991.848295
2950.967082,-9992.780217,518.144159,-2068.457845
2950.967420,-7846.182985,-518.144159,-1072.533697
2950.967757,-8660.409521,-370.102971,612.876398
2950.968095,-8438.347739,444.123565,0.000000
2950.968432,-9622.677246,814.226536,-153.219100
2950.968769,-10510.924376,814.226536,0.000000
2950.969107,-11177.109724,0.000000,76.609550
2950.969444,-11621.233289,444.123565,0.000000
2950.969782,-11399.171507,0.000000,229.828649
2950.970119,-9252.574275,-666.185348,-153.219100
2950.970457,-9178.553681,-1184.329507,1532.190996
2950.970794,-9252.574275,0.000000,2451.505594
2950.971132,-9326.594869,296.082377,1455.581446
2950.971469,-10362.883188,814.226536,1149.143247
2950.971806,-11473.192101,592.164754,459.657299
2950.972144,-11843.295072,296.082377,-306.438199
2950.972481,-10066.800811,0.000000,76.609550
2950.972819,-8438.347739,-592.164754,383.047749
2950.973156,-8808.450710,-888.247130,1915.238745
2950.973494,-9400.615463,-222.061783,995.924147
2950.973831,-9696.697840,740.205942,766.095498
2950.974169,-10732.986159,-296.082377,536.266849
2950.974506,-11399.171507,-370.102971,-766.095498
2950.974843,-11177.109724,-888.247130,-1762.019645
2950.975181,-10510.924376,-1850.514855,-1838.629195
2950.975518,-8216.285956,-2294.638420,-1685.410096
2950.975856,-9400.615463,-2664.741391,0.000000
2950.976193,-8882.471304,-1554.432478,229.828649
2950.976531,-9400.615463,-666.185348,536.266849
2950.976868,-11177.109724,-370.102971,919.314598
2950.977206,-11843.295072,-518.144159,0.000000
2950.977543,-11769.274478,-814.226536,459.657299
2950.977881,-11103.089130,-814.226536,1302.362347
2950.978218,-8882.471304,-1554.432478,1762.019645
2950.978555,-9844.739029,-666.185348,3370.820191
2950.978893,-9992.780217,-148.041188,2298.286494
2950.979230,-9474.636058,1924.535449,1608.800546
2950.979568,-10214.842000,1628.453072,842.705048
2950.979905,-10881.027347,1628.453072,0.000000
2950.980243,-10510.924376,1036.288319,-689.485948
2950.980580,-9252.574275,1998.556043,-1225.752797
2950.980918,-8290.306550,888.247130,-1378.971896
2950.981255,-9252.574275,444.123565,-459.657299
2950.981592,-10066.800811,0.000000,153.219100
2950.981930,-9622.677246,1110.308913,0.000000
2950.982267,-10214.842000,370.102971,306.438199
2950.982605,-11473.192101,0.000000,0.000000
2950.982942,-10881.027347,-1184.329507,-689.485948
2950.983280,-9548.656652,-1036.288319,-766.095498
2950.983617,-8956.491898,-1998.556043,-1072.533697
2950.983955,-9178.553681,-2146.597232,76.609550
2950.984292,-9474.636058,-1850.514855,842.705048
2950.984629,-9474.636058,-814.226536,1225.752797
2950.984967,-10288.862594,-888.247130,536.266849
2950.985304,-11325.150913,370.102971,229.828649
2950.985642,-11917.315666,-444.123565,306.438199
2950.985979,-10807.006753,-296.082377,229.828649
2950.986317,-9474.636058,-1554.432478,229.828649
2950.986654,-9474.636058,-962.267725,2145.067394
2950.986992,-10510.924376,-1480.411884,1838.629195
2950.987329,-9474.636058,0.000000,612.876398
2950.987666,-9918.759623,-148.041188,383.047749
2950.988004,-10362.883188,444.123565,-383.047749
2950.988341,-11399.171507,-222.061783,-1072.533697
2950.988679,-9474.636058,0.000000,-919.314598
2950.989016,-8956.491898,-1036.288319,-919.314598
2950.989354,-9474.636058,-1184.329507,612.876398
2950.989691,-10288.862594,-1184.329507,306.438199
2950.990029,-9696.697840,-592.164754,689.485948
2950.990366,-9474.636058,-888.247130,1838.629195
2950.990704,-10436.903782,-666.185348,1762.019645
2950.991041,-11103.089130,74.020594,766.095498
2950.991378,-10288.862594,0.000000,-459.657299
2950.991716,-9992.780217,-1258.350101,-612.876398
2950.992053,-9030.512492,0.000000,459.657299
2950.992391,-9992.780217,-222.061783,2068.457845
2950.992728,-8956.491898,1184.329507,2221.676944
2950.993066,-9622.677246,1406.391290,1915.238745
2950.993403,-11399.171507,2368.659014,2145.067394
2950.993741,-11843.295072,1554.432478,0.000000
2950.994078,-10140.821405,1332.370696,-459.657299
2950.994415,-9622.677246,592.164754,0.000000
2950.994753,-9104.533087,0.000000,76.609550
2950.995090,-10066.800811,-444.123565,-459.657299
2950.995428,-9252.574275,962.267725,-1225.752797
2950.995765,-9252.574275,-740.205942,-1915.238745
2950.996102,-9474.636058,0.000000,-1762.019645
2950.996440,-10362.883188,0.000000,-1608.800546
2950.996777,-10362.883188,444.123565,-1302.362347
2950.997115,-9992.780217,-1850.514855,-1838.629195
2950.997452,-9844.739029,-2738.761985,536.266849
2950.997789,-10140.821405,-2072.576638,919.314598
2950.998127,-9474.636058,-1406.391290,995.924147
2950.998464,-9770.718434,-1924.535449,689.485948
2950.998802,-9770.718434,-1924.535449,919.314598
2950.999139,-11473.192101,-740.205942,689.485948
2950.999476,-11103.089130,-370.102971,842.705048
2950.999814,-10066.800811,0.000000,0.000000
2951.000151,-10066.800811,-518.144159,536.266849
2951.000489,-10658.965565,-222.061783,1302.362347
2951.000826,-8956.491898,370.102971,1149.143247
2951.001163,-9474.636058,0.000000,1991.848295
2951.001501,-9770.718434,148.041188,1915.238745
2951.001838,-11029.068536,370.102971,1072.533697
2951.002176,-11251.130318,666.185348,842.705048
2951.002513,-9918.759623,0.000000,306.438199
2951.002850,-10436.903782,-296.082377,766.095498
2951.003188,-10288.862594,0.000000,0.000000
2951.003525,-8734.430116,444.123565,-1302.362347
2951.003863,-9104.533087,0.000000,-1838.629195
2951.004200,-9030.512492,-444.123565,-689.485948
2951.004537,-9474.636058,-962.267725,-612.876398
2951.004875,-9770.718434,296.082377,-306.438199
2951.005212,-9696.697840,74.020594,0.000000
2951.005550,-10214.842000,-592.164754,306.438199
2951.005887,-11177.109724,-592.164754,995.924147
2951.006224,-10140.821405,-74.020594,1378.971896
2951.006562,-9474.636058,0.000000,1608.800546
2951.006899,-9252.574275,-740.205942,1378.971896
2951.007237,-10362.883188,-296.082377,1608.800546
2951.007574,-10658.965565,-444.123565,536.266849
2951.007912,-9918.759623,888.247130,76.609550
2951.008249,-10807.006753,444.123565,-76.609550
2951.008586,-11251.130318,444.123565,-842.705048
2951.008924,-9844.739029,0.000000,-1378.971896
2951.009261,-9178.553681,666.185348,-689.485948
2951.009599,-9326.594869,-370.102971,-383.047749
2951.009936,-10807.006753,-1110.308913,-76.609550
2951.010273,-10807.006753,-740.205942,-842.705048
2951.010611,-10066.800811,-814.226536,-1378.971896
2951.010948,-10510.924376,-1628.453072,-766.095498
2951.011286,-10288.862594,-1924.535449,229.828649
2951.011623,-9400.615463,-1702.473667,536.266849
2951.011960,-9992.780217,-1258.350101,842.705048
2951.012298,-9992.780217,-1258.350101,1149.143247
2951.012635,-10214.842000,-1110.308913,229.828649
2951.012973,-10658.965565,-1110.308913,995.924147
2951.013310,-9696.697840,-666.185348,1608.800546
2951.013647,-8882.471304,-740.205942,1149.143247
2951.013985,-9918.759623,296.082377,2374.896044
2951.014322,-10214.842000,0.000000,2068.457845
2951.014660,-9770.718434,1184.329507,1762.019645
2951.014997,-10140.821405,1184.329507,1225.752797
2951.015334,-11399.171507,1406.391290,1455.581446
2951.015672,-11177.109724,296.082377,1149.143247
2951.016009,-9696.697840,1258.350101,995.924147
2951.016347,-8882.471304,1184.329507,0.000000
2951.016684,-9770.718434,962.267725,0.000000
2951.017021,-9770.718434,0.000000,-612.876398
2951.017359,-9992.780217,0.000000,-1225.752797
2951.017696,-9844.739029,0.000000,-1149.143247
2951.018034,-10362.883188,-148.041188,-536.266849
2951.018371,-10436.903782,-814.226536,-919.314598
2951.018708,-9474.636058,-296.082377,-995.924147
2951.019046,-9474.636058,-888.247130,-383.047749
2951.019383,-9844.739029,-1184.329507,612.876398
2951.019721,-10807.006753,-1258.350101,306.438199
2951.020058,-10881.027347,-962.267725,842.705048
2951.020395,-10658.965565,-1332.370696,306.438199
2951.020733,-10140.821405,-1258.350101,1378.971896
2951.021070,-10362.883188,-1184.329507,1991.848295
2951.021408,-9770.718434,-592.164754,1378.971896
2951.021745,-9622.677246,0.000000,919.314598
2951.022083,-10140.821405,370.102971,0.000000
2951.022420,-11029.068536,-296.082377,-1532.190996
2951.022757,-9770.718434,222.061783,-1225.752797
2951.023095,-9548.656652,-740.205942,-689.485948
2951.023432,-9548.656652,-518.144159,76.609550
2951.023770,-9474.636058,-888.247130,-306.438199
2951.024107,-9844.739029,296.082377,536.266849
2951.024444,-9622.677246,-592.164754,-766.095498
2951.024782,-10288.862594,-370.102971,-459.657299
2951.025119,-11103.089130,-814.226536,0.000000
2951.025457,-10066.800811,814.226536,-383.047749
2951.025794,-9918.759623,-666.185348,-229.828649
2951.026131,-10066.800811,-740.205942,229.828649
2951.026469,-9474.636058,-296.082377,-383.047749
2951.026806,-9474.636058,-296.082377,842.705048
2951.027144,-9474.636058,-518.144159,1225.752797
2951.027481,-9326.594869,0.000000,1915.238745
2951.027818,-11177.109724,666.185348,1991.848295
2951.028156,-10658.965565,1110.308913,1149.143247
2951.028493,-9918.759623,1184.329507,612.876398
2951.028831,-9474.636058,1258.350101,2298.286494
2951.029168,-10362.883188,1184.329507,1302.362347
2951.029505,-10140.821405,1258.350101,306.438199
2951.029843,-10066.800811,814.226536,-76.609550
2951.030180,-9696.697840,0.000000,153.219100
2951.030518,-10362.883188,0.000000,-612.876398
2951.030855,-9474.636058,666.185348,-689.485948
2951.031192,-9474.636058,-444.123565,-1302.362347
2951.031530,-9252.574275,-740.205942,-1532.190996
2951.031867,-10066.800811,-1036.288319,-1455.581446
2951.032205,-9400.615463,-740.205942,-995.924147
2951.032542,-10214.842000,-2146.597232,0.000000
2951.032879,-10436.903782,-1258.350101,689.485948
2951.033217,-10510.924376,-1554.432478,-229.828649
2951.033554,-10362.883188,-592.164754,689.485948
2951.033892,-10436.903782,-1554.432478,0.000000
2951.034229,-10436.903782,-2368.659014,842.705048
2951.034566,-10955.047942,-2146.597232,1455.581446
2951.034904,-9918.759623,-1258.350101,2221.676944
2951.035241,-9474.636058,-888.247130,1991.848295
2951.035579,-9474.636058,-1110.308913,1532.190996
2951.035916,-10584.944971,-370.102971,1225.752797
2951.036254,-10584.944971,74.020594,1225.752797
2951.036591,-9992.780217,666.185348,459.657299
2951.036928,-10214.842000,666.185348,766.095498
2951.037266,-10955.047942,74.020594,153.219100
2951.037603,-9992.780217,148.041188,0.000000
2951.037941,-10066.800811,-74.020594,-229.828649
2951.038278,-8290.306550,0.000000,689.485948
2951.038615,-9548.656652,-222.061783,229.828649
2951.038953,-9918.759623,666.185348,-1455.581446
2951.039290,-9992.780217,148.041188,-1915.238745
2951.039628,-10658.965565,0.000000,-766.095498
2951.039965,-10214.842000,-592.164754,-76.609550
2951.040302,-9252.574275,444.123565,536.266849
2951.040640,-9326.594869,814.226536,1455.581446
2951.040977,-9474.636058,148.041188,612.876398
2951.041315,-10658.965565,222.061783,842.705048
2951.041652,-10881.027347,74.020594,1762.019645
2951.041989,-10955.047942,74.020594,919.314598
2951.042327,-10436.903782,0.000000,1762.019645
2951.042664,-10732.986159,-962.267725,1378.971896
2951.043002,-9400.615463,-518.144159,1302.362347
2951.043339,-8808.450710,-444.123565,995.924147
2951.043676,-9104.533087,0.000000,1302.362347
2951.044014,-10510.924376,296.082377,0.000000
2951.044351,-10140.821405,814.226536,-1378.971896
2951.044689,-10658.965565,888.247130,-2145.067394
2951.045026,-10362.883188,-592.164754,-1532.190996
2951.045363,-10658.965565,-1110.308913,-1532.190996
2951.045701,-9622.677246,-1554.432478,-612.876398
2951.046038,-8660.409521,-962.267725,-383.047749
2951.046376,-8882.471304,-1406.391290,-919.314598
2951.046713,-11547.212695,-1702.473667,76.609550
2951.047050,-10955.047942,-370.102971,-1532.190996
2951.047388,-10362.883188,-518.144159,-1302.362347
2951.047725,-10584.944971,-962.267725,612.876398
2951.048063,-10881.027347,-1332.370696,76.609550
2951.048400,-9770.718434,-1480.411884,1302.362347
2951.048737,-9178.553681,-1184.329507,2451.505594
2951.049075,-8364.327145,0.000000,2834.553343
2951.049412,-10955.047942,1036.288319,2374.896044
2951.049750,-11621.233289,1332.370696,919.314598
2951.050087,-10584.944971,740.205942,383.047749
2951.050425,-9770.718434,222.061783,842.705048
2951.050762,-9770.718434,444.123565,1225.752797
2951.051099,-9474.636058,296.082377,766.095498
2951.051437,-8142.265362,1184.329507,1072.533697
2951.051774,-8068.244768,444.123565,1072.533697
2951.052112,-10288.862594,518.144159,1072.533697
2951.052449,-11029.068536,1628.453072,-306.438199
2951.052786,-10807.006753,1998.556043,-1225.752797
2951.053124,-10288.862594,1258.350101,-2298.286494
2951.053461,-10362.883188,-518.144159,-2221.676944
2951.053799,-9252.574275,-1332.370696,-1149.143247
2951.054136,-7698.141797,-1924.535449,76.609550
2951.054473,-8364.327145,-1924.535449,1072.533697
2951.054811,-10510.924376,-962.267725,995.924147
2951.055148,-11399.171507,0.000000,-612.876398
2951.055486,-11103.089130,-518.144159,0.000000
