#time,accel_x,accel_y,accel_z
3352.463379,-10066.800811,592.164754,1762.019645
3352.463717,-10881.027347,444.123565,1302.362347
3352.464055,-11251.130318,370.102971,919.314598
3352.464393,-10362.883188,814.226536,766.095498
3352.464730,-9474.636058,1258.350101,0.000000
3352.465068,-9474.636058,814.226536,-153.219100
3352.465406,-10066.800811,0.000000,-229.828649
3352.465744,-9548.656652,-592.164754,-612.876398
3352.466081,-9104.533087,296.082377,-612.876398
3352.466419,-9178.553681,-222.061783,-306.438199
3352.466757,-10436.903782,-666.185348,-229.828649
3352.467095,-10732.986159,-1776.494261,-612.876398
3352.467432,-10214.842000,-1554.432478,0.000000
3352.467770,-9474.636058,-1924.535449,536.266849
3352.468108,-10510.924376,-2368.659014,1455.581446
3352.468446,-10658.965565,-2960.823768,1532.190996
3352.468783,-10066.800811,-2960.823768,1149.143247
3352.469121,-9844.739029,-2220.617826,1762.019645
3352.469459,-9548.656652,-1924.535449,2068.457845
3352.469796,-10066.800811,-1480.411884,2604.724693
3352.470134,-11029.068536,-1480.411884,2451.505594
3352.470472,-10881.027347,-1332.370696,2451.505594
3352.470810,-10436.903782,-518.144159,3370.820191
3352.471147,-9622.677246,-962.267725,4826.401637
3352.471485,-10510.924376,-740.205942,5132.839837
3352.471823,-10807.006753,-666.185348,3830.477490
3352.472161,-11103.089130,-518.144159,3600.648841
3352.472498,-10732.986159,-962.267725,3677.258390
3352.472836,-9844.739029,-666.185348,3370.820191
3352.473174,-9252.574275,-962.267725,2298.286494
3352.473512,-9474.636058,-740.205942,995.924147
3352.473849,-9104.533087,-2664.741391,229.828649
3352.474187,-9252.574275,-2146.597232,766.095498
3352.474525,-8660.409521,-2442.679609,1685.410096
3352.474863,-9474.636058,-1480.411884,2298.286494
3352.475200,-10510.924376,-2368.659014,2451.505594
3352.475538,-10362.883188,-2368.659014,1685.410096
3352.475876,-9844.739029,-3404.947333,2757.943793
3352.476214,-9770.718434,-3108.864956,4136.915689
3352.476551,-9474.636058,-3627.009116,4060.306139
3352.476889,-10658.965565,-2664.741391,4060.306139
3352.477227,-11251.130318,-2220.617826,3370.820191
3352.477564,-9918.759623,-2442.679609,1838.629195
3352.477902,-9844.739029,-3108.864956,2298.286494
3352.478240,-9622.677246,-4515.256246,3064.381992
3352.478578,-9178.553681,-3701.029710,4213.525239
3352.478915,-11029.068536,-2812.782580,3677.258390
3352.479253,-11621.233289,-1628.453072,1915.238745
3352.479591,-11177.109724,-1776.494261,0.000000
3352.479929,-10214.842000,-2664.741391,-612.876398
3352.480266,-9474.636058,-2738.761985,0.000000
3352.480604,-9400.615463,-5033.400406,459.657299
3352.480942,-8956.491898,-4959.379811,842.705048
3352.481280,-9770.718434,-5403.503377,459.657299
3352.481617,-10436.903782,-5255.462188,689.485948
3352.481955,-9622.677246,-5255.462188,1225.752797
3352.482293,-9474.636058,-4885.359217,2604.724693
3352.482631,-9770.718434,-4293.194464,4060.306139
3352.482968,-11177.109724,-2590.720797,3370.820191
3352.483306,-11473.192101,-2146.597232,1991.848295
3352.483644,-10658.965565,-592.164754,919.314598
3352.483982,-11399.171507,-2590.720797,1455.581446
3352.484319,-10658.965565,-3182.885551,2681.334243
3352.484657,-8290.306550,-2146.597232,3294.210641
3352.484995,-8290.306550,-1406.391290,4519.963438
3352.485332,-9474.636058,-1258.350101,4290.134789
3352.485670,-11103.089130,-1776.494261,4596.572988
3352.486008,-11843.295072,370.102971,4979.620737
3352.486346,-10658.965565,2590.720797,2834.553343
3352.486683,-10807.006753,3849.070898,1838.629195
3352.487021,-11843.295072,2368.659014,842.705048
3352.487359,-9696.697840,444.123565,0.000000
3352.487697,-7624.121203,-1702.473667,1685.410096
3352.488034,-8290.306550,-2072.576638,4519.963438
3352.488372,-10288.862594,-2368.659014,4366.744339
3352.488710,-10732.986159,-2146.597232,2145.067394
3352.489048,-8586.388927,-1702.473667,306.438199
3352.489385,-8068.244768,-2368.659014,1991.848295
3352.489723,-9992.780217,-1184.329507,3677.258390
3352.490061,-10214.842000,-888.247130,2834.553343
3352.490399,-10066.800811,-222.061783,2068.457845
3352.490736,-11547.212695,-1776.494261,1991.848295
3352.491074,-11991.336260,-1850.514855,2834.553343
3352.491412,-10807.006753,-2664.741391,2451.505594
3352.491750,-8956.491898,-4145.153275,2987.772442
3352.492087,-8290.306550,-4737.318029,2451.505594
3352.492425,-8512.368333,-4071.132681,3907.087040
3352.492763,-10066.800811,-2220.617826,5286.058936
3352.493100,-11991.336260,-1480.411884,3677.258390
3352.493438,-12953.603985,-370.102971,1149.143247
3352.493776,-12435.459826,0.000000,0.000000
3352.494114,-11325.150913,-1036.288319,1072.533697
3352.494451,-9474.636058,-3404.947333,1532.190996
3352.494789,-9474.636058,-2886.803174,1072.533697
3352.495127,-9400.615463,-3775.050304,153.219100
3352.495465,-10214.842000,-4441.235652,0.000000
3352.495802,-10436.903782,-5033.400406,536.266849
3352.496140,-9104.533087,-5625.565159,1838.629195
3352.496478,-7772.162391,-4663.297435,4136.915689
3352.496816,-9474.636058,-1924.535449,3677.258390
3352.497153,-11399.171507,-444.123565,2145.067394
3352.497491,-11325.150913,-962.267725,-306.438199
3352.497829,-11621.233289,-2664.741391,2604.724693
3352.498167,-10658.965565,-2590.720797,4366.744339
3352.498504,-8290.306550,-1184.329507,4213.525239
3352.498842,-8882.471304,-2072.576638,3600.648841
3352.499180,-8586.388927,-2960.823768,3217.601092
3352.499518,-9030.512492,-4737.318029,5056.230287
3352.499855,-10066.800811,-2294.638420,5898.935335
3352.500193,-9474.636058,1480.411884,3294.210641
3352.500531,-11325.150913,2220.617826,1455.581446
3352.500868,-13545.768739,1110.308913,-766.095498
3352.501206,-10214.842000,-2146.597232,0.000000
3352.501544,-8364.327145,-1776.494261,2298.286494
3352.501882,-6957.935855,-1776.494261,3830.477490
3352.502219,-9178.553681,-3330.926739,3447.429741
3352.502557,-12213.398043,-4811.338623,1685.410096
3352.502895,-8734.430116,-5403.503377,0.000000
3352.503233,-7846.182985,-4663.297435,2528.115143
3352.503570,-8882.471304,-3330.926739,3600.648841
3352.503908,-12139.377449,-4885.359217,2604.724693
3352.504246,-10955.047942,-2738.761985,-229.828649
3352.504584,-7920.203579,-1924.535449,-306.438199
3352.504921,-10807.006753,-3034.844362,3677.258390
3352.505259,-13249.686362,-4293.194464,4903.011187
3352.505597,-12213.398043,-4145.153275,1532.190996
3352.505935,-7920.203579,-2960.823768,1532.190996
3352.506272,-7846.182985,-2886.803174,3907.087040
3352.506610,-11399.171507,-3701.029710,5745.716235
3352.506948,-11991.336260,-2442.679609,2221.676944
3352.507286,-8142.265362,-370.102971,-689.485948
3352.507623,-10288.862594,666.185348,1838.629195
3352.507961,-13693.809927,-296.082377,1685.410096
3352.508299,-11991.336260,0.000000,-766.095498
3352.508636,-7846.182985,666.185348,-1378.971896
3352.508974,-8290.306550,518.144159,689.485948
3352.509312,-11621.233289,-1776.494261,1302.362347
3352.509650,-10436.903782,-2146.597232,-383.047749
3352.509987,-7254.018232,-1480.411884,1149.143247
3352.510325,-9104.533087,-1776.494261,2987.772442
3352.510663,-11843.295072,-962.267725,2221.676944
3352.511001,-10658.965565,0.000000,0.000000
3352.511338,-8808.450710,518.144159,689.485948
3352.511676,-9844.739029,0.000000,1378.971896
3352.512014,-11251.130318,518.144159,1149.143247
3352.512352,-9474.636058,1406.391290,1532.190996
3352.512689,-9104.533087,518.144159,2298.286494
3352.513027,-10955.047942,0.000000,2145.067394
3352.513365,-10584.944971,518.144159,-153.219100
3352.513703,-8512.368333,740.205942,1225.752797
3352.514040,-8808.450710,222.061783,1915.238745
3352.514378,-9326.594869,296.082377,0.000000
3352.514716,-11029.068536,2368.659014,-612.876398
3352.515054,-11695.253884,1184.329507,-229.828649
3352.515391,-11547.212695,74.020594,-459.657299
3352.515729,-11103.089130,0.000000,-1608.800546
3352.516067,-9252.574275,222.061783,-1225.752797
3352.516404,-8438.347739,-592.164754,-766.095498
3352.516742,-9622.677246,-1628.453072,-1455.581446
3352.517080,-9252.574275,-2368.659014,-2374.896044
3352.517417,-10288.862594,-3404.947333,-919.314598
3352.517755,-10807.006753,-2368.659014,919.314598
3352.518092,-9770.718434,-1554.432478,0.000000
3352.518430,-10881.027347,296.082377,-536.266849
3352.518767,-11695.253884,-1480.411884,-1685.410096
3352.519105,-10881.027347,-1924.535449,-919.314598
3352.519442,-9844.739029,-1258.350101,995.924147
3352.519780,-9918.759623,-2368.659014,2911.162892
3352.520117,-10807.006753,-740.205942,2451.505594
3352.520455,-10362.883188,-1258.350101,842.705048
3352.520792,-9548.656652,-814.226536,1225.752797
3352.521130,-9030.512492,-962.267725,1225.752797
3352.521467,-9178.553681,518.144159,1608.800546
3352.521804,-9474.636058,1628.453072,1455.581446
3352.522142,-10510.924376,1184.329507,612.876398
3352.522479,-12361.439231,1924.535449,842.705048
3352.522817,-11103.089130,1998.556043,-1302.362347
3352.523154,-9622.677246,1332.370696,-842.705048
3352.523492,-8882.471304,-370.102971,-766.095498
3352.523829,-7846.182985,-1406.391290,-995.924147
3352.524167,-7328.038826,-1258.350101,0.000000
3352.524504,-8438.347739,-2516.700203,1302.362347
3352.524842,-10288.862594,-1480.411884,536.266849
3352.525179,-10584.944971,0.000000,-383.047749
3352.525517,-10732.986159,0.000000,1072.533697
3352.525854,-11547.212695,518.144159,689.485948
3352.526192,-10732.986159,-740.205942,612.876398
3352.526529,-10066.800811,-666.185348,2298.286494
3352.526867,-10362.883188,-1332.370696,2068.457845
3352.527204,-10362.883188,-962.267725,1838.629195
3352.527542,-10066.800811,-1332.370696,306.438199
3352.527879,-9992.780217,-2072.576638,0.000000
3352.528217,-9548.656652,-2368.659014,-766.095498
3352.528554,-8808.450710,-1110.308913,153.219100
3352.528892,-9400.615463,0.000000,842.705048
3352.529229,-10881.027347,-740.205942,306.438199
3352.529567,-12065.356855,-518.144159,-1455.581446
3352.529904,-10510.924376,-296.082377,-1991.848295
3352.530242,-10584.944971,-666.185348,-689.485948
3352.530579,-10288.862594,-2368.659014,0.000000
3352.530917,-8364.327145,-2516.700203,-919.314598
3352.531254,-8882.471304,-2442.679609,612.876398
3352.531591,-10881.027347,-3108.864956,1149.143247
3352.531929,-10881.027347,-2220.617826,-536.266849
3352.532266,-10140.821405,-1110.308913,-842.705048
3352.532604,-10510.924376,-666.185348,-383.047749
3352.532941,-9770.718434,-444.123565,-766.095498
3352.533279,-8364.327145,-666.185348,0.000000
3352.533616,-8068.244768,592.164754,2221.676944
3352.533954,-10807.006753,74.020594,2528.115143
3352.534291,-12435.459826,1480.411884,1838.629195
3352.534629,-11399.171507,1924.535449,1225.752797
3352.534966,-10510.924376,1184.329507,2528.115143
3352.535304,-9474.636058,1036.288319,2221.676944
3352.535641,-7550.100608,2294.638420,1225.752797
3352.535979,-8586.388927,1998.556043,1915.238745
3352.536316,-11695.253884,1776.494261,1149.143247
3352.536654,-11103.089130,2442.679609,-3064.381992
3352.536991,-9548.656652,3256.906145,-2987.772442
3352.537329,-9548.656652,1184.329507,-1532.190996
3352.537666,-8438.347739,222.061783,-2298.286494
3352.538004,-7550.100608,740.205942,-306.438199
3352.538341,-9474.636058,-148.041188,1225.752797
3352.538679,-11621.233289,-2146.597232,229.828649
3352.539016,-11399.171507,-740.205942,-536.266849
3352.539354,-9844.739029,-1036.288319,0.000000
3352.539691,-9770.718434,-1554.432478,1072.533697
3352.540029,-9622.677246,-962.267725,-383.047749
3352.540366,-9104.533087,-222.061783,153.219100
3352.540704,-10288.862594,-1554.432478,842.705048
3352.541041,-12287.418637,-1480.411884,459.657299
3352.541379,-11769.274478,148.041188,-76.609550
3352.541716,-10955.047942,0.000000,612.876398
3352.542053,-10658.965565,-1258.350101,383.047749
3352.542391,-9474.636058,-814.226536,-229.828649
3352.542728,-8068.244768,-370.102971,0.000000
3352.543066,-10066.800811,-1628.453072,1762.019645
3352.543403,-12139.377449,-814.226536,536.266849
3352.543741,-10732.986159,74.020594,-1378.971896
3352.544078,-10510.924376,-518.144159,0.000000
3352.544416,-10288.862594,-962.267725,153.219100
3352.544753,-7846.182985,-1110.308913,-842.705048
3352.545091,-8586.388927,-740.205942,842.705048
3352.545428,-10584.944971,-2146.597232,919.314598
3352.545766,-11399.171507,-1258.350101,-1072.533697
3352.546103,-9696.697840,74.020594,-1302.362347
3352.546441,-9548.656652,-888.247130,0.000000
3352.546778,-9326.594869,-814.226536,229.828649
3352.547116,-8290.306550,-740.205942,-459.657299
3352.547453,-7920.203579,0.000000,1991.848295
3352.547791,-10214.842000,-1406.391290,3370.820191
3352.548128,-12139.377449,666.185348,2757.943793
3352.548466,-10881.027347,2368.659014,1378.971896
3352.548803,-11399.171507,1258.350101,689.485948
3352.549141,-10362.883188,962.267725,1225.752797
3352.549478,-7476.080014,370.102971,0.000000
3352.549816,-7772.162391,444.123565,1685.410096
3352.550153,-10436.903782,0.000000,1225.752797
3352.550491,-10881.027347,148.041188,-1532.190996
3352.550828,-10881.027347,1406.391290,-1762.019645
3352.551166,-11103.089130,-592.164754,-1225.752797
3352.551503,-10066.800811,-962.267725,-995.924147
3352.551840,-7772.162391,-1628.453072,-1302.362347
3352.552178,-8216.285956,-1554.432478,1149.143247
3352.552515,-11103.089130,-2590.720797,1685.410096
3352.552853,-11695.253884,-1554.432478,-1149.143247
3352.553190,-10510.924376,-592.164754,-1225.752797
3352.553528,-10955.047942,-2368.659014,-842.705048
3352.553865,-9400.615463,-3182.885551,-1991.848295
3352.554203,-8290.306550,-2442.679609,-306.438199
3352.554540,-9696.697840,-2738.761985,2987.772442
3352.554878,-11251.130318,-1850.514855,1762.019645
3352.555215,-11843.295072,-740.205942,1072.533697
3352.555553,-11103.089130,888.247130,76.609550
3352.555890,-12361.439231,-666.185348,766.095498
3352.556228,-10140.821405,-518.144159,766.095498
3352.556565,-6513.812290,-1036.288319,1838.629195
3352.556903,-9178.553681,-222.061783,3830.477490
3352.557240,-11843.295072,444.123565,766.095498
3352.557578,-10955.047942,1702.473667,-1149.143247
3352.557915,-11029.068536,2442.679609,0.000000
3352.558253,-10658.965565,0.000000,383.047749
3352.558590,-9326.594869,1554.432478,-689.485948
3352.558928,-7994.224174,592.164754,-383.047749
3352.559265,-8512.368333,-740.205942,1225.752797
3352.559603,-11103.089130,-370.102971,306.438199
3352.559940,-10881.027347,740.205942,-1302.362347
3352.560278,-10288.862594,1332.370696,612.876398
3352.560615,-9548.656652,-518.144159,459.657299
3352.560953,-8216.285956,962.267725,0.000000
3352.561290,-8364.327145,0.000000,1302.362347
3352.561627,-10807.006753,-592.164754,2834.553343
3352.561965,-11695.253884,148.041188,306.438199
3352.562302,-11251.130318,2664.741391,-536.266849
3352.562640,-10807.006753,1776.494261,-459.657299
3352.562977,-10140.821405,74.020594,-689.485948
3352.563315,-8290.306550,-592.164754,-689.485948
3352.563652,-7105.977043,592.164754,842.705048
3352.563990,-10658.965565,-814.226536,2604.724693
3352.564327,-11843.295072,1184.329507,-919.314598
3352.564665,-11177.109724,1406.391290,-2374.896044
3352.565002,-11547.212695,0.000000,0.000000
3352.565340,-9696.697840,-1628.453072,-689.485948
3352.565677,-7698.141797,-1110.308913,-842.705048
3352.566015,-8142.265362,-1036.288319,612.876398
3352.566352,-10732.986159,-2072.576638,-306.438199
3352.566690,-12435.459826,-1184.329507,-2604.724693
3352.567027,-11547.212695,-370.102971,-2374.896044
3352.567365,-10436.903782,-888.247130,-919.314598
3352.567702,-9474.636058,-2072.576638,-229.828649
3352.568040,-7994.224174,-1258.350101,0.000000
3352.568377,-8586.388927,-1776.494261,2145.067394
3352.568715,-11177.109724,-1480.411884,3217.601092
3352.569052,-11547.212695,0.000000,842.705048
3352.569390,-11399.171507,1332.370696,1378.971896
3352.569727,-11769.274478,814.226536,1838.629195
3352.570065,-10066.800811,296.082377,1608.800546
3352.570402,-7698.141797,1480.411884,2145.067394
3352.570740,-8586.388927,148.041188,2834.553343
3352.571077,-10140.821405,592.164754,2604.724693
3352.571415,-10584.944971,1258.350101,-612.876398
3352.571752,-10584.944971,2442.679609,-153.219100
3352.572089,-9696.697840,1184.329507,-459.657299
3352.572427,-8586.388927,-296.082377,-306.438199
3352.572764,-8142.265362,1110.308913,842.705048
3352.573102,-8882.471304,-222.061783,919.314598
3352.573439,-10510.924376,222.061783,76.609550
3352.573777,-10584.944971,0.000000,-1532.190996
3352.574114,-11917.315666,-370.102971,0.000000
3352.574452,-10288.862594,-2146.597232,-153.219100
3352.574789,-8956.491898,-2294.638420,-536.266849
3352.575127,-7698.141797,-1480.411884,766.095498
3352.575464,-8364.327145,-1924.535449,459.657299
3352.575802,-11473.192101,-1184.329507,1378.971896
3352.576139,-12065.356855,-370.102971,-306.438199
3352.576477,-11399.171507,-518.144159,536.266849
3352.576814,-12139.377449,-592.164754,1302.362347
3352.577152,-10436.903782,-444.123565,76.609550
3352.577489,-8290.306550,0.000000,1072.533697
3352.577827,-9474.636058,-1554.432478,1838.629195
3352.578164,-10732.986159,-1184.329507,459.657299
3352.578502,-11103.089130,370.102971,0.000000
3352.578839,-12065.356855,222.061783,383.047749
3352.579177,-10955.047942,-592.164754,-1302.362347
3352.579514,-9548.656652,-1184.329507,-2451.505594
3352.579852,-6883.915261,0.000000,-383.047749
3352.580189,-8068.244768,-814.226536,76.609550
3352.580527,-10214.842000,-592.164754,-766.095498
3352.580864,-10955.047942,518.144159,-2068.457845
3352.581202,-11917.315666,0.000000,-766.095498
3352.581539,-10807.006753,-962.267725,76.609550
3352.581876,-8068.244768,-740.205942,459.657299
3352.582214,-8290.306550,0.000000,3140.991542
3352.582551,-9548.656652,-1110.308913,3217.601092
3352.582889,-10881.027347,0.000000,1762.019645
3352.583226,-10732.986159,888.247130,612.876398
3352.583564,-10955.047942,1998.556043,919.314598
3352.583901,-10955.047942,1924.535449,766.095498
3352.584239,-8734.430116,1998.556043,76.609550
3352.584576,-7402.059420,1554.432478,1685.410096
3352.584914,-9696.697840,888.247130,2221.676944
3352.585251,-10807.006753,1776.494261,842.705048
3352.585589,-11251.130318,1850.514855,383.047749
3352.585926,-11621.233289,666.185348,0.000000
3352.586264,-10214.842000,740.205942,-1532.190996
3352.586601,-7254.018232,296.082377,-1072.533697
3352.586939,-8068.244768,-444.123565,612.876398
3352.587276,-9696.697840,-1628.453072,-689.485948
3352.587614,-10807.006753,-1628.453072,-2221.676944
3352.587951,-10881.027347,0.000000,-1762.019645
3352.588289,-10288.862594,-1184.329507,76.609550
3352.588626,-10881.027347,-1406.391290,-459.657299
3352.588964,-8808.450710,-1554.432478,-1532.190996
3352.589301,-8882.471304,-1850.514855,689.485948
3352.589639,-10658.965565,-2368.659014,1302.362347
3352.589976,-10955.047942,-1480.411884,612.876398
3352.590314,-11473.192101,-148.041188,536.266849
3352.590651,-12065.356855,74.020594,536.266849
3352.590989,-10881.027347,-296.082377,-842.705048
3352.591326,-9104.533087,0.000000,766.095498
3352.591663,-9030.512492,-740.205942,2911.162892
3352.592001,-10140.821405,0.000000,2298.286494
3352.592338,-11251.130318,1776.494261,0.000000
3352.592676,-10881.027347,1998.556043,-612.876398
3352.593013,-10955.047942,518.144159,-383.047749
3352.593351,-9178.553681,518.144159,-766.095498
3352.593688,-7846.182985,518.144159,1072.533697
3352.594026,-9622.677246,-222.061783,2528.115143
3352.594363,-9992.780217,-296.082377,459.657299
3352.594701,-9622.677246,1258.350101,-612.876398
3352.595038,-10066.800811,666.185348,0.000000
3352.595376,-11029.068536,-814.226536,0.000000
3352.595713,-10140.821405,-962.267725,-612.876398
3352.596051,-7254.018232,-296.082377,612.876398
3352.596388,-7846.182985,-1480.411884,1762.019645
3352.596726,-10436.903782,-814.226536,1685.410096
3352.597063,-10214.842000,1110.308913,229.828649
3352.597401,-10955.047942,370.102971,153.219100
3352.597738,-11843.295072,0.000000,153.219100
3352.598076,-9918.759623,0.000000,-689.485948
3352.598413,-8882.471304,-148.041188,1225.752797
3352.598751,-9474.636058,-1850.514855,2451.505594
3352.599088,-9178.553681,-740.205942,1532.190996
3352.599426,-10436.903782,1776.494261,612.876398
3352.599763,-11991.336260,666.185348,-306.438199
3352.600101,-11547.212695,-444.123565,-1608.800546
3352.600438,-10140.821405,-1184.329507,-2451.505594
3352.600776,-8956.491898,-1258.350101,0.000000
3352.601113,-8734.430116,-1480.411884,536.266849
3352.601451,-10362.883188,-1554.432478,-995.924147
3352.601788,-10510.924376,-740.205942,-1838.629195
3352.602125,-10732.986159,-1702.473667,-1991.848295
3352.602463,-11251.130318,-1480.411884,-689.485948
3352.602800,-9548.656652,-1776.494261,-766.095498
3352.603138,-8808.450710,-2072.576638,306.438199
3352.603475,-10214.842000,-1702.473667,995.924147
3352.603813,-9844.739029,-1332.370696,153.219100
3352.604150,-9622.677246,296.082377,1532.190996
3352.604488,-11547.212695,-592.164754,1762.019645
3352.604825,-11547.212695,370.102971,1072.533697
3352.605163,-9622.677246,1850.514855,1072.533697
3352.605500,-9400.615463,518.144159,3140.991542
3352.605838,-9696.697840,666.185348,2528.115143
3352.606175,-10288.862594,962.267725,842.705048
3352.606513,-9548.656652,2812.782580,1302.362347
3352.606850,-10584.944971,1406.391290,689.485948
3352.607188,-10214.842000,1702.473667,229.828649
3352.607525,-8216.285956,1924.535449,-766.095498
3352.607863,-8808.450710,1406.391290,919.314598
3352.608200,-9992.780217,1036.288319,76.609550
3352.608538,-9770.718434,518.144159,-1532.190996
3352.608875,-9178.553681,2220.617826,-995.924147
3352.609213,-10288.862594,-740.205942,0.000000
3352.609550,-10807.006753,-222.061783,-919.314598
3352.609888,-9326.594869,-962.267725,-919.314598
3352.610225,-9770.718434,-1480.411884,919.314598
3352.610563,-10066.800811,-1184.329507,383.047749
3352.610900,-9770.718434,-666.185348,-2374.896044
3352.611238,-9696.697840,-592.164754,-766.095498
3352.611575,-10807.006753,-2294.638420,306.438199
3352.611912,-10436.903782,-1480.411884,0.000000
3352.612250,-9252.574275,-148.041188,1149.143247
3352.612587,-10510.924376,-296.082377,2221.676944
3352.612925,-11029.068536,-444.123565,459.657299
3352.613262,-11251.130318,0.000000,-842.705048
3352.613600,-11177.109724,370.102971,0.000000
3352.613937,-10881.027347,-1184.329507,383.047749
3352.614275,-9696.697840,-592.164754,0.000000
3352.614612,-8364.327145,0.000000,0.000000
3352.614950,-10066.800811,-1332.370696,612.876398
3352.615287,-10955.047942,-740.205942,-919.314598
3352.615625,-9326.594869,-148.041188,-2221.676944
3352.615962,-9622.677246,0.000000,0.000000
3352.616300,-10584.944971,-296.082377,-536.266849
3352.616637,-8734.430116,-592.164754,-1915.238745
3352.616975,-8586.388927,74.020594,919.314598
3352.617312,-10362.883188,-1258.350101,2451.505594
3352.617650,-11029.068536,-518.144159,536.266849
3352.617987,-10584.944971,1258.350101,459.657299
3352.618325,-9992.780217,518.144159,919.314598
3352.618662,-10066.800811,-444.123565,1532.190996
3352.618999,-8808.450710,370.102971,1915.238745
3352.619337,-8290.306550,740.205942,3217.601092
3352.619674,-9844.739029,888.247130,3140.991542
3352.620011,-10807.006753,888.247130,766.095498
3352.620349,-10510.924376,1406.391290,76.609550
3352.620686,-10510.924376,1702.473667,995.924147
3352.621024,-10881.027347,962.267725,536.266849
3352.621361,-9548.656652,962.267725,-306.438199
3352.621698,-8808.450710,296.082377,-612.876398
3352.622036,-9844.739029,-1258.350101,-536.266849
3352.622373,-9770.718434,-1480.411884,-1455.581446
3352.622710,-9178.553681,-1628.453072,-1915.238745
3352.623048,-10288.862594,-2516.700203,-612.876398
3352.623385,-10584.944971,-3182.885551,-1302.362347
3352.623723,-9030.512492,-1998.556043,-1455.581446
3352.624060,-9770.718434,-3256.906145,1378.971896
3352.624397,-11251.130318,-2812.782580,2145.067394
3352.624735,-10066.800811,-1850.514855,-383.047749
3352.625072,-11177.109724,-1110.308913,766.095498
3352.625409,-11325.150913,-2590.720797,229.828649
3352.625747,-10658.965565,-1998.556043,-612.876398
3352.626084,-9474.636058,-888.247130,612.876398
3352.626422,-10140.821405,-1258.350101,1302.362347
3352.626759,-10436.903782,-1332.370696,612.876398
3352.627096,-10584.944971,74.020594,0.000000
3352.627434,-9696.697840,814.226536,689.485948
3352.627771,-9918.759623,296.082377,1378.971896
3352.628108,-10140.821405,444.123565,612.876398
3352.628446,-9622.677246,1332.370696,995.924147
3352.628783,-10066.800811,888.247130,1455.581446
3352.629121,-10658.965565,1036.288319,842.705048
3352.629458,-9696.697840,1406.391290,-995.924147
3352.629795,-9770.718434,1332.370696,-229.828649
3352.630133,-9918.759623,518.144159,0.000000
3352.630470,-9326.594869,0.000000,-1762.019645
3352.630807,-8808.450710,814.226536,-306.438199
3352.631145,-9252.574275,222.061783,459.657299
3352.631482,-9400.615463,0.000000,0.000000
3352.631820,-9104.533087,592.164754,-306.438199
3352.632157,-9770.718434,518.144159,383.047749
3352.632494,-10362.883188,-148.041188,1149.143247
3352.632832,-9474.636058,-444.123565,383.047749
3352.633169,-9326.594869,222.061783,2604.724693
3352.633506,-11399.171507,222.061783,2911.162892
3352.633844,-11695.253884,0.000000,536.266849
3352.634181,-10362.883188,740.205942,-919.314598
3352.634519,-9696.697840,-740.205942,-536.266849
3352.634856,-9992.780217,-888.247130,0.000000
3352.635193,-9252.574275,-1480.411884,-842.705048
3352.635531,-8438.347739,0.000000,-383.047749
3352.635868,-11103.089130,-1184.329507,153.219100
3352.636205,-11695.253884,-592.164754,-1762.019645
3352.636543,-10140.821405,222.061783,-2451.505594
3352.636880,-11251.130318,-1036.288319,-995.924147
3352.637218,-10362.883188,-1776.494261,-1608.800546
3352.637555,-9252.574275,-1924.535449,-2145.067394
3352.637892,-9770.718434,-1850.514855,689.485948
3352.638230,-10955.047942,-2960.823768,842.705048
3352.638567,-10955.047942,-1776.494261,0.000000
3352.638904,-10584.944971,0.000000,-689.485948
3352.639242,-10510.924376,-1036.288319,-612.876398
3352.639579,-10732.986159,-1110.308913,229.828649
3352.639917,-8512.368333,-1702.473667,1378.971896
3352.640254,-8882.471304,222.061783,3907.087040
3352.640591,-10807.006753,222.061783,3983.696590
3352.640929,-10881.027347,1850.514855,1072.533697
3352.641266,-11029.068536,2368.659014,842.705048
3352.641604,-10510.924376,1628.453072,1991.848295
3352.641941,-9178.553681,1406.391290,1455.581446
3352.642278,-9326.594869,1776.494261,1915.238745
3352.642616,-9326.594869,1332.370696,2221.676944
3352.642953,-9844.739029,1554.432478,0.000000
3352.643290,-9104.533087,1850.514855,-995.924147
3352.643628,-8882.471304,2516.700203,-1378.971896
3352.643965,-10510.924376,-592.164754,0.000000
3352.644303,-9178.553681,518.144159,-1149.143247
3352.644640,-8512.368333,0.000000,-76.609550
3352.644977,-9918.759623,-740.205942,1915.238745
3352.645315,-11029.068536,-1702.473667,383.047749
3352.645652,-10510.924376,-666.185348,-1225.752797
3352.645989,-9770.718434,-814.226536,-306.438199
3352.646327,-9918.759623,-3034.844362,306.438199
3352.646664,-10584.944971,-2516.700203,612.876398
3352.647002,-9474.636058,-2516.700203,842.705048
3352.647339,-10066.800811,-1776.494261,1608.800546
3352.647676,-11103.089130,-1628.453072,0.000000
3352.648014,-11177.109724,-370.102971,-995.924147
3352.648351,-11103.089130,-740.205942,-612.876398
3352.648688,-10807.006753,-2442.679609,0.000000
3352.649026,-9622.677246,-2220.617826,229.828649
3352.649363,-9252.574275,-1924.535449,995.924147
3352.649701,-11029.068536,-962.267725,1532.190996
3352.650038,-11769.274478,-1184.329507,-383.047749
3352.650375,-10362.883188,-222.061783,-1991.848295
3352.650713,-10658.965565,-1480.411884,-1302.362347
3352.651050,-10288.862594,-1776.494261,-995.924147
3352.651387,-8956.491898,-1554.432478,-1225.752797
3352.651725,-9178.553681,-1702.473667,612.876398
3352.652062,-9918.759623,-1776.494261,1225.752797
3352.652400,-10436.903782,-666.185348,153.219100
3352.652737,-10510.924376,1184.329507,-689.485948
3352.653074,-10362.883188,222.061783,-383.047749
3352.653412,-10510.924376,222.061783,-229.828649
3352.653749,-7994.224174,518.144159,153.219100
3352.654086,-8660.409521,0.000000,3524.039291
3352.654424,-9696.697840,518.144159,4136.915689
3352.654761,-10807.006753,1924.535449,995.924147
3352.655099,-10881.027347,3552.988522,0.000000
3352.655436,-9844.739029,2072.576638,766.095498
3352.655773,-10436.903782,888.247130,1762.019645
3352.656111,-8808.450710,1850.514855,536.266849
3352.656448,-8660.409521,1184.329507,2987.772442
3352.656785,-11177.109724,1406.391290,1455.581446
3352.657123,-10658.965565,592.164754,-2681.334243
3352.657460,-10140.821405,1776.494261,-2604.724693
3352.657798,-10066.800811,-592.164754,-1608.800546
3352.658135,-9400.615463,-1332.370696,-2145.067394
3352.658472,-7698.141797,-370.102971,-1149.143247
3352.658810,-9400.615463,-1850.514855,766.095498
3352.659147,-11177.109724,-2146.597232,0.000000
3352.659484,-11843.295072,-2516.700203,-2221.676944
3352.659822,-11177.109724,-1850.514855,-383.047749
3352.660159,-10658.965565,-3108.864956,766.095498
3352.660497,-9992.780217,-2960.823768,766.095498
3352.660834,-8364.327145,-2516.700203,842.705048
3352.661171,-9770.718434,-3404.947333,3064.381992
3352.661509,-11769.274478,-2368.659014,2298.286494
3352.661846,-11547.212695,-1628.453072,536.266849
3352.662183,-10955.047942,-222.061783,919.314598
3352.662521,-10510.924376,-1258.350101,689.485948
3352.662858,-9548.656652,-222.061783,-612.876398
3352.663196,-7994.224174,518.144159,612.876398
3352.663533,-9548.656652,370.102971,1838.629195
3352.663870,-10955.047942,0.000000,689.485948
3352.664208,-11325.150913,1776.494261,-1302.362347
3352.664545,-10732.986159,2442.679609,-383.047749
3352.664882,-11695.253884,148.041188,153.219100
3352.665220,-9252.574275,0.000000,-153.219100
3352.665557,-7550.100608,592.164754,689.485948
3352.665895,-8808.450710,-148.041188,2451.505594
3352.666232,-10955.047942,592.164754,612.876398
3352.666569,-10732.986159,1110.308913,-1608.800546
3352.666907,-10288.862594,1184.329507,-1762.019645
3352.667244,-9696.697840,592.164754,-536.266849
3352.667581,-8586.388927,148.041188,-153.219100
3352.667919,-7550.100608,592.164754,1225.752797
3352.668256,-9400.615463,-370.102971,2528.115143
3352.668594,-11251.130318,962.267725,2221.676944
3352.668931,-11325.150913,1184.329507,689.485948
3352.669268,-11547.212695,740.205942,1225.752797
3352.669606,-10362.883188,-518.144159,383.047749
3352.669943,-8364.327145,-740.205942,0.000000
3352.670280,-7994.224174,-222.061783,1455.581446
3352.670618,-9844.739029,-1554.432478,1762.019645
3352.670955,-10436.903782,-1184.329507,-1072.533697
3352.671293,-10807.006753,-296.082377,-2451.505594
3352.671630,-11177.109724,-222.061783,-1991.848295
3352.671967,-10362.883188,-1332.370696,-2834.553343
3352.672305,-9474.636058,-2294.638420,-1532.190996
3352.672642,-9104.533087,-2516.700203,306.438199
3352.672979,-9178.553681,-3849.070898,689.485948
3352.673317,-10066.800811,-3404.947333,-383.047749
3352.673654,-10881.027347,-2294.638420,0.000000
3352.673992,-11029.068536,-3330.926739,0.000000
3352.674329,-10362.883188,-3552.988522,-612.876398
3352.674666,-8734.430116,-3108.864956,229.828649
3352.675004,-8364.327145,-2664.741391,3830.477490
3352.675341,-10955.047942,-1924.535449,3907.087040
3352.675678,-11843.295072,518.144159,1532.190996
3352.676016,-11843.295072,2072.576638,229.828649
3352.676353,-12139.377449,1036.288319,612.876398
3352.676691,-10881.027347,444.123565,995.924147
3352.677028,-8438.347739,1702.473667,1455.581446
3352.677365,-8512.368333,1554.432478,3370.820191
3352.677703,-10658.965565,1406.391290,2221.676944
3352.678040,-10955.047942,3182.885551,-995.924147
3352.678377,-10584.944971,4145.153275,-1225.752797
3352.678715,-10584.944971,2220.617826,-995.924147
3352.679052,-9474.636058,1258.350101,-2068.457845
3352.679390,-7179.997637,666.185348,-1149.143247
3352.679727,-7476.080014,148.041188,536.266849
3352.680064,-9474.636058,0.000000,153.219100
3352.680402,-10658.965565,296.082377,-1991.848295
3352.680739,-10732.986159,-296.082377,-1991.848295
3352.681077,-9326.594869,-296.082377,-1455.581446
3352.681414,-8364.327145,-1480.411884,-766.095498
3352.681751,-7402.059420,-1628.453072,612.876398
3352.682089,-8734.430116,-2220.617826,1072.533697
3352.682426,-11547.212695,-1850.514855,995.924147
3352.682763,-11399.171507,-962.267725,-919.314598
3352.683101,-11029.068536,-148.041188,-76.609550
3352.683438,-12139.377449,-370.102971,689.485948
3352.683776,-10436.903782,-962.267725,-76.609550
3352.684113,-9474.636058,-1554.432478,842.705048
3352.684450,-10584.944971,-1924.535449,2221.676944
3352.684788,-11251.130318,-1480.411884,919.314598
3352.685125,-11547.212695,-518.144159,0.000000
3352.685462,-11843.295072,-740.205942,-766.095498
3352.685800,-10881.027347,-962.267725,-1838.629195
3352.686137,-10066.800811,-1258.350101,-995.924147
3352.686475,-8142.265362,-814.226536,919.314598
3352.686812,-9474.636058,-888.247130,1072.533697
3352.687149,-11473.192101,-666.185348,153.219100
3352.687487,-11621.233289,74.020594,-612.876398
3352.687824,-11473.192101,-740.205942,76.609550
3352.688161,-9770.718434,-814.226536,612.876398
3352.688499,-7698.141797,-962.267725,1608.800546
3352.688836,-7772.162391,-370.102971,3140.991542
3352.689174,-9474.636058,-370.102971,3677.258390
3352.689511,-11103.089130,1332.370696,2145.067394
3352.689848,-10066.800811,2072.576638,229.828649
3352.690186,-10658.965565,2664.741391,842.705048
3352.690523,-10140.821405,2516.700203,612.876398
3352.690860,-7994.224174,1998.556043,-612.876398
3352.691198,-7624.121203,2368.659014,2451.505594
3352.691535,-9030.512492,1776.494261,2145.067394
3352.691873,-11103.089130,2960.823768,536.266849
3352.692210,-11029.068536,2886.803174,-842.705048
3352.692547,-11547.212695,1998.556043,-842.705048
3352.692885,-10140.821405,1776.494261,-1991.848295
3352.693222,-8364.327145,222.061783,-1838.629195
3352.693559,-9178.553681,-518.144159,842.705048
3352.693897,-9622.677246,-1850.514855,0.000000
3352.694234,-10658.965565,-962.267725,-1915.238745
3352.694572,-11547.212695,-592.164754,-2451.505594
3352.694909,-11473.192101,-1850.514855,-1225.752797
3352.695246,-10510.924376,-2442.679609,-1762.019645
3352.695584,-8512.368333,-2442.679609,-1149.143247
3352.695921,-8734.430116,-3701.029710,1532.190996
3352.696258,-10658.965565,-3627.009116,1991.848295
3352.696596,-10955.047942,-3627.009116,306.438199
3352.696933,-11029.068536,-2294.638420,842.705048
3352.697271,-11769.274478,-2960.823768,1762.019645
3352.697608,-10066.800811,-2368.659014,459.657299
3352.697945,-8512.368333,-2368.659014,1685.410096
3352.698283,-8956.491898,-2146.597232,3447.429741
3352.698620,-10140.821405,-1998.556043,2987.772442
3352.698957,-11473.192101,-888.247130,1608.800546
3352.699295,-10658.965565,518.144159,689.485948
3352.699632,-11029.068536,0.000000,612.876398
3352.699970,-10807.006753,74.020594,0.000000
3352.700307,-8586.388927,370.102971,-153.219100
3352.700644,-9030.512492,74.020594,842.705048
3352.700982,-10658.965565,74.020594,-383.047749
3352.701319,-10066.800811,1036.288319,-2451.505594
3352.701656,-9770.718434,1628.453072,-1838.629195
3352.701994,-10658.965565,592.164754,-536.266849
3352.702331,-9178.553681,518.144159,-919.314598
3352.702669,-8216.285956,814.226536,459.657299
3352.703006,-9474.636058,518.144159,2681.334243
3352.703343,-10658.965565,222.061783,1991.848295
3352.703681,-10140.821405,1554.432478,612.876398
3352.704018,-10658.965565,1480.411884,1685.410096
3352.704355,-11621.233289,1110.308913,1762.019645
3352.704693,-8882.471304,888.247130,-689.485948
3352.705030,-7624.121203,518.144159,919.314598
3352.705368,-8364.327145,-962.267725,2145.067394
3352.705705,-10214.842000,148.041188,306.438199
3352.706042,-10362.883188,1110.308913,-1225.752797
3352.706380,-10436.903782,962.267725,-1838.629195
3352.706717,-10066.800811,0.000000,-2221.676944
3352.707054,-9474.636058,0.000000,-1685.410096
3352.707392,-9252.574275,-222.061783,0.000000
3352.707729,-9696.697840,-1998.556043,842.705048
3352.708067,-10214.842000,-1850.514855,-536.266849
3352.708404,-10658.965565,-1184.329507,-995.924147
3352.708741,-11621.233289,-1184.329507,229.828649
3352.709079,-11695.253884,-1628.453072,-306.438199
3352.709416,-9770.718434,-2072.576638,-1225.752797
3352.709753,-9326.594869,-1924.535449,689.485948
3352.710091,-10288.862594,-2072.576638,1915.238745
3352.710428,-11547.212695,-1480.411884,1455.581446
3352.710766,-11029.068536,-592.164754,1762.019645
3352.711103,-10658.965565,-518.144159,1762.019645
3352.711440,-11251.130318,0.000000,1685.410096
3352.711778,-9474.636058,222.061783,842.705048
3352.712115,-9400.615463,666.185348,3140.991542
3352.712452,-9770.718434,-148.041188,2757.943793
3352.712790,-10066.800811,1406.391290,1149.143247
3352.713127,-10214.842000,2738.761985,536.266849
3352.713465,-10436.903782,1850.514855,842.705048
3352.713802,-9844.739029,1184.329507,0.000000
3352.714139,-8586.388927,1776.494261,-1072.533697
3352.714477,-7698.141797,1406.391290,76.609550
3352.714814,-8956.491898,740.205942,-383.047749
3352.715151,-10288.862594,814.226536,-1991.848295
3352.715489,-9770.718434,1850.514855,-2068.457845
3352.715826,-10807.006753,444.123565,-536.266849
3352.716164,-10510.924376,296.082377,-612.876398
3352.716501,-8068.244768,444.123565,-383.047749
3352.716838,-9696.697840,-222.061783,1378.971896
3352.717176,-11029.068536,-1332.370696,766.095498
3352.717513,-10066.800811,-222.061783,-919.314598
3352.717850,-10584.944971,518.144159,459.657299
3352.718188,-11843.295072,-962.267725,536.266849
3352.718525,-10881.027347,148.041188,0.000000
3352.718863,-9696.697840,-518.144159,459.657299
3352.719200,-8956.491898,-2072.576638,2221.676944
3352.719537,-9252.574275,-1332.370696,1608.800546
3352.719875,-10140.821405,-592.164754,536.266849
3352.720212,-10881.027347,-740.205942,153.219100
3352.720550,-11103.089130,-2442.679609,0.000000
3352.720887,-9770.718434,-2220.617826,-76.609550
3352.721225,-8586.388927,-1998.556043,1225.752797
3352.721562,-9474.636058,-1480.411884,1685.410096
3352.721900,-10807.006753,-2146.597232,-919.314598
3352.722237,-10732.986159,-1628.453072,-1225.752797
3352.722575,-10140.821405,-1850.514855,-153.219100
3352.722912,-10955.047942,-1628.453072,612.876398
3352.723250,-9474.636058,-2146.597232,76.609550
3352.723587,-8438.347739,-592.164754,766.095498
3352.723925,-10510.924376,-2368.659014,2911.162892
3352.724262,-11621.233289,-370.102971,1455.581446
3352.724600,-9844.739029,-444.123565,842.705048
3352.724937,-10955.047942,0.000000,2757.943793
3352.725275,-10732.986159,1036.288319,1532.190996
3352.725612,-9622.677246,1480.411884,-383.047749
3352.725950,-9400.615463,1776.494261,1225.752797
3352.726287,-9326.594869,0.000000,1532.190996
3352.726625,-10066.800811,592.164754,0.000000
3352.726962,-9400.615463,2146.597232,-383.047749
3352.727300,-9474.636058,2220.617826,-383.047749
3352.727637,-10288.862594,592.164754,-536.266849
3352.727975,-9178.553681,1776.494261,-1762.019645
3352.728312,-8586.388927,814.226536,-995.924147
3352.728650,-9918.759623,-666.185348,-1149.143247
3352.728987,-9770.718434,0.000000,-2145.067394
3352.729325,-9844.739029,74.020594,-1838.629195
3352.729662,-10658.965565,-444.123565,-842.705048
3352.730000,-10436.903782,-1406.391290,-2451.505594
3352.730337,-9252.574275,-814.226536,-1685.410096
3352.730675,-10288.862594,-1554.432478,842.705048
3352.731012,-10510.924376,-1702.473667,612.876398
3352.731350,-10658.965565,-1406.391290,76.609550
3352.731687,-10214.842000,-518.144159,1455.581446
3352.732025,-11695.253884,-1628.453072,1685.410096
3352.732362,-11325.150913,-1480.411884,766.095498
3352.732700,-9844.739029,-296.082377,1378.971896
3352.733037,-9400.615463,-1554.432478,2987.772442
3352.733375,-10140.821405,-1184.329507,2451.505594
3352.733712,-10362.883188,148.041188,383.047749
3352.734050,-10807.006753,1406.391290,1302.362347
3352.734387,-10955.047942,296.082377,1149.143247
3352.734725,-10362.883188,740.205942,229.828649
3352.735062,-8956.491898,740.205942,995.924147
3352.735400,-9030.512492,296.082377,1532.190996
3352.735737,-10214.842000,0.000000,766.095498
3352.736075,-10140.821405,1036.288319,-995.924147
3352.736412,-9104.533087,1258.350101,-842.705048
3352.736750,-9918.759623,444.123565,306.438199
3352.737087,-9400.615463,518.144159,-919.314598
3352.737425,-8882.471304,814.226536,689.485948
3352.737762,-10066.800811,-296.082377,1532.190996
3352.738100,-10066.800811,962.267725,919.314598
3352.738437,-9696.697840,1776.494261,76.609550
3352.738775,-10214.842000,666.185348,995.924147
3352.739112,-10066.800811,0.000000,995.924147
3352.739449,-9844.739029,74.020594,689.485948
3352.739787,-9178.553681,1924.535449,1762.019645
3352.740124,-10658.965565,666.185348,1455.581446
3352.740462,-11251.130318,740.205942,0.000000
3352.740799,-9992.780217,1554.432478,-1838.629195
3352.741137,-10066.800811,1406.391290,-1149.143247
3352.741474,-10362.883188,0.000000,-1225.752797
3352.741812,-8808.450710,-1110.308913,-766.095498
3352.742149,-8364.327145,-888.247130,0.000000
3352.742487,-9992.780217,-1998.556043,536.266849
3352.742824,-11325.150913,-814.226536,-766.095498
3352.743162,-10658.965565,-1702.473667,-1149.143247
3352.743499,-11251.130318,-1998.556043,-842.705048
3352.743837,-10658.965565,-2812.782580,-306.438199
3352.744174,-9178.553681,-2960.823768,-1149.143247
3352.744512,-8438.347739,-3330.926739,306.438199
3352.744849,-10584.944971,-3849.070898,536.266849
3352.745187,-10288.862594,-2960.823768,-536.266849
3352.745524,-10362.883188,-2146.597232,-1072.533697
3352.745862,-10658.965565,-2812.782580,842.705048
3352.746199,-10807.006753,-2220.617826,1455.581446
3352.746537,-9252.574275,-1406.391290,1991.848295
3352.746874,-9622.677246,-518.144159,3140.991542
3352.747212,-10807.006753,-592.164754,2298.286494
3352.747549,-11251.130318,0.000000,1685.410096
3352.747887,-10066.800811,1406.391290,1072.533697
3352.748224,-9548.656652,222.061783,1685.410096
3352.748562,-10140.821405,444.123565,1455.581446
3352.748899,-9178.553681,1258.350101,306.438199
3352.749237,-9474.636058,1184.329507,1072.533697
3352.749574,-10658.965565,1184.329507,0.000000
3352.749912,-10362.883188,1406.391290,-1838.629195
3352.750249,-9844.739029,1998.556043,-2068.457845
3352.750587,-9844.739029,592.164754,-995.924147
3352.750924,-8586.388927,370.102971,-1302.362347
3352.751262,-8586.388927,444.123565,-383.047749
3352.751599,-9918.759623,518.144159,689.485948
3352.751937,-10732.986159,-518.144159,-153.219100
3352.752274,-10362.883188,518.144159,-1991.848295
3352.752612,-9474.636058,222.061783,-1149.143247
3352.752949,-9548.656652,-1110.308913,0.000000
3352.753287,-8660.409521,-1332.370696,153.219100
3352.753624,-8512.368333,-666.185348,1532.190996
3352.753962,-10066.800811,-296.082377,1762.019645
3352.754299,-11621.233289,222.061783,689.485948
3352.754637,-11621.233289,666.185348,229.828649
3352.754974,-9992.780217,0.000000,536.266849
3352.755312,-10140.821405,-222.061783,766.095498
3352.755649,-10140.821405,-666.185348,0.000000
3352.755987,-9400.615463,-444.123565,536.266849
3352.756324,-10510.924376,-1184.329507,1608.800546
3352.756662,-12065.356855,-888.247130,306.438199
3352.756999,-10584.944971,296.082377,-1225.752797
3352.757337,-10140.821405,-148.041188,-1149.143247
3352.757674,-10140.821405,-1184.329507,-383.047749
3352.758012,-9326.594869,-1480.411884,-536.266849
3352.758349,-8734.430116,-888.247130,612.876398
3352.758687,-10140.821405,-1924.535449,2145.067394
3352.759024,-11695.253884,-888.247130,1225.752797
3352.759362,-11325.150913,666.185348,229.828649
3352.759699,-10436.903782,0.000000,306.438199
3352.760036,-9252.574275,-444.123565,1072.533697
3352.760374,-8438.347739,-370.102971,1915.238745
3352.760711,-9400.615463,-74.020594,3294.210641
3352.761049,-10140.821405,1036.288319,2681.334243
3352.761386,-11399.171507,518.144159,459.657299
3352.761724,-10288.862594,1998.556043,-229.828649
3352.762061,-9104.533087,1850.514855,153.219100
3352.762399,-9844.739029,2294.638420,842.705048
3352.762736,-8882.471304,1110.308913,0.000000
3352.763074,-8734.430116,1258.350101,612.876398
3352.763411,-10362.883188,370.102971,536.266849
3352.763749,-11251.130318,592.164754,-919.314598
3352.764086,-10881.027347,888.247130,-1608.800546
3352.764424,-9918.759623,-518.144159,-2451.505594
3352.764761,-8808.450710,-1332.370696,-2604.724693
3352.765099,-7698.141797,-1480.411884,-1762.019645
3352.765436,-8364.327145,-2294.638420,383.047749
3352.765774,-9918.759623,-2368.659014,0.000000
3352.766111,-11991.336260,-1924.535449,-766.095498
3352.766449,-10955.047942,0.000000,-459.657299
3352.766786,-10362.883188,-1554.432478,-919.314598
3352.767124,-9918.759623,-2886.803174,76.609550
3352.767461,-9474.636058,-2516.700203,842.705048
3352.767799,-9622.677246,-2368.659014,2834.553343
3352.768136,-11029.068536,-1480.411884,2757.943793
3352.768474,-12065.356855,-222.061783,1608.800546
3352.768811,-11621.233289,444.123565,229.828649
3352.769149,-11547.212695,-1480.411884,0.000000
3352.769486,-9770.718434,-962.267725,689.485948
3352.769824,-7920.203579,-444.123565,2374.896044
3352.770161,-9474.636058,-370.102971,2451.505594
3352.770499,-10658.965565,-370.102971,842.705048
3352.770836,-10510.924376,74.020594,-1838.629195
3352.771174,-10214.842000,1110.308913,-383.047749
3352.771511,-9622.677246,-1332.370696,0.000000
3352.771849,-8512.368333,-1036.288319,-766.095498
3352.772186,-7105.977043,-1110.308913,0.000000
3352.772524,-9622.677246,-1258.350101,1608.800546
3352.772861,-10881.027347,-962.267725,229.828649
3352.773199,-10510.924376,-518.144159,-995.924147
3352.773536,-10214.842000,1332.370696,536.266849
3352.773874,-9770.718434,-592.164754,0.000000
3352.774211,-9696.697840,0.000000,229.828649
3352.774549,-8438.347739,-296.082377,612.876398
3352.774886,-10066.800811,74.020594,2451.505594
3352.775224,-11843.295072,1184.329507,1455.581446
3352.775561,-11547.212695,1554.432478,-1149.143247
3352.775899,-11029.068536,1110.308913,0.000000
3352.776236,-10732.986159,-296.082377,0.000000
3352.776574,-8660.409521,0.000000,-612.876398
3352.776911,-8660.409521,740.205942,1225.752797
3352.777249,-10584.944971,-296.082377,1685.410096
3352.777586,-11399.171507,370.102971,-1072.533697
3352.777924,-11325.150913,1110.308913,-1915.238745
3352.778261,-11251.130318,518.144159,-1378.971896
3352.778599,-10140.821405,-962.267725,-1991.848295
3352.778936,-7846.182985,-1628.453072,-2068.457845
3352.779274,-7624.121203,-1924.535449,76.609550
3352.779611,-10066.800811,-2442.679609,1225.752797
3352.779948,-10955.047942,-2072.576638,-612.876398
3352.780286,-10214.842000,-666.185348,-1072.533697
3352.780623,-11029.068536,-888.247130,383.047749
3352.780961,-10436.903782,-1554.432478,0.000000
3352.781298,-8364.327145,-1036.288319,383.047749
3352.781636,-8438.347739,-1258.350101,3140.991542
3352.781973,-10881.027347,-1258.350101,4060.306139
3352.782311,-11103.089130,1110.308913,2298.286494
3352.782648,-10288.862594,1998.556043,536.266849
3352.782986,-11473.192101,2146.597232,1149.143247
3352.783323,-11029.068536,666.185348,0.000000
3352.783661,-8882.471304,2294.638420,-76.609550
3352.783998,-8956.491898,1258.350101,1685.410096
3352.784336,-10288.862594,1184.329507,1838.629195
3352.784673,-10510.924376,1702.473667,-1072.533697
3352.785011,-10732.986159,2146.597232,-1608.800546
3352.785348,-11251.130318,1480.411884,-766.095498
3352.785686,-9326.594869,444.123565,-1915.238745
3352.786023,-7698.141797,74.020594,-919.314598
3352.786361,-8512.368333,-888.247130,1532.190996
3352.786698,-10584.944971,-1258.350101,1455.581446
3352.787036,-11399.171507,0.000000,-689.485948
3352.787373,-10881.027347,0.000000,-612.876398
3352.787711,-11325.150913,-1332.370696,-459.657299
3352.788048,-9474.636058,-1850.514855,-1915.238745
3352.788386,-7031.956449,-2442.679609,0.000000
3352.788723,-7994.224174,-3108.864956,2681.334243
3352.789061,-10140.821405,-2516.700203,3294.210641
3352.789398,-10140.821405,-518.144159,306.438199
3352.789736,-11621.233289,0.000000,229.828649
3352.790073,-13323.706956,-370.102971,229.828649
3352.790411,-10807.006753,-1110.308913,-842.705048
3352.790748,-8290.306550,-1258.350101,689.485948
3352.791086,-9104.533087,-1480.411884,2145.067394
3352.791423,-11399.171507,-1628.453072,306.438199
3352.791761,-10732.986159,-370.102971,-1608.800546
3352.792098,-10955.047942,-740.205942,-919.314598
3352.792436,-11399.171507,-1480.411884,-459.657299
3352.792773,-9844.739029,-1628.453072,-995.924147
3352.793111,-8882.471304,-1406.391290,383.047749
3352.793448,-10140.821405,-2294.638420,1225.752797
3352.793786,-11473.192101,-1184.329507,229.828649
3352.794123,-11251.130318,-592.164754,-306.438199
3352.794461,-10658.965565,-740.205942,383.047749
3352.794798,-9992.780217,-370.102971,0.000000
3352.795136,-9696.697840,-1258.350101,76.609550
3352.795473,-7698.141797,-814.226536,1072.533697
3352.795811,-9030.512492,-1924.535449,3294.210641
3352.796148,-11177.109724,-296.082377,2298.286494
3352.796486,-9770.718434,1776.494261,536.266849
3352.796823,-10955.047942,1628.453072,76.609550
3352.797161,-9770.718434,1554.432478,0.000000
3352.797498,-7328.038826,1554.432478,-689.485948
3352.797836,-8438.347739,1406.391290,1378.971896
3352.798173,-10214.842000,814.226536,842.705048
3352.798511,-10584.944971,1702.473667,-153.219100
3352.798848,-10881.027347,1924.535449,-842.705048
3352.799186,-10510.924376,1258.350101,-689.485948
3352.799523,-10214.842000,1406.391290,-2068.457845
3352.799860,-8808.450710,370.102971,-1915.238745
3352.800198,-9548.656652,-592.164754,459.657299
3352.800535,-10288.862594,-1850.514855,229.828649
3352.800873,-10807.006753,74.020594,0.000000
3352.801210,-11029.068536,518.144159,0.000000
3352.801548,-11769.274478,222.061783,-612.876398
3352.801885,-11251.130318,-370.102971,-1915.238745
3352.802223,-9400.615463,-962.267725,-612.876398
3352.802560,-8586.388927,-1406.391290,2221.676944
3352.802898,-10066.800811,-1776.494261,1762.019645
3352.803235,-11177.109724,-814.226536,76.609550
3352.803573,-11029.068536,1036.288319,-229.828649
3352.803910,-10881.027347,-1480.411884,842.705048
3352.804248,-9622.677246,-666.185348,306.438199
3352.804585,-7179.997637,-1702.473667,2145.067394
3352.804923,-9474.636058,-962.267725,4979.620737
3352.805260,-11103.089130,-370.102971,2834.553343
3352.805598,-11103.089130,666.185348,-306.438199
3352.805935,-10584.944971,962.267725,153.219100
3352.806273,-10732.986159,74.020594,-383.047749
3352.806610,-9326.594869,-444.123565,-1455.581446
3352.806948,-8068.244768,296.082377,-766.095498
3352.807285,-7920.203579,-444.123565,-536.266849
3352.807623,-10140.821405,-1258.350101,-536.266849
3352.807960,-11251.130318,370.102971,-1072.533697
3352.808298,-10436.903782,518.144159,-612.876398
3352.808635,-11769.274478,-296.082377,459.657299
3352.808973,-9696.697840,666.185348,536.266849
3352.809310,-8512.368333,0.000000,1149.143247
3352.809648,-10214.842000,-370.102971,2834.553343
3352.809985,-11621.233289,-666.185348,1762.019645
3352.810323,-10955.047942,2220.617826,459.657299
3352.810660,-11843.295072,1702.473667,0.000000
3352.810998,-11177.109724,592.164754,-1302.362347
3352.811335,-9030.512492,0.000000,-1762.019645
3352.811673,-7624.121203,-592.164754,0.000000
3352.812010,-8068.244768,-1406.391290,1378.971896
3352.812348,-10140.821405,-888.247130,689.485948
3352.812685,-10584.944971,296.082377,-383.047749
3352.813023,-10436.903782,-888.247130,-536.266849
3352.813360,-9548.656652,-2072.576638,-689.485948
3352.813698,-8586.388927,-1406.391290,-229.828649
3352.814035,-8734.430116,-2072.576638,1072.533697
3352.814373,-9844.739029,-2590.720797,689.485948
3352.814710,-10955.047942,-1850.514855,-919.314598
3352.815048,-10955.047942,-1924.535449,-1072.533697
3352.815385,-10658.965565,-1998.556043,-1072.533697
3352.815723,-9918.759623,-3034.844362,76.609550
3352.816060,-9030.512492,-2146.597232,689.485948
3352.816398,-9474.636058,-1628.453072,1915.238745
3352.816735,-11177.109724,-1332.370696,2374.896044
3352.817073,-11621.233289,-814.226536,842.705048
3352.817410,-11843.295072,592.164754,1149.143247
3352.817748,-11695.253884,74.020594,1302.362347
3352.818085,-10362.883188,444.123565,689.485948
3352.818423,-8882.471304,1258.350101,919.314598
3352.818760,-9918.759623,814.226536,2068.457845
3352.819098,-10807.006753,1036.288319,612.876398
3352.819435,-11177.109724,1184.329507,-689.485948
3352.819772,-10214.842000,2220.617826,-229.828649
3352.820110,-9474.636058,370.102971,-689.485948
3352.820447,-8956.491898,296.082377,-612.876398
3352.820785,-7254.018232,74.020594,0.000000
3352.821123,-7476.080014,-666.185348,459.657299
3352.821460,-9770.718434,-222.061783,0.000000
3352.821798,-10288.862594,888.247130,-1225.752797
3352.822135,-10214.842000,1036.288319,-1991.848295
3352.822473,-10362.883188,-666.185348,-1685.410096
3352.822810,-9696.697840,-296.082377,-1378.971896
3352.823148,-7254.018232,-518.144159,0.000000
3352.823485,-9178.553681,-1110.308913,1685.410096
3352.823823,-10955.047942,-1332.370696,1762.019645
3352.824160,-11621.233289,-296.082377,76.609550
3352.824498,-10955.047942,666.185348,842.705048
3352.824835,-11917.315666,222.061783,995.924147
3352.825173,-10732.986159,444.123565,0.000000
3352.825510,-9474.636058,592.164754,306.438199
3352.825848,-9844.739029,-296.082377,2298.286494
3352.826186,-10955.047942,0.000000,2221.676944
3352.826523,-11103.089130,1258.350101,0.000000
3352.826861,-11917.315666,1184.329507,-153.219100
3352.827198,-11399.171507,-1184.329507,-1302.362347
3352.827536,-9474.636058,-666.185348,-1149.143247
3352.827873,-7772.162391,-444.123565,536.266849
3352.828211,-9178.553681,-1998.556043,2221.676944
3352.828548,-11103.089130,-888.247130,383.047749
3352.828886,-10436.903782,-444.123565,-2068.457845
3352.829223,-10066.800811,-148.041188,-383.047749
3352.829561,-9844.739029,-1332.370696,612.876398
3352.829898,-8956.491898,-1406.391290,0.000000
3352.830236,-8364.327145,-592.164754,995.924147
3352.830573,-9844.739029,-740.205942,2451.505594
3352.830911,-10658.965565,74.020594,1225.752797
3352.831249,-10066.800811,962.267725,612.876398
3352.831586,-10732.986159,1184.329507,1532.190996
3352.831924,-10955.047942,148.041188,1225.752797
3352.832261,-9474.636058,962.267725,689.485948
3352.832599,-8364.327145,1628.453072,2528.115143
3352.832936,-10362.883188,518.144159,2145.067394
3352.833274,-10807.006753,1998.556043,229.828649
3352.833611,-10807.006753,2664.741391,-995.924147
3352.833949,-11843.295072,1702.473667,229.828649
3352.834286,-10584.944971,222.061783,-1149.143247
3352.834624,-8956.491898,518.144159,-1455.581446
3352.834961,-8734.430116,222.061783,383.047749
3352.835299,-10881.027347,-1110.308913,-229.828649
3352.835636,-9918.759623,-888.247130,-2298.286494
3352.835974,-9844.739029,-1702.473667,-2451.505594
3352.836312,-9548.656652,-2886.803174,-306.438199
3352.836649,-9696.697840,-3330.926739,0.000000
3352.836987,-8734.430116,-2294.638420,0.000000
3352.837324,-9178.553681,-2442.679609,995.924147
3352.837662,-10140.821405,-3182.885551,306.438199
3352.837999,-10436.903782,-2664.741391,-306.438199
3352.838337,-9992.780217,-2072.576638,1225.752797
3352.838674,-10140.821405,-3034.844362,2681.334243
3352.839012,-10066.800811,-2442.679609,1838.629195
3352.839349,-9474.636058,-1110.308913,766.095498
3352.839687,-9696.697840,-1480.411884,1378.971896
3352.840024,-11103.089130,-592.164754,1378.971896
3352.840362,-11399.171507,1480.411884,-689.485948
3352.840699,-11843.295072,1924.535449,-383.047749
3352.841037,-11621.233289,666.185348,-536.266849
3352.841375,-10584.944971,0.000000,-1302.362347
3352.841712,-8216.285956,444.123565,-153.219100
3352.842050,-9030.512492,0.000000,1532.190996
3352.842387,-11621.233289,74.020594,1225.752797
3352.842725,-11029.068536,666.185348,-1915.238745
3352.843062,-9918.759623,1406.391290,-1225.752797
3352.843400,-10955.047942,-592.164754,153.219100
3352.843737,-9400.615463,666.185348,-689.485948
3352.844075,-8216.285956,518.144159,842.705048
3352.844412,-9622.677246,-370.102971,2298.286494
3352.844750,-9992.780217,74.020594,842.705048
3352.845087,-9252.574275,1110.308913,153.219100
3352.845425,-9474.636058,1036.288319,995.924147
3352.845762,-9252.574275,370.102971,842.705048
3352.846100,-9178.553681,444.123565,0.000000
3352.846438,-8068.244768,1332.370696,919.314598
3352.846775,-9844.739029,222.061783,1838.629195
3352.847113,-11621.233289,740.205942,612.876398
3352.847450,-10362.883188,2442.679609,-1302.362347
3352.847788,-10436.903782,1554.432478,-383.047749
3352.848125,-10658.965565,222.061783,-612.876398
3352.848463,-9030.512492,-962.267725,-842.705048
3352.848800,-8882.471304,0.000000,229.828649
3352.849138,-10658.965565,-444.123565,1302.362347
3352.849475,-12361.439231,-148.041188,0.000000
3352.849813,-11325.150913,296.082377,-842.705048
3352.850150,-11547.212695,-370.102971,-612.876398
3352.850488,-10955.047942,-1332.370696,229.828649
3352.850825,-9474.636058,-2146.597232,-612.876398
3352.851163,-9178.553681,-1628.453072,1838.629195
3352.851501,-11103.089130,-2442.679609,1838.629195
3352.851838,-10436.903782,-2294.638420,0.000000
3352.852176,-9844.739029,-1258.350101,536.266849
3352.852513,-9992.780217,-1332.370696,1991.848295
3352.852851,-9030.512492,-1554.432478,842.705048
3352.853188,-8142.265362,0.000000,689.485948
3352.853526,-9104.533087,518.144159,2221.676944
3352.853863,-10658.965565,-296.082377,1991.848295
3352.854201,-11621.233289,0.000000,-76.609550
3352.854538,-10658.965565,1702.473667,-612.876398
3352.854876,-9770.718434,740.205942,383.047749
3352.855213,-9622.677246,370.102971,919.314598
3352.855551,-8438.347739,666.185348,0.000000
3352.855888,-8734.430116,740.205942,612.876398
3352.856226,-11621.233289,296.082377,306.438199
3352.856564,-11621.233289,370.102971,-2221.676944
3352.856901,-9400.615463,1184.329507,-2451.505594
3352.857239,-9622.677246,-518.144159,-1378.971896
3352.857576,-8956.491898,-518.144159,-1762.019645
3352.857914,-8586.388927,-592.164754,0.000000
3352.858251,-9992.780217,-1036.288319,1532.190996
3352.858589,-11029.068536,-1184.329507,383.047749
3352.858926,-11621.233289,-296.082377,0.000000
3352.859264,-10658.965565,0.000000,306.438199
3352.859601,-9548.656652,-2072.576638,612.876398
3352.859939,-9548.656652,-1702.473667,919.314598
3352.860276,-8586.388927,-1110.308913,1608.800546
3352.860614,-9474.636058,-666.185348,2451.505594
3352.860951,-12065.356855,-1110.308913,536.266849
3352.861289,-11621.233289,148.041188,0.000000
3352.861627,-9844.739029,592.164754,-229.828649
3352.861964,-9992.780217,-592.164754,153.219100
3352.862302,-8882.471304,-1406.391290,0.000000
3352.862639,-8290.306550,-1554.432478,1149.143247
3352.862977,-10214.842000,-1702.473667,1532.190996
3352.863314,-11251.130318,-2146.597232,-229.828649
3352.863652,-9992.780217,0.000000,-2145.067394
3352.863989,-9400.615463,-1332.370696,-1072.533697
3352.864327,-9770.718434,-1850.514855,0.000000
3352.864664,-8660.409521,-1702.473667,-995.924147
3352.865002,-8142.265362,-1036.288319,842.705048
3352.865339,-10807.006753,-2072.576638,2604.724693
3352.865677,-11621.233289,-666.185348,1302.362347
3352.866014,-11251.130318,518.144159,0.000000
3352.866352,-11843.295072,518.144159,919.314598
3352.866690,-10584.944971,0.000000,1455.581446
3352.867027,-9918.759623,888.247130,1532.190996
3352.867365,-8734.430116,1998.556043,2604.724693
3352.867702,-10436.903782,1480.411884,2451.505594
3352.868040,-12213.398043,2072.576638,0.000000
3352.868377,-10362.883188,2886.803174,-1302.362347
3352.868715,-10066.800811,2294.638420,-842.705048
3352.869052,-9474.636058,1110.308913,-229.828649
3352.869390,-8068.244768,1110.308913,-1149.143247
3352.869727,-8290.306550,740.205942,919.314598
3352.870065,-10436.903782,370.102971,1455.581446
3352.870402,-10584.944971,740.205942,-1225.752797
3352.870740,-10214.842000,740.205942,-1838.629195
3352.871077,-9400.615463,-444.123565,-1915.238745
3352.871415,-8660.409521,-1776.494261,-1378.971896
3352.871753,-7179.997637,-1332.370696,-1072.533697
3352.872090,-7846.182985,-1776.494261,689.485948
3352.872428,-10732.986159,-2146.597232,536.266849
3352.872765,-11399.171507,-1036.288319,-1838.629195
3352.873103,-11325.150913,-370.102971,-766.095498
3352.873440,-11029.068536,-1776.494261,612.876398
3352.873778,-9474.636058,-1184.329507,766.095498
3352.874115,-9252.574275,-1258.350101,2604.724693
3352.874453,-10288.862594,-592.164754,3370.820191
3352.874790,-12435.459826,0.000000,1685.410096
3352.875128,-13101.645173,222.061783,0.000000
3352.875465,-10807.006753,296.082377,-1149.143247
3352.875803,-9992.780217,-740.205942,459.657299
3352.876140,-9252.574275,-296.082377,842.705048
3352.876478,-7624.121203,74.020594,766.095498
3352.876816,-10584.944971,74.020594,2374.896044
3352.877153,-11917.315666,0.000000,0.000000
3352.877491,-11029.068536,1480.411884,-2298.286494
3352.877828,-10288.862594,666.185348,-1072.533697
3352.878166,-9770.718434,-1258.350101,0.000000
3352.878503,-7698.141797,-1110.308913,-76.609550
3352.878841,-7105.977043,-1184.329507,1225.752797
3352.879178,-9030.512492,-1628.453072,3064.381992
3352.879516,-11325.150913,-1850.514855,1532.190996
3352.879853,-10732.986159,296.082377,-153.219100
3352.880191,-9622.677246,518.144159,306.438199
3352.880528,-8660.409521,-1184.329507,995.924147
3352.880866,-8068.244768,296.082377,1072.533697
3352.881203,-8586.388927,518.144159,1838.629195
3352.881541,-10658.965565,592.164754,2528.115143
3352.881879,-11843.295072,148.041188,842.705048
3352.882216,-11695.253884,1184.329507,229.828649
3352.882554,-10584.944971,518.144159,842.705048
3352.882891,-10362.883188,-370.102971,919.314598
3352.883229,-8438.347739,-666.185348,76.609550
3352.883566,-8808.450710,0.000000,229.828649
3352.883904,-11399.171507,-1776.494261,1838.629195
3352.884241,-11473.192101,-296.082377,-1378.971896
3352.884579,-10436.903782,0.000000,-2145.067394
3352.884916,-11695.253884,-962.267725,-1685.410096
3352.885254,-9474.636058,-2072.576638,-1608.800546
3352.885591,-7846.182985,-2738.761985,-1225.752797
3352.885929,-8586.388927,-2590.720797,1608.800546
3352.886266,-10584.944971,-3108.864956,1149.143247
3352.886604,-12065.356855,-2368.659014,-919.314598
3352.886942,-10955.047942,-1332.370696,-1225.752797
3352.887279,-9548.656652,-1406.391290,-383.047749
3352.887617,-9326.594869,-2664.741391,-766.095498
3352.887954,-7550.100608,-1776.494261,306.438199
3352.888292,-8438.347739,-1776.494261,2681.334243
3352.888629,-11473.192101,-592.164754,4213.525239
3352.888967,-12435.459826,444.123565,995.924147
3352.889304,-11251.130318,1628.453072,0.000000
3352.889642,-10807.006753,2072.576638,766.095498
3352.889979,-10214.842000,1406.391290,76.609550
3352.890317,-8808.450710,2368.659014,-383.047749
3352.890654,-8808.450710,1110.308913,689.485948
3352.890992,-10732.986159,592.164754,612.876398
3352.891329,-10732.986159,2368.659014,-1915.238745
3352.891667,-9844.739029,3552.988522,-2068.457845
3352.892005,-9474.636058,1554.432478,-1838.629195
3352.892342,-8512.368333,0.000000,-1762.019645
3352.892680,-7846.182985,518.144159,-459.657299
3352.893017,-9474.636058,0.000000,1762.019645
3352.893355,-10881.027347,-740.205942,2145.067394
3352.893692,-11177.109724,666.185348,0.000000
3352.894030,-11029.068536,962.267725,229.828649
3352.894367,-9918.759623,0.000000,1072.533697
3352.894705,-9252.574275,-1258.350101,0.000000
3352.895042,-7994.224174,-740.205942,1991.848295
3352.895380,-9844.739029,-1184.329507,2528.115143
3352.895717,-11399.171507,-666.185348,1532.190996
3352.896055,-11399.171507,1480.411884,-536.266849
3352.896392,-10510.924376,1406.391290,-612.876398
3352.896730,-11029.068536,-296.082377,0.000000
3352.897068,-9252.574275,-1332.370696,0.000000
3352.897405,-8216.285956,-518.144159,2298.286494
3352.897743,-9770.718434,-1258.350101,2757.943793
3352.898080,-11769.274478,-666.185348,612.876398
3352.898418,-11177.109724,74.020594,-1685.410096
3352.898755,-11029.068536,-814.226536,-919.314598
3352.899093,-10214.842000,-1850.514855,-689.485948
3352.899430,-9030.512492,-2146.597232,-1608.800546
3352.899768,-7550.100608,-1184.329507,766.095498
3352.900105,-9548.656652,-2516.700203,1608.800546
3352.900443,-11917.315666,-1036.288319,1072.533697
3352.900780,-11325.150913,-740.205942,-919.314598
3352.901118,-10436.903782,-444.123565,306.438199
3352.901455,-11325.150913,-1332.370696,919.314598
3352.901793,-9474.636058,-962.267725,995.924147
3352.902131,-8438.347739,-296.082377,2451.505594
3352.902468,-9622.677246,-592.164754,3753.867940
3352.902806,-11991.336260,1184.329507,1915.238745
3352.903143,-11473.192101,2442.679609,-1072.533697
3352.903481,-10658.965565,1554.432478,-1302.362347
3352.903818,-9252.574275,1406.391290,-919.314598
3352.904156,-8068.244768,962.267725,-1225.752797
3352.904493,-7550.100608,962.267725,0.000000
3352.904831,-10288.862594,-592.164754,612.876398
3352.905168,-10362.883188,-296.082377,0.000000
3352.905506,-9178.553681,1258.350101,-766.095498
3352.905843,-10140.821405,518.144159,0.000000
3352.906181,-10584.944971,-370.102971,-1915.238745
3352.906518,-8068.244768,-1776.494261,-3140.991542
3352.906856,-8586.388927,-2442.679609,0.000000
3352.907194,-9400.615463,-3997.112087,1225.752797
3352.907531,-10066.800811,-1702.473667,0.000000
3352.907869,-10066.800811,-1332.370696,-1455.581446
3352.908206,-11399.171507,-1998.556043,-689.485948
3352.908544,-11473.192101,-1924.535449,0.000000
3352.908881,-9548.656652,-1924.535449,383.047749
3352.909219,-9844.739029,-1924.535449,3524.039291
3352.909556,-12435.459826,-2738.761985,2374.896044
3352.909894,-11843.295072,-888.247130,153.219100
3352.910231,-9844.739029,-296.082377,-612.876398
3352.910569,-10140.821405,-1628.453072,1991.848295
3352.910906,-9844.739029,-1332.370696,689.485948
3352.911244,-8586.388927,148.041188,689.485948
3352.911581,-10066.800811,0.000000,2221.676944
3352.911919,-11695.253884,-888.247130,919.314598
3352.912256,-11399.171507,666.185348,-1762.019645
3352.912594,-10140.821405,814.226536,-1608.800546
3352.912932,-9474.636058,0.000000,-995.924147
3352.913269,-8882.471304,-518.144159,-919.314598
3352.913607,-7994.224174,-370.102971,0.000000
3352.913944,-8660.409521,-518.144159,1225.752797
3352.914282,-9918.759623,-518.144159,306.438199
3352.914619,-10807.006753,1184.329507,612.876398
3352.914957,-10955.047942,740.205942,-383.047749
3352.915294,-10288.862594,296.082377,612.876398
3352.915632,-8808.450710,74.020594,383.047749
3352.915969,-7105.977043,814.226536,1225.752797
3352.916307,-9178.553681,1036.288319,2834.553343
3352.916644,-11991.336260,740.205942,1991.848295
3352.916982,-10436.903782,2960.823768,306.438199
3352.917319,-10881.027347,2738.761985,995.924147
3352.917657,-11843.295072,2220.617826,766.095498
3352.917995,-10214.842000,1480.411884,-919.314598
3352.918332,-8364.327145,1184.329507,153.219100
3352.918670,-8808.450710,888.247130,1838.629195
3352.919007,-10658.965565,0.000000,-76.609550
3352.919345,-10436.903782,1036.288319,-1072.533697
3352.919682,-11251.130318,0.000000,-1685.410096
3352.920020,-10584.944971,-444.123565,-1762.019645
3352.920357,-8808.450710,-518.144159,-1762.019645
3352.920695,-8586.388927,-1332.370696,1149.143247
3352.921032,-9770.718434,-2738.761985,1685.410096
3352.921370,-11029.068536,-2590.720797,0.000000
3352.921707,-11029.068536,-1406.391290,-383.047749
3352.922045,-10955.047942,-2146.597232,-229.828649
3352.922383,-10436.903782,-2220.617826,0.000000
3352.922720,-8364.327145,-2590.720797,-842.705048
3352.923058,-8216.285956,-1258.350101,995.924147
3352.923395,-10732.986159,-2368.659014,2298.286494
3352.923733,-11473.192101,-296.082377,1149.143247
3352.924070,-11177.109724,592.164754,919.314598
3352.924408,-11251.130318,0.000000,919.314598
3352.924745,-10881.027347,0.000000,1378.971896
3352.925083,-8734.430116,148.041188,1302.362347
3352.925420,-8438.347739,74.020594,2681.334243
3352.925758,-10214.842000,148.041188,2145.067394
3352.926095,-11769.274478,666.185348,-1149.143247
3352.926433,-11473.192101,1776.494261,-1302.362347
3352.926770,-10881.027347,444.123565,-1225.752797
3352.927108,-9474.636058,1110.308913,-1225.752797
3352.927446,-8216.285956,1036.288319,-1685.410096
3352.927783,-7772.162391,-1184.329507,-229.828649
3352.928121,-9696.697840,-1480.411884,1302.362347
3352.928458,-10288.862594,-1184.329507,766.095498
3352.928796,-9770.718434,370.102971,842.705048
3352.929133,-10584.944971,-1480.411884,995.924147
3352.929471,-10214.842000,-1184.329507,229.828649
3352.929808,-7994.224174,-1332.370696,153.219100
3352.930146,-8956.491898,-1776.494261,2298.286494
3352.930483,-10066.800811,-1702.473667,2451.505594
3352.930821,-10658.965565,-1702.473667,0.000000
3352.931158,-10658.965565,444.123565,153.219100
3352.931496,-11103.089130,-1036.288319,-306.438199
3352.931833,-9992.780217,-666.185348,-153.219100
3352.932171,-7920.203579,-1036.288319,0.000000
3352.932509,-9918.759623,-1258.350101,2528.115143
3352.932846,-11917.315666,-740.205942,1762.019645
3352.933184,-11473.192101,0.000000,-306.438199
3352.933521,-11547.212695,370.102971,0.000000
3352.933859,-11177.109724,-740.205942,-995.924147
3352.934196,-10807.006753,-1480.411884,-1608.800546
3352.934534,-8364.327145,-1406.391290,-1838.629195
3352.934871,-8586.388927,-1702.473667,0.000000
3352.935209,-10436.903782,-1036.288319,383.047749
3352.935546,-11103.089130,-592.164754,-1915.238745
3352.935884,-10881.027347,0.000000,-1225.752797
3352.936221,-11473.192101,-962.267725,-306.438199
3352.936559,-8734.430116,-296.082377,-153.219100
3352.936897,-7772.162391,444.123565,1378.971896
3352.937234,-8956.491898,-1110.308913,3064.381992
3352.937572,-10436.903782,74.020594,1532.190996
3352.937909,-11029.068536,1332.370696,383.047749
3352.938247,-10881.027347,2146.597232,1149.143247
3352.938584,-10214.842000,1110.308913,995.924147
3352.938922,-8734.430116,1702.473667,612.876398
3352.939259,-7476.080014,2368.659014,1762.019645
3352.939597,-9918.759623,1554.432478,2145.067394
3352.939934,-11695.253884,2812.782580,459.657299
3352.940272,-10732.986159,3034.844362,-2221.676944
3352.940609,-10584.944971,2368.659014,-1378.971896
3352.940947,-9844.739029,0.000000,-1685.410096
3352.941284,-8216.285956,1110.308913,-1302.362347
3352.941622,-7550.100608,814.226536,-1072.533697
3352.941960,-9992.780217,-1480.411884,383.047749
3352.942297,-10658.965565,-962.267725,-459.657299
3352.942635,-10214.842000,-1332.370696,-536.266849
3352.942972,-11621.233289,-148.041188,1149.143247
3352.943310,-11029.068536,-2294.638420,0.000000
3352.943647,-8882.471304,-1924.535449,-919.314598
3352.943985,-7772.162391,-2664.741391,842.705048
3352.944322,-9918.759623,-2368.659014,2374.896044
3352.944660,-11029.068536,-1850.514855,1838.629195
3352.944997,-11029.068536,-888.247130,536.266849
3352.945335,-11843.295072,-888.247130,995.924147
3352.945672,-11547.212695,-1258.350101,-229.828649
3352.946010,-8956.491898,-666.185348,1378.971896
3352.946348,-8956.491898,-962.267725,1685.410096
3352.946685,-9770.718434,-1406.391290,2374.896044
3352.947023,-11103.089130,0.000000,612.876398
3352.947360,-11103.089130,222.061783,0.000000
3352.947698,-11547.212695,-814.226536,76.609550
3352.948035,-11251.130318,-222.061783,-612.876398
3352.948373,-8734.430116,370.102971,-995.924147
3352.948710,-8808.450710,296.082377,0.000000
3352.949048,-10362.883188,-740.205942,459.657299
3352.949385,-10436.903782,148.041188,-1149.143247
3352.949723,-10214.842000,1036.288319,-612.876398
3352.950060,-11103.089130,-296.082377,612.876398
3352.950398,-10214.842000,-666.185348,-766.095498
3352.950735,-7772.162391,148.041188,842.705048
3352.951073,-8290.306550,-518.144159,3140.991542
3352.951411,-10214.842000,-962.267725,3447.429741
3352.951748,-10732.986159,1998.556043,1608.800546
3352.952086,-10658.965565,2294.638420,1149.143247
3352.952423,-11621.233289,1332.370696,1225.752797
3352.952761,-9548.656652,666.185348,153.219100
3352.953098,-8512.368333,1406.391290,1149.143247
3352.953436,-8956.491898,-74.020594,1762.019645
3352.953773,-9030.512492,740.205942,-919.314598
3352.954111,-9918.759623,1110.308913,-2221.676944
3352.954448,-9992.780217,666.185348,-2068.457845
3352.954786,-9918.759623,-222.061783,-2374.896044
3352.955123,-10214.842000,-1924.535449,-1762.019645
3352.955461,-7846.182985,-740.205942,-306.438199
3352.955798,-9548.656652,-1480.411884,1532.190996
3352.956136,-12139.377449,-2072.576638,1072.533697
3352.956474,-10584.944971,-1850.514855,-1225.752797
3352.956811,-10881.027347,-1702.473667,0.000000
3352.957149,-11029.068536,-2590.720797,-153.219100
3352.957486,-9400.615463,-2590.720797,-995.924147
3352.957824,-9178.553681,-2590.720797,689.485948
3352.958161,-10214.842000,-3330.926739,689.485948
3352.958499,-10732.986159,-1628.453072,153.219100
3352.958836,-10732.986159,0.000000,76.609550
3352.959174,-11769.274478,-74.020594,995.924147
3352.959511,-11695.253884,-666.185348,0.000000
3352.959849,-9770.718434,-370.102971,383.047749
3352.960186,-8734.430116,518.144159,3524.039291
3352.960524,-9696.697840,-740.205942,3677.258390
3352.960862,-11029.068536,666.185348,1455.581446
3352.961199,-10955.047942,1924.535449,-383.047749
3352.961537,-10510.924376,1406.391290,-306.438199
3352.961874,-9918.759623,666.185348,-995.924147
3352.962212,-8290.306550,814.226536,-1455.581446
3352.962549,-7402.059420,1480.411884,-459.657299
3352.962887,-9548.656652,444.123565,-1225.752797
3352.963224,-10288.862594,444.123565,-1762.019645
3352.963562,-9252.574275,1998.556043,-842.705048
3352.963899,-10807.006753,0.000000,1378.971896
3352.964237,-11103.089130,666.185348,306.438199
3352.964574,-9030.512492,-370.102971,-383.047749
3352.964912,-8290.306550,-444.123565,2451.505594
3352.965249,-8808.450710,-1406.391290,1685.410096
3352.965587,-9400.615463,518.144159,536.266849
3352.965925,-10066.800811,1406.391290,1608.800546
3352.966262,-12879.583391,222.061783,0.000000
3352.966600,-10066.800811,296.082377,229.828649
3352.966937,-9918.759623,888.247130,0.000000
3352.967275,-8956.491898,740.205942,2528.115143
3352.967612,-10140.821405,-518.144159,1149.143247
3352.967950,-11177.109724,1184.329507,766.095498
3352.968287,-11621.233289,962.267725,689.485948
3352.968625,-12213.398043,222.061783,842.705048
3352.968962,-10732.986159,-370.102971,-1302.362347
3352.969300,-8956.491898,-370.102971,-842.705048
3352.969637,-9918.759623,-444.123565,383.047749
3352.969975,-10732.986159,-2072.576638,-1072.533697
3352.970312,-9918.759623,-444.123565,-2757.943793
3352.970650,-9844.739029,-1406.391290,-1378.971896
3352.970988,-9918.759623,-2590.720797,-306.438199
3352.971325,-8956.491898,-2368.659014,383.047749
3352.971663,-8512.368333,-1702.473667,1838.629195
3352.972000,-9696.697840,-2294.638420,2757.943793
3352.972338,-10658.965565,-1480.411884,459.657299
3352.972675,-9696.697840,148.041188,153.219100
3352.973013,-10658.965565,222.061783,1302.362347
3352.973350,-10436.903782,-814.226536,1608.800546
3352.973688,-9548.656652,-74.020594,0.000000
3352.974025,-8290.306550,148.041188,1608.800546
3352.974363,-8808.450710,444.123565,2145.067394
3352.974700,-10066.800811,444.123565,995.924147
3352.975038,-10881.027347,1554.432478,0.000000
3352.975376,-10732.986159,2146.597232,-536.266849
3352.975713,-11325.150913,740.205942,-459.657299
3352.976051,-9770.718434,1406.391290,-306.438199
3352.976388,-8438.347739,592.164754,0.000000
3352.976726,-10658.965565,222.061783,919.314598
3352.977063,-11769.274478,740.205942,-2221.676944
3352.977401,-10288.862594,962.267725,-2681.334243
3352.977738,-10214.842000,-1554.432478,-1225.752797
3352.978076,-9400.615463,-2664.741391,0.000000
3352.978413,-8068.244768,-2146.597232,536.266849
3352.978751,-8956.491898,-2072.576638,2604.724693
3352.979088,-10362.883188,-2368.659014,2068.457845
3352.979426,-10955.047942,-2146.597232,459.657299
3352.979763,-10066.800811,-370.102971,766.095498
3352.980101,-10436.903782,-1850.514855,1608.800546
3352.980439,-10584.944971,-1406.391290,995.924147
3352.980776,-8734.430116,-1628.453072,689.485948
3352.981114,-8586.388927,-740.205942,1532.190996
3352.981451,-10658.965565,-1036.288319,919.314598
3352.981789,-10658.965565,-444.123565,-459.657299
3352.982126,-9770.718434,296.082377,-995.924147
3352.982464,-10732.986159,-518.144159,229.828649
3352.982801,-10881.027347,-296.082377,229.828649
3352.983139,-9400.615463,74.020594,306.438199
3352.983476,-10436.903782,-74.020594,1915.238745
3352.983814,-11547.212695,666.185348,1378.971896
3352.984151,-11621.233289,888.247130,-995.924147
3352.984489,-10214.842000,888.247130,-1455.581446
3352.984827,-10584.944971,0.000000,-995.924147
3352.985164,-9770.718434,-666.185348,-766.095498
3352.985502,-8290.306550,74.020594,-1072.533697
3352.985839,-8882.471304,0.000000,842.705048
3352.986177,-10807.006753,0.000000,1532.190996
3352.986514,-10510.924376,518.144159,0.000000
3352.986852,-10066.800811,1628.453072,306.438199
3352.987189,-9548.656652,666.185348,1532.190996
3352.987527,-9252.574275,666.185348,1072.533697
3352.987864,-7994.224174,1110.308913,1149.143247
3352.988202,-9326.594869,148.041188,2298.286494
3352.988539,-10584.944971,1332.370696,1378.971896
3352.988877,-9770.718434,1628.453072,-689.485948
3352.989214,-9622.677246,1776.494261,229.828649
3352.989552,-10066.800811,666.185348,-306.438199
3352.989890,-9474.636058,888.247130,-995.924147
3352.990227,-9622.677246,888.247130,-306.438199
3352.990565,-10658.965565,-518.144159,842.705048
3352.990902,-11325.150913,-222.061783,-689.485948
3352.991240,-10510.924376,296.082377,-2068.457845
3352.991577,-10436.903782,-666.185348,-1455.581446
3352.991915,-10066.800811,-2072.576638,-919.314598
3352.992252,-9474.636058,-2220.617826,-612.876398
3352.992590,-9104.533087,-1036.288319,919.314598
3352.992927,-11769.274478,-1924.535449,1762.019645
3352.993265,-12509.480420,-2072.576638,76.609550
3352.993602,-11399.171507,-1036.288319,-689.485948
3352.993940,-10436.903782,-1258.350101,383.047749
3352.994277,-10584.944971,-1554.432478,1762.019645
3352.994615,-9326.594869,-1184.329507,1378.971896
3352.994953,-8438.347739,-666.185348,1838.629195
3352.995290,-11251.130318,-962.267725,2528.115143
3352.995628,-12139.377449,-444.123565,1762.019645
3352.995965,-10362.883188,370.102971,306.438199
3352.996303,-10066.800811,148.041188,995.924147
3352.996640,-9548.656652,-370.102971,383.047749
3352.996978,-8364.327145,148.041188,0.000000
3352.997315,-8586.388927,0.000000,383.047749
3352.997653,-10214.842000,-962.267725,229.828649
3352.997990,-10807.006753,444.123565,-1072.533697
3352.998328,-9622.677246,1998.556043,-1302.362347
3352.998665,-10066.800811,-74.020594,-1608.800546
3352.999003,-9178.553681,-592.164754,-1915.238745
3352.999341,-7772.162391,-370.102971,153.219100
3352.999678,-8882.471304,-814.226536,2374.896044
3353.000016,-10658.965565,-888.247130,1915.238745
3353.000353,-11399.171507,0.000000,612.876398
3353.000691,-11399.171507,0.000000,459.657299
3353.001028,-10807.006753,-1036.288319,1072.533697
3353.001366,-10362.883188,-1036.288319,1762.019645
3353.001703,-8882.471304,0.000000,3140.991542
3353.002041,-9474.636058,-296.082377,2604.724693
3353.002378,-11621.233289,148.041188,1838.629195
3353.002716,-11769.274478,962.267725,-153.219100
3353.003053,-11177.109724,1258.350101,-1072.533697
3353.003391,-10362.883188,-518.144159,-919.314598
3353.003728,-8364.327145,-370.102971,-1532.190996
3353.004066,-7179.997637,-444.123565,-842.705048
3353.004404,-8734.430116,-1036.288319,0.000000
3353.004741,-11325.150913,-1554.432478,-612.876398
3353.005079,-10658.965565,-814.226536,-2374.896044
3353.005416,-10658.965565,-592.164754,-1225.752797
3353.005754,-10807.006753,-1258.350101,-1455.581446
3353.006091,-8438.347739,-2368.659014,-1302.362347
3353.006429,-7254.018232,-2516.700203,0.000000
3353.006766,-8364.327145,-2516.700203,1532.190996
3353.007104,-11621.233289,-1628.453072,1455.581446
3353.007441,-11103.089130,-222.061783,-383.047749
3353.007779,-10881.027347,-1406.391290,-229.828649
3353.008116,-11325.150913,-888.247130,995.924147
3353.008454,-9474.636058,74.020594,229.828649
3353.008791,-8364.327145,1258.350101,1838.629195
3353.009129,-10066.800811,370.102971,2451.505594
3353.009467,-12879.583391,1184.329507,995.924147
3353.009804,-11547.212695,3256.906145,0.000000
3353.010142,-11547.212695,1998.556043,1532.190996
3353.010479,-10214.842000,1184.329507,995.924147
3353.010817,-8882.471304,296.082377,-76.609550
3353.011154,-7402.059420,1850.514855,1072.533697
3353.011492,-9326.594869,0.000000,1991.848295
3353.011829,-10658.965565,1036.288319,-76.609550
3353.012167,-10140.821405,2368.659014,-1991.848295
3353.012504,-11843.295072,962.267725,-1685.410096
3353.012842,-9400.615463,-444.123565,-2987.772442
3353.013179,-6587.832884,-1184.329507,-2221.676944
3353.013517,-7105.977043,-1702.473667,2451.505594
3353.013855,-9400.615463,-1628.453072,3600.648841
3353.014192,-12435.459826,-1258.350101,1225.752797
3353.014530,-11251.130318,222.061783,-306.438199
3353.014867,-11325.150913,-518.144159,842.705048
3353.015205,-10955.047942,-740.205942,383.047749
3353.015542,-8512.368333,-666.185348,-1149.143247
3353.015880,-8142.265362,-592.164754,1685.410096
3353.016217,-10732.986159,-1332.370696,2145.067394
3353.016555,-10955.047942,0.000000,153.219100
3353.016892,-11621.233289,2072.576638,-153.219100
3353.017230,-12805.562797,370.102971,459.657299
3353.017567,-11103.089130,-296.082377,-1072.533697
3353.017905,-8734.430116,-518.144159,0.000000
3353.018242,-8586.388927,-1184.329507,2528.115143
3353.018580,-10214.842000,-1776.494261,2374.896044
3353.018918,-11843.295072,-296.082377,-383.047749
3353.019255,-10732.986159,370.102971,-612.876398
3353.019593,-11177.109724,-666.185348,-919.314598
3353.019930,-10066.800811,-740.205942,-1991.848295
3353.020268,-7254.018232,-1406.391290,-1915.238745
3353.020605,-7328.038826,-2146.597232,306.438199
3353.020943,-10288.862594,-2294.638420,536.266849
3353.021280,-10955.047942,-444.123565,-536.266849
3353.021618,-9770.718434,-740.205942,76.609550
3353.021955,-10658.965565,-1776.494261,1302.362347
3353.022293,-9178.553681,-740.205942,919.314598
3353.022630,-7476.080014,-148.041188,1455.581446
3353.022968,-9474.636058,148.041188,3600.648841
3353.023305,-11103.089130,-444.123565,3140.991542
3353.023642,-11547.212695,2146.597232,0.000000
3353.023980,-10955.047942,1850.514855,-383.047749
3353.024317,-11769.274478,888.247130,459.657299
3353.024655,-9252.574275,-148.041188,-1608.800546
3353.024992,-7105.977043,222.061783,-383.047749
3353.025330,-8364.327145,-814.226536,1991.848295
3353.025667,-10881.027347,74.020594,76.609550
3353.026005,-11695.253884,1184.329507,-1915.238745
3353.026342,-12213.398043,1036.288319,-2528.115143
3353.026680,-11251.130318,-740.205942,-1762.019645
3353.027017,-9178.553681,-444.123565,-1378.971896
3353.027355,-7254.018232,-1332.370696,0.000000
3353.027692,-9548.656652,-2664.741391,1762.019645
3353.028030,-11251.130318,-1850.514855,536.266849
3353.028367,-10732.986159,-666.185348,-1532.190996
3353.028705,-11843.295072,-962.267725,0.000000
3353.029042,-11473.192101,-2146.597232,229.828649
3353.029380,-8586.388927,-1628.453072,-1072.533697
3353.029717,-7994.224174,-814.226536,1225.752797
3353.030055,-9992.780217,-1850.514855,2604.724693
3353.030392,-11399.171507,-444.123565,1149.143247
3353.030730,-10658.965565,1702.473667,842.705048
3353.031067,-10807.006753,888.247130,1225.752797
3353.031405,-11547.212695,444.123565,612.876398
3353.031742,-9326.594869,740.205942,-536.266849
3353.032080,-7846.182985,518.144159,689.485948
3353.032417,-9992.780217,0.000000,1302.362347
3353.032755,-10436.903782,444.123565,-919.314598
3353.033092,-10362.883188,2516.700203,-2068.457845
3353.033430,-10807.006753,814.226536,-1762.019645
3353.033767,-9770.718434,1702.473667,-2604.724693
3353.034105,-8142.265362,74.020594,-1225.752797
3353.034442,-8068.244768,-148.041188,1685.410096
3353.034780,-9770.718434,148.041188,2221.676944
3353.035117,-11843.295072,518.144159,919.314598
3353.035455,-10732.986159,1702.473667,-229.828649
3353.035792,-10732.986159,-444.123565,0.000000
3353.036130,-9770.718434,-1702.473667,689.485948
3353.036467,-7105.977043,-1036.288319,995.924147
3353.036805,-8956.491898,-592.164754,3294.210641
3353.037142,-11399.171507,-962.267725,2068.457845
3353.037480,-10881.027347,518.144159,0.000000
3353.037817,-10436.903782,666.185348,0.000000
3353.038155,-11103.089130,-370.102971,0.000000
3353.038492,-10066.800811,-1110.308913,0.000000
3353.038830,-8068.244768,-1036.288319,1072.533697
3353.039167,-8290.306550,-1332.370696,2451.505594
3353.039505,-10584.944971,-1480.411884,2298.286494
3353.039842,-11103.089130,296.082377,-229.828649
3353.040180,-12361.439231,1036.288319,-1685.410096
3353.040517,-12361.439231,-962.267725,-2834.553343
3353.040855,-9178.553681,-1554.432478,-2221.676944
3353.041192,-7550.100608,-1924.535449,-842.705048
3353.041530,-7846.182985,-2368.659014,1225.752797
3353.041867,-10066.800811,-2146.597232,689.485948
3353.042204,-11621.233289,-1110.308913,76.609550
3353.042542,-11621.233289,-814.226536,153.219100
3353.042879,-11029.068536,-1332.370696,229.828649
3353.043217,-9622.677246,-1332.370696,766.095498
3353.043554,-8586.388927,-296.082377,1991.848295
3353.043892,-10436.903782,-1110.308913,3064.381992
3353.044229,-11547.212695,74.020594,1762.019645
3353.044567,-10955.047942,148.041188,536.266849
3353.044904,-10955.047942,518.144159,1915.238745
3353.045242,-10140.821405,0.000000,306.438199
3353.045579,-9770.718434,-148.041188,-612.876398
3353.045917,-8216.285956,444.123565,919.314598
3353.046254,-8364.327145,-296.082377,1149.143247
3353.046592,-10066.800811,592.164754,919.314598
3353.046929,-10658.965565,1850.514855,-689.485948
3353.047267,-11621.233289,1332.370696,-995.924147
3353.047604,-10955.047942,0.000000,-1302.362347
3353.047942,-8808.450710,-592.164754,-1608.800546
3353.048279,-7179.997637,-814.226536,-76.609550
3353.048617,-8660.409521,-1776.494261,612.876398
3353.048954,-10510.924376,-1406.391290,-766.095498
3353.049292,-9918.759623,222.061783,-1378.971896
3353.049629,-11473.192101,0.000000,-229.828649
3353.049967,-11251.130318,-962.267725,-919.314598
3353.050304,-9548.656652,-888.247130,-766.095498
3353.050642,-9252.574275,-888.247130,1685.410096
3353.050979,-9696.697840,-1480.411884,1838.629195
3353.051317,-10140.821405,-370.102971,1608.800546
3353.051654,-10436.903782,592.164754,1072.533697
3353.051992,-11917.315666,222.061783,1072.533697
3353.052329,-11177.109724,222.061783,-153.219100
3353.052667,-10066.800811,814.226536,153.219100
3353.053004,-10140.821405,0.000000,1072.533697
3353.053342,-9918.759623,-518.144159,842.705048
3353.053679,-9918.759623,666.185348,-459.657299
3353.054017,-9548.656652,296.082377,766.095498
3353.054354,-10955.047942,0.000000,-612.876398
3353.054692,-10362.883188,-592.164754,-1378.971896
3353.055029,-8808.450710,-296.082377,-383.047749
3353.055367,-8586.388927,-592.164754,536.266849
3353.055704,-10584.944971,-1406.391290,612.876398
3353.056042,-9844.739029,0.000000,-842.705048
3353.056379,-9696.697840,74.020594,-842.705048
3353.056717,-10288.862594,-444.123565,0.000000
3353.057054,-8882.471304,-370.102971,-1149.143247
3353.057392,-8216.285956,-222.061783,919.314598
3353.057729,-9326.594869,-1776.494261,3140.991542
3353.058067,-9992.780217,-1036.288319,3447.429741
3353.058404,-11251.130318,1480.411884,2911.162892
3353.058742,-11029.068536,1776.494261,2987.772442
3353.059079,-11621.233289,1480.411884,2374.896044
3353.059417,-11695.253884,1110.308913,306.438199
3353.059754,-10658.965565,1850.514855,0.000000
3353.060091,-9770.718434,370.102971,229.828649
3353.060429,-10214.842000,74.020594,-153.219100
3353.060766,-9104.533087,592.164754,-1991.848295
3353.061104,-10066.800811,444.123565,-1225.752797
3353.061441,-11399.171507,0.000000,-919.314598
3353.061779,-10288.862594,-1110.308913,-1762.019645
3353.062116,-7772.162391,-1036.288319,-612.876398
3353.062454,-10066.800811,-2072.576638,1915.238745
3353.062791,-10658.965565,-1998.556043,536.266849
3353.063129,-9696.697840,-962.267725,-919.314598
3353.063466,-10436.903782,-1776.494261,-306.438199
3353.063804,-10140.821405,-1258.350101,-306.438199
3353.064141,-9178.553681,-2368.659014,-1685.410096
3353.064479,-8290.306550,-2590.720797,919.314598
3353.064816,-9844.739029,-1554.432478,1302.362347
3353.065154,-11103.089130,-1480.411884,919.314598
3353.065491,-10214.842000,518.144159,536.266849
3353.065829,-10362.883188,296.082377,536.266849
3353.066166,-10807.006753,-444.123565,919.314598
3353.066504,-9622.677246,-370.102971,383.047749
3353.066841,-9474.636058,148.041188,3064.381992
3353.067179,-10732.986159,-222.061783,2911.162892
3353.067516,-11177.109724,444.123565,459.657299
3353.067854,-10436.903782,1480.411884,-1378.971896
3353.068191,-10881.027347,444.123565,-459.657299
3353.068529,-10436.903782,148.041188,-76.609550
3353.068866,-8734.430116,-518.144159,-995.924147
3353.069204,-8882.471304,296.082377,995.924147
3353.069541,-10288.862594,-1036.288319,459.657299
3353.069879,-10807.006753,-740.205942,229.828649
3353.070216,-10066.800811,592.164754,1225.752797
3353.070554,-10732.986159,-1110.308913,1455.581446
3353.070891,-10436.903782,0.000000,1072.533697
3353.071229,-8882.471304,0.000000,0.000000
3353.071566,-8586.388927,-592.164754,1838.629195
3353.071904,-10732.986159,-1406.391290,2221.676944
3353.072241,-10955.047942,-814.226536,0.000000
3353.072579,-9474.636058,740.205942,306.438199
3353.072916,-9548.656652,-444.123565,536.266849
3353.073254,-9696.697840,-370.102971,0.000000
3353.073591,-9178.553681,0.000000,153.219100
3353.073929,-9178.553681,592.164754,1072.533697
3353.074266,-11695.253884,222.061783,612.876398
3353.074604,-11547.212695,148.041188,-306.438199
3353.074941,-9844.739029,740.205942,-536.266849
3353.075279,-10436.903782,-518.144159,0.000000
3353.075616,-10214.842000,-814.226536,-1072.533697
3353.075954,-8068.244768,-296.082377,-1762.019645
3353.076291,-9474.636058,-1184.329507,-842.705048
3353.076629,-10807.006753,-1332.370696,-2451.505594
3353.076966,-9918.759623,-740.205942,-2451.505594
3353.077304,-9992.780217,-592.164754,-536.266849
3353.077641,-10881.027347,-814.226536,-229.828649
3353.077979,-10436.903782,-888.247130,-153.219100
3353.078316,-9104.533087,-740.205942,612.876398
3353.078653,-9474.636058,-1184.329507,2987.772442
3353.078991,-10881.027347,-1184.329507,2451.505594
3353.079328,-10436.903782,296.082377,2145.067394
3353.079666,-10288.862594,1110.308913,1532.190996
3353.080003,-11103.089130,148.041188,612.876398
3353.080341,-9622.677246,814.226536,153.219100
3353.080678,-8586.388927,222.061783,766.095498
3353.081016,-9992.780217,1184.329507,1608.800546
3353.081353,-10140.821405,1480.411884,-229.828649
3353.081691,-9622.677246,2146.597232,-536.266849
3353.082028,-9622.677246,1924.535449,-459.657299
3353.082366,-9918.759623,296.082377,-766.095498
3353.082703,-9622.677246,444.123565,-229.828649
3353.083041,-8808.450710,-370.102971,1072.533697
3353.083378,-9696.697840,-518.144159,1838.629195
3353.083716,-10732.986159,0.000000,-689.485948
3353.084053,-10436.903782,148.041188,-1532.190996
3353.084391,-11103.089130,-740.205942,-995.924147
3353.084728,-10658.965565,-1776.494261,-459.657299
3353.085066,-8956.491898,-1110.308913,383.047749
3353.085403,-8660.409521,-1036.288319,1302.362347
3353.085741,-10658.965565,-1776.494261,1225.752797
3353.086078,-11177.109724,-1998.556043,229.828649
3353.086416,-9918.759623,-666.185348,689.485948
3353.086753,-10066.800811,-814.226536,2604.724693
3353.087091,-10510.924376,-1110.308913,1762.019645
3353.087428,-9992.780217,-666.185348,459.657299
3353.087766,-9770.718434,-740.205942,689.485948
3353.088103,-10807.006753,-962.267725,1072.533697
3353.088441,-10436.903782,-518.144159,-995.924147
3353.088778,-9770.718434,0.000000,-689.485948
3353.089116,-9696.697840,-814.226536,-383.047749
3353.089453,-9474.636058,-2590.720797,-689.485948
3353.089791,-9252.574275,-1036.288319,306.438199
3353.090128,-9400.615463,-1850.514855,766.095498
3353.090466,-10955.047942,-740.205942,0.000000
3353.090803,-11251.130318,-518.144159,-1302.362347
3353.091141,-10510.924376,518.144159,-1149.143247
3353.091478,-10732.986159,-1628.453072,-459.657299
3353.091816,-9474.636058,-1924.535449,229.828649
3353.092153,-8364.327145,-666.185348,1685.410096
3353.092491,-10140.821405,-1480.411884,2834.553343
3353.092828,-10955.047942,-592.164754,1532.190996
3353.093166,-10140.821405,518.144159,689.485948
3353.093503,-10807.006753,962.267725,2145.067394
3353.093841,-10658.965565,1628.453072,1762.019645
3353.094178,-11177.109724,592.164754,1378.971896
3353.094516,-8956.491898,2146.597232,1608.800546
3353.094853,-9918.759623,2072.576638,2221.676944
3353.095191,-11177.109724,1628.453072,766.095498
3353.095528,-9992.780217,2368.659014,-1455.581446
3353.095866,-9548.656652,1554.432478,-1149.143247
3353.096203,-9252.574275,0.000000,-766.095498
3353.096540,-8290.306550,-296.082377,-1455.581446
3353.096878,-8142.265362,518.144159,689.485948
3353.097215,-9844.739029,-740.205942,306.438199
3353.097553,-11177.109724,518.144159,-229.828649
3353.097890,-10955.047942,0.000000,-2221.676944
3353.098228,-9770.718434,-148.041188,-1302.362347
3353.098565,-9474.636058,-1332.370696,-995.924147
3353.098903,-9252.574275,-2146.597232,-1149.143247
3353.099240,-8734.430116,-1702.473667,383.047749
3353.099578,-10510.924376,-1924.535449,612.876398
3353.099915,-11547.212695,-1110.308913,536.266849
3353.100253,-10732.986159,370.102971,-919.314598
3353.100590,-10955.047942,-222.061783,919.314598
3353.100928,-10955.047942,-592.164754,1149.143247
3353.101265,-9326.594869,-962.267725,306.438199
3353.101603,-9622.677246,-148.041188,2834.553343
3353.101940,-10807.006753,-518.144159,2987.772442
3353.102278,-10881.027347,296.082377,1378.971896
3353.102615,-10584.944971,1258.350101,306.438199
3353.102953,-11103.089130,1184.329507,536.266849
3353.103290,-10362.883188,74.020594,-383.047749
3353.103628,-9178.553681,74.020594,-689.485948
3353.103965,-8882.471304,-148.041188,1302.362347
3353.104303,-10214.842000,-814.226536,842.705048
3353.104640,-10066.800811,-666.185348,-306.438199
3353.104978,-9252.574275,148.041188,-383.047749
3353.105315,-9474.636058,-1776.494261,459.657299
3353.105653,-9400.615463,-1036.288319,76.609550
3353.105990,-9104.533087,-1480.411884,919.314598
3353.106328,-9326.594869,74.020594,2298.286494
3353.106665,-10510.924376,-296.082377,995.924147
3353.107003,-11695.253884,1184.329507,-383.047749
3353.107340,-10214.842000,666.185348,-842.705048
3353.107678,-10436.903782,-740.205942,-153.219100
3353.108015,-9474.636058,-666.185348,306.438199
3353.108353,-8068.244768,-814.226536,842.705048
3353.108690,-9770.718434,0.000000,3677.258390
3353.109028,-11843.295072,0.000000,919.314598
3353.109365,-11177.109724,1702.473667,-995.924147
3353.109703,-11251.130318,1702.473667,-919.314598
3353.110040,-11399.171507,-222.061783,-383.047749
3353.110378,-9548.656652,-740.205942,-1225.752797
3353.110715,-8586.388927,-962.267725,76.609550
3353.111053,-8882.471304,-1036.288319,995.924147
3353.111390,-10658.965565,-1332.370696,-1532.190996
3353.111728,-10807.006753,0.000000,-2221.676944
3353.112065,-10066.800811,-1776.494261,-2911.162892
3353.112403,-10436.903782,-1998.556043,-766.095498
3353.112740,-9770.718434,-2664.741391,76.609550
3353.113078,-8142.265362,-1628.453072,842.705048
3353.113415,-8734.430116,-2072.576638,2221.676944
3353.113753,-10732.986159,-1036.288319,1302.362347
3353.114090,-11843.295072,-666.185348,1608.800546
3353.114428,-10584.944971,-148.041188,1378.971896
3353.114765,-10214.842000,-740.205942,2528.115143
3353.115102,-10362.883188,296.082377,2528.115143
3353.115440,-9400.615463,296.082377,2528.115143
3353.115777,-10140.821405,444.123565,2451.505594
3353.116115,-10510.924376,296.082377,306.438199
3353.116452,-10140.821405,2220.617826,-766.095498
3353.116790,-10214.842000,2368.659014,-536.266849
3353.117127,-10140.821405,962.267725,-306.438199
3353.117465,-8882.471304,1184.329507,-919.314598
3353.117802,-8660.409521,444.123565,842.705048
3353.118140,-10066.800811,1258.350101,766.095498
3353.118477,-11473.192101,222.061783,-842.705048
3353.118815,-11103.089130,1036.288319,-1225.752797
3353.119152,-9696.697840,-148.041188,-1378.971896
3353.119490,-9622.677246,-1924.535449,-919.314598
3353.119827,-8512.368333,-1628.453072,383.047749
3353.120165,-8956.491898,-1924.535449,1302.362347
3353.120502,-10436.903782,-1258.350101,1838.629195
3353.120840,-11547.212695,-888.247130,-536.266849
3353.121178,-9918.759623,370.102971,-1225.752797
3353.121516,-10362.883188,-962.267725,383.047749
3353.121853,-10288.862594,-1184.329507,229.828649
3353.122191,-8734.430116,-370.102971,153.219100
3353.122528,-9548.656652,-888.247130,1915.238745
3353.122866,-11473.192101,-814.226536,1532.190996
3353.123203,-11177.109724,-148.041188,-1225.752797
3353.123541,-10362.883188,1184.329507,-1225.752797
3353.123878,-10807.006753,296.082377,-919.314598
3353.124216,-9326.594869,-296.082377,-1762.019645
3353.124553,-8364.327145,-518.144159,-842.705048
3353.124891,-9548.656652,-1258.350101,1302.362347
3353.125228,-11177.109724,-740.205942,842.705048
3353.125566,-11473.192101,74.020594,-1149.143247
3353.125903,-11029.068536,148.041188,-919.314598
3353.126241,-10214.842000,-518.144159,0.000000
3353.126578,-8956.491898,-1110.308913,-459.657299
3353.126916,-8142.265362,-518.144159,0.000000
3353.127253,-9918.759623,-1702.473667,1915.238745
3353.127591,-11029.068536,-740.205942,1378.971896
3353.127928,-10140.821405,592.164754,-612.876398
3353.128266,-10066.800811,2072.576638,1072.533697
3353.128603,-10140.821405,444.123565,1762.019645
3353.128941,-9400.615463,222.061783,919.314598
3353.129278,-7994.224174,1258.350101,1685.410096
3353.129616,-9178.553681,444.123565,3677.258390
3353.129953,-11399.171507,1184.329507,2451.505594
3353.130291,-11843.295072,1776.494261,0.000000
3353.130628,-10510.924376,2664.741391,612.876398
3353.130966,-10584.944971,1184.329507,-153.219100
3353.131303,-9326.594869,0.000000,-766.095498
3353.131641,-7920.203579,0.000000,153.219100
3353.131978,-8882.471304,-1036.288319,0.000000
3353.132316,-11103.089130,0.000000,-995.924147
3353.132653,-10732.986159,74.020594,-2221.676944
3353.132991,-10288.862594,-296.082377,-1762.019645
3353.133328,-9696.697840,-2072.576638,-766.095498
3353.133666,-9178.553681,-1554.432478,-383.047749
3353.134003,-8808.450710,-1850.514855,1838.629195
3353.134341,-10658.965565,-2294.638420,2298.286494
3353.134678,-11917.315666,-2368.659014,0.000000
3353.135016,-11029.068536,-666.185348,-995.924147
3353.135353,-10732.986159,-1184.329507,459.657299
3353.135691,-10732.986159,-2590.720797,766.095498
3353.136028,-8438.347739,-1924.535449,536.266849
3353.136366,-8290.306550,-962.267725,1762.019645
3353.136703,-10214.842000,-1998.556043,1838.629195
3353.137041,-10881.027347,-518.144159,383.047749
3353.137378,-10362.883188,592.164754,459.657299
3353.137716,-11251.130318,370.102971,1225.752797
3353.138053,-10807.006753,-222.061783,-153.219100
3353.138391,-9400.615463,-222.061783,153.219100
3353.138728,-8586.388927,0.000000,1762.019645
3353.139066,-9474.636058,-1184.329507,1225.752797
3353.139403,-10584.944971,74.020594,-459.657299
3353.139741,-9770.718434,370.102971,-1762.019645
3353.140078,-9992.780217,-1332.370696,-459.657299
3353.140416,-10140.821405,-888.247130,-306.438199
3353.140753,-8882.471304,518.144159,0.000000
3353.141091,-9400.615463,666.185348,842.705048
3353.141428,-11695.253884,-296.082377,1072.533697
3353.141766,-11325.150913,296.082377,-76.609550
3353.142103,-10140.821405,740.205942,-766.095498
3353.142441,-11029.068536,-74.020594,1149.143247
3353.142778,-10362.883188,-1332.370696,1149.143247
3353.143116,-8438.347739,-1036.288319,459.657299
3353.143453,-9474.636058,-1036.288319,3600.648841
3353.143791,-10732.986159,0.000000,2145.067394
3353.144128,-11399.171507,592.164754,-383.047749
3353.144466,-11029.068536,1036.288319,-536.266849
3353.144803,-10362.883188,740.205942,-612.876398
3353.145141,-9770.718434,-592.164754,-995.924147
3353.145478,-7846.182985,-296.082377,-1149.143247
3353.145816,-7698.141797,-962.267725,536.266849
3353.146153,-11325.150913,-1480.411884,612.876398
3353.146491,-10807.006753,296.082377,-2068.457845
3353.146828,-10288.862594,0.000000,-2068.457845
3353.147166,-11103.089130,-888.247130,-1302.362347
3353.147503,-9400.615463,-1924.535449,-1838.629195
3353.147841,-8068.244768,-1184.329507,-306.438199
3353.148178,-9252.574275,-1480.411884,1302.362347
3353.148516,-10510.924376,-1036.288319,536.266849
3353.148853,-10807.006753,148.041188,-229.828649
3353.149191,-10807.006753,148.041188,459.657299
3353.149528,-11029.068536,-296.082377,1685.410096
3353.149866,-9696.697840,222.061783,1532.190996
3353.150203,-9104.533087,962.267725,2911.162892
3353.150541,-10214.842000,814.226536,2604.724693
3353.150878,-10955.047942,1406.391290,1532.190996
3353.151216,-10584.944971,2590.720797,612.876398
3353.151553,-10362.883188,1702.473667,0.000000
3353.151891,-9992.780217,1258.350101,612.876398
3353.152228,-8512.368333,1036.288319,919.314598
3353.152566,-7920.203579,814.226536,1532.190996
3353.152903,-9474.636058,814.226536,995.924147
3353.153241,-10732.986159,666.185348,0.000000
3353.153578,-10881.027347,888.247130,-919.314598
3353.153916,-9918.759623,148.041188,-1378.971896
3353.154253,-9622.677246,-370.102971,-1532.190996
3353.154591,-7772.162391,-1702.473667,-1302.362347
3353.154928,-7846.182985,-1332.370696,1225.752797
3353.155266,-10732.986159,-1850.514855,1072.533697
3353.155603,-11325.150913,-2220.617826,-306.438199
3353.155941,-10140.821405,-962.267725,-306.438199
3353.156278,-11621.233289,-814.226536,1532.190996
3353.156616,-10807.006753,-666.185348,536.266849
3353.156953,-10066.800811,-1036.288319,383.047749
3353.157291,-10436.903782,-1702.473667,2604.724693
3353.157628,-10584.944971,-1184.329507,2451.505594
3353.157966,-11917.315666,0.000000,1149.143247
3353.158303,-10807.006753,592.164754,229.828649
3353.158641,-10955.047942,-222.061783,0.000000
3353.158978,-11103.089130,-74.020594,0.000000
3353.159316,-8808.450710,0.000000,-919.314598
3353.159653,-8142.265362,0.000000,-459.657299
3353.159991,-9474.636058,-1332.370696,-766.095498
3353.160328,-11103.089130,-296.082377,-1915.238745
3353.160666,-10436.903782,74.020594,-383.047749
3353.161003,-10881.027347,-888.247130,612.876398
3353.161341,-9252.574275,-1776.494261,306.438199
3353.161678,-7550.100608,-1702.473667,-536.266849
3353.162016,-7994.224174,-1776.494261,2068.457845
3353.162353,-10140.821405,-2072.576638,1838.629195
3353.162691,-9474.636058,-592.164754,229.828649
3353.163028,-9918.759623,518.144159,0.000000
3353.163366,-10955.047942,-444.123565,0.000000
3353.163703,-9548.656652,-222.061783,-995.924147
3353.164041,-7772.162391,-444.123565,0.000000
3353.164378,-9030.512492,592.164754,2911.162892
3353.164716,-10066.800811,74.020594,2068.457845
3353.165053,-11029.068536,1480.411884,1608.800546
3353.165391,-11843.295072,2886.803174,1225.752797
3353.165728,-12879.583391,1258.350101,612.876398
3353.166066,-11547.212695,2368.659014,229.828649
3353.166403,-9104.533087,1406.391290,-842.705048
3353.166741,-10140.821405,-740.205942,1225.752797
3353.167078,-10807.006753,-592.164754,459.657299
3353.167416,-9400.615463,0.000000,-1378.971896
3353.167753,-10214.842000,296.082377,-1532.190996
3353.168091,-10362.883188,-1184.329507,-1915.238745
3353.168428,-9326.594869,-1258.350101,-3294.210641
3353.168766,-8364.327145,-1776.494261,-1378.971896
3353.169103,-9326.594869,-2442.679609,766.095498
3353.169440,-9622.677246,-2294.638420,536.266849
3353.169778,-10584.944971,-1184.329507,229.828649
3353.170115,-10732.986159,-1850.514855,536.266849
3353.170453,-9992.780217,-2220.617826,919.314598
3353.170790,-9622.677246,-2220.617826,1302.362347
3353.171128,-9178.553681,-1924.535449,1455.581446
3353.171465,-9770.718434,-1554.432478,1608.800546
3353.171803,-10066.800811,-370.102971,766.095498
3353.172140,-10362.883188,888.247130,306.438199
3353.172478,-11621.233289,666.185348,612.876398
3353.172815,-11917.315666,814.226536,689.485948
3353.173153,-9992.780217,1332.370696,76.609550
3353.173490,-9696.697840,740.205942,1378.971896
3353.173828,-10732.986159,888.247130,2221.676944
3353.174165,-11177.109724,1036.288319,-229.828649
3353.174503,-9770.718434,1554.432478,-842.705048
3353.174840,-11103.089130,1110.308913,-383.047749
3353.175178,-11029.068536,148.041188,-766.095498
3353.175515,-8512.368333,-666.185348,-1915.238745
3353.175853,-8142.265362,-370.102971,842.705048
3353.176190,-9770.718434,-962.267725,2068.457845
3353.176528,-9622.677246,0.000000,0.000000
3353.176865,-10140.821405,1110.308913,306.438199
3353.177203,-9992.780217,148.041188,0.000000
3353.177540,-9696.697840,-592.164754,0.000000
3353.177878,-8438.347739,-740.205942,1072.533697
3353.178215,-8364.327145,-518.144159,1915.238745
3353.178553,-10288.862594,-296.082377,2528.115143
3353.178890,-10362.883188,148.041188,76.609550
3353.179228,-9474.636058,1480.411884,-995.924147
3353.179565,-10362.883188,0.000000,0.000000
3353.179903,-10584.944971,-888.247130,995.924147
3353.180240,-9474.636058,444.123565,0.000000
3353.180578,-9770.718434,-148.041188,1225.752797
3353.180915,-10510.924376,-592.164754,919.314598
3353.181253,-10584.944971,814.226536,-1072.533697
3353.181590,-10807.006753,444.123565,-1302.362347
3353.181928,-11547.212695,-1480.411884,-766.095498
3353.182265,-10140.821405,-1480.411884,-2451.505594
3353.182603,-8808.450710,-444.123565,-1685.410096
3353.182940,-10436.903782,-1998.556043,612.876398
3353.183278,-10584.944971,-2368.659014,-536.266849
3353.183615,-10510.924376,-1184.329507,-1225.752797
3353.183953,-10066.800811,-1184.329507,612.876398
3353.184290,-11251.130318,-2368.659014,1762.019645
3353.184628,-10436.903782,-2072.576638,919.314598
3353.184965,-8586.388927,-888.247130,1838.629195
3353.185303,-10584.944971,-888.247130,3907.087040
3353.185640,-11843.295072,-592.164754,2374.896044
3353.185978,-9696.697840,296.082377,842.705048
3353.186315,-9844.739029,1406.391290,1532.190996
3353.186653,-10214.842000,0.000000,842.705048
3353.186990,-9030.512492,148.041188,-1072.533697
3353.187328,-7920.203579,814.226536,0.000000
3353.187665,-10066.800811,1036.288319,2374.896044
3353.188003,-10881.027347,666.185348,-689.485948
3353.188340,-9474.636058,2146.597232,-1302.362347
3353.188678,-10140.821405,962.267725,766.095498
3353.189015,-10881.027347,148.041188,0.000000
3353.189353,-8808.450710,-444.123565,-1455.581446
3353.189690,-8660.409521,148.041188,229.828649
3353.190028,-9770.718434,-1702.473667,612.876398
3353.190365,-10584.944971,-1332.370696,-766.095498
3353.190703,-10214.842000,148.041188,-766.095498
3353.191040,-11177.109724,-148.041188,-383.047749
3353.191378,-11547.212695,-1332.370696,-995.924147
3353.191715,-9474.636058,-814.226536,-766.095498
3353.192053,-8290.306550,-888.247130,919.314598
3353.192390,-10807.006753,-1036.288319,2221.676944
3353.192728,-11029.068536,-740.205942,689.485948
3353.193065,-10214.842000,370.102971,842.705048
3353.193403,-11103.089130,-740.205942,1608.800546
3353.193740,-10362.883188,-74.020594,536.266849
3353.194078,-9400.615463,-74.020594,689.485948
3353.194415,-9992.780217,0.000000,1608.800546
3353.194753,-11473.192101,-296.082377,459.657299
3353.195090,-9918.759623,740.205942,-1838.629195
3353.195428,-9252.574275,74.020594,-612.876398
3353.195765,-10510.924376,-1036.288319,229.828649
3353.196103,-9844.739029,-814.226536,-842.705048
3353.196440,-8808.450710,148.041188,-995.924147
3353.196778,-9030.512492,-888.247130,842.705048
3353.197115,-10584.944971,-1184.329507,536.266849
3353.197453,-10658.965565,-370.102971,0.000000
3353.197790,-9622.677246,148.041188,689.485948
3353.198128,-10510.924376,-444.123565,1685.410096
3353.198465,-10214.842000,-740.205942,842.705048
3353.198803,-8290.306550,148.041188,612.876398
3353.199140,-9400.615463,370.102971,2221.676944
3353.199478,-10881.027347,0.000000,1225.752797
3353.199815,-10807.006753,2072.576638,995.924147
3353.200153,-10140.821405,2442.679609,919.314598
3353.200490,-10510.924376,1554.432478,1991.848295
3353.200828,-10436.903782,2146.597232,76.609550
3353.201165,-9770.718434,1998.556043,842.705048
3353.201503,-10955.047942,740.205942,1225.752797
3353.201840,-10362.883188,0.000000,0.000000
3353.202178,-9178.553681,444.123565,-919.314598
3353.202515,-9622.677246,444.123565,-536.266849
3353.202853,-10214.842000,-1184.329507,-1149.143247
3353.203190,-8956.491898,-1480.411884,-2451.505594
3353.203528,-8660.409521,-888.247130,-919.314598
3353.203865,-9844.739029,-1776.494261,229.828649
3353.204203,-10288.862594,-2072.576638,-612.876398
3353.204540,-9918.759623,-1406.391290,-1225.752797
3353.204878,-10140.821405,-1850.514855,-383.047749
3353.205215,-10732.986159,-2738.761985,0.000000
3353.205553,-9400.615463,-2664.741391,-383.047749
3353.205890,-8734.430116,-2442.679609,1302.362347
3353.206228,-10436.903782,-2220.617826,2145.067394
3353.206565,-11695.253884,-1110.308913,842.705048
3353.206903,-10955.047942,222.061783,0.000000
3353.207240,-11399.171507,0.000000,1072.533697
3353.207578,-11399.171507,-592.164754,919.314598
3353.207915,-9992.780217,-296.082377,536.266849
3353.208253,-9474.636058,74.020594,2528.115143
3353.208590,-10140.821405,0.000000,2451.505594
3353.208928,-11251.130318,222.061783,459.657299
3353.209265,-11029.068536,1924.535449,-229.828649
3353.209603,-10140.821405,1036.288319,-1225.752797
3353.209940,-9992.780217,0.000000,-1072.533697
3353.210278,-8808.450710,0.000000,-1455.581446
3353.210615,-7920.203579,666.185348,-306.438199
3353.210953,-8142.265362,-888.247130,-766.095498
3353.211290,-9252.574275,-888.247130,-1149.143247
3353.211628,-9844.739029,0.000000,0.000000
3353.211965,-9844.739029,-296.082377,536.266849
3353.212303,-9474.636058,0.000000,766.095498
3353.212640,-8734.430116,-518.144159,766.095498
3353.212978,-9252.574275,-148.041188,2221.676944
3353.213315,-10140.821405,-1036.288319,2298.286494
3353.213653,-11473.192101,296.082377,1455.581446
3353.213990,-9918.759623,814.226536,229.828649
3353.214328,-10362.883188,0.000000,76.609550
3353.214665,-9548.656652,-74.020594,0.000000
3353.215003,-8290.306550,0.000000,0.000000
3353.215340,-9844.739029,0.000000,1608.800546
3353.215678,-11621.233289,444.123565,536.266849
3353.216015,-12065.356855,370.102971,-842.705048
3353.216353,-11473.192101,1036.288319,-1072.533697
3353.216690,-10140.821405,-1332.370696,-919.314598
3353.217028,-10288.862594,-1702.473667,-76.609550
3353.217365,-9030.512492,-1554.432478,306.438199
3353.217703,-9178.553681,-1850.514855,536.266849
3353.218040,-10732.986159,-1628.453072,-1149.143247
3353.218378,-10881.027347,-1480.411884,-2298.286494
3353.218715,-10510.924376,-888.247130,-1532.190996
3353.219053,-11399.171507,-1850.514855,0.000000
3353.219390,-9696.697840,-1628.453072,0.000000
3353.219728,-8142.265362,-1184.329507,612.876398
3353.220065,-9548.656652,-2146.597232,2757.943793
3353.220403,-10955.047942,-1036.288319,2681.334243
3353.220740,-10362.883188,74.020594,2298.286494
3353.221078,-10955.047942,1702.473667,2068.457845
3353.221415,-10955.047942,148.041188,2145.067394
3353.221753,-9770.718434,1332.370696,1149.143247
3353.222090,-8290.306550,1702.473667,612.876398
3353.222428,-9770.718434,1628.453072,1838.629195
3353.222765,-10881.027347,1998.556043,-689.485948
3353.223103,-9178.553681,3256.906145,-2451.505594
3353.223440,-9252.574275,1702.473667,-995.924147
3353.223778,-9844.739029,1776.494261,0.000000
3353.224115,-9104.533087,148.041188,306.438199
3353.224452,-9104.533087,1258.350101,995.924147
3353.224790,-9992.780217,0.000000,1149.143247
3353.225127,-11251.130318,-296.082377,459.657299
3353.225465,-9770.718434,148.041188,-536.266849
3353.225802,-9474.636058,-962.267725,689.485948
3353.226140,-10140.821405,-1924.535449,1225.752797
3353.226477,-8808.450710,-1036.288319,-842.705048
3353.226815,-9030.512492,-1110.308913,-459.657299
3353.227152,-10881.027347,-2072.576638,689.485948
3353.227489,-10807.006753,-592.164754,-995.924147
3353.227827,-9918.759623,-148.041188,-536.266849
3353.228164,-10807.006753,0.000000,842.705048
3353.228502,-10214.842000,-1036.288319,153.219100
3353.228839,-9548.656652,-1406.391290,1149.143247
3353.229177,-9770.718434,-962.267725,2221.676944
3353.229514,-11177.109724,-1184.329507,2221.676944
3353.229852,-11325.150913,-814.226536,536.266849
3353.230189,-10584.944971,-518.144159,-153.219100
3353.230527,-9548.656652,-370.102971,-383.047749
3353.230864,-9918.759623,-2368.659014,-459.657299
3353.231201,-8956.491898,-1184.329507,-766.095498
3353.231539,-9030.512492,-1776.494261,-306.438199
3353.231876,-10955.047942,-962.267725,76.609550
3353.232214,-10066.800811,-888.247130,-1685.410096
3353.232551,-9400.615463,74.020594,-612.876398
3353.232889,-10807.006753,-740.205942,536.266849
3353.233226,-10066.800811,-1850.514855,0.000000
3353.233564,-9030.512492,-1110.308913,842.705048
3353.233901,-9252.574275,-888.247130,2145.067394
3353.234239,-11251.130318,-592.164754,3140.991542
3353.234576,-11029.068536,518.144159,1072.533697
3353.234913,-10732.986159,1776.494261,0.000000
3353.235251,-11399.171507,1332.370696,1378.971896
3353.235588,-9400.615463,592.164754,-229.828649
3353.235926,-7476.080014,814.226536,1225.752797
3353.236263,-9770.718434,1184.329507,2374.896044
3353.236601,-10881.027347,1480.411884,766.095498
3353.236938,-10732.986159,1702.473667,-1302.362347
3353.237276,-10140.821405,740.205942,-842.705048
3353.237613,-10214.842000,0.000000,459.657299
3353.237950,-9178.553681,-1110.308913,-76.609550
3353.238288,-8438.347739,-518.144159,76.609550
3353.238625,-8956.491898,-1924.535449,1149.143247
3353.238963,-10510.924376,-1702.473667,-306.438199
3353.239300,-10140.821405,-444.123565,-2451.505594
3353.239638,-9992.780217,-888.247130,-1532.190996
3353.239975,-10214.842000,-1702.473667,-766.095498
3353.240313,-8882.471304,-1628.453072,-2145.067394
3353.240650,-8734.430116,-1332.370696,995.924147
3353.240988,-10362.883188,-1924.535449,1225.752797
3353.241325,-12139.377449,-1850.514855,1455.581446
3353.241662,-11843.295072,-444.123565,1302.362347
3353.242000,-11325.150913,-518.144159,2221.676944
3353.242337,-10732.986159,-518.144159,842.705048
3353.242675,-9400.615463,-518.144159,0.000000
3353.243012,-8660.409521,296.082377,689.485948
3353.243350,-9918.759623,-1184.329507,1532.190996
3353.243687,-10955.047942,888.247130,536.266849
3353.244025,-10436.903782,1554.432478,536.266849
3353.244362,-11621.233289,1776.494261,1149.143247
3353.244700,-10658.965565,888.247130,-842.705048
3353.245037,-9104.533087,222.061783,-1072.533697
3353.245374,-7476.080014,296.082377,1302.362347
3353.245712,-9104.533087,-1628.453072,1072.533697
3353.246049,-10140.821405,0.000000,76.609550
3353.246387,-8882.471304,1258.350101,-1302.362347
3353.246724,-10510.924376,740.205942,-306.438199
3353.247062,-11251.130318,0.000000,-995.924147
3353.247399,-8142.265362,148.041188,-1149.143247
3353.247737,-6957.935855,222.061783,2145.067394
3353.248074,-9992.780217,-74.020594,2374.896044
3353.248411,-10436.903782,0.000000,842.705048
3353.248749,-11251.130318,888.247130,995.924147
3353.249086,-11621.233289,444.123565,1149.143247
3353.249424,-10807.006753,444.123565,459.657299
3353.249761,-9622.677246,0.000000,383.047749
3353.250099,-9326.594869,-518.144159,1149.143247
3353.250436,-9992.780217,-222.061783,995.924147
3353.250774,-10955.047942,740.205942,-229.828649
3353.251111,-11251.130318,814.226536,-1608.800546
3353.251449,-11177.109724,-518.144159,-995.924147
3353.251786,-9844.739029,-1332.370696,-1302.362347
3353.252123,-7994.224174,-1628.453072,0.000000
3353.252461,-8438.347739,-1628.453072,1838.629195
3353.252798,-10807.006753,-1924.535449,842.705048
3353.253136,-11399.171507,-1258.350101,-1378.971896
3353.253473,-10955.047942,-1258.350101,-1991.848295
3353.253811,-10881.027347,-2146.597232,-229.828649
3353.254148,-9622.677246,-3108.864956,-842.705048
3353.254486,-7254.018232,-2886.803174,0.000000
3353.254823,-8734.430116,-2516.700203,2298.286494
3353.255161,-11029.068536,-2294.638420,689.485948
3353.255498,-10807.006753,-444.123565,0.000000
3353.255835,-10658.965565,148.041188,1455.581446
3353.256173,-11177.109724,-222.061783,1762.019645
3353.256510,-10362.883188,0.000000,1532.190996
3353.256848,-9474.636058,518.144159,2604.724693
3353.257185,-9992.780217,666.185348,3217.601092
3353.257523,-11399.171507,222.061783,1532.190996
3353.257860,-11103.089130,1924.535449,-383.047749
3353.258198,-10584.944971,1776.494261,-229.828649
3353.258535,-9992.780217,962.267725,0.000000
3353.258872,-8438.347739,370.102971,-1225.752797
3353.259210,-7402.059420,962.267725,-383.047749
3353.259547,-10066.800811,888.247130,1149.143247
3353.259885,-10955.047942,0.000000,-1149.143247
3353.260222,-10436.903782,1480.411884,-1608.800546
3353.260560,-10214.842000,740.205942,-459.657299
3353.260897,-9918.759623,-1184.329507,-766.095498
3353.261235,-7846.182985,-1184.329507,-1455.581446
3353.261572,-7846.182985,-2368.659014,842.705048
3353.261910,-9474.636058,-1998.556043,2451.505594
3353.262247,-10732.986159,-1702.473667,-383.047749
3353.262584,-10732.986159,0.000000,-459.657299
3353.262922,-10955.047942,-888.247130,-306.438199
3353.263259,-9770.718434,-1036.288319,-536.266849
3353.263597,-9474.636058,-740.205942,76.609550
3353.263934,-8660.409521,-148.041188,1838.629195
3353.264272,-10362.883188,-1110.308913,2604.724693
3353.264609,-11621.233289,0.000000,842.705048
3353.264947,-11103.089130,814.226536,536.266849
3353.265284,-11991.336260,148.041188,153.219100
3353.265622,-10955.047942,-1110.308913,-612.876398
3353.265959,-8364.327145,-666.185348,-1072.533697
3353.266296,-8882.471304,-962.267725,766.095498
3353.266634,-10658.965565,-1110.308913,306.438199
3353.266971,-10807.006753,-370.102971,-1838.629195
3353.267309,-10732.986159,148.041188,-1149.143247
3353.267646,-10807.006753,-444.123565,-612.876398
3353.267984,-9252.574275,-1184.329507,-766.095498
3353.268321,-8068.244768,-1480.411884,153.219100
3353.268659,-9104.533087,-1702.473667,2374.896044
3353.268996,-10288.862594,-1036.288319,1685.410096
3353.269333,-10807.006753,0.000000,689.485948
3353.269671,-10140.821405,1554.432478,766.095498
3353.270008,-10584.944971,888.247130,1072.533697
3353.270346,-10140.821405,666.185348,536.266849
3353.270683,-8290.306550,962.267725,766.095498
3353.271021,-8216.285956,1184.329507,1302.362347
3353.271358,-10214.842000,1406.391290,1915.238745
3353.271696,-11029.068536,2442.679609,766.095498
3353.272033,-11029.068536,3108.864956,0.000000
3353.272371,-11547.212695,2220.617826,-383.047749
3353.272708,-10362.883188,592.164754,-1149.143247
3353.273045,-7772.162391,740.205942,-689.485948
3353.273383,-7994.224174,-1110.308913,536.266849
3353.273720,-9474.636058,0.000000,229.828649
3353.274058,-10214.842000,0.000000,-1838.629195
3353.274395,-10807.006753,74.020594,-1608.800546
3353.274733,-11251.130318,-1184.329507,-1991.848295
3353.275070,-9770.718434,-1776.494261,-1225.752797
3353.275408,-8068.244768,-1702.473667,306.438199
3353.275745,-9178.553681,-2664.741391,766.095498
3353.276083,-9918.759623,-2812.782580,1225.752797
3353.276420,-10066.800811,-1924.535449,459.657299
3353.276757,-10881.027347,-1332.370696,1378.971896
3353.277095,-11991.336260,-1554.432478,1149.143247
3353.277432,-10807.006753,-2220.617826,766.095498
3353.277770,-8734.430116,-1184.329507,919.314598
3353.278107,-9548.656652,-1406.391290,2757.943793
3353.278445,-10881.027347,-592.164754,1838.629195
3353.278782,-10140.821405,222.061783,612.876398
3353.279120,-11029.068536,1628.453072,1072.533697
3353.279457,-11621.233289,148.041188,-612.876398
3353.279794,-10584.944971,-222.061783,-842.705048
3353.280132,-9104.533087,-592.164754,995.924147
3353.280469,-9030.512492,-1110.308913,1838.629195
3353.280807,-10066.800811,0.000000,1149.143247
3353.281144,-10584.944971,1332.370696,-536.266849
3353.281482,-10584.944971,296.082377,-306.438199
3353.281819,-10732.986159,-296.082377,-1378.971896
3353.282157,-9622.677246,-148.041188,-2145.067394
3353.282494,-8216.285956,222.061783,-383.047749
3353.282832,-9252.574275,-592.164754,1072.533697
3353.283169,-10288.862594,518.144159,76.609550
3353.283506,-9696.697840,444.123565,306.438199
3353.283844,-10288.862594,1702.473667,766.095498
3353.284181,-11325.150913,518.144159,612.876398
3353.284519,-10955.047942,814.226536,-1072.533697
3353.284856,-9474.636058,1776.494261,-459.657299
3353.285194,-9548.656652,1036.288319,153.219100
3353.285531,-10510.924376,1776.494261,0.000000
3353.285869,-9770.718434,2072.576638,-1608.800546
3353.286206,-11251.130318,1110.308913,-766.095498
3353.286544,-11029.068536,1036.288319,-995.924147
3353.286881,-9474.636058,592.164754,-2145.067394
3353.287218,-8660.409521,0.000000,-1072.533697
3353.287556,-9770.718434,-1628.453072,-1072.533697
3353.287893,-10881.027347,-74.020594,-1149.143247
3353.288231,-9992.780217,1332.370696,-3064.381992
