#time,accel_x,accel_y,accel_z
3347.170612,-9548.656652,-2886.803174,306.438199
3347.170950,-9474.636058,-3182.885551,766.095498
3347.171288,-9474.636058,-1702.473667,1532.190996
3347.171626,-10066.800811,-1110.308913,919.314598
3347.171964,-10658.965565,-962.267725,536.266849
3347.172302,-11991.336260,-1776.494261,689.485948
3347.172640,-10732.986159,-1628.453072,1149.143247
3347.172978,-9400.615463,-444.123565,1302.362347
3347.173316,-9918.759623,-592.164754,2298.286494
3347.173654,-11473.192101,-740.205942,1915.238745
3347.173992,-10658.965565,-814.226536,1149.143247
3347.174330,-10140.821405,222.061783,1762.019645
3347.174668,-9770.718434,1036.288319,1225.752797
3347.175006,-9918.759623,740.205942,536.266849
3347.175344,-10436.903782,222.061783,1149.143247
3347.175682,-9770.718434,222.061783,0.000000
3347.176020,-9474.636058,296.082377,459.657299
3347.176358,-9548.656652,0.000000,612.876398
3347.176696,-9178.553681,-962.267725,0.000000
3347.177034,-9696.697840,-1554.432478,-383.047749
3347.177372,-9696.697840,-1628.453072,0.000000
3347.177710,-8734.430116,-1184.329507,536.266849
3347.178048,-8808.450710,-1776.494261,1149.143247
3347.178386,-9844.739029,-1480.411884,1685.410096
3347.178724,-9992.780217,-1998.556043,1455.581446
3347.179062,-10584.944971,-2294.638420,2298.286494
3347.179400,-9474.636058,-2220.617826,3983.696590
3347.179738,-9770.718434,-1776.494261,5362.668486
3347.180076,-11103.089130,-1702.473667,5286.058936
3347.180414,-11843.295072,-1702.473667,4060.306139
3347.180752,-11251.130318,-888.247130,4443.353888
3347.181090,-10732.986159,-1332.370696,3907.087040
3347.181428,-10732.986159,-1998.556043,3524.039291
3347.181766,-10214.842000,-1480.411884,1915.238745
3347.182104,-9696.697840,-2960.823768,229.828649
3347.182442,-9696.697840,-2886.803174,919.314598
3347.182780,-8586.388927,-3701.029710,842.705048
3347.183118,-8956.491898,-2368.659014,1915.238745
3347.183456,-10066.800811,-3552.988522,1225.752797
3347.183794,-10214.842000,-2664.741391,0.000000
3347.184132,-10732.986159,-3849.070898,1455.581446
3347.184470,-10362.883188,-4219.173869,2681.334243
3347.184808,-9326.594869,-4515.256246,3753.867940
3347.185146,-9844.739029,-4219.173869,3294.210641
3347.185484,-10288.862594,-3701.029710,2374.896044
3347.185822,-10658.965565,-3034.844362,1455.581446
3347.186160,-10510.924376,-4145.153275,1608.800546
3347.186498,-9548.656652,-4663.297435,2068.457845
3347.186836,-8956.491898,-4219.173869,3294.210641
3347.187174,-10066.800811,-2516.700203,5975.544884
3347.187512,-11547.212695,-962.267725,4826.401637
3347.187850,-10881.027347,-296.082377,3447.429741
3347.188188,-10807.006753,0.000000,1762.019645
3347.188525,-10584.944971,-592.164754,2834.553343
3347.188863,-10584.944971,-962.267725,3064.381992
3347.189201,-9622.677246,-1554.432478,3447.429741
3347.189539,-9548.656652,-1332.370696,2451.505594
3347.189877,-10066.800811,-1554.432478,2298.286494
3347.190215,-9770.718434,-1258.350101,1685.410096
3347.190553,-8512.368333,-2220.617826,1378.971896
3347.190891,-9326.594869,-2294.638420,2068.457845
3347.191229,-9548.656652,-888.247130,2451.505594
3347.191567,-10584.944971,-740.205942,1072.533697
3347.191905,-10214.842000,0.000000,0.000000
3347.192243,-10214.842000,-1554.432478,0.000000
3347.192581,-10881.027347,-3478.967927,1532.190996
3347.192919,-9474.636058,-4071.132681,2451.505594
3347.193257,-7476.080014,-3849.070898,2834.553343
3347.193595,-8660.409521,-3997.112087,3370.820191
3347.193933,-10066.800811,-4737.318029,3830.477490
3347.194271,-11547.212695,-3256.906145,4443.353888
3347.194609,-10807.006753,-1554.432478,2757.943793
3347.194947,-10066.800811,1258.350101,2374.896044
3347.195285,-11695.253884,592.164754,1915.238745
3347.195623,-11251.130318,-444.123565,0.000000
3347.195961,-9918.759623,-2368.659014,919.314598
3347.196299,-8882.471304,-3256.906145,2987.772442
3347.196637,-9474.636058,-3330.926739,4826.401637
3347.196975,-11991.336260,-3108.864956,3447.429741
3347.197313,-10584.944971,-2294.638420,0.000000
3347.197651,-8586.388927,-1628.453072,0.000000
3347.197989,-10214.842000,-1850.514855,2298.286494
3347.198327,-10436.903782,-2368.659014,919.314598
3347.198665,-9400.615463,-1406.391290,0.000000
3347.199003,-9696.697840,-2072.576638,1378.971896
3347.199341,-11473.192101,-2590.720797,1991.848295
3347.199679,-11177.109724,-2368.659014,1915.238745
3347.200017,-9548.656652,-3552.988522,2298.286494
3347.200355,-8438.347739,-4663.297435,2681.334243
3347.200693,-8438.347739,-4737.318029,4903.011187
3347.201031,-8512.368333,-2738.761985,6281.983084
3347.201369,-9696.697840,-2072.576638,6511.811733
3347.201707,-11843.295072,370.102971,3907.087040
3347.202045,-11769.274478,888.247130,1838.629195
3347.202383,-11547.212695,740.205942,2298.286494
3347.202721,-10214.842000,-592.164754,3370.820191
3347.203059,-9178.553681,-592.164754,3600.648841
3347.203397,-8734.430116,-1184.329507,2068.457845
3347.203735,-8882.471304,-962.267725,1225.752797
3347.204073,-10584.944971,-2738.761985,2451.505594
3347.204411,-9548.656652,-3108.864956,2451.505594
3347.204749,-9400.615463,-3404.947333,3600.648841
3347.205087,-10288.862594,-1702.473667,3907.087040
3347.205425,-10362.883188,-222.061783,0.000000
3347.205763,-11917.315666,-962.267725,-1991.848295
3347.206101,-10658.965565,-3108.864956,-1072.533697
3347.206439,-10066.800811,-5033.400406,1149.143247
3347.206777,-9104.533087,-4663.297435,2604.724693
3347.207115,-9104.533087,-4811.338623,3524.039291
3347.207453,-10066.800811,-4959.379811,1915.238745
3347.207790,-8364.327145,-7031.956449,1838.629195
3347.208128,-9474.636058,-6661.853478,4213.525239
3347.208466,-10436.903782,-2220.617826,4136.915689
3347.208804,-9622.677246,-370.102971,2451.505594
3347.209142,-11917.315666,-296.082377,1532.190996
3347.209480,-12213.398043,-2146.597232,1838.629195
3347.209818,-11177.109724,-1850.514855,2681.334243
3347.210156,-9030.512492,-1184.329507,1838.629195
3347.210494,-8364.327145,-1924.535449,2681.334243
3347.210832,-12065.356855,-3552.988522,3447.429741
3347.211170,-10362.883188,-3627.009116,1685.410096
3347.211508,-7550.100608,-1924.535449,1608.800546
3347.211846,-8808.450710,-370.102971,2451.505594
3347.212184,-10584.944971,-1850.514855,1225.752797
3347.212522,-12139.377449,-1776.494261,0.000000
3347.212860,-9178.553681,148.041188,-306.438199
3347.213198,-7179.997637,74.020594,1685.410096
3347.213536,-11177.109724,-1258.350101,3600.648841
3347.213874,-13471.748144,-1998.556043,1455.581446
3347.214212,-10584.944971,-2516.700203,-536.266849
3347.214550,-5551.544565,-1924.535449,1532.190996
3347.214888,-6587.832884,-2812.782580,5132.839837
3347.215226,-11473.192101,-3997.112087,5592.497135
3347.215564,-9844.739029,-1036.288319,1072.533697
3347.215902,-8734.430116,740.205942,612.876398
3347.216240,-11843.295072,2442.679609,4290.134789
3347.216578,-13397.727550,444.123565,2681.334243
3347.216916,-12287.418637,518.144159,153.219100
3347.217254,-8956.491898,370.102971,0.000000
3347.217592,-9696.697840,-1110.308913,1225.752797
3347.217930,-10658.965565,-2072.576638,1302.362347
3347.218268,-7624.121203,-2590.720797,0.000000
3347.218606,-7402.059420,-1776.494261,1915.238745
3347.218944,-11547.212695,-2294.638420,1225.752797
3347.219282,-12953.603985,-592.164754,-1378.971896
3347.219620,-10066.800811,74.020594,-2834.553343
3347.219958,-9178.553681,-592.164754,-995.924147
3347.220296,-11769.274478,-2812.782580,-919.314598
3347.220634,-11547.212695,-2146.597232,-766.095498
3347.220972,-8438.347739,-2072.576638,1302.362347
3347.221310,-9104.533087,-1850.514855,2834.553343
3347.221648,-11695.253884,-2738.761985,842.705048
3347.221986,-11547.212695,-2664.741391,-689.485948
3347.222324,-9104.533087,-2072.576638,1149.143247
3347.222662,-9030.512492,-1406.391290,2221.676944
3347.223000,-9474.636058,1036.288319,1455.581446
3347.223338,-8956.491898,1184.329507,459.657299
3347.223676,-10658.965565,1776.494261,2221.676944
3347.224014,-12583.501014,518.144159,1455.581446
3347.224352,-12805.562797,1850.514855,-919.314598
3347.224690,-8956.491898,1998.556043,-306.438199
3347.225028,-7846.182985,1628.453072,995.924147
3347.225366,-8808.450710,518.144159,229.828649
3347.225703,-8290.306550,592.164754,-1302.362347
3347.226041,-8660.409521,370.102971,153.219100
3347.226378,-11325.150913,444.123565,1378.971896
3347.226716,-11843.295072,666.185348,-1149.143247
3347.227053,-10584.944971,1554.432478,-2681.334243
3347.227391,-9326.594869,1036.288319,-919.314598
3347.227728,-9992.780217,-222.061783,612.876398
3347.228066,-9252.574275,74.020594,-612.876398
3347.228403,-9178.553681,-1332.370696,612.876398
3347.228741,-10807.006753,-1480.411884,2757.943793
3347.229078,-11621.233289,-2072.576638,842.705048
3347.229416,-10584.944971,-1258.350101,-306.438199
3347.229753,-9622.677246,-1258.350101,459.657299
3347.230091,-8956.491898,-1480.411884,0.000000
3347.230428,-8956.491898,-888.247130,-459.657299
3347.230766,-9326.594869,-1184.329507,459.657299
3347.231103,-10807.006753,-1702.473667,689.485948
3347.231441,-11917.315666,-296.082377,612.876398
3347.231778,-10732.986159,-592.164754,-306.438199
3347.232116,-10214.842000,-1480.411884,306.438199
3347.232453,-10362.883188,-962.267725,0.000000
3347.232791,-8956.491898,-1480.411884,-1149.143247
3347.233128,-8882.471304,-1998.556043,-459.657299
3347.233466,-10584.944971,-3256.906145,306.438199
3347.233803,-11843.295072,-2442.679609,0.000000
3347.234141,-9696.697840,-1628.453072,-1915.238745
3347.234478,-9326.594869,-1258.350101,-766.095498
3347.234816,-10288.862594,-1110.308913,153.219100
3347.235153,-9918.759623,-962.267725,-383.047749
3347.235491,-9474.636058,0.000000,766.095498
3347.235828,-11029.068536,-1110.308913,1838.629195
3347.236166,-12139.377449,-666.185348,1838.629195
3347.236503,-10807.006753,-222.061783,1225.752797
3347.236841,-9030.512492,-444.123565,1762.019645
3347.237178,-9326.594869,0.000000,3064.381992
3347.237516,-9474.636058,814.226536,1455.581446
3347.237853,-8438.347739,1184.329507,1915.238745
3347.238191,-10066.800811,1480.411884,3370.820191
3347.238528,-12435.459826,2220.617826,1532.190996
3347.238866,-10732.986159,2442.679609,-2145.067394
3347.239203,-9178.553681,2146.597232,-1608.800546
3347.239541,-8660.409521,444.123565,0.000000
3347.239878,-7920.203579,296.082377,-1225.752797
3347.240216,-7846.182985,-740.205942,0.000000
3347.240553,-9178.553681,-666.185348,1455.581446
3347.240891,-11325.150913,-1628.453072,76.609550
3347.241228,-11547.212695,0.000000,-2604.724693
3347.241566,-10214.842000,-814.226536,-2298.286494
3347.241903,-9326.594869,-2368.659014,-612.876398
3347.242241,-8882.471304,-1628.453072,-1455.581446
3347.242578,-9474.636058,-740.205942,689.485948
3347.242916,-11177.109724,-1258.350101,1302.362347
3347.243253,-12139.377449,-2146.597232,306.438199
3347.243591,-12065.356855,-1850.514855,-383.047749
3347.243928,-10362.883188,-814.226536,0.000000
3347.244266,-9622.677246,-1850.514855,919.314598
3347.244603,-9178.553681,-1332.370696,1302.362347
3347.244941,-8956.491898,296.082377,766.095498
3347.245278,-10066.800811,148.041188,2145.067394
3347.245616,-13101.645173,-370.102971,1915.238745
3347.245953,-12213.398043,888.247130,-612.876398
3347.246291,-10881.027347,888.247130,-995.924147
3347.246628,-8586.388927,-222.061783,-689.485948
3347.246966,-8290.306550,-370.102971,-459.657299
3347.247303,-8142.265362,-74.020594,0.000000
3347.247641,-8438.347739,0.000000,919.314598
3347.247978,-10436.903782,0.000000,383.047749
3347.248316,-12139.377449,518.144159,-1608.800546
3347.248653,-10066.800811,814.226536,-2451.505594
3347.248991,-9030.512492,-370.102971,0.000000
3347.249328,-8808.450710,0.000000,1455.581446
3347.249665,-8068.244768,1036.288319,383.047749
3347.250003,-9252.574275,1110.308913,1378.971896
3347.250340,-11547.212695,74.020594,919.314598
3347.250678,-11843.295072,-74.020594,612.876398
3347.251015,-9326.594869,962.267725,919.314598
3347.251353,-8808.450710,592.164754,2374.896044
3347.251690,-10362.883188,0.000000,1532.190996
3347.252028,-8586.388927,740.205942,-459.657299
3347.252365,-9104.533087,1702.473667,919.314598
3347.252703,-11769.274478,222.061783,1915.238745
3347.253040,-13027.624579,814.226536,-919.314598
3347.253378,-10807.006753,592.164754,-2451.505594
3347.253715,-9326.594869,-518.144159,-1608.800546
3347.254053,-7994.224174,-2146.597232,-1072.533697
3347.254390,-8364.327145,-1924.535449,-1378.971896
3347.254728,-8290.306550,-1924.535449,-229.828649
3347.255065,-11251.130318,-3330.926739,536.266849
3347.255403,-12213.398043,-2960.823768,-919.314598
3347.255740,-10584.944971,-1628.453072,-2068.457845
3347.256078,-10066.800811,-2442.679609,76.609550
3347.256415,-10214.842000,-2960.823768,-459.657299
3347.256753,-8512.368333,-2516.700203,-229.828649
3347.257090,-9104.533087,-1258.350101,1378.971896
3347.257428,-11547.212695,-2294.638420,2987.772442
3347.257765,-12361.439231,-1776.494261,1225.752797
3347.258103,-11325.150913,-444.123565,-306.438199
3347.258440,-9696.697840,-148.041188,1302.362347
3347.258778,-9548.656652,-592.164754,2528.115143
3347.259115,-9178.553681,0.000000,1149.143247
3347.259453,-8068.244768,592.164754,2451.505594
3347.259790,-10658.965565,1110.308913,3370.820191
3347.260128,-13545.768739,1258.350101,2528.115143
3347.260465,-12583.501014,2664.741391,-995.924147
3347.260803,-9178.553681,2368.659014,-1608.800546
3347.261140,-8438.347739,1184.329507,-76.609550
3347.261478,-8216.285956,888.247130,-1302.362347
3347.261815,-6809.894666,740.205942,-995.924147
3347.262153,-8808.450710,-592.164754,459.657299
3347.262490,-11695.253884,-1184.329507,0.000000
3347.262828,-11695.253884,0.000000,-1302.362347
3347.263165,-9400.615463,1480.411884,-229.828649
3347.263503,-9622.677246,-814.226536,1225.752797
3347.263840,-9178.553681,0.000000,76.609550
3347.264178,-8956.491898,0.000000,0.000000
3347.264515,-10066.800811,-1332.370696,2987.772442
3347.264853,-11843.295072,-1850.514855,2451.505594
3347.265190,-11917.315666,-1406.391290,306.438199
3347.265528,-10066.800811,296.082377,76.609550
3347.265865,-8882.471304,-1036.288319,0.000000
3347.266203,-9030.512492,-1406.391290,-306.438199
3347.266540,-7402.059420,148.041188,-612.876398
3347.266878,-9770.718434,-592.164754,919.314598
3347.267215,-13397.727550,-1184.329507,1608.800546
3347.267553,-12879.583391,-592.164754,-1378.971896
3347.267890,-10436.903782,0.000000,-612.876398
3347.268228,-9992.780217,-888.247130,612.876398
3347.268565,-9178.553681,-1850.514855,0.000000
3347.268903,-8364.327145,-1554.432478,-766.095498
3347.269240,-8882.471304,-2886.803174,919.314598
3347.269578,-11473.192101,-2516.700203,1149.143247
3347.269915,-12435.459826,-1332.370696,-689.485948
3347.270253,-11103.089130,0.000000,-1608.800546
3347.270590,-9252.574275,-296.082377,-1532.190996
3347.270928,-8512.368333,-518.144159,-919.314598
3347.271265,-7105.977043,962.267725,-612.876398
3347.271603,-8808.450710,-444.123565,1838.629195
3347.271940,-12139.377449,0.000000,3753.867940
3347.272278,-12509.480420,222.061783,1915.238745
3347.272615,-10510.924376,2220.617826,2221.676944
3347.272953,-8956.491898,888.247130,2451.505594
3347.273290,-8660.409521,1332.370696,2145.067394
3347.273628,-7772.162391,2220.617826,842.705048
3347.273965,-8068.244768,2368.659014,1838.629195
3347.274303,-11177.109724,1702.473667,2374.896044
3347.274640,-11843.295072,3182.885551,-1608.800546
3347.274978,-10288.862594,3256.906145,-2681.334243
3347.275315,-9622.677246,2146.597232,-2374.896044
3347.275653,-8438.347739,1036.288319,-2221.676944
3347.275990,-6957.935855,296.082377,-2068.457845
3347.276328,-7846.182985,-74.020594,919.314598
3347.276665,-10510.924376,-1554.432478,2221.676944
3347.277003,-13175.665768,-1332.370696,-383.047749
3347.277340,-11769.274478,-888.247130,-1762.019645
3347.277678,-9696.697840,-1628.453072,-306.438199
3347.278015,-9400.615463,-1850.514855,612.876398
3347.278353,-7772.162391,-888.247130,-1072.533697
3347.278690,-9104.533087,-666.185348,0.000000
3347.279028,-12065.356855,-1702.473667,2068.457845
3347.279365,-11843.295072,-1702.473667,383.047749
3347.279703,-11547.212695,-666.185348,0.000000
3347.280040,-10584.944971,-1554.432478,919.314598
3347.280378,-9252.574275,-1924.535449,689.485948
3347.280715,-8808.450710,-1628.453072,612.876398
3347.281053,-8216.285956,-444.123565,2298.286494
3347.281390,-10955.047942,-370.102971,3294.210641
3347.281728,-13397.727550,-444.123565,1302.362347
3347.282065,-12213.398043,296.082377,-612.876398
3347.282403,-10066.800811,-370.102971,-153.219100
3347.282740,-8882.471304,-222.061783,76.609550
3347.283078,-7698.141797,-296.082377,-689.485948
3347.283415,-7550.100608,-444.123565,-229.828649
3347.283753,-9770.718434,-444.123565,1532.190996
3347.284090,-12287.418637,-666.185348,842.705048
3347.284428,-11325.150913,1184.329507,76.609550
3347.284765,-10214.842000,444.123565,689.485948
3347.285103,-10288.862594,222.061783,995.924147
3347.285440,-8808.450710,888.247130,-76.609550
3347.285778,-7846.182985,1184.329507,1302.362347
3347.286115,-9252.574275,444.123565,3370.820191
3347.286453,-10807.006753,1036.288319,2374.896044
3347.286790,-11769.274478,1110.308913,919.314598
3347.287128,-10584.944971,1850.514855,229.828649
3347.287465,-9918.759623,0.000000,766.095498
3347.287803,-8734.430116,814.226536,383.047749
3347.288140,-7105.977043,1110.308913,-459.657299
3347.288478,-8882.471304,0.000000,1378.971896
3347.288815,-11547.212695,0.000000,229.828649
3347.289153,-11473.192101,0.000000,-2068.457845
3347.289490,-10881.027347,-222.061783,-1838.629195
3347.289828,-9770.718434,-1258.350101,-1149.143247
3347.290165,-9104.533087,-1924.535449,-2451.505594
3347.290503,-8068.244768,-2368.659014,-1991.848295
3347.290840,-9178.553681,-3034.844362,766.095498
3347.291178,-10584.944971,-3182.885551,459.657299
3347.291515,-12509.480420,-2960.823768,0.000000
3347.291853,-11991.336260,-1924.535449,0.000000
3347.292190,-10436.903782,-2886.803174,-306.438199
3347.292528,-10140.821405,-1850.514855,0.000000
3347.292865,-8586.388927,-1332.370696,229.828649
3347.293203,-9030.512492,-1776.494261,2145.067394
3347.293540,-11991.336260,-2294.638420,2987.772442
3347.293878,-11843.295072,0.000000,1762.019645
3347.294215,-10955.047942,888.247130,1608.800546
3347.294553,-9548.656652,0.000000,2451.505594
3347.294890,-9400.615463,222.061783,766.095498
3347.295228,-8882.471304,1628.453072,76.609550
3347.295565,-8586.388927,1258.350101,1302.362347
3347.295903,-11177.109724,814.226536,1915.238745
3347.296240,-11473.192101,1480.411884,0.000000
3347.296578,-10214.842000,2664.741391,-459.657299
3347.296915,-9474.636058,1776.494261,-459.657299
3347.297253,-8734.430116,1480.411884,-1225.752797
3347.297590,-7846.182985,1628.453072,-1455.581446
3347.297928,-7846.182985,0.000000,153.219100
3347.298265,-9326.594869,148.041188,766.095498
3347.298603,-11177.109724,518.144159,536.266849
3347.298940,-11103.089130,1332.370696,-842.705048
3347.299278,-10140.821405,518.144159,-459.657299
3347.299615,-10214.842000,1036.288319,-229.828649
3347.299953,-8808.450710,592.164754,-1532.190996
3347.300290,-8364.327145,888.247130,76.609550
3347.300628,-10436.903782,0.000000,1608.800546
3347.300965,-11843.295072,-74.020594,1302.362347
3347.301303,-10807.006753,1110.308913,-459.657299
3347.301640,-10584.944971,0.000000,842.705048
3347.301978,-10066.800811,-296.082377,689.485948
3347.302315,-9400.615463,-740.205942,-1225.752797
3347.302653,-8808.450710,0.000000,-306.438199
3347.302990,-10140.821405,-1850.514855,995.924147
3347.303328,-11917.315666,-1554.432478,153.219100
3347.303665,-10732.986159,0.000000,-995.924147
3347.304003,-9918.759623,-222.061783,-536.266849
3347.304340,-11103.089130,-1258.350101,-1072.533697
3347.304678,-10436.903782,-2368.659014,-1608.800546
3347.305015,-8068.244768,-1628.453072,-612.876398
3347.305353,-8956.491898,-3108.864956,2374.896044
3347.305690,-10955.047942,-2220.617826,2145.067394
3347.306028,-10436.903782,-666.185348,-383.047749
3347.306365,-10732.986159,-592.164754,153.219100
3347.306703,-10436.903782,-1258.350101,76.609550
3347.307040,-9474.636058,-148.041188,-383.047749
3347.307378,-8364.327145,370.102971,766.095498
3347.307715,-8956.491898,-222.061783,2528.115143
3347.308053,-11177.109724,1110.308913,2528.115143
3347.308390,-11103.089130,1332.370696,383.047749
3347.308728,-9918.759623,1406.391290,1685.410096
3347.309065,-9992.780217,592.164754,1762.019645
3347.309403,-9252.574275,1776.494261,1149.143247
3347.309740,-8364.327145,2146.597232,612.876398
3347.310078,-9252.574275,592.164754,1762.019645
3347.310415,-10881.027347,444.123565,1225.752797
3347.310753,-10510.924376,1480.411884,-1532.190996
3347.311090,-10214.842000,888.247130,-1455.581446
3347.311428,-10510.924376,518.144159,-1225.752797
3347.311765,-9252.574275,-888.247130,-3064.381992
3347.312103,-7920.203579,-1258.350101,-1915.238745
3347.312440,-8364.327145,-1924.535449,0.000000
3347.312778,-10807.006753,-2146.597232,0.000000
3347.313115,-11399.171507,-1332.370696,-1378.971896
3347.313453,-10288.862594,-962.267725,-689.485948
3347.313790,-10807.006753,-1776.494261,842.705048
3347.314128,-10807.006753,-2294.638420,612.876398
3347.314465,-9918.759623,-1184.329507,919.314598
3347.314803,-10066.800811,-1554.432478,1991.848295
3347.315140,-11251.130318,-962.267725,1991.848295
3347.315478,-10955.047942,-740.205942,76.609550
3347.315815,-10140.821405,-370.102971,0.000000
3347.316153,-9696.697840,-1628.453072,383.047749
3347.316490,-9992.780217,-1258.350101,383.047749
3347.316828,-8660.409521,-222.061783,0.000000
3347.317165,-9252.574275,-444.123565,1149.143247
3347.317503,-10807.006753,-1110.308913,1991.848295
3347.317840,-11029.068536,0.000000,-383.047749
3347.318178,-10436.903782,814.226536,-383.047749
3347.318515,-10140.821405,148.041188,-383.047749
3347.318853,-9548.656652,-370.102971,-919.314598
3347.319190,-8734.430116,0.000000,-1225.752797
3347.319528,-7920.203579,-518.144159,0.000000
3347.319865,-9918.759623,-444.123565,1838.629195
3347.320203,-11473.192101,0.000000,842.705048
3347.320540,-9844.739029,1628.453072,-229.828649
3347.320878,-10066.800811,444.123565,995.924147
3347.321215,-10066.800811,1110.308913,689.485948
3347.321553,-9030.512492,1480.411884,536.266849
3347.321890,-8808.450710,2146.597232,2451.505594
3347.322228,-9992.780217,1628.453072,2528.115143
3347.322565,-11917.315666,2072.576638,689.485948
3347.322903,-10732.986159,3108.864956,-1225.752797
3347.323240,-9770.718434,1332.370696,-689.485948
3347.323578,-10362.883188,518.144159,153.219100
3347.323915,-8290.306550,1702.473667,-1915.238745
3347.324252,-7550.100608,666.185348,-1072.533697
3347.324590,-9400.615463,-666.185348,153.219100
3347.324927,-11325.150913,-296.082377,-1915.238745
3347.325264,-10955.047942,74.020594,-2221.676944
3347.325601,-9770.718434,-518.144159,-2145.067394
3347.325939,-9844.739029,-2516.700203,-842.705048
3347.326276,-9326.594869,-2072.576638,-995.924147
3347.326613,-8068.244768,-1258.350101,-459.657299
3347.326951,-11473.192101,-2072.576638,1072.533697
3347.327288,-12139.377449,-1924.535449,-612.876398
3347.327625,-11029.068536,-962.267725,-2374.896044
3347.327963,-11103.089130,-1998.556043,0.000000
3347.328300,-10881.027347,-2516.700203,1302.362347
3347.328637,-9400.615463,-1332.370696,919.314598
3347.328975,-9178.553681,-888.247130,1608.800546
3347.329312,-10584.944971,0.000000,3524.039291
3347.329649,-12879.583391,888.247130,2681.334243
3347.329987,-12287.418637,1110.308913,1149.143247
3347.330324,-10807.006753,444.123565,1455.581446
3347.330661,-9400.615463,-444.123565,1685.410096
3347.330998,-8290.306550,518.144159,1225.752797
3347.331336,-7846.182985,518.144159,842.705048
3347.331673,-9548.656652,74.020594,1838.629195
3347.332010,-11325.150913,518.144159,153.219100
3347.332348,-10288.862594,1406.391290,-2451.505594
3347.332685,-9030.512492,592.164754,-1072.533697
3347.333022,-8364.327145,-666.185348,-536.266849
3347.333360,-8512.368333,-1406.391290,-153.219100
3347.333697,-8142.265362,-666.185348,-153.219100
3347.334034,-9400.615463,-1184.329507,1915.238745
3347.334372,-11399.171507,-444.123565,1685.410096
3347.334709,-10436.903782,-518.144159,0.000000
3347.335046,-10066.800811,444.123565,459.657299
3347.335384,-10807.006753,-1332.370696,919.314598
3347.335721,-10732.986159,-962.267725,0.000000
3347.336058,-9474.636058,0.000000,536.266849
3347.336395,-10140.821405,0.000000,919.314598
3347.336733,-10955.047942,222.061783,-383.047749
3347.337070,-11325.150913,0.000000,-842.705048
3347.337407,-10658.965565,148.041188,-1149.143247
3347.337745,-9770.718434,-1406.391290,-383.047749
3347.338082,-9844.739029,-1110.308913,76.609550
3347.338419,-9326.594869,-1702.473667,-76.609550
3347.338757,-10214.842000,-1480.411884,1608.800546
3347.339094,-11473.192101,-2072.576638,612.876398
3347.339431,-11177.109724,-1184.329507,-842.705048
3347.339769,-10881.027347,-444.123565,-1838.629195
3347.340106,-9844.739029,-3404.947333,-1915.238745
3347.340443,-8882.471304,-2664.741391,-1608.800546
3347.340780,-7772.162391,-2960.823768,-536.266849
3347.341118,-8882.471304,-1628.453072,1225.752797
3347.341455,-10732.986159,-2072.576638,2374.896044
3347.341792,-11917.315666,-1258.350101,919.314598
3347.342130,-10066.800811,-962.267725,-229.828649
3347.342467,-9326.594869,-1258.350101,689.485948
3347.342804,-9844.739029,-518.144159,2604.724693
3347.343142,-9844.739029,-370.102971,2145.067394
3347.343479,-9400.615463,1036.288319,3140.991542
3347.343816,-10362.883188,1776.494261,2451.505594
3347.344154,-11991.336260,1776.494261,1685.410096
3347.344491,-11251.130318,2886.803174,0.000000
3347.344828,-9844.739029,1850.514855,0.000000
3347.345166,-9622.677246,1924.535449,306.438199
3347.345503,-8364.327145,1924.535449,-459.657299
3347.345840,-8216.285956,1554.432478,0.000000
3347.346177,-10955.047942,1110.308913,-536.266849
3347.346515,-11251.130318,666.185348,-2221.676944
3347.346852,-10732.986159,1406.391290,-2604.724693
3347.347189,-8956.491898,-444.123565,-2451.505594
3347.347527,-8660.409521,-962.267725,-1378.971896
3347.347864,-8660.409521,-1406.391290,-995.924147
3347.348201,-8956.491898,-666.185348,383.047749
3347.348539,-10881.027347,-1702.473667,1378.971896
3347.348876,-12139.377449,-1924.535449,459.657299
3347.349213,-9918.759623,-370.102971,-1225.752797
3347.349551,-9918.759623,-1554.432478,0.000000
3347.349888,-10066.800811,-592.164754,1149.143247
3347.350225,-8660.409521,-1406.391290,-689.485948
3347.350563,-9622.677246,296.082377,919.314598
3347.350900,-11251.130318,-962.267725,1685.410096
3347.351237,-12139.377449,0.000000,459.657299
3347.351574,-11473.192101,518.144159,-919.314598
3347.351912,-9992.780217,444.123565,0.000000
3347.352249,-9770.718434,592.164754,0.000000
3347.352586,-9770.718434,74.020594,0.000000
3347.352924,-9030.512492,148.041188,919.314598
3347.353261,-9696.697840,-740.205942,1762.019645
3347.353598,-12139.377449,-444.123565,1532.190996
3347.353936,-11769.274478,888.247130,-459.657299
3347.354273,-9844.739029,592.164754,-2145.067394
3347.354610,-8142.265362,-518.144159,-153.219100
3347.354948,-9252.574275,-1628.453072,536.266849
3347.355285,-8068.244768,-962.267725,1762.019645
3347.355622,-8586.388927,-1184.329507,2528.115143
3347.355960,-10807.006753,-888.247130,3524.039291
3347.356297,-10510.924376,-444.123565,1532.190996
3347.356634,-10362.883188,222.061783,459.657299
3347.356971,-9252.574275,296.082377,1532.190996
3347.357309,-8882.471304,0.000000,1225.752797
3347.357646,-8808.450710,740.205942,2298.286494
3347.357983,-9770.718434,444.123565,2604.724693
3347.358321,-12065.356855,666.185348,2145.067394
3347.358658,-11843.295072,740.205942,0.000000
3347.358995,-10066.800811,222.061783,-2145.067394
3347.359333,-8660.409521,666.185348,-1455.581446
3347.359670,-8808.450710,-814.226536,-2145.067394
3347.360007,-8586.388927,-1110.308913,-995.924147
3347.360345,-9696.697840,-1924.535449,0.000000
3347.360682,-11917.315666,-1924.535449,612.876398
3347.361019,-11769.274478,-1258.350101,-1532.190996
3347.361357,-10658.965565,-814.226536,-2068.457845
3347.361694,-9622.677246,-2146.597232,-995.924147
3347.362031,-9844.739029,-3404.947333,-766.095498
3347.362368,-8882.471304,-2812.782580,-306.438199
3347.362706,-9844.739029,-2664.741391,1149.143247
3347.363043,-11547.212695,-3182.885551,766.095498
3347.363380,-12065.356855,-2664.741391,-1072.533697
3347.363718,-10140.821405,-1184.329507,-1072.533697
3347.364055,-8956.491898,-1998.556043,0.000000
3347.364392,-9770.718434,-2072.576638,612.876398
3347.364730,-8438.347739,-888.247130,1149.143247
3347.365067,-8956.491898,-296.082377,2068.457845
3347.365404,-11621.233289,-222.061783,2987.772442
3347.365742,-11991.336260,74.020594,1455.581446
3347.366079,-10140.821405,1480.411884,1072.533697
3347.366416,-9178.553681,962.267725,995.924147
3347.366754,-9474.636058,518.144159,459.657299
3347.367091,-8660.409521,962.267725,0.000000
3347.367428,-9326.594869,814.226536,612.876398
3347.367765,-10955.047942,666.185348,459.657299
3347.368103,-11029.068536,1406.391290,-1072.533697
3347.368440,-9474.636058,1628.453072,-2451.505594
3347.368777,-8512.368333,370.102971,-919.314598
3347.369115,-8882.471304,0.000000,-383.047749
3347.369452,-9030.512492,296.082377,536.266849
3347.369789,-8734.430116,0.000000,1915.238745
3347.370127,-11251.130318,-296.082377,3217.601092
3347.370464,-12583.501014,0.000000,1991.848295
3347.370801,-11029.068536,0.000000,-612.876398
3347.371139,-9326.594869,0.000000,0.000000
3347.371476,-9252.574275,-1036.288319,383.047749
3347.371813,-8512.368333,-296.082377,229.828649
3347.372151,-7772.162391,444.123565,-383.047749
3347.372488,-10732.986159,740.205942,1149.143247
3347.372825,-13101.645173,222.061783,-842.705048
3347.373162,-11399.171507,518.144159,-2374.896044
3347.373500,-9548.656652,148.041188,-383.047749
3347.373837,-9326.594869,-222.061783,459.657299
3347.374174,-9474.636058,-1184.329507,536.266849
3347.374512,-9474.636058,-592.164754,536.266849
3347.374849,-10436.903782,-740.205942,919.314598
3347.375186,-13101.645173,-518.144159,0.000000
3347.375524,-12583.501014,-1184.329507,-3064.381992
3347.375861,-9326.594869,-592.164754,-3217.601092
3347.376198,-8734.430116,-1776.494261,-1149.143247
3347.376536,-8290.306550,-1110.308913,-919.314598
3347.376873,-8068.244768,-888.247130,-306.438199
3347.377210,-10584.944971,-1628.453072,1762.019645
3347.377548,-12509.480420,-888.247130,2757.943793
3347.377885,-11917.315666,-444.123565,1685.410096
3347.378222,-10288.862594,888.247130,2757.943793
3347.378559,-10066.800811,0.000000,2451.505594
3347.378897,-9400.615463,740.205942,1991.848295
3347.379234,-7846.182985,1332.370696,1072.533697
3347.379571,-9252.574275,370.102971,2145.067394
3347.379909,-10732.986159,1036.288319,1302.362347
3347.380246,-11029.068536,1776.494261,0.000000
3347.380583,-9696.697840,3256.906145,-306.438199
3347.380921,-9474.636058,814.226536,-766.095498
3347.381258,-9030.512492,1702.473667,-1915.238745
3347.381595,-8364.327145,74.020594,-1302.362347
3347.381933,-9400.615463,-444.123565,1378.971896
3347.382270,-10807.006753,-74.020594,1225.752797
3347.382607,-11621.233289,-296.082377,-1455.581446
3347.382945,-9770.718434,-296.082377,-2374.896044
3347.383282,-9326.594869,-2368.659014,-1838.629195
3347.383619,-9992.780217,-2220.617826,-689.485948
3347.383956,-7994.224174,-1850.514855,-1225.752797
3347.384294,-8882.471304,-3330.926739,1991.848295
3347.384631,-11399.171507,-2590.720797,2374.896044
3347.384968,-12435.459826,-1998.556043,612.876398
3347.385306,-12139.377449,-666.185348,306.438199
3347.385643,-10066.800811,-2442.679609,-76.609550
3347.385980,-9474.636058,-3182.885551,536.266849
3347.386318,-7254.018232,-1998.556043,995.924147
3347.386655,-7179.997637,-1924.535449,2987.772442
3347.386992,-10881.027347,-1702.473667,3370.820191
3347.387330,-12731.542202,-1554.432478,0.000000
3347.387667,-11621.233289,1036.288319,-1991.848295
3347.388004,-10732.986159,-148.041188,-995.924147
3347.388342,-9622.677246,74.020594,-306.438199
3347.388679,-7994.224174,-148.041188,-842.705048
3347.389016,-9030.512492,-370.102971,536.266849
3347.389353,-10288.862594,-518.144159,1072.533697
3347.389691,-12361.439231,0.000000,0.000000
3347.390028,-11843.295072,1036.288319,-842.705048
3347.390365,-10510.924376,0.000000,0.000000
3347.390703,-9474.636058,444.123565,919.314598
3347.391040,-8364.327145,444.123565,919.314598
3347.391377,-8734.430116,518.144159,2374.896044
3347.391715,-9844.739029,-592.164754,2528.115143
3347.392052,-12065.356855,592.164754,1302.362347
3347.392389,-10658.965565,1998.556043,229.828649
3347.392727,-9252.574275,962.267725,229.828649
3347.393064,-9104.533087,1776.494261,1455.581446
3347.393401,-7772.162391,888.247130,229.828649
3347.393739,-8216.285956,1184.329507,766.095498
3347.394076,-10362.883188,-444.123565,2757.943793
3347.394413,-12435.459826,0.000000,1302.362347
3347.394750,-11399.171507,518.144159,-1302.362347
3347.395088,-9548.656652,0.000000,-2221.676944
3347.395425,-8290.306550,-962.267725,-1838.629195
3347.395762,-7920.203579,-1332.370696,-2145.067394
3347.396100,-8364.327145,-888.247130,-306.438199
3347.396437,-11177.109724,-592.164754,-306.438199
3347.396774,-13619.789333,-1998.556043,-1838.629195
3347.397112,-12509.480420,-1036.288319,-2834.553343
3347.397449,-10510.924376,-1924.535449,-1378.971896
3347.397786,-9844.739029,-2220.617826,459.657299
3347.398124,-8068.244768,-2146.597232,-536.266849
3347.398461,-8882.471304,-2886.803174,0.000000
3347.398798,-11399.171507,-2516.700203,2528.115143
3347.399136,-13323.706956,-1776.494261,1991.848295
3347.399473,-12435.459826,148.041188,766.095498
3347.399810,-10436.903782,-222.061783,0.000000
3347.400147,-9696.697840,74.020594,1072.533697
3347.400485,-8734.430116,592.164754,766.095498
3347.400822,-8586.388927,518.144159,2681.334243
3347.401159,-9622.677246,518.144159,3907.087040
3347.401497,-11843.295072,518.144159,2834.553343
3347.401834,-11843.295072,3108.864956,153.219100
3347.402171,-10066.800811,2368.659014,-995.924147
3347.402509,-8290.306550,1406.391290,229.828649
3347.402846,-7550.100608,444.123565,-459.657299
3347.403183,-7550.100608,1850.514855,459.657299
3347.403521,-9104.533087,1110.308913,766.095498
3347.403858,-11399.171507,1776.494261,153.219100
3347.404195,-11843.295072,1184.329507,-612.876398
3347.404533,-9844.739029,1554.432478,-842.705048
3347.404870,-8364.327145,518.144159,229.828649
3347.405207,-8364.327145,444.123565,306.438199
3347.405544,-8512.368333,0.000000,459.657299
3347.405882,-9844.739029,-518.144159,1915.238745
3347.406219,-11103.089130,-1110.308913,1762.019645
3347.406556,-11991.336260,0.000000,919.314598
3347.406894,-11029.068536,148.041188,0.000000
3347.407231,-9622.677246,-666.185348,-153.219100
3347.407568,-8438.347739,-370.102971,-383.047749
3347.407906,-8660.409521,-1924.535449,383.047749
3347.408243,-10066.800811,-1110.308913,1838.629195
3347.408580,-11843.295072,-2294.638420,2068.457845
3347.408918,-12435.459826,-888.247130,76.609550
3347.409255,-10658.965565,-370.102971,-1608.800546
3347.409592,-10066.800811,-1776.494261,-842.705048
3347.409930,-9992.780217,-2664.741391,0.000000
3347.410267,-9400.615463,-2664.741391,-919.314598
3347.410604,-9326.594869,-2220.617826,-383.047749
3347.410941,-11029.068536,-3330.926739,-459.657299
3347.411279,-11473.192101,-3108.864956,-612.876398
3347.411616,-10584.944971,-2368.659014,-1302.362347
3347.411953,-9696.697840,-1924.535449,-383.047749
3347.412291,-8512.368333,-1480.411884,-612.876398
3347.412628,-8068.244768,-1480.411884,-689.485948
3347.412965,-9918.759623,-1332.370696,1455.581446
3347.413303,-11547.212695,-1258.350101,2298.286494
3347.413640,-11917.315666,0.000000,2834.553343
3347.413977,-11843.295072,666.185348,2451.505594
3347.414315,-9770.718434,962.267725,2298.286494
3347.414652,-9178.553681,1332.370696,1838.629195
3347.414989,-9030.512492,1110.308913,1762.019645
3347.415327,-8956.491898,1332.370696,1838.629195
3347.415664,-9770.718434,1184.329507,1608.800546
3347.416001,-11325.150913,1776.494261,229.828649
3347.416338,-10436.903782,2886.803174,-1302.362347
3347.416676,-9622.677246,2220.617826,-1532.190996
3347.417013,-8882.471304,2294.638420,-1608.800546
3347.417350,-7994.224174,962.267725,-2068.457845
3347.417688,-8586.388927,1554.432478,-842.705048
3347.418025,-10214.842000,-148.041188,0.000000
3347.418362,-11991.336260,-518.144159,229.828649
3347.418700,-10955.047942,-592.164754,-842.705048
3347.419037,-9918.759623,-592.164754,229.828649
3347.419374,-9770.718434,-962.267725,383.047749
3347.419712,-9104.533087,-1110.308913,0.000000
3347.420049,-8586.388927,-814.226536,229.828649
3347.420386,-10510.924376,-1554.432478,1685.410096
3347.420724,-11843.295072,-370.102971,1455.581446
3347.421061,-11251.130318,-370.102971,-1302.362347
3347.421398,-10881.027347,0.000000,153.219100
3347.421735,-9844.739029,-740.205942,0.000000
3347.422073,-9474.636058,-1480.411884,0.000000
3347.422410,-8068.244768,-444.123565,1532.190996
3347.422747,-9474.636058,-1036.288319,2374.896044
3347.423085,-11991.336260,-296.082377,1685.410096
3347.423422,-11103.089130,-740.205942,0.000000
3347.423759,-10807.006753,518.144159,459.657299
3347.424097,-10362.883188,-518.144159,536.266849
3347.424434,-9548.656652,148.041188,-612.876398
3347.424771,-8956.491898,592.164754,-1072.533697
3347.425109,-9696.697840,0.000000,-306.438199
3347.425446,-10955.047942,0.000000,229.828649
3347.425783,-11029.068536,-518.144159,-1072.533697
3347.426120,-9992.780217,296.082377,459.657299
3347.426458,-10362.883188,222.061783,995.924147
3347.426795,-9474.636058,296.082377,76.609550
3347.427132,-8142.265362,888.247130,1149.143247
3347.427470,-9474.636058,814.226536,3217.601092
3347.427807,-11399.171507,888.247130,3217.601092
3347.428144,-11695.253884,2368.659014,919.314598
3347.428482,-10066.800811,2072.576638,995.924147
3347.428819,-9474.636058,1110.308913,1072.533697
3347.429156,-9770.718434,666.185348,306.438199
3347.429494,-8290.306550,1110.308913,153.219100
3347.429831,-8142.265362,0.000000,919.314598
3347.430168,-10288.862594,0.000000,1455.581446
3347.430505,-10732.986159,740.205942,-612.876398
3347.430843,-9992.780217,222.061783,-1532.190996
3347.431180,-10066.800811,-444.123565,-1532.190996
3347.431517,-9844.739029,-1628.453072,-1302.362347
3347.431855,-8956.491898,-740.205942,-766.095498
3347.432192,-8808.450710,-1776.494261,-536.266849
3347.432529,-10955.047942,-2072.576638,842.705048
3347.432867,-12065.356855,-2812.782580,-1378.971896
3347.433204,-10807.006753,-1480.411884,-1149.143247
3347.433541,-10436.903782,-2886.803174,306.438199
3347.433879,-10066.800811,-2442.679609,0.000000
3347.434216,-8808.450710,-3034.844362,-383.047749
3347.434553,-8956.491898,-2664.741391,1762.019645
3347.434890,-10436.903782,-1776.494261,3217.601092
3347.435228,-12657.521608,-1406.391290,2451.505594
3347.435565,-11325.150913,-370.102971,689.485948
3347.435902,-9992.780217,-444.123565,995.924147
3347.436240,-10436.903782,-370.102971,2145.067394
3347.436577,-9030.512492,296.082377,995.924147
3347.436914,-8660.409521,74.020594,1838.629195
3347.437252,-10288.862594,0.000000,2451.505594
3347.437589,-10807.006753,814.226536,-229.828649
3347.437926,-9770.718434,1110.308913,-689.485948
3347.438264,-9104.533087,370.102971,842.705048
3347.438601,-8438.347739,222.061783,0.000000
3347.438938,-8438.347739,888.247130,-1532.190996
3347.439275,-8734.430116,1258.350101,-995.924147
3347.439613,-9622.677246,222.061783,0.000000
3347.439950,-11769.274478,888.247130,-229.828649
3347.440287,-10584.944971,1036.288319,-153.219100
3347.440625,-9252.574275,1554.432478,383.047749
3347.440962,-9770.718434,-666.185348,995.924147
3347.441299,-9548.656652,222.061783,229.828649
3347.441637,-9104.533087,-74.020594,229.828649
3347.441974,-10658.965565,0.000000,2451.505594
3347.442311,-12657.521608,370.102971,1455.581446
3347.442649,-11325.150913,888.247130,-229.828649
3347.442986,-9992.780217,1258.350101,229.828649
3347.443323,-10584.944971,74.020594,536.266849
3347.443660,-10066.800811,296.082377,-1072.533697
3347.443998,-7920.203579,370.102971,-1149.143247
3347.444335,-9252.574275,-1036.288319,536.266849
3347.444672,-11029.068536,-1776.494261,-383.047749
3347.445010,-10362.883188,-518.144159,-2298.286494
3347.445347,-9548.656652,-1258.350101,-1378.971896
3347.445684,-9918.759623,-1850.514855,-995.924147
3347.446022,-9400.615463,-1628.453072,-1532.190996
3347.446359,-8956.491898,-2516.700203,-1072.533697
3347.446696,-9178.553681,-3034.844362,766.095498
3347.447034,-11251.130318,-2590.720797,1225.752797
3347.447371,-10658.965565,-1332.370696,-536.266849
3347.447708,-9696.697840,-222.061783,-229.828649
3347.448045,-11029.068536,-1258.350101,919.314598
3347.448383,-10584.944971,-962.267725,229.828649
3347.448720,-8956.491898,-296.082377,1838.629195
3347.449057,-10658.965565,222.061783,4366.744339
3347.449395,-12213.398043,814.226536,3600.648841
3347.449732,-11843.295072,2516.700203,612.876398
3347.450069,-10732.986159,2442.679609,1225.752797
3347.450407,-10436.903782,1110.308913,2145.067394
3347.450744,-9548.656652,1480.411884,1378.971896
3347.451081,-8216.285956,2664.741391,1302.362347
3347.451419,-9474.636058,1702.473667,1608.800546
3347.451756,-11251.130318,1702.473667,1225.752797
3347.452093,-10658.965565,2368.659014,-995.924147
3347.452430,-9548.656652,2294.638420,-612.876398
3347.452768,-9474.636058,666.185348,383.047749
3347.453105,-9252.574275,1184.329507,-919.314598
3347.453442,-7994.224174,-666.185348,-2298.286494
3347.453780,-8364.327145,-1110.308913,76.609550
3347.454117,-9326.594869,-2368.659014,919.314598
3347.454454,-10362.883188,-1332.370696,-153.219100
3347.454792,-9992.780217,-148.041188,-383.047749
3347.455129,-10140.821405,-1480.411884,459.657299
3347.455466,-9770.718434,-1332.370696,-153.219100
3347.455804,-8808.450710,-1776.494261,153.219100
3347.456141,-9918.759623,-1480.411884,2604.724693
3347.456478,-11251.130318,-888.247130,2145.067394
3347.456815,-11621.233289,-1110.308913,0.000000
3347.457153,-10584.944971,-296.082377,-459.657299
3347.457490,-10584.944971,-1776.494261,459.657299
3347.457827,-10807.006753,-962.267725,306.438199
3347.458165,-10066.800811,-962.267725,-612.876398
3347.458502,-8882.471304,-740.205942,-153.219100
3347.458839,-10732.986159,-1184.329507,766.095498
3347.459177,-12583.501014,-444.123565,-689.485948
3347.459514,-11325.150913,-592.164754,-2221.676944
3347.459851,-10288.862594,-1406.391290,-919.314598
3347.460189,-9474.636058,-1776.494261,-536.266849
3347.460526,-9252.574275,-1628.453072,-229.828649
3347.460863,-9030.512492,-1184.329507,689.485948
3347.461200,-10362.883188,-2738.761985,1455.581446
3347.461538,-11251.130318,-1036.288319,842.705048
3347.461875,-10807.006753,222.061783,229.828649
3347.462212,-9770.718434,-592.164754,842.705048
3347.462550,-9030.512492,-1036.288319,1225.752797
3347.462887,-8364.327145,-666.185348,612.876398
3347.463224,-8142.265362,888.247130,2528.115143
3347.463562,-10807.006753,148.041188,2757.943793
3347.463899,-11251.130318,1406.391290,842.705048
3347.464236,-10584.944971,2738.761985,-1149.143247
3347.464574,-9918.759623,1850.514855,-306.438199
3347.464911,-10288.862594,2072.576638,536.266849
3347.465248,-9400.615463,666.185348,-1455.581446
3347.465585,-8364.327145,888.247130,-689.485948
3347.465923,-9992.780217,-74.020594,1149.143247
3347.466260,-10955.047942,-518.144159,766.095498
3347.466597,-10362.883188,296.082377,-995.924147
3347.466935,-11029.068536,74.020594,-919.314598
3347.467272,-10288.862594,-370.102971,-1302.362347
3347.467609,-9992.780217,-1332.370696,-2528.115143
3347.467947,-9400.615463,-962.267725,-995.924147
3347.468284,-9622.677246,-2738.761985,-306.438199
3347.468621,-11029.068536,-1776.494261,612.876398
3347.468959,-10214.842000,-1480.411884,-842.705048
3347.469296,-9918.759623,-1480.411884,-306.438199
3347.469633,-10881.027347,-2072.576638,919.314598
3347.469970,-9770.718434,-2368.659014,153.219100
3347.470308,-9030.512492,-74.020594,1915.238745
3347.470645,-10584.944971,-1036.288319,3294.210641
3347.470982,-12065.356855,-1332.370696,2451.505594
3347.471320,-11103.089130,444.123565,995.924147
3347.471657,-9770.718434,1332.370696,459.657299
3347.471994,-9548.656652,518.144159,1302.362347
3347.472332,-9474.636058,370.102971,-459.657299
3347.472669,-8734.430116,1924.535449,76.609550
3347.473006,-9474.636058,666.185348,995.924147
3347.473344,-10510.924376,592.164754,306.438199
3347.473681,-10436.903782,1184.329507,-1149.143247
3347.474018,-9844.739029,1258.350101,0.000000
3347.474355,-9770.718434,444.123565,-536.266849
3347.474693,-9622.677246,74.020594,-919.314598
3347.475030,-8142.265362,0.000000,76.609550
3347.475367,-8734.430116,0.000000,2451.505594
3347.475705,-10881.027347,-444.123565,2604.724693
3347.476042,-11251.130318,592.164754,76.609550
3347.476379,-10436.903782,-74.020594,0.000000
3347.476717,-10362.883188,-962.267725,689.485948
3347.477054,-9178.553681,-666.185348,842.705048
3347.477391,-8808.450710,296.082377,842.705048
3347.477729,-9622.677246,-444.123565,1225.752797
3347.478066,-10881.027347,-962.267725,306.438199
3347.478403,-10807.006753,370.102971,-919.314598
3347.478740,-9992.780217,518.144159,0.000000
3347.479078,-10066.800811,0.000000,229.828649
3347.479415,-9992.780217,-888.247130,0.000000
3347.479752,-9252.574275,-222.061783,-76.609550
3347.480090,-9400.615463,-1258.350101,306.438199
3347.480427,-11325.150913,-1406.391290,306.438199
3347.480764,-12065.356855,-1480.411884,-995.924147
3347.481102,-10510.924376,-1480.411884,-2451.505594
3347.481439,-9622.677246,-1850.514855,-1302.362347
3347.481776,-9992.780217,-2664.741391,-766.095498
3347.482114,-9030.512492,-2664.741391,-1762.019645
3347.482451,-8512.368333,-2442.679609,0.000000
3347.482788,-10732.986159,-2664.741391,1685.410096
3347.483125,-11399.171507,-1332.370696,689.485948
3347.483463,-10362.883188,-962.267725,0.000000
3347.483800,-10288.862594,-888.247130,1302.362347
3347.484137,-10066.800811,-1332.370696,1762.019645
3347.484475,-9400.615463,148.041188,1455.581446
3347.484812,-9474.636058,814.226536,2451.505594
3347.485149,-11029.068536,-296.082377,4443.353888
3347.485487,-11695.253884,888.247130,2145.067394
3347.485824,-10066.800811,1406.391290,-383.047749
3347.486161,-8586.388927,1110.308913,919.314598
3347.486499,-8808.450710,1110.308913,919.314598
3347.486836,-8586.388927,888.247130,-536.266849
3347.487173,-8586.388927,1702.473667,76.609550
3347.487510,-10362.883188,888.247130,1608.800546
3347.487848,-12065.356855,888.247130,0.000000
3347.488185,-10955.047942,1184.329507,-1532.190996
3347.488522,-10066.800811,888.247130,-1302.362347
3347.488860,-9252.574275,-814.226536,-1302.362347
3347.489197,-9178.553681,-1110.308913,-1225.752797
3347.489534,-8734.430116,-1332.370696,0.000000
3347.489872,-9770.718434,-2220.617826,1991.848295
3347.490209,-11843.295072,-592.164754,919.314598
3347.490546,-11547.212695,-518.144159,-1378.971896
3347.490883,-10807.006753,-592.164754,0.000000
3347.491221,-10584.944971,-1776.494261,383.047749
3347.491558,-9252.574275,-1480.411884,0.000000
3347.491895,-8364.327145,-444.123565,919.314598
3347.492233,-10140.821405,-1036.288319,1762.019645
3347.492570,-12435.459826,-962.267725,1455.581446
3347.492907,-11843.295072,-592.164754,-1302.362347
3347.493245,-10362.883188,962.267725,-1225.752797
3347.493582,-9400.615463,-666.185348,-229.828649
3347.493919,-8734.430116,0.000000,-995.924147
3347.494257,-8068.244768,-444.123565,-919.314598
3347.494594,-9918.759623,-1110.308913,1149.143247
3347.494931,-11843.295072,-518.144159,995.924147
3347.495268,-11325.150913,0.000000,-1225.752797
3347.495606,-10510.924376,740.205942,-1378.971896
3347.495943,-9400.615463,0.000000,-1225.752797
3347.496280,-9474.636058,-370.102971,-1378.971896
3347.496618,-8364.327145,-444.123565,-459.657299
3347.496955,-8734.430116,-592.164754,1915.238745
3347.497292,-11547.212695,0.000000,2451.505594
3347.497630,-12065.356855,0.000000,0.000000
3347.497967,-10140.821405,666.185348,919.314598
3347.498304,-8956.491898,0.000000,2451.505594
3347.498642,-8586.388927,518.144159,2374.896044
3347.498979,-8660.409521,1776.494261,1608.800546
3347.499316,-10584.944971,444.123565,2451.505594
3347.499653,-11843.295072,814.226536,2221.676944
3347.499991,-11473.192101,1110.308913,1072.533697
3347.500328,-9844.739029,2812.782580,919.314598
3347.500665,-9030.512492,666.185348,0.000000
3347.501003,-9474.636058,148.041188,-1149.143247
3347.501340,-7846.182985,148.041188,-1991.848295
3347.501677,-8290.306550,-666.185348,919.314598
3347.502015,-10807.006753,-1554.432478,1455.581446
3347.502352,-11769.274478,-1702.473667,-229.828649
3347.502689,-10807.006753,148.041188,-1455.581446
3347.503027,-10066.800811,-888.247130,-1762.019645
3347.503364,-9474.636058,-2294.638420,-689.485948
3347.503701,-9326.594869,-2294.638420,-919.314598
3347.504038,-8808.450710,-2812.782580,842.705048
3347.504376,-10584.944971,-2294.638420,2681.334243
3347.504713,-11177.109724,-2368.659014,306.438199
3347.505050,-10807.006753,-1036.288319,-689.485948
3347.505388,-11399.171507,-2368.659014,229.828649
3347.505725,-9918.759623,-2220.617826,0.000000
3347.506062,-9400.615463,-1036.288319,1149.143247
3347.506400,-9918.759623,222.061783,3140.991542
3347.506737,-11029.068536,592.164754,2451.505594
3347.507074,-13175.665768,740.205942,153.219100
3347.507412,-11769.274478,1702.473667,-1915.238745
3347.507749,-9770.718434,666.185348,-536.266849
3347.508086,-9918.759623,444.123565,995.924147
3347.508423,-8068.244768,222.061783,-842.705048
3347.508761,-7476.080014,518.144159,459.657299
3347.509098,-10436.903782,222.061783,1608.800546
3347.509435,-11991.336260,0.000000,0.000000
3347.509773,-10436.903782,1332.370696,-1762.019645
3347.510110,-9326.594869,222.061783,-2068.457845
3347.510447,-8586.388927,-148.041188,-1149.143247
3347.510785,-7994.224174,-592.164754,-1225.752797
3347.511122,-7105.977043,74.020594,766.095498
3347.511459,-9474.636058,-1184.329507,2298.286494
3347.511797,-11769.274478,-518.144159,1838.629195
3347.512134,-11251.130318,592.164754,0.000000
3347.512471,-11547.212695,-666.185348,689.485948
3347.512808,-9696.697840,-962.267725,1072.533697
3347.513146,-8586.388927,0.000000,306.438199
3347.513483,-8068.244768,74.020594,1378.971896
3347.513820,-9178.553681,74.020594,2604.724693
3347.514158,-13397.727550,-444.123565,2528.115143
3347.514495,-12509.480420,1850.514855,-459.657299
3347.514832,-11177.109724,888.247130,-842.705048
3347.515170,-11325.150913,-222.061783,153.219100
3347.515507,-8956.491898,0.000000,-2145.067394
3347.515844,-7994.224174,-296.082377,-1915.238745
3347.516182,-9548.656652,-888.247130,0.000000
3347.516519,-10658.965565,-1628.453072,-1685.410096
3347.516856,-11399.171507,-814.226536,-2987.772442
3347.517193,-10510.924376,-1110.308913,-2374.896044
3347.517531,-9622.677246,-1406.391290,-383.047749
3347.517868,-9474.636058,-2442.679609,-612.876398
3347.518205,-8216.285956,-1406.391290,76.609550
3347.518543,-9030.512492,-1776.494261,2987.772442
3347.518880,-11991.336260,-1702.473667,3524.039291
3347.519217,-11473.192101,-888.247130,1378.971896
3347.519555,-10732.986159,-740.205942,459.657299
3347.519892,-9992.780217,-1110.308913,2451.505594
3347.520229,-9474.636058,0.000000,459.657299
3347.520567,-8142.265362,1332.370696,383.047749
3347.520904,-8808.450710,814.226536,2604.724693
3347.521241,-11177.109724,1184.329507,2221.676944
3347.521578,-12657.521608,2368.659014,0.000000
3347.521916,-11695.253884,2960.823768,0.000000
3347.522253,-10288.862594,1628.453072,-536.266849
3347.522590,-8438.347739,1036.288319,0.000000
3347.522928,-7698.141797,1184.329507,76.609550
3347.523265,-9104.533087,0.000000,1149.143247
3347.523602,-11029.068536,-370.102971,689.485948
3347.523940,-11843.295072,1332.370696,-1608.800546
3347.524277,-10658.965565,666.185348,-3370.820191
3347.524614,-9696.697840,-888.247130,-1455.581446
3347.524952,-8216.285956,-666.185348,-995.924147
3347.525289,-8364.327145,-1628.453072,-383.047749
3347.525626,-8882.471304,-1480.411884,995.924147
3347.525963,-10436.903782,-2738.761985,2145.067394
3347.526301,-12065.356855,-1110.308913,383.047749
3347.526638,-10807.006753,-1554.432478,0.000000
3347.526975,-10214.842000,-1998.556043,1225.752797
3347.527312,-9104.533087,-1480.411884,612.876398
3347.527649,-8438.347739,-740.205942,0.000000
3347.527986,-9400.615463,-1110.308913,1762.019645
3347.528324,-11325.150913,-1702.473667,1608.800546
3347.528661,-12065.356855,-740.205942,0.000000
3347.528998,-11695.253884,-296.082377,-919.314598
3347.529335,-9918.759623,-518.144159,153.219100
3347.529672,-9030.512492,-1332.370696,0.000000
3347.530010,-8364.327145,-740.205942,0.000000
3347.530347,-8882.471304,0.000000,229.828649
3347.530684,-11843.295072,-1036.288319,1532.190996
3347.531021,-12805.562797,-370.102971,-153.219100
3347.531358,-11547.212695,-222.061783,-1455.581446
3347.531696,-10732.986159,0.000000,-76.609550
3347.532033,-8808.450710,-888.247130,-612.876398
3347.532370,-7031.956449,-666.185348,-842.705048
3347.532707,-7698.141797,-814.226536,1072.533697
3347.533044,-10140.821405,-1184.329507,2834.553343
3347.533381,-11843.295072,-740.205942,2298.286494
3347.533719,-10955.047942,1036.288319,1455.581446
3347.534056,-9030.512492,888.247130,2298.286494
3347.534393,-9030.512492,2220.617826,2068.457845
3347.534730,-9622.677246,518.144159,153.219100
3347.535067,-8364.327145,1924.535449,1072.533697
3347.535405,-9770.718434,592.164754,2298.286494
3347.535742,-12213.398043,1628.453072,1608.800546
3347.536079,-11251.130318,2072.576638,-1225.752797
3347.536416,-10510.924376,1480.411884,-1149.143247
3347.536753,-8882.471304,-370.102971,-1762.019645
3347.537091,-7476.080014,-74.020594,-2068.457845
3347.537428,-8068.244768,222.061783,-612.876398
3347.537765,-10436.903782,-1406.391290,229.828649
3347.538102,-12213.398043,-666.185348,0.000000
3347.538439,-12213.398043,-1036.288319,-1149.143247
3347.538777,-11399.171507,-740.205942,0.000000
3347.539114,-10658.965565,-1776.494261,-153.219100
3347.539451,-9770.718434,-2294.638420,-1072.533697
3347.539788,-7476.080014,-1924.535449,-766.095498
3347.540125,-9548.656652,-2516.700203,995.924147
3347.540462,-11917.315666,-2294.638420,1532.190996
3347.540800,-10955.047942,-2072.576638,-1225.752797
3347.541137,-9770.718434,-888.247130,-1302.362347
3347.541474,-8512.368333,-1480.411884,1072.533697
3347.541811,-9178.553681,-592.164754,1149.143247
3347.542148,-8142.265362,296.082377,1455.581446
3347.542486,-9992.780217,-296.082377,3217.601092
3347.542823,-11843.295072,1184.329507,2451.505594
3347.543160,-12287.418637,1924.535449,-306.438199
3347.543497,-11103.089130,1998.556043,-229.828649
3347.543834,-9770.718434,740.205942,306.438199
3347.544172,-8142.265362,740.205942,-306.438199
3347.544509,-7920.203579,1702.473667,-1149.143247
3347.544846,-9326.594869,1036.288319,-383.047749
3347.545183,-11695.253884,962.267725,-689.485948
3347.545520,-11769.274478,1036.288319,-1838.629195
3347.545857,-10066.800811,1036.288319,-459.657299
3347.546195,-8956.491898,0.000000,995.924147
3347.546532,-9252.574275,-444.123565,1762.019645
3347.546869,-8068.244768,1036.288319,995.924147
3347.547206,-9770.718434,-592.164754,2374.896044
3347.547543,-11695.253884,-296.082377,3217.601092
3347.547881,-10881.027347,-518.144159,919.314598
3347.548218,-9400.615463,296.082377,919.314598
3347.548555,-8956.491898,-444.123565,1378.971896
3347.548892,-9030.512492,-518.144159,0.000000
3347.549229,-8068.244768,0.000000,-1072.533697
3347.549567,-9326.594869,-370.102971,612.876398
3347.549904,-10732.986159,296.082377,1302.362347
3347.550241,-11991.336260,444.123565,229.828649
3347.550578,-11325.150913,148.041188,-229.828649
3347.550915,-9844.739029,-1776.494261,0.000000
3347.551252,-9622.677246,-1480.411884,0.000000
3347.551590,-9326.594869,-1554.432478,-612.876398
3347.551927,-9622.677246,-1924.535449,0.000000
3347.552264,-10732.986159,-1924.535449,0.000000
3347.552601,-12139.377449,-2146.597232,-1302.362347
3347.552938,-11399.171507,-1110.308913,-1915.238745
3347.553276,-10584.944971,-2072.576638,153.219100
3347.553613,-10214.842000,-1998.556043,306.438199
3347.553950,-8364.327145,-1924.535449,-612.876398
3347.554287,-8438.347739,-1258.350101,1225.752797
3347.554624,-10362.883188,-1554.432478,3370.820191
3347.554962,-12139.377449,-666.185348,2451.505594
3347.555299,-11769.274478,148.041188,1532.190996
3347.555636,-10214.842000,444.123565,842.705048
3347.555973,-9474.636058,0.000000,1685.410096
3347.556310,-8956.491898,592.164754,1532.190996
3347.556648,-7550.100608,1110.308913,1532.190996
3347.556985,-9474.636058,1332.370696,2068.457845
3347.557322,-10955.047942,1702.473667,0.000000
3347.557659,-10214.842000,1924.535449,-1915.238745
3347.557996,-10066.800811,2590.720797,-459.657299
3347.558333,-10288.862594,740.205942,-383.047749
3347.558671,-9104.533087,1184.329507,-1455.581446
3347.559008,-8438.347739,888.247130,-1532.190996
3347.559345,-9252.574275,0.000000,76.609550
3347.559682,-10510.924376,-592.164754,-842.705048
3347.560019,-10658.965565,-444.123565,-766.095498
3347.560357,-9918.759623,-370.102971,-459.657299
3347.560694,-10066.800811,-1850.514855,153.219100
3347.561031,-9622.677246,-148.041188,-612.876398
3347.561368,-8734.430116,-666.185348,0.000000
3347.561705,-9992.780217,-888.247130,1225.752797
3347.562043,-11991.336260,-1258.350101,1378.971896
3347.562380,-11843.295072,0.000000,383.047749
3347.562717,-10066.800811,222.061783,229.828649
3347.563054,-9992.780217,0.000000,536.266849
3347.563391,-10214.842000,-888.247130,766.095498
3347.563728,-9030.512492,-592.164754,0.000000
3347.564066,-9548.656652,-1332.370696,2221.676944
3347.564403,-11991.336260,592.164754,1378.971896
3347.564740,-11177.109724,370.102971,-995.924147
3347.565077,-10436.903782,-296.082377,-459.657299
3347.565414,-9548.656652,-1406.391290,0.000000
3347.565752,-9252.574275,-518.144159,459.657299
3347.566089,-8808.450710,-222.061783,612.876398
3347.566426,-9474.636058,-814.226536,919.314598
3347.566763,-11251.130318,-1258.350101,1072.533697
3347.567100,-11769.274478,74.020594,-229.828649
3347.567438,-9326.594869,740.205942,-383.047749
3347.567775,-10288.862594,-518.144159,1072.533697
3347.568112,-9474.636058,518.144159,0.000000
3347.568449,-7920.203579,0.000000,-1378.971896
3347.568786,-9326.594869,888.247130,1991.848295
3347.569123,-10807.006753,222.061783,2221.676944
3347.569461,-10732.986159,592.164754,842.705048
3347.569798,-10362.883188,2368.659014,1072.533697
3347.570135,-10140.821405,888.247130,2604.724693
3347.570472,-10362.883188,1776.494261,2374.896044
3347.570809,-9548.656652,1036.288319,1378.971896
3347.571147,-9696.697840,1628.453072,1532.190996
3347.571484,-11103.089130,592.164754,995.924147
3347.571821,-11547.212695,370.102971,-1455.581446
3347.572158,-8438.347739,296.082377,-2374.896044
3347.572495,-7846.182985,-1702.473667,-1762.019645
3347.572833,-9030.512492,-518.144159,-1225.752797
3347.573170,-8882.471304,-1258.350101,-2451.505594
3347.573507,-9104.533087,-1480.411884,-612.876398
3347.573844,-10362.883188,-1998.556043,153.219100
3347.574181,-12287.418637,-2146.597232,0.000000
3347.574518,-11177.109724,-1110.308913,-995.924147
3347.574856,-9696.697840,-2368.659014,-766.095498
3347.575193,-10214.842000,-3034.844362,229.828649
3347.575530,-8882.471304,-2368.659014,-919.314598
3347.575867,-8586.388927,-2368.659014,689.485948
3347.576204,-11029.068536,-2368.659014,1915.238745
3347.576542,-11621.233289,-1110.308913,612.876398
3347.576879,-10658.965565,666.185348,-766.095498
3347.577216,-10140.821405,-444.123565,0.000000
3347.577553,-9844.739029,-444.123565,1455.581446
3347.577890,-10066.800811,-444.123565,1608.800546
3347.578228,-9548.656652,370.102971,2068.457845
3347.578565,-10436.903782,444.123565,2757.943793
3347.578902,-12213.398043,592.164754,1762.019645
3347.579239,-11251.130318,1036.288319,-1225.752797
3347.579576,-9696.697840,74.020594,-383.047749
3347.579914,-9178.553681,370.102971,383.047749
3347.580251,-8068.244768,0.000000,-1225.752797
3347.580588,-7550.100608,740.205942,-459.657299
3347.580925,-9474.636058,-370.102971,459.657299
3347.581262,-10214.842000,0.000000,612.876398
3347.581599,-10066.800811,962.267725,-612.876398
3347.581937,-10066.800811,222.061783,766.095498
3347.582274,-9918.759623,0.000000,1149.143247
3347.582611,-9030.512492,-370.102971,459.657299
3347.582948,-8956.491898,592.164754,1838.629195
3347.583285,-10658.965565,-888.247130,3447.429741
3347.583623,-11621.233289,0.000000,1991.848295
3347.583960,-10436.903782,814.226536,-612.876398
3347.584297,-9992.780217,296.082377,-229.828649
3347.584634,-9622.677246,-592.164754,459.657299
3347.584971,-9992.780217,-666.185348,76.609550
3347.585309,-9400.615463,148.041188,459.657299
3347.585646,-10955.047942,296.082377,536.266849
3347.585983,-11991.336260,0.000000,-76.609550
3347.586320,-11251.130318,222.061783,-2145.067394
3347.586657,-10288.862594,-666.185348,-1532.190996
3347.586994,-10732.986159,-814.226536,-612.876398
3347.587332,-9474.636058,-1776.494261,-1302.362347
3347.587669,-8438.347739,-1258.350101,-842.705048
3347.588006,-8956.491898,-1776.494261,76.609550
3347.588343,-10881.027347,-1850.514855,-459.657299
3347.588680,-12065.356855,-1036.288319,-1455.581446
3347.589018,-10362.883188,-666.185348,-2374.896044
3347.589355,-9030.512492,-1258.350101,459.657299
3347.589692,-9474.636058,-1258.350101,842.705048
3347.590029,-7846.182985,-370.102971,536.266849
3347.590366,-9030.512492,-296.082377,1838.629195
3347.590704,-11325.150913,0.000000,2911.162892
3347.591041,-11695.253884,888.247130,689.485948
3347.591378,-10510.924376,1480.411884,0.000000
3347.591715,-9400.615463,1036.288319,995.924147
3347.592052,-9104.533087,1480.411884,1532.190996
3347.592389,-8660.409521,1776.494261,459.657299
3347.592727,-9474.636058,2072.576638,689.485948
3347.593064,-10362.883188,1406.391290,689.485948
3347.593401,-11029.068536,1702.473667,-919.314598
3347.593738,-10288.862594,1332.370696,-536.266849
3347.594075,-9474.636058,1258.350101,76.609550
3347.594413,-8586.388927,666.185348,-766.095498
3347.594750,-9474.636058,-148.041188,0.000000
3347.595087,-9400.615463,-740.205942,383.047749
3347.595424,-10140.821405,-1332.370696,1685.410096
3347.595761,-12139.377449,-962.267725,536.266849
3347.596099,-10436.903782,-666.185348,-1378.971896
3347.596436,-9696.697840,-1924.535449,-536.266849
3347.596773,-10066.800811,-2294.638420,689.485948
3347.597110,-8290.306550,-1628.453072,995.924147
3347.597447,-8734.430116,-740.205942,2374.896044
3347.597784,-11917.315666,-1776.494261,2757.943793
3347.598122,-11991.336260,-814.226536,842.705048
3347.598459,-11251.130318,-296.082377,0.000000
3347.598796,-10214.842000,-1480.411884,1455.581446
3347.599133,-9178.553681,-1924.535449,1838.629195
3347.599470,-8956.491898,-1332.370696,1608.800546
3347.599808,-9104.533087,0.000000,919.314598
3347.600145,-11251.130318,-1184.329507,536.266849
3347.600482,-11843.295072,0.000000,-1149.143247
3347.600819,-10510.924376,-592.164754,-1685.410096
3347.601156,-9770.718434,-518.144159,76.609550
3347.601494,-9844.739029,-962.267725,-536.266849
3347.601831,-9030.512492,-888.247130,-842.705048
3347.602168,-8142.265362,-1406.391290,0.000000
3347.602505,-10436.903782,-1776.494261,2374.896044
3347.602842,-12213.398043,-444.123565,1225.752797
3347.603180,-10881.027347,-296.082377,-1149.143247
3347.603517,-10066.800811,-814.226536,76.609550
3347.603854,-9474.636058,-296.082377,766.095498
3347.604191,-9104.533087,-148.041188,842.705048
3347.604528,-8882.471304,666.185348,2145.067394
3347.604865,-10288.862594,296.082377,3064.381992
3347.605203,-11473.192101,1776.494261,1685.410096
3347.605540,-10881.027347,1480.411884,-383.047749
3347.605877,-9474.636058,1628.453072,229.828649
3347.606214,-9918.759623,222.061783,919.314598
3347.606551,-9030.512492,0.000000,-306.438199
3347.606889,-8364.327145,444.123565,-76.609550
3347.607226,-9696.697840,148.041188,919.314598
3347.607563,-11251.130318,148.041188,0.000000
3347.607900,-10584.944971,-222.061783,-2757.943793
3347.608237,-9770.718434,-296.082377,-1608.800546
3347.608575,-9178.553681,-1628.453072,-766.095498
3347.608912,-8364.327145,-1406.391290,-995.924147
3347.609249,-8216.285956,-740.205942,-536.266849
3347.609586,-10288.862594,-1184.329507,0.000000
3347.609923,-12583.501014,-962.267725,-766.095498
3347.610260,-12657.521608,-814.226536,-2451.505594
3347.610598,-10436.903782,-1184.329507,-1378.971896
3347.610935,-9030.512492,-2368.659014,153.219100
3347.611272,-8956.491898,-1406.391290,1072.533697
3347.611609,-8956.491898,-814.226536,919.314598
3347.611946,-9770.718434,-1628.453072,2451.505594
3347.612284,-12065.356855,-740.205942,3140.991542
3347.612621,-12139.377449,1036.288319,1838.629195
3347.612958,-11029.068536,1850.514855,842.705048
3347.613295,-10584.944971,296.082377,612.876398
3347.613632,-9992.780217,1332.370696,76.609550
3347.613970,-8438.347739,1628.453072,0.000000
3347.614307,-9696.697840,814.226536,1532.190996
3347.614644,-10807.006753,666.185348,842.705048
3347.614981,-10955.047942,740.205942,-995.924147
3347.615318,-9474.636058,1332.370696,-1302.362347
3347.615655,-8364.327145,0.000000,-459.657299
3347.615993,-8956.491898,-296.082377,689.485948
3347.616330,-8216.285956,-222.061783,-306.438199
3347.616667,-7698.141797,-592.164754,1532.190996
3347.617004,-11103.089130,74.020594,3830.477490
3347.617341,-12657.521608,-148.041188,1532.190996
3347.617679,-10807.006753,518.144159,-229.828649
3347.618016,-10288.862594,-592.164754,842.705048
3347.618353,-8808.450710,-1110.308913,1302.362347
3347.618690,-8216.285956,-296.082377,2145.067394
3347.619027,-9622.677246,-370.102971,2681.334243
3347.619365,-11473.192101,-592.164754,2911.162892
3347.619702,-13545.768739,666.185348,229.828649
3347.620039,-11843.295072,1406.391290,-1302.362347
3347.620376,-10066.800811,0.000000,-919.314598
3347.620713,-8660.409521,-666.185348,-919.314598
3347.621051,-8216.285956,-740.205942,-1072.533697
3347.621388,-8956.491898,-1184.329507,536.266849
3347.621725,-10807.006753,-1702.473667,919.314598
3347.622062,-12139.377449,-1554.432478,-153.219100
3347.622399,-11473.192101,-814.226536,-1915.238745
3347.622736,-9622.677246,-1924.535449,-1685.410096
3347.623074,-9030.512492,-2146.597232,-1302.362347
3347.623411,-7994.224174,-2590.720797,-1915.238745
3347.623748,-7476.080014,-2220.617826,-689.485948
3347.624085,-10584.944971,-2960.823768,1225.752797
3347.624422,-12213.398043,-2368.659014,0.000000
3347.624760,-10732.986159,-1406.391290,-919.314598
3347.625097,-9696.697840,-1406.391290,383.047749
3347.625434,-9400.615463,-962.267725,1149.143247
3347.625771,-8142.265362,222.061783,229.828649
3347.626108,-9252.574275,148.041188,1532.190996
3347.626446,-11103.089130,296.082377,2681.334243
3347.626783,-12731.542202,148.041188,1455.581446
3347.627120,-11251.130318,1628.453072,229.828649
3347.627457,-9770.718434,1406.391290,229.828649
3347.627794,-9326.594869,962.267725,919.314598
3347.628132,-8882.471304,1702.473667,0.000000
3347.628469,-8290.306550,1258.350101,383.047749
3347.628806,-9178.553681,518.144159,1762.019645
3347.629143,-11325.150913,740.205942,919.314598
3347.629481,-10362.883188,1850.514855,-1532.190996
3347.629818,-10955.047942,592.164754,-1608.800546
3347.630155,-9918.759623,-1036.288319,-1378.971896
3347.630492,-7550.100608,-1258.350101,-1225.752797
3347.630830,-6957.935855,-2146.597232,1302.362347
3347.631167,-8808.450710,-1332.370696,3370.820191
3347.631504,-11843.295072,-1554.432478,1915.238745
3347.631841,-13323.706956,-740.205942,-306.438199
3347.632179,-11547.212695,-1184.329507,-842.705048
3347.632516,-10436.903782,-1184.329507,536.266849
3347.632853,-8882.471304,-592.164754,1072.533697
3347.633190,-8216.285956,-222.061783,536.266849
3347.633528,-9622.677246,-518.144159,1762.019645
3347.633865,-11917.315666,296.082377,1072.533697
3347.634202,-13397.727550,-222.061783,153.219100
3347.634539,-11251.130318,0.000000,-459.657299
3347.634877,-10584.944971,-592.164754,919.314598
3347.635214,-9178.553681,0.000000,153.219100
3347.635551,-7402.059420,0.000000,-229.828649
3347.635888,-8734.430116,0.000000,1149.143247
3347.636226,-11547.212695,-518.144159,-76.609550
3347.636563,-11843.295072,222.061783,-2298.286494
3347.636900,-10881.027347,1036.288319,-2374.896044
3347.637237,-9622.677246,-740.205942,-1915.238745
3347.637575,-8364.327145,-370.102971,-1762.019645
3347.637912,-7254.018232,-814.226536,-612.876398
3347.638249,-8290.306550,-148.041188,1455.581446
3347.638586,-11251.130318,-444.123565,2298.286494
3347.638924,-12731.542202,222.061783,306.438199
3347.639261,-11029.068536,592.164754,-153.219100
3347.639598,-10214.842000,-518.144159,383.047749
3347.639935,-8364.327145,592.164754,1225.752797
3347.640273,-7772.162391,740.205942,1378.971896
3347.640610,-8956.491898,1036.288319,2604.724693
3347.640947,-10658.965565,1258.350101,1991.848295
3347.641284,-12657.521608,2072.576638,766.095498
3347.641621,-12287.418637,1924.535449,-766.095498
3347.641959,-10436.903782,444.123565,-1072.533697
3347.642296,-8068.244768,666.185348,-842.705048
3347.642633,-6735.874072,0.000000,-919.314598
3347.642970,-8216.285956,-370.102971,1302.362347
3347.643308,-10658.965565,-1554.432478,1838.629195
3347.643645,-12583.501014,-666.185348,536.266849
3347.643982,-11991.336260,-222.061783,-1762.019645
3347.644319,-10214.842000,-1110.308913,-2145.067394
3347.644657,-9030.512492,-2146.597232,-842.705048
3347.644994,-7994.224174,-2738.761985,0.000000
3347.645331,-7846.182985,-2072.576638,1378.971896
3347.645668,-9622.677246,-2664.741391,919.314598
3347.646006,-11991.336260,-2146.597232,459.657299
3347.646343,-12213.398043,-1628.453072,-153.219100
3347.646680,-11769.274478,-2146.597232,536.266849
3347.647017,-9918.759623,-962.267725,612.876398
3347.647355,-8290.306550,-1258.350101,612.876398
3347.647692,-8216.285956,-518.144159,2221.676944
3347.648029,-10140.821405,-740.205942,3217.601092
3347.648366,-12731.542202,74.020594,2374.896044
3347.648704,-11769.274478,1110.308913,229.828649
3347.649041,-10955.047942,1110.308913,0.000000
3347.649378,-10362.883188,1258.350101,-459.657299
3347.649715,-9252.574275,74.020594,-995.924147
3347.650053,-7624.121203,1332.370696,-229.828649
3347.650390,-8882.471304,296.082377,306.438199
3347.650727,-11843.295072,592.164754,995.924147
3347.651064,-11177.109724,1110.308913,-1685.410096
3347.651402,-10807.006753,-74.020594,-1455.581446
3347.651739,-9696.697840,-1110.308913,-229.828649
3347.652076,-7105.977043,-1406.391290,-459.657299
3347.652413,-7179.997637,0.000000,1838.629195
3347.652751,-9622.677246,-592.164754,2451.505594
3347.653088,-10807.006753,-296.082377,229.828649
3347.653425,-11399.171507,-740.205942,-306.438199
3347.653762,-10955.047942,0.000000,995.924147
3347.654100,-10510.924376,-1184.329507,1072.533697
3347.654437,-9252.574275,-592.164754,153.219100
3347.654774,-7846.182985,-666.185348,383.047749
3347.655111,-8660.409521,-1258.350101,1762.019645
3347.655449,-10732.986159,-666.185348,1838.629195
3347.655786,-11621.233289,592.164754,-383.047749
3347.656123,-11547.212695,296.082377,-995.924147
3347.656460,-11769.274478,296.082377,-612.876398
3347.656798,-10066.800811,-370.102971,-1915.238745
3347.657135,-8364.327145,-148.041188,-536.266849
3347.657472,-8660.409521,-1258.350101,306.438199
3347.657809,-10955.047942,-1258.350101,536.266849
3347.658147,-11991.336260,-518.144159,-1608.800546
3347.658484,-11621.233289,-888.247130,-1072.533697
3347.658821,-10436.903782,-1924.535449,-919.314598
3347.659158,-9548.656652,-2516.700203,-919.314598
3347.659495,-7920.203579,-888.247130,-536.266849
3347.659833,-8142.265362,-592.164754,689.485948
3347.660170,-10066.800811,-222.061783,1532.190996
3347.660507,-11103.089130,222.061783,76.609550
3347.660844,-11177.109724,296.082377,612.876398
3347.661182,-11473.192101,1258.350101,1608.800546
3347.661519,-10732.986159,666.185348,1149.143247
3347.661856,-8216.285956,1184.329507,1225.752797
3347.662193,-7402.059420,1332.370696,2068.457845
3347.662531,-10066.800811,1480.411884,3294.210641
3347.662868,-11547.212695,1850.514855,842.705048
3347.663205,-11177.109724,1480.411884,-842.705048
3347.663542,-11251.130318,1480.411884,536.266849
3347.663880,-9400.615463,2368.659014,-383.047749
3347.664217,-7920.203579,1480.411884,-1225.752797
3347.664554,-8438.347739,1110.308913,0.000000
3347.664891,-9548.656652,962.267725,153.219100
3347.665229,-11917.315666,1036.288319,-153.219100
3347.665566,-11399.171507,370.102971,-1608.800546
3347.665903,-9770.718434,-888.247130,-612.876398
3347.666240,-9844.739029,-1702.473667,0.000000
3347.666578,-7994.224174,-1480.411884,-842.705048
3347.666915,-8290.306550,-1184.329507,383.047749
3347.667252,-10658.965565,-2442.679609,1991.848295
3347.667589,-11621.233289,-1850.514855,0.000000
3347.667927,-11029.068536,-888.247130,76.609550
3347.668264,-11177.109724,-814.226536,1685.410096
3347.668601,-10955.047942,-1924.535449,1225.752797
3347.668938,-9474.636058,-1850.514855,1225.752797
3347.669276,-8734.430116,-1184.329507,2221.676944
3347.669613,-9992.780217,-1850.514855,3064.381992
3347.669950,-12065.356855,-1110.308913,1225.752797
3347.670287,-11473.192101,-962.267725,-306.438199
3347.670625,-10658.965565,-222.061783,0.000000
3347.670962,-10436.903782,-888.247130,0.000000
3347.671299,-8660.409521,222.061783,-1455.581446
3347.671636,-8068.244768,-296.082377,-1302.362347
3347.671974,-10288.862594,-1702.473667,229.828649
3347.672311,-11325.150913,-814.226536,-383.047749
3347.672648,-10807.006753,-296.082377,-1762.019645
3347.672985,-9844.739029,-296.082377,0.000000
3347.673323,-9992.780217,-1258.350101,1302.362347
3347.673660,-9400.615463,-74.020594,0.000000
3347.673997,-8068.244768,-74.020594,229.828649
3347.674334,-9992.780217,-370.102971,1915.238745
3347.674672,-11325.150913,-444.123565,1302.362347
3347.675009,-10214.842000,518.144159,-153.219100
3347.675346,-9770.718434,1628.453072,1455.581446
3347.675683,-9918.759623,814.226536,1302.362347
3347.676021,-9252.574275,740.205942,842.705048
3347.676358,-8734.430116,1184.329507,842.705048
3347.676695,-9104.533087,740.205942,2528.115143
3347.677032,-11769.274478,1702.473667,2451.505594
3347.677369,-11843.295072,1184.329507,-383.047749
3347.677707,-10732.986159,1628.453072,-995.924147
3347.678044,-10362.883188,148.041188,-1149.143247
3347.678381,-8512.368333,-1184.329507,-2451.505594
3347.678718,-7328.038826,-370.102971,-1762.019645
3347.679056,-8512.368333,-1776.494261,229.828649
3347.679393,-10732.986159,-1184.329507,0.000000
3347.679730,-11917.315666,-1036.288319,-1532.190996
3347.680067,-11399.171507,-1110.308913,-459.657299
3347.680405,-10658.965565,-1850.514855,0.000000
3347.680742,-9400.615463,-1850.514855,76.609550
3347.681079,-8438.347739,-1480.411884,-919.314598
3347.681416,-9326.594869,-2590.720797,383.047749
3347.681754,-10955.047942,-3034.844362,1762.019645
3347.682091,-11325.150913,-2220.617826,153.219100
3347.682428,-10214.842000,-592.164754,689.485948
3347.682765,-10510.924376,-1184.329507,1455.581446
3347.683103,-10584.944971,-740.205942,1072.533697
3347.683440,-9030.512492,-222.061783,919.314598
3347.683777,-8956.491898,888.247130,2834.553343
3347.684114,-11991.336260,0.000000,2528.115143
3347.684452,-11843.295072,888.247130,-842.705048
3347.684789,-9696.697840,2368.659014,-1378.971896
3347.685126,-10140.821405,592.164754,459.657299
3347.685463,-9400.615463,1628.453072,-153.219100
3347.685801,-8142.265362,1480.411884,-2298.286494
3347.686138,-9474.636058,740.205942,-689.485948
3347.686475,-10436.903782,740.205942,153.219100
3347.686812,-11325.150913,518.144159,-153.219100
3347.687150,-10288.862594,1554.432478,153.219100
3347.687487,-9252.574275,0.000000,1149.143247
3347.687824,-9844.739029,0.000000,1608.800546
3347.688161,-9252.574275,222.061783,0.000000
3347.688499,-8290.306550,962.267725,2068.457845
3347.688836,-9844.739029,-1036.288319,2451.505594
3347.689173,-11399.171507,-592.164754,1072.533697
3347.689510,-10510.924376,1110.308913,76.609550
3347.689848,-10288.862594,740.205942,1302.362347
3347.690185,-9104.533087,296.082377,766.095498
3347.690522,-7698.141797,0.000000,-306.438199
3347.690859,-8438.347739,444.123565,995.924147
3347.691197,-10214.842000,-518.144159,1991.848295
3347.691534,-12065.356855,-148.041188,153.219100
3347.691871,-11029.068536,370.102971,-1225.752797
3347.692208,-10288.862594,-222.061783,-766.095498
3347.692546,-9992.780217,-1036.288319,153.219100
3347.692883,-9326.594869,-1406.391290,-842.705048
3347.693220,-9252.574275,-1554.432478,-306.438199
3347.693557,-10658.965565,-1776.494261,459.657299
3347.693895,-11769.274478,-2516.700203,-229.828649
3347.694232,-10881.027347,-1480.411884,-2451.505594
3347.694569,-10288.862594,-2442.679609,-689.485948
3347.694906,-10510.924376,-2146.597232,919.314598
3347.695243,-9326.594869,-1406.391290,0.000000
3347.695581,-8808.450710,-1702.473667,842.705048
3347.695918,-10658.965565,-1776.494261,2221.676944
3347.696255,-11917.315666,-740.205942,1378.971896
3347.696592,-10807.006753,148.041188,0.000000
3347.696930,-10288.862594,-444.123565,995.924147
3347.697267,-9770.718434,-592.164754,1838.629195
3347.697604,-8956.491898,222.061783,689.485948
3347.697941,-8734.430116,1110.308913,1149.143247
3347.698279,-9992.780217,1110.308913,1762.019645
3347.698616,-11399.171507,1258.350101,306.438199
3347.698953,-10807.006753,1850.514855,-1608.800546
3347.699290,-9326.594869,1406.391290,-459.657299
3347.699628,-9474.636058,666.185348,-153.219100
3347.699965,-8956.491898,74.020594,-1838.629195
3347.700302,-7402.059420,1036.288319,-1685.410096
3347.700639,-9474.636058,518.144159,536.266849
3347.700977,-11325.150913,0.000000,-919.314598
3347.701314,-10807.006753,0.000000,-1915.238745
3347.701651,-10658.965565,-592.164754,-383.047749
3347.701988,-9918.759623,-1702.473667,689.485948
3347.702326,-8808.450710,-1110.308913,0.000000
3347.702663,-8438.347739,-814.226536,995.924147
3347.703000,-9548.656652,-1036.288319,1608.800546
3347.703337,-11177.109724,-1406.391290,1762.019645
3347.703675,-11843.295072,444.123565,153.219100
3347.704012,-11029.068536,74.020594,229.828649
3347.704349,-11103.089130,-666.185348,919.314598
3347.704686,-9474.636058,-1406.391290,76.609550
3347.705024,-8290.306550,-1110.308913,612.876398
3347.705361,-9474.636058,-888.247130,2681.334243
3347.705698,-11251.130318,-1998.556043,2757.943793
3347.706035,-11399.171507,0.000000,612.876398
3347.706373,-11177.109724,74.020594,-689.485948
3347.706710,-10362.883188,-1110.308913,-306.438199
3347.707047,-9918.759623,-518.144159,-459.657299
3347.707384,-7920.203579,0.000000,-1149.143247
3347.707722,-8216.285956,-296.082377,-536.266849
3347.708059,-10214.842000,-1110.308913,-306.438199
3347.708396,-11177.109724,-740.205942,-1149.143247
3347.708733,-10955.047942,-518.144159,-689.485948
3347.709071,-10140.821405,-518.144159,1072.533697
3347.709408,-9696.697840,-444.123565,919.314598
3347.709745,-8290.306550,296.082377,459.657299
3347.710082,-9030.512492,0.000000,1991.848295
3347.710420,-11325.150913,370.102971,2757.943793
3347.710757,-11843.295072,962.267725,919.314598
3347.711094,-10362.883188,1924.535449,-306.438199
3347.711431,-10436.903782,1184.329507,1072.533697
3347.711769,-9548.656652,1406.391290,1149.143247
3347.712106,-7772.162391,2072.576638,-842.705048
3347.712443,-8734.430116,2368.659014,1149.143247
3347.712780,-11695.253884,1258.350101,1762.019645
3347.713117,-12583.501014,1702.473667,-995.924147
3347.713455,-10732.986159,1332.370696,-2068.457845
3347.713792,-10066.800811,962.267725,-689.485948
3347.714129,-9474.636058,74.020594,-995.924147
3347.714466,-7402.059420,-518.144159,-2374.896044
3347.714804,-7624.121203,148.041188,-459.657299
3347.715141,-9992.780217,-2368.659014,919.314598
3347.715478,-11769.274478,-1554.432478,-536.266849
3347.715815,-10140.821405,-1332.370696,-1762.019645
3347.716153,-10807.006753,-1924.535449,306.438199
3347.716490,-9696.697840,-2220.617826,459.657299
3347.716827,-8364.327145,-2368.659014,-842.705048
3347.717164,-8660.409521,-1850.514855,1302.362347
3347.717502,-10436.903782,-2368.659014,2987.772442
3347.717839,-11473.192101,-1406.391290,1762.019645
3347.718176,-12139.377449,-740.205942,76.609550
3347.718513,-11103.089130,-814.226536,1072.533697
3347.718851,-9548.656652,-1406.391290,1532.190996
3347.719188,-9178.553681,-518.144159,1915.238745
3347.719525,-8882.471304,-296.082377,1915.238745
3347.719862,-10214.842000,-666.185348,2451.505594
3347.720200,-12435.459826,0.000000,766.095498
3347.720537,-11843.295072,-444.123565,-1149.143247
3347.720874,-9474.636058,-296.082377,-383.047749
3347.721211,-9326.594869,-444.123565,306.438199
3347.721549,-8882.471304,-666.185348,-612.876398
3347.721886,-7105.977043,0.000000,-1225.752797
3347.722223,-8956.491898,-1110.308913,229.828649
3347.722560,-11029.068536,-1258.350101,842.705048
3347.722898,-11325.150913,-518.144159,-612.876398
3347.723235,-9696.697840,444.123565,229.828649
3347.723572,-9992.780217,-962.267725,1149.143247
3347.723909,-8882.471304,-962.267725,229.828649
3347.724247,-8438.347739,-592.164754,459.657299
3347.724584,-9844.739029,-1332.370696,3753.867940
3347.724921,-11325.150913,-296.082377,2757.943793
3347.725258,-11917.315666,1036.288319,766.095498
3347.725596,-10955.047942,1406.391290,383.047749
3347.725933,-10362.883188,0.000000,689.485948
3347.726270,-9844.739029,0.000000,0.000000
3347.726607,-7698.141797,1554.432478,-689.485948
3347.726945,-9030.512492,296.082377,536.266849
3347.727282,-11177.109724,666.185348,0.000000
3347.727619,-11399.171507,1110.308913,-3447.429741
3347.727957,-10732.986159,814.226536,-3064.381992
3347.728294,-10288.862594,-1628.453072,-2145.067394
3347.728631,-9178.553681,-1850.514855,-689.485948
3347.728968,-7476.080014,-1184.329507,-459.657299
3347.729306,-8734.430116,-1850.514855,1072.533697
3347.729643,-10881.027347,-2146.597232,689.485948
3347.729980,-12065.356855,-2146.597232,-766.095498
3347.730318,-10955.047942,-814.226536,-689.485948
3347.730655,-10140.821405,-1628.453072,76.609550
3347.730992,-8956.491898,-814.226536,-383.047749
3347.731329,-8216.285956,-1110.308913,-459.657299
3347.731667,-9178.553681,-1036.288319,1225.752797
3347.732004,-11177.109724,370.102971,2604.724693
3347.732341,-12657.521608,1184.329507,1225.752797
3347.732678,-11843.295072,1776.494261,0.000000
3347.733016,-10881.027347,888.247130,459.657299
3347.733353,-9178.553681,740.205942,1225.752797
3347.733690,-8216.285956,1184.329507,842.705048
3347.734028,-9104.533087,962.267725,2068.457845
3347.734365,-11029.068536,1184.329507,2145.067394
3347.734702,-11843.295072,1258.350101,-612.876398
3347.735039,-11177.109724,2220.617826,-842.705048
3347.735377,-10362.883188,1036.288319,-995.924147
3347.735714,-9474.636058,518.144159,-1608.800546
3347.736051,-7179.997637,222.061783,-2757.943793
3347.736389,-6513.812290,-444.123565,-1378.971896
3347.736726,-9252.574275,-1332.370696,689.485948
3347.737063,-10732.986159,-962.267725,383.047749
3347.737400,-10436.903782,-296.082377,-612.876398
3347.737738,-10362.883188,-740.205942,612.876398
3347.738075,-10732.986159,-888.247130,1455.581446
3347.738412,-9252.574275,-1110.308913,919.314598
3347.738749,-8512.368333,-1332.370696,2604.724693
3347.739087,-10732.986159,-592.164754,4366.744339
3347.739424,-12583.501014,-370.102971,2145.067394
3347.739761,-11695.253884,888.247130,536.266849
3347.740099,-10658.965565,296.082377,229.828649
3347.740436,-10288.862594,222.061783,0.000000
3347.740773,-8734.430116,-370.102971,-1072.533697
3347.741110,-8364.327145,740.205942,153.219100
3347.741448,-10584.944971,-888.247130,1532.190996
3347.741785,-12213.398043,-370.102971,0.000000
3347.742122,-11399.171507,444.123565,-1532.190996
3347.742460,-10510.924376,-444.123565,-76.609550
3347.742797,-9696.697840,-1554.432478,459.657299
3347.743134,-8216.285956,-1776.494261,-612.876398
3347.743471,-7920.203579,-1332.370696,-383.047749
3347.743809,-9104.533087,-1776.494261,689.485948
3347.744146,-11547.212695,-2368.659014,153.219100
3347.744483,-9844.739029,-1184.329507,-1991.848295
3347.744820,-9104.533087,-814.226536,-689.485948
3347.745158,-9770.718434,-1850.514855,919.314598
3347.745495,-8586.388927,-814.226536,-612.876398
3347.745832,-7476.080014,-592.164754,536.266849
3347.746170,-10214.842000,-1702.473667,3064.381992
3347.746507,-11991.336260,74.020594,3524.039291
3347.746844,-11843.295072,666.185348,1072.533697
3347.747181,-10510.924376,1554.432478,76.609550
3347.747519,-10140.821405,666.185348,0.000000
3347.747856,-9918.759623,888.247130,-383.047749
3347.748193,-8882.471304,-74.020594,-1378.971896
3347.748531,-9326.594869,296.082377,1302.362347
3347.748868,-11177.109724,0.000000,1072.533697
3347.749205,-11251.130318,222.061783,-1455.581446
3347.749542,-9992.780217,518.144159,-2451.505594
3347.749880,-10140.821405,-1184.329507,-536.266849
3347.750217,-9104.533087,-740.205942,-1532.190996
3347.750554,-8216.285956,-1702.473667,-1072.533697
3347.750891,-9548.656652,-1480.411884,1915.238745
3347.751229,-10584.944971,-1776.494261,1149.143247
3347.751566,-11621.233289,-1184.329507,-536.266849
3347.751903,-10436.903782,-888.247130,-612.876398
3347.752241,-9844.739029,-1702.473667,76.609550
3347.752578,-9548.656652,-1036.288319,76.609550
3347.752915,-8882.471304,-814.226536,0.000000
3347.753252,-8660.409521,-888.247130,2374.896044
3347.753590,-11547.212695,-592.164754,2757.943793
3347.753927,-12065.356855,370.102971,2068.457845
3347.754264,-10362.883188,1332.370696,919.314598
3347.754601,-10288.862594,740.205942,1762.019645
3347.754939,-10214.842000,1480.411884,1225.752797
3347.755276,-9474.636058,1702.473667,-383.047749
3347.755613,-9252.574275,1332.370696,76.609550
3347.755951,-10732.986159,222.061783,153.219100
3347.756288,-11029.068536,1110.308913,-919.314598
3347.756625,-9622.677246,1036.288319,-1225.752797
3347.756962,-9770.718434,370.102971,-1378.971896
3347.757300,-8512.368333,518.144159,-1762.019645
3347.757637,-9030.512492,814.226536,-1991.848295
3347.757974,-9474.636058,1184.329507,459.657299
3347.758312,-10288.862594,-592.164754,995.924147
3347.758649,-11769.274478,0.000000,1532.190996
3347.758986,-9844.739029,592.164754,-459.657299
3347.759323,-9696.697840,-444.123565,76.609550
3347.759661,-10066.800811,-296.082377,0.000000
3347.759998,-8216.285956,-1776.494261,-1072.533697
3347.760335,-8142.265362,-740.205942,1378.971896
3347.760672,-9992.780217,-740.205942,3294.210641
3347.761010,-11547.212695,444.123565,1762.019645
3347.761347,-11325.150913,444.123565,0.000000
3347.761684,-11177.109724,0.000000,536.266849
3347.762022,-9696.697840,-148.041188,306.438199
3347.762359,-8808.450710,0.000000,0.000000
3347.762696,-8808.450710,-666.185348,1532.190996
3347.763033,-10510.924376,-1702.473667,1302.362347
3347.763371,-11843.295072,-1554.432478,0.000000
3347.763708,-10955.047942,-518.144159,-1455.581446
3347.764045,-10584.944971,-1776.494261,-766.095498
3347.764383,-9474.636058,-1184.329507,-1072.533697
3347.764720,-9548.656652,-1702.473667,-1838.629195
3347.765057,-9400.615463,-1036.288319,-612.876398
3347.765394,-10140.821405,-2590.720797,1225.752797
3347.765732,-11917.315666,-2072.576638,1838.629195
3347.766069,-11029.068536,-888.247130,0.000000
3347.766406,-10510.924376,-1554.432478,842.705048
3347.766743,-10732.986159,-1776.494261,1302.362347
3347.767081,-9400.615463,-1332.370696,459.657299
3347.767418,-9104.533087,0.000000,2068.457845
3347.767755,-9918.759623,-592.164754,3217.601092
3347.768093,-11843.295072,518.144159,2145.067394
3347.768430,-11547.212695,592.164754,-229.828649
3347.768767,-9770.718434,444.123565,0.000000
3347.769104,-8956.491898,1332.370696,1378.971896
3347.769442,-9326.594869,740.205942,0.000000
3347.769779,-7772.162391,1036.288319,-919.314598
3347.770116,-7994.224174,0.000000,229.828649
3347.770454,-10140.821405,-296.082377,1302.362347
3347.770791,-11029.068536,666.185348,-76.609550
3347.771128,-10955.047942,740.205942,-842.705048
3347.771465,-10288.862594,0.000000,-919.314598
3347.771803,-9474.636058,-962.267725,-1991.848295
3347.772140,-7624.121203,-296.082377,-1532.190996
3347.772477,-7846.182985,-1110.308913,536.266849
3347.772814,-9918.759623,-1924.535449,1225.752797
3347.773152,-10732.986159,-740.205942,76.609550
3347.773489,-11917.315666,-296.082377,459.657299
3347.773826,-11399.171507,-592.164754,919.314598
3347.774164,-10140.821405,-962.267725,153.219100
3347.774501,-9400.615463,222.061783,459.657299
3347.774838,-10066.800811,-518.144159,995.924147
3347.775175,-10658.965565,-222.061783,2145.067394
3347.775513,-11325.150913,0.000000,766.095498
3347.775850,-10732.986159,-74.020594,153.219100
3347.776187,-10510.924376,-296.082377,689.485948
3347.776525,-10140.821405,-444.123565,306.438199
3347.776862,-8290.306550,-444.123565,0.000000
3347.777199,-8956.491898,-592.164754,2145.067394
3347.777536,-10955.047942,-666.185348,1838.629195
3347.777874,-11769.274478,0.000000,-689.485948
3347.778211,-10436.903782,296.082377,-1838.629195
3347.778548,-9844.739029,-444.123565,-612.876398
3347.778885,-9252.574275,-444.123565,-1149.143247
3347.779223,-8216.285956,0.000000,-1608.800546
3347.779560,-8364.327145,-444.123565,-689.485948
3347.779897,-9844.739029,-370.102971,689.485948
3347.780235,-11103.089130,0.000000,-536.266849
3347.780572,-10658.965565,814.226536,0.000000
3347.780909,-10362.883188,740.205942,459.657299
3347.781246,-9844.739029,222.061783,1225.752797
3347.781584,-9474.636058,888.247130,1149.143247
3347.781921,-8586.388927,1258.350101,1685.410096
3347.782258,-10807.006753,1628.453072,2451.505594
3347.782595,-12361.439231,962.267725,1302.362347
3347.782933,-11029.068536,1480.411884,-306.438199
3347.783270,-10066.800811,740.205942,536.266849
3347.783607,-9918.759623,814.226536,76.609550
3347.783945,-7624.121203,222.061783,-1225.752797
3347.784282,-8142.265362,0.000000,0.000000
3347.784619,-10584.944971,-1332.370696,919.314598
3347.784956,-11547.212695,-74.020594,153.219100
3347.785294,-11177.109724,74.020594,0.000000
3347.785631,-10140.821405,0.000000,-306.438199
3347.785968,-10436.903782,-1924.535449,-306.438199
3347.786306,-9844.739029,-1628.453072,-1762.019645
3347.786643,-7624.121203,-1702.473667,-536.266849
3347.786980,-9104.533087,-2886.803174,1991.848295
3347.787317,-11399.171507,-2664.741391,1685.410096
3347.787655,-11251.130318,-1258.350101,0.000000
3347.787992,-10955.047942,-518.144159,306.438199
3347.788329,-11103.089130,-1850.514855,766.095498
3347.788666,-9474.636058,-666.185348,-459.657299
3347.789004,-7920.203579,-370.102971,153.219100
3347.789341,-9548.656652,-1332.370696,2528.115143
3347.789678,-11103.089130,-740.205942,2145.067394
3347.790016,-11103.089130,592.164754,0.000000
3347.790353,-10584.944971,1554.432478,0.000000
3347.790690,-10881.027347,-222.061783,919.314598
3347.791027,-9844.739029,222.061783,-153.219100
3347.791365,-8142.265362,-518.144159,0.000000
3347.791702,-9104.533087,-370.102971,2145.067394
3347.792039,-10955.047942,0.000000,766.095498
3347.792377,-11177.109724,888.247130,-2145.067394
3347.792714,-9474.636058,0.000000,-2451.505594
3347.793051,-9104.533087,-518.144159,-842.705048
3347.793388,-9252.574275,-888.247130,-459.657299
3347.793726,-7846.182985,296.082377,-536.266849
3347.794063,-9770.718434,-1702.473667,1838.629195
3347.794400,-11325.150913,74.020594,2145.067394
3347.794737,-11399.171507,444.123565,153.219100
3347.795075,-10807.006753,740.205942,1455.581446
3347.795412,-11029.068536,-888.247130,1302.362347
3347.795749,-9918.759623,-814.226536,459.657299
3347.796087,-8586.388927,74.020594,229.828649
3347.796424,-8512.368333,-740.205942,919.314598
3347.796761,-10362.883188,-444.123565,1608.800546
3347.797098,-11621.233289,0.000000,-153.219100
3347.797436,-10214.842000,814.226536,-306.438199
3347.797773,-10807.006753,-740.205942,1225.752797
3347.798110,-11251.130318,-592.164754,76.609550
3347.798448,-8364.327145,-814.226536,-689.485948
3347.798785,-9474.636058,-1554.432478,689.485948
3347.799122,-10436.903782,-1332.370696,995.924147
3347.799459,-10955.047942,-1480.411884,-1991.848295
3347.799797,-9844.739029,-148.041188,-1915.238745
3347.800134,-9548.656652,-2664.741391,-1072.533697
3347.800471,-9178.553681,-592.164754,-1225.752797
3347.800808,-9474.636058,-1110.308913,-1762.019645
3347.801146,-9548.656652,-888.247130,306.438199
3347.801483,-11029.068536,-1184.329507,1378.971896
3347.801820,-11103.089130,-1184.329507,459.657299
3347.802158,-10436.903782,74.020594,459.657299
3347.802495,-10510.924376,-518.144159,2451.505594
3347.802832,-10807.006753,444.123565,2451.505594
3347.803169,-9400.615463,1110.308913,612.876398
3347.803507,-9252.574275,1702.473667,995.924147
3347.803844,-10732.986159,1406.391290,1838.629195
3347.804181,-11843.295072,1628.453072,383.047749
3347.804519,-9326.594869,2886.803174,-1915.238745
3347.804856,-9030.512492,2146.597232,-459.657299
3347.805193,-9992.780217,666.185348,383.047749
3347.805530,-8216.285956,1406.391290,-1302.362347
3347.805868,-8216.285956,1406.391290,612.876398
3347.806205,-10584.944971,1036.288319,1685.410096
3347.806542,-11251.130318,814.226536,-612.876398
3347.806879,-10658.965565,1184.329507,-1838.629195
3347.807217,-9474.636058,-740.205942,0.000000
3347.807554,-9252.574275,-888.247130,766.095498
3347.807891,-9104.533087,-518.144159,-306.438199
3347.808229,-8216.285956,-1184.329507,-306.438199
3347.808566,-10140.821405,-1332.370696,612.876398
3347.808903,-11473.192101,-1628.453072,-536.266849
3347.809240,-9918.759623,0.000000,-1302.362347
3347.809578,-10214.842000,-814.226536,1149.143247
3347.809915,-11177.109724,-962.267725,2911.162892
3347.810252,-9992.780217,-592.164754,229.828649
3347.810589,-9844.739029,-740.205942,1991.848295
3347.810927,-11029.068536,-1480.411884,3064.381992
3347.811264,-11621.233289,-1184.329507,2068.457845
3347.811601,-10362.883188,666.185348,0.000000
3347.811939,-9918.759623,-222.061783,-459.657299
3347.812276,-10436.903782,-1480.411884,-612.876398
3347.812613,-8882.471304,-1924.535449,-1532.190996
3347.812950,-8290.306550,-518.144159,-306.438199
3347.813288,-9844.739029,-1924.535449,1608.800546
3347.813625,-12065.356855,-592.164754,153.219100
3347.813962,-11399.171507,-1110.308913,-1302.362347
3347.814300,-9992.780217,-1184.329507,-536.266849
3347.814637,-9252.574275,-2960.823768,1072.533697
3347.814974,-9474.636058,-2368.659014,842.705048
3347.815311,-7772.162391,-1776.494261,536.266849
3347.815649,-8956.491898,-1924.535449,1378.971896
3347.815986,-11103.089130,-1554.432478,1302.362347
3347.816323,-10807.006753,444.123565,0.000000
3347.816660,-10288.862594,666.185348,383.047749
3347.816998,-10881.027347,666.185348,1149.143247
3347.817335,-10066.800811,1776.494261,536.266849
3347.817672,-9844.739029,1184.329507,306.438199
3347.818010,-9770.718434,962.267725,1838.629195
3347.818347,-10807.006753,74.020594,1838.629195
3347.818684,-11103.089130,1776.494261,1149.143247
3347.819021,-10288.862594,1702.473667,-1149.143247
3347.819359,-10584.944971,888.247130,0.000000
3347.819696,-9474.636058,592.164754,-689.485948
3347.820033,-8882.471304,148.041188,-1072.533697
3347.820371,-9696.697840,148.041188,0.000000
3347.820708,-10955.047942,-444.123565,0.000000
3347.821045,-10584.944971,222.061783,-1455.581446
3347.821382,-9474.636058,0.000000,-1608.800546
3347.821720,-9548.656652,-1480.411884,536.266849
3347.822057,-9400.615463,-1924.535449,306.438199
3347.822394,-8808.450710,-1998.556043,459.657299
3347.822731,-9326.594869,-2368.659014,1532.190996
3347.823069,-10732.986159,-1924.535449,1685.410096
3347.823406,-10955.047942,-1110.308913,0.000000
3347.823743,-10066.800811,-740.205942,383.047749
3347.824081,-9992.780217,-740.205942,1149.143247
3347.824418,-9474.636058,-148.041188,1149.143247
3347.824755,-8660.409521,0.000000,612.876398
3347.825092,-9770.718434,0.000000,2681.334243
3347.825430,-11917.315666,0.000000,3370.820191
3347.825767,-11843.295072,1480.411884,536.266849
3347.826104,-10436.903782,2220.617826,-995.924147
3347.826442,-10214.842000,518.144159,-229.828649
3347.826779,-9992.780217,74.020594,0.000000
3347.827116,-8734.430116,-148.041188,-1915.238745
3347.827454,-8734.430116,0.000000,153.219100
3347.827791,-10362.883188,-666.185348,536.266849
3347.828128,-11177.109724,74.020594,-919.314598
3347.828466,-10436.903782,296.082377,-1455.581446
3347.828803,-9474.636058,-592.164754,76.609550
3347.829140,-9474.636058,-74.020594,1302.362347
3347.829478,-9918.759623,-370.102971,1455.581446
3347.829815,-8956.491898,0.000000,1225.752797
3347.830152,-9992.780217,-740.205942,1455.581446
3347.830490,-10881.027347,962.267725,153.219100
3347.830827,-9992.780217,444.123565,-1149.143247
3347.831164,-10140.821405,370.102971,459.657299
3347.831502,-10066.800811,370.102971,229.828649
3347.831839,-8808.450710,296.082377,-995.924147
3347.832176,-8660.409521,962.267725,0.000000
3347.832514,-9992.780217,222.061783,2068.457845
3347.832851,-11769.274478,962.267725,536.266849
3347.833188,-11177.109724,1110.308913,-1302.362347
3347.833526,-10732.986159,222.061783,-842.705048
3347.833863,-9548.656652,-592.164754,0.000000
3347.834200,-9400.615463,-1406.391290,0.000000
3347.834538,-9104.533087,-1036.288319,536.266849
3347.834875,-9992.780217,-962.267725,383.047749
3347.835212,-11029.068536,-1110.308913,0.000000
3347.835550,-11695.253884,-1850.514855,-1378.971896
3347.835887,-10214.842000,-1110.308913,-459.657299
3347.836224,-9770.718434,-1776.494261,0.000000
3347.836562,-8660.409521,-2664.741391,0.000000
3347.836899,-8882.471304,-1406.391290,1532.190996
3347.837236,-9918.759623,-1480.411884,2298.286494
3347.837574,-11695.253884,-888.247130,2757.943793
3347.837911,-11769.274478,0.000000,1455.581446
3347.838248,-11473.192101,-518.144159,1532.190996
3347.838586,-10140.821405,-148.041188,1991.848295
3347.838923,-8882.471304,-518.144159,1838.629195
3347.839260,-8216.285956,296.082377,2221.676944
3347.839598,-9474.636058,0.000000,1685.410096
3347.839935,-10955.047942,888.247130,536.266849
3347.840272,-11177.109724,1702.473667,-1072.533697
3347.840610,-9696.697840,1628.453072,-1378.971896
3347.840947,-9178.553681,1036.288319,-1378.971896
3347.841284,-8956.491898,74.020594,-1302.362347
3347.841622,-8068.244768,444.123565,-766.095498
3347.841959,-8364.327145,0.000000,0.000000
3347.842296,-11473.192101,-370.102971,459.657299
3347.842634,-11769.274478,-1184.329507,-1378.971896
3347.842971,-10066.800811,-296.082377,-1302.362347
3347.843308,-9252.574275,-1554.432478,459.657299
3347.843646,-9252.574275,-1480.411884,612.876398
3347.843983,-8290.306550,-1554.432478,153.219100
3347.844320,-9918.759623,-1258.350101,2298.286494
3347.844658,-11177.109724,-444.123565,1455.581446
3347.844995,-12139.377449,-518.144159,689.485948
3347.845332,-10584.944971,296.082377,76.609550
3347.845670,-9622.677246,0.000000,-76.609550
3347.846007,-10214.842000,-444.123565,459.657299
3347.846344,-9326.594869,-222.061783,229.828649
3347.846682,-9104.533087,-666.185348,1685.410096
3347.847019,-11399.171507,-592.164754,2757.943793
3347.847356,-12065.356855,-296.082377,536.266849
3347.847694,-11251.130318,888.247130,-919.314598
3347.848031,-9992.780217,0.000000,-689.485948
3347.848368,-9474.636058,-666.185348,-1302.362347
3347.848706,-7772.162391,-740.205942,-2221.676944
3347.849043,-7994.224174,-518.144159,-612.876398
3347.849380,-10510.924376,-1406.391290,459.657299
3347.849718,-11621.233289,-962.267725,0.000000
3347.850055,-11325.150913,0.000000,-612.876398
3347.850392,-10584.944971,-222.061783,-995.924147
3347.850729,-9770.718434,-1332.370696,536.266849
3347.851067,-8586.388927,-1184.329507,383.047749
3347.851404,-7920.203579,-1184.329507,1915.238745
3347.851741,-10066.800811,-444.123565,2757.943793
3347.852079,-11843.295072,444.123565,1225.752797
3347.852416,-10510.924376,1258.350101,-1149.143247
3347.852753,-9400.615463,1702.473667,153.219100
3347.853091,-9474.636058,1702.473667,612.876398
3347.853428,-9326.594869,1110.308913,-459.657299
3347.853765,-9252.574275,1850.514855,-153.219100
3347.854103,-11251.130318,222.061783,842.705048
3347.854440,-11621.233289,592.164754,459.657299
3347.854777,-9770.718434,1184.329507,-1532.190996
3347.855115,-9400.615463,0.000000,153.219100
3347.855452,-9474.636058,-592.164754,612.876398
3347.855789,-8660.409521,-222.061783,-1532.190996
3347.856127,-9252.574275,-296.082377,-766.095498
3347.856464,-9992.780217,-592.164754,-1149.143247
3347.856801,-12213.398043,-1554.432478,-459.657299
3347.857139,-11103.089130,-666.185348,-1225.752797
3347.857476,-9326.594869,-1036.288319,-689.485948
3347.857813,-9844.739029,-1850.514855,1608.800546
3347.858151,-9252.574275,-2072.576638,842.705048
3347.858488,-9622.677246,-1628.453072,1532.190996
3347.858825,-11177.109724,-2220.617826,3294.210641
3347.859163,-11473.192101,-1332.370696,2911.162892
3347.859500,-11177.109724,444.123565,1302.362347
3347.859837,-10066.800811,740.205942,1149.143247
3347.860175,-10214.842000,814.226536,1532.190996
3347.860512,-9474.636058,296.082377,0.000000
3347.860849,-8956.491898,222.061783,229.828649
3347.861187,-9696.697840,74.020594,2145.067394
3347.861524,-11029.068536,666.185348,766.095498
3347.861861,-10584.944971,1406.391290,-1072.533697
3347.862199,-10436.903782,962.267725,-1608.800546
3347.862536,-10214.842000,296.082377,-459.657299
3347.862873,-9252.574275,-296.082377,-995.924147
3347.863211,-7254.018232,-444.123565,-383.047749
3347.863548,-8808.450710,-740.205942,919.314598
3347.863885,-11251.130318,-1480.411884,536.266849
3347.864223,-11325.150913,-740.205942,-1532.190996
3347.864560,-8882.471304,0.000000,-2145.067394
3347.864897,-9474.636058,-1184.329507,842.705048
3347.865235,-9326.594869,-444.123565,0.000000
3347.865572,-8512.368333,-962.267725,-536.266849
3347.865909,-9474.636058,-1406.391290,1991.848295
3347.866247,-11991.336260,-1332.370696,2451.505594
3347.866584,-12065.356855,-518.144159,842.705048
3347.866921,-10288.862594,518.144159,536.266849
3347.867259,-9178.553681,-1110.308913,229.828649
3347.867596,-9030.512492,-666.185348,0.000000
3347.867933,-8956.491898,-222.061783,0.000000
3347.868271,-9548.656652,-592.164754,766.095498
3347.868608,-12139.377449,-370.102971,1225.752797
3347.868945,-13027.624579,666.185348,-1608.800546
3347.869283,-11251.130318,296.082377,-2374.896044
3347.869620,-10436.903782,-962.267725,-153.219100
3347.869957,-8364.327145,-1850.514855,76.609550
3347.870295,-7772.162391,-1480.411884,-383.047749
3347.870632,-9474.636058,-1924.535449,1072.533697
3347.870969,-11177.109724,-3182.885551,766.095498
3347.871307,-12657.521608,-2368.659014,153.219100
3347.871644,-10362.883188,-962.267725,-612.876398
3347.871981,-9548.656652,-1258.350101,612.876398
3347.872319,-9622.677246,-1702.473667,383.047749
3347.872656,-8290.306550,-1998.556043,76.609550
3347.872993,-8438.347739,-962.267725,2068.457845
3347.873331,-10658.965565,-370.102971,3294.210641
3347.873668,-11621.233289,1036.288319,1991.848295
3347.874005,-11325.150913,1110.308913,-306.438199
3347.874343,-9844.739029,1036.288319,153.219100
3347.874680,-9474.636058,1406.391290,1455.581446
3347.875017,-8956.491898,1924.535449,1072.533697
3347.875355,-8660.409521,1332.370696,1455.581446
3347.875692,-10807.006753,1184.329507,995.924147
3347.876029,-11547.212695,2368.659014,-689.485948
3347.876367,-9548.656652,2812.782580,-1915.238745
3347.876704,-9622.677246,1036.288319,-766.095498
3347.877041,-8734.430116,1258.350101,-1455.581446
3347.877379,-8142.265362,666.185348,-2604.724693
3347.877716,-9326.594869,222.061783,-536.266849
3347.878053,-9918.759623,-1332.370696,0.000000
3347.878391,-10807.006753,-592.164754,229.828649
3347.878728,-10732.986159,296.082377,-229.828649
3347.879065,-9474.636058,-296.082377,-76.609550
3347.879403,-10140.821405,-962.267725,-459.657299
3347.879740,-8956.491898,-1184.329507,-306.438199
3347.880077,-7994.224174,-518.144159,1072.533697
3347.880415,-10214.842000,-962.267725,2374.896044
3347.880752,-12879.583391,-518.144159,1685.410096
3347.881089,-11325.150913,0.000000,-536.266849
3347.881427,-10955.047942,74.020594,995.924147
3347.881764,-10807.006753,-888.247130,2374.896044
3347.882101,-9326.594869,-814.226536,229.828649
3347.882439,-9030.512492,74.020594,0.000000
3347.882776,-10288.862594,-1184.329507,2145.067394
3347.883113,-11695.253884,-222.061783,842.705048
3347.883451,-11695.253884,-370.102971,-1302.362347
3347.883788,-10658.965565,74.020594,-612.876398
3347.884125,-10066.800811,-1480.411884,-229.828649
3347.884463,-8734.430116,-1110.308913,-766.095498
3347.884800,-8438.347739,-296.082377,-612.876398
3347.885137,-9992.780217,-296.082377,842.705048
3347.885475,-11325.150913,-1110.308913,153.219100
3347.885812,-11621.233289,-148.041188,-1915.238745
3347.886149,-9770.718434,-444.123565,-1149.143247
3347.886487,-8808.450710,-1628.453072,689.485948
3347.886824,-8438.347739,-1258.350101,1072.533697
3347.887161,-8364.327145,-1110.308913,1991.848295
3347.887499,-10214.842000,592.164754,3907.087040
3347.887836,-11399.171507,0.000000,3217.601092
3347.888173,-11325.150913,1036.288319,1378.971896
3347.888511,-11029.068536,1332.370696,1072.533697
3347.888848,-10436.903782,814.226536,306.438199
3347.889185,-9252.574275,814.226536,-306.438199
3347.889523,-8438.347739,1258.350101,-689.485948
3347.889860,-8586.388927,962.267725,0.000000
3347.890197,-10732.986159,592.164754,-459.657299
3347.890535,-11029.068536,74.020594,-1608.800546
3347.890872,-10214.842000,0.000000,-1991.848295
3347.891209,-9622.677246,-1036.288319,-612.876398
3347.891547,-9696.697840,-1480.411884,0.000000
3347.891884,-8586.388927,-1776.494261,-995.924147
3347.892221,-8660.409521,-1850.514855,383.047749
3347.892559,-10584.944971,-1776.494261,1378.971896
3347.892896,-11399.171507,-2368.659014,0.000000
3347.893233,-10807.006753,-1406.391290,-306.438199
3347.893571,-10732.986159,-1480.411884,0.000000
3347.893908,-9992.780217,-2294.638420,76.609550
3347.894245,-8882.471304,-1850.514855,-689.485948
3347.894583,-8808.450710,-2368.659014,1608.800546
3347.894920,-10288.862594,-1776.494261,2987.772442
3347.895257,-11769.274478,-1184.329507,2528.115143
3347.895595,-10658.965565,296.082377,689.485948
3347.895932,-10214.842000,592.164754,1762.019645
3347.896269,-11399.171507,888.247130,1455.581446
3347.896607,-9622.677246,0.000000,0.000000
3347.896944,-9030.512492,888.247130,766.095498
3347.897281,-9622.677246,0.000000,1302.362347
3347.897619,-10140.821405,1036.288319,-1072.533697
3347.897956,-10214.842000,1554.432478,-2298.286494
3347.898293,-10510.924376,148.041188,-1532.190996
3347.898631,-9844.739029,370.102971,-689.485948
3347.898968,-8364.327145,888.247130,-1225.752797
3347.899305,-8216.285956,888.247130,766.095498
3347.899643,-9992.780217,0.000000,1838.629195
3347.899980,-11621.233289,148.041188,383.047749
3347.900317,-10584.944971,1036.288319,0.000000
3347.900655,-10066.800811,444.123565,766.095498
3347.900992,-10362.883188,-444.123565,536.266849
3347.901329,-8438.347739,148.041188,0.000000
3347.901667,-7550.100608,518.144159,383.047749
3347.902004,-10214.842000,370.102971,1915.238745
3347.902341,-11547.212695,148.041188,612.876398
3347.902679,-10658.965565,518.144159,-306.438199
3347.903016,-10140.821405,962.267725,459.657299
3347.903353,-10436.903782,148.041188,1302.362347
3347.903691,-9252.574275,222.061783,-766.095498
3347.904028,-8438.347739,-444.123565,-766.095498
3347.904365,-9844.739029,-814.226536,1608.800546
3347.904703,-10807.006753,-1110.308913,0.000000
3347.905040,-11621.233289,-444.123565,-1225.752797
3347.905377,-10881.027347,-1480.411884,-1378.971896
3347.905715,-9844.739029,-1776.494261,-1532.190996
3347.906052,-9252.574275,-1924.535449,-2145.067394
3347.906389,-8512.368333,-2294.638420,-995.924147
3347.906727,-8956.491898,-3034.844362,1225.752797
3347.907064,-11473.192101,-2146.597232,1532.190996
3347.907401,-11621.233289,-1110.308913,0.000000
3347.907739,-11251.130318,-1036.288319,689.485948
3347.908076,-11473.192101,-2072.576638,2145.067394
3347.908413,-9770.718434,-1480.411884,1072.533697
3347.908751,-7624.121203,0.000000,1378.971896
3347.909088,-9696.697840,-444.123565,3830.477490
3347.909425,-12435.459826,-148.041188,2451.505594
3347.909763,-11547.212695,1110.308913,536.266849
3347.910100,-10066.800811,1776.494261,612.876398
3347.910437,-9992.780217,1776.494261,1378.971896
3347.910775,-9844.739029,666.185348,0.000000
3347.911112,-7772.162391,1776.494261,-919.314598
3347.911449,-8734.430116,592.164754,995.924147
3347.911787,-10066.800811,814.226536,919.314598
3347.912124,-11547.212695,1406.391290,-766.095498
3347.912461,-11029.068536,666.185348,-1991.848295
3347.912799,-9178.553681,-592.164754,-1072.533697
3347.913136,-8956.491898,-1036.288319,-229.828649
3347.913473,-7846.182985,-1406.391290,0.000000
3347.913810,-7772.162391,-592.164754,459.657299
3347.914148,-10362.883188,-1554.432478,536.266849
3347.914485,-11251.130318,-1110.308913,-995.924147
3347.914822,-10214.842000,0.000000,-842.705048
3347.915160,-10584.944971,-2146.597232,1302.362347
3347.915497,-10214.842000,-1036.288319,1455.581446
3347.915834,-9178.553681,-1184.329507,229.828649
3347.916172,-9918.759623,-592.164754,1685.410096
3347.916509,-9918.759623,-1332.370696,1915.238745
3347.916846,-11843.295072,-814.226536,995.924147
3347.917184,-11325.150913,-666.185348,153.219100
3347.917521,-10732.986159,-814.226536,229.828649
3347.917858,-10140.821405,-518.144159,76.609550
3347.918196,-8882.471304,-296.082377,-1378.971896
3347.918533,-8660.409521,-296.082377,76.609550
3347.918870,-10881.027347,-1332.370696,383.047749
3347.919208,-11325.150913,-666.185348,-689.485948
3347.919545,-9918.759623,-1184.329507,-1532.190996
3347.919882,-10140.821405,-1776.494261,-153.219100
3347.920220,-10140.821405,-666.185348,-306.438199
3347.920557,-9030.512492,-444.123565,-1302.362347
3347.920894,-8734.430116,-296.082377,229.828649
3347.921232,-10881.027347,-1332.370696,1225.752797
3347.921569,-11103.089130,148.041188,0.000000
3347.921906,-9844.739029,1480.411884,-1455.581446
3347.922244,-10584.944971,0.000000,612.876398
3347.922581,-10066.800811,-148.041188,1225.752797
3347.922918,-9178.553681,1184.329507,536.266849
3347.923256,-8512.368333,1628.453072,2374.896044
3347.923593,-10881.027347,1406.391290,2911.162892
3347.923930,-12805.562797,1110.308913,1838.629195
3347.924268,-11547.212695,3627.009116,-536.266849
3347.924605,-10214.842000,1850.514855,0.000000
3347.924942,-10510.924376,1480.411884,612.876398
3347.925280,-8882.471304,962.267725,-1302.362347
3347.925617,-7328.038826,1036.288319,-919.314598
3347.925954,-9400.615463,148.041188,1455.581446
3347.926292,-10584.944971,444.123565,-919.314598
3347.926629,-10436.903782,222.061783,-1991.848295
3347.926966,-10510.924376,-222.061783,-1072.533697
3347.927304,-9548.656652,-1776.494261,-536.266849
3347.927641,-8734.430116,-2072.576638,-383.047749
3347.927978,-8586.388927,-888.247130,306.438199
3347.928316,-9474.636058,-2294.638420,1915.238745
3347.928653,-11843.295072,-1480.411884,1608.800546
3347.928990,-10807.006753,-962.267725,-383.047749
3347.929328,-10288.862594,-1332.370696,306.438199
3347.929665,-11325.150913,-1554.432478,2068.457845
3347.930002,-10066.800811,-1924.535449,0.000000
3347.930340,-8438.347739,0.000000,842.705048
3347.930677,-10066.800811,-1036.288319,3140.991542
3347.931015,-11843.295072,-296.082377,2374.896044
3347.931352,-11177.109724,222.061783,76.609550
3347.931689,-10658.965565,1110.308913,229.828649
3347.932027,-10732.986159,0.000000,842.705048
3347.932364,-10362.883188,-370.102971,459.657299
3347.932701,-9030.512492,1036.288319,459.657299
3347.933039,-9770.718434,222.061783,1455.581446
3347.933376,-11695.253884,-370.102971,995.924147
3347.933714,-10362.883188,518.144159,-1302.362347
3347.934051,-10436.903782,-666.185348,-995.924147
3347.934388,-9400.615463,-814.226536,-766.095498
3347.934726,-8290.306550,-592.164754,-1378.971896
3347.935063,-8808.450710,-370.102971,-153.219100
3347.935401,-9104.533087,-296.082377,612.876398
3347.935738,-10510.924376,-370.102971,229.828649
3347.936075,-11473.192101,814.226536,-842.705048
3347.936413,-10066.800811,148.041188,-306.438199
3347.936750,-10362.883188,-814.226536,1455.581446
3347.937088,-9992.780217,-370.102971,689.485948
3347.937425,-7920.203579,148.041188,306.438199
3347.937762,-9400.615463,-148.041188,995.924147
3347.938100,-10362.883188,-444.123565,1838.629195
3347.938437,-11695.253884,74.020594,459.657299
3347.938775,-10510.924376,444.123565,-306.438199
3347.939112,-10288.862594,222.061783,-689.485948
3347.939449,-10362.883188,-296.082377,-1378.971896
3347.939787,-8586.388927,-148.041188,-612.876398
3347.940124,-8364.327145,-370.102971,842.705048
3347.940462,-11325.150913,-888.247130,995.924147
3347.940799,-11177.109724,-1776.494261,-1685.410096
3347.941136,-9548.656652,-1480.411884,-2298.286494
3347.941474,-10288.862594,-2220.617826,612.876398
3347.941811,-9992.780217,-2442.679609,306.438199
3347.942148,-9548.656652,-1776.494261,-536.266849
3347.942486,-9918.759623,-1554.432478,612.876398
3347.942823,-10658.965565,-1702.473667,1455.581446
3347.943161,-11399.171507,-1480.411884,459.657299
3347.943498,-11251.130318,0.000000,383.047749
3347.943835,-10436.903782,-740.205942,1838.629195
3347.944173,-10955.047942,-740.205942,1762.019645
3347.944510,-9474.636058,-740.205942,1149.143247
3347.944848,-8660.409521,1110.308913,2298.286494
3347.945185,-9992.780217,444.123565,3217.601092
3347.945522,-11103.089130,1258.350101,612.876398
3347.945860,-10436.903782,2368.659014,-1149.143247
3347.946197,-9992.780217,1406.391290,-383.047749
3347.946535,-9252.574275,814.226536,-383.047749
3347.946872,-8660.409521,740.205942,-919.314598
3347.947209,-7476.080014,444.123565,229.828649
3347.947547,-9770.718434,518.144159,1838.629195
3347.947884,-11251.130318,1406.391290,-459.657299
3347.948222,-10436.903782,518.144159,-1991.848295
3347.948559,-10140.821405,0.000000,-689.485948
3347.948896,-9474.636058,-1184.329507,-766.095498
3347.949234,-8364.327145,-370.102971,-842.705048
3347.949571,-8512.368333,-296.082377,-229.828649
3347.949908,-9992.780217,-962.267725,612.876398
3347.950246,-11917.315666,0.000000,459.657299
3347.950583,-11547.212695,296.082377,-1302.362347
3347.950921,-10214.842000,0.000000,-229.828649
3347.951258,-9770.718434,-962.267725,1302.362347
3347.951595,-10066.800811,-740.205942,1762.019645
3347.951933,-9696.697840,-296.082377,2068.457845
3347.952270,-11251.130318,-666.185348,2374.896044
3347.952608,-11843.295072,-148.041188,1378.971896
3347.952945,-11251.130318,370.102971,-536.266849
3347.953282,-10510.924376,518.144159,0.000000
3347.953620,-9770.718434,-1110.308913,-612.876398
3347.953957,-8290.306550,-666.185348,-1149.143247
3347.954295,-8660.409521,-592.164754,-689.485948
3347.954632,-10732.986159,-666.185348,1532.190996
3347.954969,-11621.233289,-444.123565,76.609550
3347.955307,-10955.047942,-888.247130,-1225.752797
3347.955644,-9622.677246,-1110.308913,-306.438199
3347.955982,-8882.471304,-1850.514855,459.657299
3347.956319,-8882.471304,-1184.329507,612.876398
3347.956656,-8364.327145,-444.123565,0.000000
3347.956994,-9548.656652,-962.267725,919.314598
3347.957331,-11843.295072,-518.144159,1378.971896
3347.957668,-10955.047942,814.226536,-76.609550
3347.958006,-9548.656652,592.164754,459.657299
3347.958343,-10140.821405,370.102971,2298.286494
3347.958681,-9474.636058,740.205942,1915.238745
3347.959018,-9030.512492,1406.391290,1762.019645
3347.959355,-10288.862594,370.102971,3294.210641
3347.959693,-11399.171507,1184.329507,2681.334243
3347.960030,-11843.295072,1480.411884,-153.219100
3347.960368,-10881.027347,2516.700203,-1378.971896
3347.960705,-9252.574275,0.000000,-1455.581446
3347.961042,-8734.430116,-148.041188,-995.924147
3347.961380,-7994.224174,-592.164754,-1149.143247
3347.961717,-8956.491898,-296.082377,229.828649
3347.962055,-10732.986159,0.000000,-229.828649
3347.962392,-11695.253884,-962.267725,-1685.410096
3347.962729,-10362.883188,-740.205942,-1608.800546
3347.963067,-9104.533087,-2220.617826,-383.047749
3347.963404,-9474.636058,-2516.700203,919.314598
3347.963742,-8586.388927,-1998.556043,-766.095498
3347.964079,-9474.636058,-2294.638420,766.095498
3347.964416,-10955.047942,-2368.659014,1991.848295
3347.964754,-11695.253884,-1332.370696,76.609550
3347.965091,-10658.965565,-1036.288319,0.000000
3347.965428,-10288.862594,-1702.473667,842.705048
3347.965766,-9474.636058,-370.102971,1072.533697
3347.966103,-9326.594869,148.041188,383.047749
3347.966441,-9548.656652,592.164754,1532.190996
3347.966778,-11843.295072,-740.205942,2451.505594
3347.967115,-13027.624579,518.144159,995.924147
3347.967453,-11177.109724,1998.556043,-766.095498
3347.967790,-9992.780217,518.144159,-153.219100
3347.968128,-9770.718434,0.000000,0.000000
3347.968465,-7994.224174,148.041188,-1378.971896
3347.968802,-8808.450710,0.000000,383.047749
3347.969140,-10510.924376,-370.102971,766.095498
3347.969477,-11621.233289,-444.123565,-919.314598
3347.969815,-10140.821405,1036.288319,-689.485948
3347.970152,-8808.450710,0.000000,-1072.533697
3347.970489,-8438.347739,-962.267725,1225.752797
3347.970827,-9104.533087,-592.164754,0.000000
3347.971164,-7698.141797,444.123565,459.657299
3347.971502,-10510.924376,0.000000,1225.752797
3347.971839,-11991.336260,-370.102971,229.828649
3347.972176,-11621.233289,888.247130,-1072.533697
3347.972514,-9326.594869,148.041188,306.438199
3347.972851,-8882.471304,0.000000,2374.896044
3347.973189,-8882.471304,148.041188,1378.971896
3347.973526,-8956.491898,1258.350101,306.438199
3347.973863,-10140.821405,296.082377,1225.752797
3347.974201,-12657.521608,0.000000,459.657299
3347.974538,-11325.150913,888.247130,-1685.410096
3347.974875,-9696.697840,666.185348,-612.876398
3347.975213,-9104.533087,-592.164754,689.485948
3347.975550,-9104.533087,-370.102971,-689.485948
3347.975888,-9400.615463,74.020594,-689.485948
3347.976225,-11547.212695,-1110.308913,0.000000
3347.976562,-11399.171507,-2220.617826,-995.924147
3347.976900,-10658.965565,-1110.308913,-1302.362347
3347.977237,-9030.512492,-1850.514855,0.000000
3347.977575,-9326.594869,-2220.617826,1608.800546
3347.977912,-9548.656652,-1628.453072,306.438199
3347.978249,-8808.450710,-1480.411884,0.000000
3347.978587,-10066.800811,-1110.308913,2681.334243
3347.978924,-12361.439231,-1184.329507,2911.162892
3347.979262,-11177.109724,296.082377,229.828649
3347.979599,-9474.636058,444.123565,-383.047749
3347.979936,-9622.677246,0.000000,1608.800546
3347.980274,-8882.471304,0.000000,383.047749
3347.980611,-8142.265362,444.123565,1685.410096
3347.980949,-9622.677246,296.082377,2911.162892
3347.981286,-11917.315666,148.041188,2451.505594
3347.981623,-12139.377449,1480.411884,459.657299
3347.981961,-10066.800811,1998.556043,-919.314598
3347.982298,-9474.636058,666.185348,459.657299
3347.982635,-8660.409521,148.041188,0.000000
3347.982973,-8364.327145,1184.329507,-1072.533697
3347.983310,-9844.739029,296.082377,0.000000
3347.983648,-11473.192101,-296.082377,-1225.752797
3347.983985,-11251.130318,-296.082377,-1532.190996
3347.984322,-9326.594869,0.000000,-1455.581446
3347.984660,-8956.491898,-1184.329507,229.828649
3347.984997,-9474.636058,-1850.514855,612.876398
3347.985335,-8586.388927,-1628.453072,383.047749
3347.985672,-8586.388927,-1184.329507,1149.143247
3347.986009,-12435.459826,-1628.453072,2911.162892
3347.986347,-12287.418637,-296.082377,306.438199
3347.986684,-10436.903782,222.061783,-1072.533697
3347.987022,-9622.677246,-592.164754,459.657299
3347.987359,-8660.409521,-888.247130,153.219100
3347.987696,-8734.430116,-814.226536,0.000000
3347.988034,-9474.636058,-370.102971,306.438199
3347.988371,-11547.212695,-1406.391290,919.314598
3347.988709,-12287.418637,-1184.329507,842.705048
3347.989046,-10584.944971,-444.123565,-612.876398
3347.989383,-9474.636058,-148.041188,536.266849
3347.989721,-9992.780217,-740.205942,306.438199
3347.990058,-9474.636058,-1036.288319,-1072.533697
3347.990395,-9178.553681,-296.082377,76.609550
3347.990733,-11177.109724,-2146.597232,1302.362347
3347.991070,-11325.150913,-962.267725,229.828649
3347.991408,-10140.821405,-444.123565,-1608.800546
3347.991745,-9918.759623,-518.144159,0.000000
3347.992082,-9474.636058,-1628.453072,-383.047749
3347.992420,-8438.347739,-148.041188,-995.924147
3347.992757,-7846.182985,296.082377,459.657299
3347.993095,-10658.965565,-592.164754,1762.019645
3347.993432,-12213.398043,592.164754,1608.800546
3347.993769,-10658.965565,2812.782580,383.047749
3347.994107,-10288.862594,740.205942,2145.067394
3347.994444,-9696.697840,666.185348,2068.457845
3347.994782,-9178.553681,1110.308913,1072.533697
3347.995119,-8512.368333,2220.617826,689.485948
3347.995456,-9844.739029,0.000000,1455.581446
3347.995794,-10955.047942,1406.391290,229.828649
3347.996131,-10584.944971,1332.370696,-2374.896044
3347.996469,-9474.636058,962.267725,-1915.238745
3347.996806,-9400.615463,-444.123565,-995.924147
