#time,accel_x,accel_y,accel_z
3357.745204,-9696.697840,-1332.370696,919.314598
3357.745542,-10362.883188,-1776.494261,1991.848295
3357.745880,-10807.006753,-296.082377,1762.019645
3357.746217,-9992.780217,-518.144159,459.657299
3357.746555,-10807.006753,0.000000,1225.752797
3357.746893,-11251.130318,-370.102971,612.876398
3357.747230,-10658.965565,-370.102971,536.266849
3357.747568,-10066.800811,296.082377,766.095498
3357.747906,-9696.697840,-296.082377,536.266849
3357.748243,-10658.965565,222.061783,459.657299
3357.748581,-10510.924376,-888.247130,306.438199
3357.748919,-10362.883188,-592.164754,842.705048
3357.749256,-9178.553681,-444.123565,0.000000
3357.749594,-9548.656652,-962.267725,306.438199
3357.749932,-10066.800811,-1480.411884,612.876398
3357.750269,-9992.780217,-2146.597232,0.000000
3357.750607,-9548.656652,-1628.453072,612.876398
3357.750945,-9474.636058,-1628.453072,919.314598
3357.751282,-10140.821405,-1184.329507,1378.971896
3357.751620,-10066.800811,-2368.659014,919.314598
3357.751958,-9844.739029,-1924.535449,1378.971896
3357.752295,-8956.491898,-1110.308913,2145.067394
3357.752633,-9252.574275,-444.123565,3217.601092
3357.752971,-10066.800811,-518.144159,3064.381992
3357.753308,-10807.006753,-888.247130,2604.724693
3357.753646,-11177.109724,0.000000,3294.210641
3357.753984,-9918.759623,-74.020594,3983.696590
3357.754321,-9770.718434,222.061783,5209.449386
3357.754659,-11029.068536,-148.041188,4596.572988
3357.754997,-10732.986159,-666.185348,3447.429741
3357.755334,-10140.821405,-444.123565,2451.505594
3357.755672,-9770.718434,-814.226536,2451.505594
3357.756010,-9474.636058,-1480.411884,2757.943793
3357.756347,-9844.739029,-1776.494261,1149.143247
3357.756685,-9474.636058,-2294.638420,0.000000
3357.757023,-9548.656652,-2442.679609,-536.266849
3357.757360,-8956.491898,-3923.091493,76.609550
3357.757698,-9178.553681,-3923.091493,1225.752797
3357.758036,-9252.574275,-4071.132681,1685.410096
3357.758373,-10288.862594,-3849.070898,1762.019645
3357.758711,-10658.965565,-4293.194464,1455.581446
3357.759049,-9770.718434,-5033.400406,2374.896044
3357.759386,-10066.800811,-4737.318029,3524.039291
3357.759724,-10584.944971,-3997.112087,3677.258390
3357.760062,-10732.986159,-3034.844362,2757.943793
3357.760399,-11399.171507,-3256.906145,1991.848295
3357.760737,-10732.986159,-3330.926739,1455.581446
3357.761075,-9622.677246,-4219.173869,1608.800546
3357.761412,-9474.636058,-3923.091493,3524.039291
3357.761750,-9622.677246,-3330.926739,3447.429741
3357.762088,-11177.109724,-2664.741391,3907.087040
3357.762425,-11325.150913,-296.082377,2221.676944
3357.762763,-10732.986159,-1184.329507,1072.533697
3357.763101,-10214.842000,-1258.350101,153.219100
3357.763438,-9400.615463,-2886.803174,459.657299
3357.763776,-9770.718434,-2516.700203,2451.505594
3357.764114,-8882.471304,-3478.967927,2374.896044
3357.764451,-9918.759623,-3256.906145,1378.971896
3357.764789,-10066.800811,-3552.988522,1915.238745
3357.765127,-9030.512492,-3404.947333,2834.553343
3357.765464,-9252.574275,-2442.679609,3983.696590
3357.765802,-10362.883188,-2294.638420,4290.134789
3357.766140,-10436.903782,-814.226536,3447.429741
3357.766477,-10807.006753,74.020594,2528.115143
3357.766815,-10214.842000,-740.205942,1915.238745
3357.767152,-10510.924376,-1332.370696,2911.162892
3357.767490,-10214.842000,-2516.700203,3140.991542
3357.767828,-7994.224174,-1998.556043,3830.477490
3357.768165,-7476.080014,-888.247130,4213.525239
3357.768503,-10066.800811,-1850.514855,4673.182538
3357.768841,-11325.150913,-1998.556043,4136.915689
3357.769178,-11251.130318,-222.061783,2604.724693
3357.769516,-10436.903782,2072.576638,1762.019645
3357.769854,-10881.027347,1998.556043,0.000000
3357.770191,-10658.965565,-222.061783,-766.095498
3357.770529,-8956.491898,-2664.741391,-1225.752797
3357.770867,-7476.080014,-4219.173869,1608.800546
3357.771204,-8586.388927,-4219.173869,3907.087040
3357.771542,-11473.192101,-4441.235652,3217.601092
3357.771880,-11399.171507,-4219.173869,229.828649
3357.772217,-8808.450710,-3108.864956,-1302.362347
3357.772555,-9400.615463,-2368.659014,2068.457845
3357.772893,-10807.006753,-3256.906145,3753.867940
3357.773230,-10436.903782,-1924.535449,1762.019645
3357.773568,-10436.903782,-2146.597232,1838.629195
3357.773906,-11695.253884,-1554.432478,1991.848295
3357.774243,-12361.439231,-2516.700203,2145.067394
3357.774581,-10807.006753,-2886.803174,2604.724693
3357.774919,-8438.347739,-2886.803174,2298.286494
3357.775256,-8290.306550,-4071.132681,3447.429741
3357.775594,-8882.471304,-2220.617826,5132.839837
3357.775932,-9622.677246,-1332.370696,5286.058936
3357.776269,-11917.315666,444.123565,3983.696590
3357.776607,-11991.336260,1406.391290,1072.533697
3357.776945,-11029.068536,740.205942,76.609550
3357.777282,-10658.965565,-74.020594,1991.848295
3357.777620,-9326.594869,-2220.617826,2528.115143
3357.777958,-8216.285956,-1258.350101,1762.019645
3357.778295,-8882.471304,-2220.617826,842.705048
3357.778633,-9548.656652,-3256.906145,1762.019645
3357.778971,-8808.450710,-4959.379811,2451.505594
3357.779308,-8438.347739,-4293.194464,5209.449386
3357.779646,-9252.574275,-1480.411884,5056.230287
3357.779984,-9918.759623,-444.123565,2298.286494
3357.780321,-12139.377449,296.082377,229.828649
3357.780659,-11251.130318,-1554.432478,76.609550
3357.780997,-10881.027347,-2812.782580,3753.867940
3357.781334,-9548.656652,-2294.638420,4673.182538
3357.781672,-9400.615463,-3108.864956,4136.915689
3357.782010,-9992.780217,-3256.906145,3600.648841
3357.782347,-9474.636058,-5403.503377,2681.334243
3357.782685,-10140.821405,-5477.523971,4903.011187
3357.783023,-9474.636058,-2220.617826,4290.134789
3357.783360,-10214.842000,-296.082377,3447.429741
3357.783698,-12583.501014,74.020594,919.314598
3357.784036,-12213.398043,-1628.453072,-1149.143247
3357.784373,-10955.047942,-3627.009116,153.219100
3357.784711,-9400.615463,-2738.761985,2681.334243
3357.785049,-7402.059420,-2664.741391,1685.410096
3357.785386,-11251.130318,-4293.194464,1915.238745
3357.785724,-11325.150913,-6587.832884,153.219100
3357.786062,-7328.038826,-5699.585753,-229.828649
3357.786399,-7994.224174,-4959.379811,3907.087040
3357.786737,-8660.409521,-2960.823768,3753.867940
3357.787075,-13101.645173,-2664.741391,2221.676944
3357.787412,-10807.006753,-1332.370696,0.000000
3357.787750,-8290.306550,-1258.350101,1072.533697
3357.788088,-10584.944971,-2664.741391,6435.202183
3357.788425,-13545.768739,-2886.803174,4903.011187
3357.788763,-9622.677246,-2220.617826,1302.362347
3357.789101,-7402.059420,-1258.350101,1225.752797
3357.789438,-8068.244768,-2146.597232,4903.011187
3357.789776,-10436.903782,-2368.659014,5209.449386
3357.790114,-9548.656652,-370.102971,1991.848295
3357.790451,-8512.368333,1998.556043,1532.190996
3357.790789,-12287.418637,1850.514855,1991.848295
3357.791127,-14582.057057,1406.391290,612.876398
3357.791464,-10584.944971,1184.329507,-919.314598
3357.791802,-6883.915261,518.144159,-842.705048
3357.792140,-9104.533087,-888.247130,919.314598
3357.792477,-11103.089130,-1924.535449,-229.828649
3357.792815,-8216.285956,-2812.782580,0.000000
3357.793153,-7105.977043,-3256.906145,1991.848295
3357.793490,-10066.800811,-2886.803174,2757.943793
3357.793828,-12139.377449,-1406.391290,306.438199
3357.794166,-10362.883188,-1332.370696,-383.047749
3357.794503,-9770.718434,-962.267725,1762.019645
3357.794841,-9918.759623,-2146.597232,766.095498
3357.795179,-10288.862594,-1776.494261,2068.457845
3357.795516,-10955.047942,-2294.638420,3370.820191
3357.795854,-11251.130318,-2886.803174,2374.896044
3357.796192,-11177.109724,-2960.823768,919.314598
3357.796529,-7920.203579,-1480.411884,1072.533697
3357.796867,-7550.100608,-1628.453072,2451.505594
3357.797205,-10510.924376,-1258.350101,1302.362347
3357.797542,-10732.986159,-814.226536,-842.705048
3357.797880,-10066.800811,148.041188,-229.828649
3357.798218,-11843.295072,370.102971,1838.629195
3357.798555,-11473.192101,962.267725,-919.314598
3357.798893,-10510.924376,1702.473667,-1991.848295
3357.799231,-10584.944971,1110.308913,-1991.848295
3357.799568,-9030.512492,-444.123565,-2528.115143
3357.799906,-8956.491898,-1702.473667,-153.219100
3357.800243,-9030.512492,-2294.638420,1149.143247
3357.800581,-9252.574275,-1258.350101,1072.533697
3357.800918,-10732.986159,74.020594,0.000000
3357.801256,-10732.986159,1110.308913,-306.438199
3357.801594,-11843.295072,-592.164754,-383.047749
3357.801931,-9548.656652,222.061783,229.828649
3357.802269,-8734.430116,1258.350101,1608.800546
3357.802606,-10955.047942,1850.514855,2374.896044
3357.802944,-11399.171507,1258.350101,229.828649
3357.803281,-9844.739029,592.164754,-842.705048
3357.803619,-8734.430116,-74.020594,1149.143247
3357.803956,-7476.080014,0.000000,1762.019645
3357.804294,-9548.656652,-666.185348,1225.752797
3357.804631,-8956.491898,1702.473667,919.314598
3357.804969,-11251.130318,518.144159,-153.219100
3357.805306,-13101.645173,962.267725,-612.876398
3357.805644,-9696.697840,1628.453072,-2068.457845
3357.805981,-9474.636058,666.185348,-383.047749
3357.806319,-9844.739029,-814.226536,-995.924147
3357.806656,-8364.327145,-1702.473667,-1532.190996
3357.806994,-9844.739029,-1628.453072,153.219100
3357.807331,-10436.903782,-2664.741391,153.219100
3357.807669,-10732.986159,-2220.617826,-1455.581446
3357.808006,-10955.047942,-1480.411884,-459.657299
3357.808344,-10066.800811,-2442.679609,0.000000
3357.808682,-9474.636058,-2664.741391,1149.143247
3357.809019,-9696.697840,-1406.391290,2451.505594
3357.809357,-10807.006753,-888.247130,1608.800546
3357.809694,-12657.521608,-740.205942,612.876398
3357.810032,-11917.315666,-1110.308913,1072.533697
3357.810369,-9992.780217,-1628.453072,1838.629195
3357.810707,-9326.594869,-2442.679609,2911.162892
3357.811044,-8142.265362,-2590.720797,2604.724693
3357.811382,-7772.162391,-1480.411884,3524.039291
3357.811719,-9844.739029,-1258.350101,2451.505594
3357.812057,-10881.027347,0.000000,229.828649
3357.812394,-10881.027347,1554.432478,-766.095498
3357.812732,-10436.903782,1184.329507,-766.095498
3357.813069,-10510.924376,1702.473667,-995.924147
3357.813407,-9474.636058,0.000000,-1072.533697
3357.813744,-8882.471304,222.061783,0.000000
3357.814082,-8956.491898,-1702.473667,-612.876398
3357.814419,-9918.759623,-1850.514855,-1072.533697
3357.814757,-8956.491898,-1110.308913,-536.266849
3357.815094,-9548.656652,-1480.411884,459.657299
3357.815432,-9400.615463,-1258.350101,383.047749
3357.815770,-9252.574275,0.000000,842.705048
3357.816107,-10732.986159,0.000000,2451.505594
3357.816445,-12065.356855,1628.453072,612.876398
3357.816782,-11843.295072,1480.411884,-536.266849
3357.817120,-12361.439231,1480.411884,153.219100
3357.817457,-10807.006753,-592.164754,-459.657299
3357.817795,-7772.162391,-1258.350101,229.828649
3357.818132,-7920.203579,-1036.288319,2987.772442
3357.818470,-8364.327145,-1776.494261,1378.971896
3357.818807,-10362.883188,0.000000,-766.095498
3357.819145,-10955.047942,1110.308913,-1532.190996
3357.819482,-10955.047942,814.226536,-2374.896044
3357.819820,-11029.068536,-222.061783,-2068.457845
3357.820157,-9400.615463,-74.020594,-1149.143247
3357.820495,-8808.450710,-148.041188,842.705048
3357.820832,-11177.109724,-1628.453072,229.828649
3357.821170,-10732.986159,-1332.370696,-2604.724693
3357.821507,-9474.636058,-1776.494261,-1455.581446
3357.821845,-9844.739029,-2146.597232,0.000000
3357.822182,-9474.636058,-2886.803174,-383.047749
3357.822520,-8438.347739,-888.247130,612.876398
3357.822858,-10066.800811,-1554.432478,1455.581446
3357.823195,-11843.295072,-148.041188,536.266849
3357.823533,-11103.089130,592.164754,0.000000
3357.823870,-11251.130318,2294.638420,919.314598
3357.824208,-10881.027347,518.144159,1532.190996
3357.824545,-9178.553681,814.226536,1762.019645
3357.824883,-8956.491898,296.082377,4060.306139
3357.825220,-11029.068536,0.000000,4136.915689
3357.825558,-10362.883188,1036.288319,1378.971896
3357.825895,-9474.636058,2664.741391,153.219100
3357.826233,-9770.718434,2072.576638,76.609550
3357.826570,-9918.759623,1480.411884,-612.876398
3357.826908,-9030.512492,1924.535449,-612.876398
3357.827245,-8068.244768,1184.329507,0.000000
3357.827583,-10955.047942,222.061783,-766.095498
3357.827920,-10658.965565,444.123565,-1838.629195
3357.828258,-9474.636058,962.267725,-1838.629195
3357.828595,-9252.574275,-1406.391290,0.000000
3357.828933,-8956.491898,-1850.514855,459.657299
3357.829270,-8364.327145,-1628.453072,766.095498
3357.829608,-9992.780217,-2146.597232,1915.238745
3357.829946,-11103.089130,-1998.556043,76.609550
3357.830283,-10510.924376,-1332.370696,-1608.800546
3357.830621,-10214.842000,-1036.288319,-153.219100
3357.830958,-10214.842000,-1258.350101,459.657299
3357.831296,-9326.594869,-1332.370696,1225.752797
3357.831633,-9992.780217,-518.144159,2221.676944
3357.831971,-11843.295072,-1776.494261,2451.505594
3357.832308,-12065.356855,-1480.411884,153.219100
3357.832646,-10807.006753,444.123565,306.438199
3357.832983,-9770.718434,-148.041188,-689.485948
3357.833321,-9548.656652,-1628.453072,-1608.800546
3357.833658,-8586.388927,-888.247130,-1378.971896
3357.833996,-9326.594869,-1036.288319,536.266849
3357.834333,-10955.047942,-740.205942,-459.657299
3357.834671,-10881.027347,-962.267725,-1762.019645
3357.835008,-11843.295072,814.226536,-536.266849
3357.835346,-10584.944971,-1184.329507,-1608.800546
3357.835683,-9252.574275,-1776.494261,-1072.533697
3357.836021,-8290.306550,-1110.308913,1685.410096
3357.836358,-7476.080014,-2368.659014,1072.533697
3357.836696,-10732.986159,-1702.473667,1455.581446
3357.837033,-11547.212695,-296.082377,306.438199
3357.837371,-10066.800811,148.041188,76.609550
3357.837709,-9844.739029,74.020594,1225.752797
3357.838046,-8956.491898,222.061783,1838.629195
3357.838384,-9770.718434,1702.473667,2681.334243
3357.838721,-10584.944971,1184.329507,2451.505594
3357.839059,-10732.986159,888.247130,383.047749
3357.839396,-9992.780217,2146.597232,1072.533697
3357.839734,-10807.006753,1036.288319,1149.143247
3357.840071,-9770.718434,-370.102971,76.609550
3357.840409,-8290.306550,74.020594,842.705048
3357.840746,-8438.347739,-370.102971,2528.115143
3357.841084,-10732.986159,-296.082377,1455.581446
3357.841421,-11399.171507,0.000000,-766.095498
3357.841759,-10510.924376,74.020594,-1072.533697
3357.842096,-10510.924376,-1110.308913,-1302.362347
3357.842434,-9030.512492,-1702.473667,-2145.067394
3357.842771,-8364.327145,-1554.432478,995.924147
3357.843109,-9178.553681,-2886.803174,689.485948
3357.843446,-10288.862594,-2442.679609,-689.485948
3357.843784,-11325.150913,-296.082377,-1608.800546
3357.844121,-11251.130318,-1332.370696,-612.876398
3357.844459,-10658.965565,-2886.803174,153.219100
3357.844797,-9178.553681,-3256.906145,766.095498
3357.845134,-8734.430116,-1184.329507,4136.915689
3357.845472,-10881.027347,-962.267725,3140.991542
3357.845809,-12287.418637,-1184.329507,689.485948
3357.846147,-10955.047942,1258.350101,-842.705048
3357.846484,-11177.109724,296.082377,0.000000
3357.846822,-9770.718434,592.164754,-766.095498
3357.847159,-8290.306550,1480.411884,-229.828649
3357.847497,-9548.656652,1332.370696,229.828649
3357.847834,-10510.924376,1184.329507,-1302.362347
3357.848172,-10807.006753,1702.473667,-2221.676944
3357.848509,-11177.109724,2442.679609,-1072.533697
3357.848847,-10362.883188,1036.288319,-1149.143247
3357.849184,-8734.430116,1184.329507,-2221.676944
3357.849522,-8364.327145,814.226536,306.438199
3357.849859,-9252.574275,370.102971,1455.581446
3357.850197,-10510.924376,148.041188,0.000000
3357.850534,-10955.047942,2516.700203,-689.485948
3357.850872,-10881.027347,1776.494261,76.609550
3357.851209,-9622.677246,0.000000,-766.095498
3357.851547,-7920.203579,0.000000,842.705048
3357.851885,-7920.203579,-148.041188,3524.039291
3357.852222,-9474.636058,592.164754,2451.505594
3357.852560,-11029.068536,1184.329507,153.219100
3357.852897,-11621.233289,1776.494261,995.924147
3357.853235,-10732.986159,222.061783,766.095498
3357.853572,-9474.636058,-370.102971,536.266849
3357.853910,-8808.450710,666.185348,1838.629195
3357.854247,-8808.450710,-1110.308913,1991.848295
3357.854585,-9104.533087,-962.267725,919.314598
3357.854922,-10140.821405,-370.102971,-766.095498
3357.855260,-11177.109724,0.000000,306.438199
3357.855597,-11695.253884,-444.123565,-1225.752797
3357.855935,-10436.903782,-1406.391290,-2604.724693
3357.856272,-8512.368333,-1036.288319,0.000000
3357.856610,-9696.697840,-2294.638420,383.047749
3357.856947,-10807.006753,-2368.659014,-76.609550
3357.857285,-10658.965565,-1480.411884,0.000000
3357.857622,-11547.212695,-1480.411884,919.314598
3357.857960,-11325.150913,-1998.556043,153.219100
3357.858297,-10140.821405,-2220.617826,1225.752797
3357.858635,-9030.512492,-1998.556043,3064.381992
3357.858973,-9548.656652,-2368.659014,2911.162892
3357.859310,-10807.006753,-666.185348,1838.629195
3357.859648,-10732.986159,666.185348,1532.190996
3357.859985,-10732.986159,0.000000,919.314598
3357.860323,-10584.944971,444.123565,306.438199
3357.860660,-9696.697840,888.247130,1532.190996
3357.860998,-9474.636058,888.247130,2451.505594
3357.861335,-9030.512492,592.164754,1302.362347
3357.861673,-9030.512492,1406.391290,-536.266849
3357.862010,-9178.553681,1258.350101,-383.047749
3357.862348,-10658.965565,0.000000,0.000000
3357.862685,-9696.697840,148.041188,-842.705048
3357.863023,-7846.182985,0.000000,-536.266849
3357.863360,-8734.430116,444.123565,536.266849
3357.863698,-10362.883188,296.082377,-1072.533697
3357.864035,-10362.883188,1036.288319,-1532.190996
3357.864373,-11473.192101,-370.102971,-919.314598
3357.864710,-11029.068536,-592.164754,-995.924147
3357.865048,-8808.450710,-814.226536,-459.657299
3357.865385,-8586.388927,-1258.350101,995.924147
3357.865723,-10140.821405,-1924.535449,919.314598
3357.866061,-10658.965565,-2294.638420,-383.047749
3357.866398,-10288.862594,-592.164754,842.705048
3357.866736,-11325.150913,-888.247130,536.266849
3357.867073,-10658.965565,-370.102971,229.828649
3357.867411,-9696.697840,74.020594,689.485948
3357.867748,-10658.965565,-962.267725,842.705048
3357.868086,-10955.047942,-962.267725,229.828649
3357.868423,-9622.677246,-444.123565,-229.828649
3357.868761,-10288.862594,0.000000,459.657299
3357.869098,-10658.965565,-222.061783,-766.095498
3357.869436,-10066.800811,-1110.308913,-1072.533697
3357.869773,-9104.533087,-962.267725,-229.828649
3357.870111,-9474.636058,-1480.411884,0.000000
3357.870448,-9918.759623,-296.082377,-766.095498
3357.870786,-9844.739029,740.205942,-612.876398
3357.871123,-10584.944971,814.226536,-612.876398
3357.871461,-9992.780217,888.247130,-689.485948
3357.871798,-9474.636058,666.185348,153.219100
3357.872136,-10436.903782,0.000000,1685.410096
3357.872473,-9918.759623,444.123565,1149.143247
3357.872811,-9104.533087,296.082377,1302.362347
3357.873149,-9770.718434,1110.308913,3447.429741
3357.873486,-10288.862594,740.205942,2911.162892
3357.873824,-10732.986159,1628.453072,1991.848295
3357.874161,-9252.574275,1998.556043,2221.676944
3357.874499,-9992.780217,1850.514855,3370.820191
3357.874836,-11325.150913,2072.576638,2145.067394
3357.875174,-10658.965565,3404.947333,766.095498
3357.875511,-10584.944971,2442.679609,689.485948
3357.875849,-9918.759623,2368.659014,-1072.533697
3357.876186,-9474.636058,1036.288319,-1072.533697
3357.876524,-9770.718434,592.164754,612.876398
3357.876861,-8956.491898,-1332.370696,-383.047749
3357.877199,-9104.533087,-592.164754,-2221.676944
3357.877536,-9474.636058,518.144159,-2757.943793
3357.877874,-9918.759623,-1258.350101,-3064.381992
3357.878211,-9696.697840,-1258.350101,-2451.505594
3357.878549,-8586.388927,-2664.741391,-1378.971896
3357.878886,-9770.718434,-2146.597232,1532.190996
3357.879224,-11399.171507,-2220.617826,1149.143247
3357.879561,-11547.212695,-1924.535449,-306.438199
3357.879899,-10732.986159,-1702.473667,459.657299
3357.880236,-11695.253884,-3404.947333,919.314598
3357.880574,-10955.047942,-2590.720797,842.705048
3357.880912,-9030.512492,-1998.556043,1378.971896
3357.881249,-9622.677246,-1184.329507,1685.410096
3357.881587,-11399.171507,-962.267725,76.609550
3357.881924,-10955.047942,0.000000,-1149.143247
3357.882262,-10362.883188,592.164754,-306.438199
3357.882599,-10955.047942,666.185348,0.000000
3357.882937,-9992.780217,518.144159,-536.266849
3357.883274,-9326.594869,1036.288319,0.000000
3357.883612,-10288.862594,-666.185348,612.876398
3357.883949,-10214.842000,0.000000,-383.047749
3357.884287,-9474.636058,148.041188,842.705048
3357.884624,-9622.677246,296.082377,536.266849
3357.884962,-9622.677246,148.041188,-766.095498
3357.885299,-8512.368333,0.000000,0.000000
3357.885637,-9326.594869,-148.041188,919.314598
3357.885974,-9844.739029,-592.164754,919.314598
3357.886312,-10066.800811,1036.288319,383.047749
3357.886649,-9252.574275,1258.350101,842.705048
3357.886987,-9844.739029,0.000000,766.095498
3357.887324,-9622.677246,-962.267725,1532.190996
3357.887662,-8216.285956,1184.329507,2528.115143
3357.888000,-10288.862594,-1036.288319,3370.820191
3357.888337,-11769.274478,148.041188,2068.457845
3357.888675,-9622.677246,370.102971,459.657299
3357.889012,-10732.986159,222.061783,1532.190996
3357.889350,-11029.068536,-592.164754,689.485948
3357.889687,-9992.780217,-370.102971,-1455.581446
3357.890025,-9548.656652,1110.308913,0.000000
3357.890362,-9844.739029,-1110.308913,-689.485948
3357.890700,-10140.821405,148.041188,-1685.410096
3357.891037,-10807.006753,-222.061783,-1685.410096
3357.891375,-10584.944971,-1998.556043,-1072.533697
3357.891712,-10510.924376,-1776.494261,-1762.019645
3357.892050,-9770.718434,-592.164754,-919.314598
3357.892387,-10732.986159,-1184.329507,-306.438199
3357.892725,-10510.924376,-2220.617826,-842.705048
3357.893062,-10584.944971,-2368.659014,-536.266849
3357.893400,-10288.862594,-1184.329507,229.828649
3357.893737,-10658.965565,-1184.329507,0.000000
3357.894075,-9548.656652,-592.164754,0.000000
3357.894412,-9252.574275,-296.082377,612.876398
3357.894750,-9326.594869,-962.267725,306.438199
3357.895088,-9918.759623,592.164754,536.266849
3357.895425,-10510.924376,1702.473667,1838.629195
3357.895763,-10436.903782,1998.556043,689.485948
3357.896100,-10066.800811,1776.494261,-383.047749
3357.896438,-10288.862594,2368.659014,76.609550
3357.896775,-8734.430116,2368.659014,1608.800546
3357.897113,-9326.594869,1776.494261,1532.190996
3357.897450,-9622.677246,2294.638420,-229.828649
3357.897788,-9030.512492,3330.926739,0.000000
3357.898125,-10584.944971,1406.391290,0.000000
3357.898462,-10362.883188,222.061783,-383.047749
3357.898800,-8808.450710,1554.432478,0.000000
3357.899137,-8660.409521,962.267725,612.876398
3357.899474,-9548.656652,518.144159,-1072.533697
3357.899811,-10140.821405,296.082377,-2145.067394
3357.900149,-10066.800811,370.102971,-766.095498
3357.900486,-9770.718434,-740.205942,-689.485948
3357.900823,-9622.677246,-1554.432478,76.609550
3357.901160,-8956.491898,-1184.329507,2298.286494
3357.901498,-10510.924376,-2516.700203,3217.601092
3357.901835,-10732.986159,-1332.370696,1991.848295
3357.902172,-10584.944971,-814.226536,1838.629195
3357.902510,-11769.274478,-1480.411884,1455.581446
3357.902847,-11177.109724,-1924.535449,689.485948
3357.903184,-9474.636058,-1406.391290,536.266849
3357.903521,-8586.388927,-962.267725,1838.629195
3357.903859,-10288.862594,-740.205942,383.047749
3357.904196,-11621.233289,-962.267725,-1072.533697
3357.904533,-10807.006753,0.000000,-2374.896044
3357.904871,-10510.924376,-1924.535449,-2298.286494
3357.905208,-11029.068536,-2072.576638,-1149.143247
3357.905545,-8216.285956,-1480.411884,-383.047749
3357.905882,-8586.388927,-2442.679609,919.314598
3357.906220,-10584.944971,-2590.720797,536.266849
3357.906557,-10658.965565,-1628.453072,-689.485948
3357.906894,-10510.924376,-1258.350101,766.095498
3357.907231,-11251.130318,-1184.329507,1608.800546
3357.907569,-9770.718434,-1110.308913,229.828649
3357.907906,-9474.636058,0.000000,1608.800546
3357.908243,-10214.842000,-296.082377,1532.190996
3357.908581,-9844.739029,0.000000,153.219100
3357.908918,-9696.697840,1036.288319,842.705048
3357.909255,-10288.862594,666.185348,1762.019645
3357.909592,-9918.759623,296.082377,1762.019645
3357.909930,-8882.471304,1702.473667,1455.581446
3357.910267,-8290.306550,1702.473667,2451.505594
3357.910604,-9844.739029,1628.453072,1532.190996
3357.910942,-11251.130318,1554.432478,-153.219100
3357.911279,-10807.006753,2146.597232,-766.095498
3357.911616,-10436.903782,740.205942,-1225.752797
3357.911953,-9252.574275,0.000000,-1532.190996
3357.912291,-7772.162391,296.082377,-459.657299
3357.912628,-8956.491898,-1110.308913,-383.047749
3357.912965,-10140.821405,-1184.329507,-1838.629195
3357.913302,-10066.800811,-1258.350101,-2757.943793
3357.913640,-9992.780217,-1258.350101,-1378.971896
3357.913977,-10436.903782,-2294.638420,-459.657299
3357.914314,-9622.677246,-2368.659014,-1072.533697
3357.914652,-8882.471304,-1850.514855,842.705048
3357.914989,-10140.821405,-2368.659014,1455.581446
3357.915326,-12139.377449,-2368.659014,919.314598
3357.915663,-11325.150913,-1332.370696,383.047749
3357.916001,-10732.986159,-962.267725,306.438199
3357.916338,-11769.274478,-666.185348,919.314598
3357.916675,-9400.615463,-518.144159,0.000000
3357.917013,-9400.615463,-370.102971,1762.019645
3357.917350,-10066.800811,296.082377,1149.143247
3357.917687,-10140.821405,888.247130,-995.924147
3357.918024,-10881.027347,1258.350101,0.000000
3357.918362,-11029.068536,222.061783,0.000000
3357.918699,-9918.759623,296.082377,1072.533697
3357.919036,-9474.636058,888.247130,2145.067394
3357.919373,-9326.594869,1110.308913,1302.362347
3357.919711,-10436.903782,962.267725,-689.485948
3357.920048,-11103.089130,814.226536,-1532.190996
3357.920385,-9918.759623,1184.329507,-1302.362347
3357.920723,-9400.615463,-148.041188,-766.095498
3357.921060,-8290.306550,-1110.308913,766.095498
3357.921397,-7846.182985,444.123565,2681.334243
3357.921734,-10881.027347,518.144159,2221.676944
3357.922072,-10955.047942,740.205942,612.876398
3357.922409,-9918.759623,1480.411884,229.828649
3357.922746,-10436.903782,1184.329507,2451.505594
3357.923084,-10732.986159,962.267725,2528.115143
3357.923421,-9474.636058,1110.308913,1991.848295
3357.923758,-10362.883188,814.226536,1608.800546
3357.924095,-10732.986159,222.061783,842.705048
3357.924433,-10214.842000,222.061783,-459.657299
3357.924770,-9770.718434,1110.308913,0.000000
3357.925107,-10214.842000,-592.164754,-229.828649
3357.925444,-9918.759623,-666.185348,-766.095498
3357.925782,-9030.512492,-296.082377,-76.609550
3357.926119,-9622.677246,-888.247130,0.000000
3357.926456,-10881.027347,-740.205942,-1225.752797
3357.926794,-10807.006753,-1702.473667,-3140.991542
3357.927131,-10658.965565,-1776.494261,-2298.286494
3357.927468,-9844.739029,-3034.844362,-1378.971896
3357.927805,-9104.533087,-3404.947333,-919.314598
3357.928143,-9178.553681,-2886.803174,229.828649
3357.928480,-10214.842000,-3627.009116,0.000000
3357.928817,-11177.109724,-3256.906145,0.000000
3357.929154,-10288.862594,-1702.473667,-306.438199
3357.929492,-10732.986159,-2368.659014,842.705048
3357.929829,-10362.883188,-2146.597232,1149.143247
3357.930166,-9252.574275,-1998.556043,1685.410096
3357.930504,-10214.842000,-370.102971,3524.039291
3357.930841,-11325.150913,-222.061783,2757.943793
3357.931178,-10584.944971,592.164754,0.000000
3357.931515,-10732.986159,1036.288319,459.657299
3357.931853,-10955.047942,518.144159,1685.410096
3357.932190,-9844.739029,0.000000,1149.143247
3357.932527,-8290.306550,888.247130,1838.629195
3357.932865,-9178.553681,1110.308913,1532.190996
3357.933202,-10436.903782,1702.473667,-1378.971896
3357.933539,-10510.924376,666.185348,-2528.115143
3357.933876,-9548.656652,814.226536,-1762.019645
3357.934214,-8438.347739,-814.226536,-842.705048
3357.934551,-7846.182985,-740.205942,-612.876398
3357.934888,-8216.285956,-444.123565,1378.971896
3357.935225,-10066.800811,-296.082377,1838.629195
3357.935563,-11325.150913,-592.164754,-153.219100
3357.935900,-10510.924376,444.123565,-306.438199
3357.936237,-9918.759623,-888.247130,76.609550
3357.936575,-9992.780217,-1406.391290,536.266849
3357.936912,-8660.409521,-1776.494261,229.828649
3357.937249,-8660.409521,-1258.350101,2221.676944
3357.937586,-10436.903782,-592.164754,1838.629195
3357.937924,-11251.130318,-814.226536,-306.438199
3357.938261,-11547.212695,1184.329507,306.438199
3357.938598,-12065.356855,-444.123565,-76.609550
3357.938936,-10584.944971,-592.164754,-689.485948
3357.939273,-8956.491898,0.000000,842.705048
3357.939610,-9622.677246,-1924.535449,1149.143247
3357.939947,-11103.089130,-1110.308913,0.000000
3357.940285,-11251.130318,74.020594,-2298.286494
3357.940622,-11177.109724,444.123565,-1685.410096
3357.940959,-10807.006753,-740.205942,-2298.286494
3357.941296,-9326.594869,-1036.288319,-1991.848295
3357.941634,-8290.306550,-1702.473667,306.438199
3357.941971,-9844.739029,-2294.638420,1225.752797
3357.942308,-10807.006753,-962.267725,689.485948
3357.942646,-10436.903782,148.041188,383.047749
3357.942983,-11177.109724,-740.205942,0.000000
3357.943320,-10658.965565,-740.205942,0.000000
3357.943657,-8882.471304,0.000000,995.924147
3357.943995,-8364.327145,0.000000,2757.943793
3357.944332,-9178.553681,444.123565,2451.505594
3357.944669,-10584.944971,2072.576638,153.219100
3357.945007,-11103.089130,3330.926739,-306.438199
3357.945344,-9844.739029,1776.494261,-229.828649
3357.945681,-8882.471304,1184.329507,766.095498
3357.946018,-8068.244768,1850.514855,2604.724693
3357.946356,-9474.636058,962.267725,2451.505594
3357.946693,-10881.027347,592.164754,842.705048
3357.947030,-10140.821405,2368.659014,76.609550
3357.947367,-10881.027347,962.267725,459.657299
3357.947705,-11547.212695,518.144159,-1072.533697
3357.948042,-9030.512492,-518.144159,-3140.991542
3357.948379,-8290.306550,-1258.350101,-766.095498
3357.948717,-7846.182985,-2886.803174,-229.828649
3357.949054,-8438.347739,-2812.782580,-1225.752797
3357.949391,-9844.739029,-1332.370696,-766.095498
3357.949728,-10881.027347,-2590.720797,-1149.143247
3357.950066,-10955.047942,-2146.597232,-689.485948
3357.950403,-10362.883188,-3034.844362,1072.533697
3357.950740,-10362.883188,-3627.009116,3907.087040
3357.951078,-10510.924376,-3108.864956,2604.724693
3357.951415,-10214.842000,-2146.597232,1455.581446
3357.951752,-10881.027347,-592.164754,2528.115143
3357.952089,-12065.356855,-1702.473667,1378.971896
3357.952427,-11695.253884,-592.164754,153.219100
3357.952764,-10510.924376,-888.247130,919.314598
3357.953101,-10436.903782,-444.123565,1302.362347
3357.953438,-10436.903782,-222.061783,-383.047749
3357.953776,-9918.759623,962.267725,-1455.581446
3357.954113,-9400.615463,0.000000,-1072.533697
3357.954450,-10066.800811,-370.102971,-1762.019645
3357.954788,-9030.512492,-296.082377,-1225.752797
3357.955125,-8290.306550,74.020594,459.657299
3357.955462,-10140.821405,-1554.432478,1762.019645
3357.955799,-10362.883188,-1184.329507,-612.876398
3357.956137,-9622.677246,148.041188,-459.657299
3357.956474,-10214.842000,148.041188,229.828649
3357.956811,-8586.388927,-888.247130,-1072.533697
3357.957148,-8068.244768,0.000000,383.047749
3357.957486,-8438.347739,-814.226536,2068.457845
3357.957823,-9326.594869,-592.164754,1915.238745
3357.958160,-10066.800811,1332.370696,459.657299
3357.958498,-10362.883188,1554.432478,0.000000
3357.958835,-10955.047942,1258.350101,-459.657299
3357.959172,-10584.944971,962.267725,0.000000
3357.959509,-9104.533087,1184.329507,1991.848295
3357.959847,-9474.636058,-444.123565,1225.752797
3357.960184,-10584.944971,0.000000,76.609550
3357.960521,-10436.903782,1184.329507,-1225.752797
3357.960859,-10584.944971,0.000000,-1532.190996
3357.961196,-9844.739029,-444.123565,-1685.410096
3357.961533,-9326.594869,-1480.411884,-306.438199
3357.961870,-9622.677246,-518.144159,995.924147
3357.962208,-10362.883188,-1036.288319,0.000000
3357.962545,-11251.130318,-370.102971,-1378.971896
3357.962882,-10436.903782,-1554.432478,-919.314598
3357.963219,-10436.903782,-2146.597232,-1225.752797
3357.963557,-9918.759623,-2886.803174,0.000000
3357.963894,-9252.574275,-2220.617826,306.438199
3357.964231,-9474.636058,-2590.720797,1685.410096
3357.964569,-10955.047942,-1776.494261,919.314598
3357.964906,-10584.944971,-444.123565,76.609550
3357.965243,-10955.047942,-296.082377,919.314598
3357.965580,-10214.842000,-444.123565,2068.457845
3357.965918,-9178.553681,444.123565,1685.410096
3357.966255,-9770.718434,1110.308913,3524.039291
3357.966592,-10955.047942,518.144159,2911.162892
3357.966930,-10584.944971,666.185348,1302.362347
3357.967267,-10362.883188,2812.782580,1072.533697
3357.967604,-10140.821405,3256.906145,306.438199
3357.967941,-9770.718434,2368.659014,-612.876398
3357.968279,-9474.636058,1850.514855,0.000000
3357.968616,-9474.636058,1332.370696,459.657299
3357.968953,-9844.739029,1480.411884,0.000000
3357.969290,-9104.533087,1628.453072,-1532.190996
3357.969628,-9474.636058,1628.453072,0.000000
3357.969965,-10436.903782,1110.308913,-766.095498
3357.970302,-9992.780217,296.082377,-1532.190996
3357.970640,-8586.388927,1184.329507,153.219100
3357.970977,-9548.656652,-1850.514855,2145.067394
3357.971314,-10288.862594,-888.247130,1149.143247
3357.971651,-9548.656652,-962.267725,-229.828649
3357.971989,-9474.636058,-444.123565,919.314598
3357.972326,-10066.800811,-1480.411884,229.828649
3357.972663,-10140.821405,-1184.329507,76.609550
3357.973001,-9030.512492,-518.144159,612.876398
3357.973338,-9992.780217,-2072.576638,919.314598
3357.973675,-10584.944971,-2294.638420,1072.533697
3357.974012,-9918.759623,-370.102971,612.876398
3357.974350,-10955.047942,-962.267725,1072.533697
3357.974687,-10658.965565,-1036.288319,-459.657299
3357.975024,-9178.553681,-1184.329507,-1532.190996
3357.975361,-9474.636058,-2442.679609,459.657299
3357.975699,-10436.903782,-3849.070898,1455.581446
3357.976036,-10362.883188,-1850.514855,-383.047749
3357.976373,-11695.253884,-1258.350101,-1072.533697
3357.976711,-11399.171507,-1776.494261,-1685.410096
3357.977048,-9844.739029,-2368.659014,-1762.019645
3357.977385,-8512.368333,-1850.514855,0.000000
3357.977722,-8956.491898,-2368.659014,919.314598
3357.978060,-11029.068536,-2442.679609,1608.800546
3357.978397,-11103.089130,-888.247130,383.047749
3357.978734,-10140.821405,-666.185348,1302.362347
3357.979072,-10510.924376,-148.041188,1838.629195
3357.979409,-9918.759623,-740.205942,1149.143247
3357.979746,-8808.450710,592.164754,3140.991542
3357.980083,-9474.636058,444.123565,3447.429741
3357.980421,-10732.986159,1998.556043,2757.943793
3357.980758,-10658.965565,2294.638420,842.705048
3357.981095,-10214.842000,1924.535449,153.219100
3357.981432,-9918.759623,2146.597232,-459.657299
3357.981770,-8290.306550,2220.617826,-612.876398
3357.982107,-7624.121203,2072.576638,-459.657299
3357.982444,-8808.450710,1184.329507,-383.047749
3357.982782,-10140.821405,1924.535449,-1685.410096
3357.983119,-10658.965565,2072.576638,-1685.410096
3357.983456,-11029.068536,814.226536,-1915.238745
3357.983793,-9474.636058,888.247130,-2145.067394
3357.984131,-7772.162391,-1184.329507,0.000000
3357.984468,-9252.574275,-2072.576638,2528.115143
3357.984805,-9992.780217,-1184.329507,1455.581446
3357.985143,-11325.150913,-592.164754,0.000000
3357.985480,-12065.356855,-518.144159,-995.924147
3357.985817,-10807.006753,-1406.391290,-1532.190996
3357.986154,-10214.842000,-1776.494261,153.219100
3357.986492,-8882.471304,-1480.411884,2145.067394
3357.986829,-9178.553681,-2220.617826,2298.286494
3357.987166,-11325.150913,-592.164754,842.705048
3357.987503,-11695.253884,0.000000,153.219100
3357.987841,-12435.459826,-296.082377,842.705048
3357.988178,-11843.295072,-740.205942,1455.581446
3357.988515,-8438.347739,-518.144159,1072.533697
3357.988853,-9400.615463,0.000000,3064.381992
3357.989190,-10510.924376,222.061783,1225.752797
3357.989527,-10214.842000,0.000000,-1378.971896
3357.989864,-10881.027347,444.123565,-689.485948
3357.990202,-10732.986159,0.000000,-766.095498
3357.990539,-9770.718434,0.000000,-2145.067394
3357.990876,-8734.430116,592.164754,-842.705048
3357.991213,-7920.203579,-148.041188,-612.876398
3357.991551,-9326.594869,-1036.288319,-153.219100
3357.991888,-9844.739029,296.082377,0.000000
3357.992225,-10436.903782,592.164754,612.876398
3357.992563,-11547.212695,740.205942,1608.800546
3357.992900,-9992.780217,296.082377,689.485948
3357.993237,-8364.327145,666.185348,2298.286494
3357.993574,-8364.327145,370.102971,2757.943793
3357.993912,-8586.388927,1628.453072,919.314598
3357.994249,-9918.759623,1850.514855,383.047749
3357.994586,-10955.047942,1628.453072,-306.438199
3357.994924,-11103.089130,1110.308913,-536.266849
3357.995261,-10214.842000,148.041188,1455.581446
3357.995598,-9400.615463,740.205942,2451.505594
3357.995935,-9992.780217,518.144159,459.657299
3357.996273,-9696.697840,1110.308913,-1149.143247
3357.996610,-9696.697840,296.082377,-306.438199
3357.996947,-11547.212695,-1554.432478,306.438199
3357.997284,-10807.006753,-1036.288319,-1072.533697
3357.997622,-9622.677246,-888.247130,-383.047749
3357.997959,-10510.924376,-2738.761985,76.609550
3357.998296,-10732.986159,-3330.926739,-1072.533697
3357.998634,-9474.636058,-2368.659014,-153.219100
3357.998971,-9770.718434,-2442.679609,919.314598
3357.999308,-10510.924376,-3182.885551,383.047749
3357.999646,-9918.759623,-3404.947333,0.000000
3357.999983,-9770.718434,-3256.906145,2451.505594
3358.000321,-10288.862594,-3034.844362,2221.676944
3358.000658,-10510.924376,-1628.453072,919.314598
3358.000996,-10140.821405,-962.267725,612.876398
3358.001333,-10288.862594,-962.267725,1072.533697
3358.001671,-10214.842000,-666.185348,612.876398
3358.002008,-9696.697840,222.061783,1455.581446
3358.002346,-9474.636058,-370.102971,1455.581446
3358.002683,-10288.862594,0.000000,536.266849
3358.003021,-10584.944971,1480.411884,-689.485948
3358.003358,-9918.759623,1776.494261,-306.438199
3358.003696,-10658.965565,814.226536,-306.438199
3358.004033,-10140.821405,1332.370696,-1149.143247
3358.004370,-9844.739029,1924.535449,-612.876398
3358.004708,-9548.656652,1036.288319,-536.266849
3358.005045,-10362.883188,740.205942,-995.924147
3358.005383,-9770.718434,814.226536,-536.266849
3358.005720,-9474.636058,814.226536,-536.266849
3358.006058,-10066.800811,0.000000,0.000000
3358.006395,-9400.615463,962.267725,-689.485948
3358.006733,-9474.636058,148.041188,842.705048
3358.007070,-10955.047942,-222.061783,1455.581446
3358.007408,-9548.656652,-148.041188,153.219100
3358.007745,-10288.862594,1110.308913,919.314598
3358.008083,-10955.047942,0.000000,689.485948
3358.008420,-9326.594869,0.000000,-306.438199
3358.008758,-8216.285956,74.020594,766.095498
3358.009095,-9252.574275,-518.144159,1225.752797
3358.009433,-9992.780217,-296.082377,612.876398
3358.009770,-10362.883188,0.000000,0.000000
3358.010108,-10362.883188,666.185348,842.705048
3358.010445,-11177.109724,0.000000,689.485948
3358.010783,-10510.924376,-666.185348,0.000000
3358.011120,-9696.697840,-518.144159,766.095498
3358.011458,-9992.780217,-1554.432478,612.876398
3358.011795,-10066.800811,-296.082377,-1532.190996
3358.012132,-9548.656652,-1184.329507,-766.095498
3358.012470,-10510.924376,-1628.453072,153.219100
3358.012807,-11473.192101,-1776.494261,-383.047749
3358.013145,-10955.047942,-74.020594,-306.438199
3358.013482,-9844.739029,0.000000,919.314598
3358.013820,-10881.027347,0.000000,1072.533697
3358.014157,-10732.986159,148.041188,536.266849
3358.014495,-10732.986159,1480.411884,1149.143247
3358.014832,-11251.130318,222.061783,2298.286494
3358.015170,-10214.842000,148.041188,1225.752797
3358.015507,-8586.388927,666.185348,2451.505594
3358.015845,-9474.636058,592.164754,3600.648841
3358.016182,-9918.759623,296.082377,2451.505594
3358.016520,-10362.883188,1480.411884,766.095498
3358.016857,-9178.553681,2368.659014,-76.609550
3358.017195,-9770.718434,1776.494261,-612.876398
3358.017532,-10140.821405,1258.350101,-689.485948
3358.017870,-8068.244768,222.061783,-229.828649
3358.018207,-8586.388927,518.144159,229.828649
3358.018545,-9918.759623,-444.123565,-995.924147
3358.018882,-10436.903782,1036.288319,-1149.143247
3358.019219,-10140.821405,-814.226536,-2298.286494
3358.019557,-10436.903782,-2294.638420,-1378.971896
3358.019894,-9474.636058,-1850.514855,689.485948
3358.020232,-9696.697840,-1702.473667,995.924147
3358.020569,-10881.027347,-1776.494261,459.657299
3358.020907,-10881.027347,-2072.576638,-1455.581446
3358.021244,-10658.965565,-962.267725,-229.828649
3358.021582,-11621.233289,-1850.514855,383.047749
3358.021919,-10658.965565,-2072.576638,459.657299
3358.022257,-9992.780217,-1850.514855,1762.019645
3358.022594,-10140.821405,-1850.514855,1685.410096
3358.022932,-11177.109724,-1702.473667,919.314598
3358.023269,-10436.903782,-888.247130,-536.266849
3358.023607,-10807.006753,-888.247130,306.438199
3358.023944,-10214.842000,-1480.411884,-612.876398
3358.024282,-9400.615463,-1480.411884,-459.657299
3358.024619,-9104.533087,-888.247130,842.705048
3358.024957,-9474.636058,-666.185348,459.657299
3358.025294,-10732.986159,0.000000,-612.876398
3358.025632,-9992.780217,444.123565,-1532.190996
3358.025969,-10140.821405,-592.164754,-1072.533697
3358.026306,-9252.574275,-1184.329507,-1685.410096
3358.026644,-7698.141797,-740.205942,229.828649
3358.026981,-8808.450710,-296.082377,1608.800546
3358.027319,-10436.903782,74.020594,1149.143247
3358.027656,-11325.150913,888.247130,-153.219100
3358.027994,-10288.862594,1628.453072,0.000000
3358.028331,-9992.780217,518.144159,1378.971896
3358.028669,-9622.677246,888.247130,2757.943793
3358.029006,-9326.594869,1628.453072,3907.087040
3358.029344,-10140.821405,2146.597232,3524.039291
3358.029681,-11621.233289,2368.659014,2145.067394
3358.030019,-11029.068536,3330.926739,-536.266849
3358.030356,-10732.986159,2738.761985,-536.266849
3358.030694,-9326.594869,1924.535449,-229.828649
3358.031031,-8660.409521,74.020594,-612.876398
3358.031369,-7920.203579,1850.514855,459.657299
3358.031706,-9252.574275,740.205942,-459.657299
3358.032044,-10214.842000,592.164754,-1455.581446
3358.032381,-9622.677246,74.020594,-2298.286494
3358.032719,-10658.965565,-1110.308913,0.000000
3358.033056,-9474.636058,-962.267725,689.485948
3358.033394,-8808.450710,-2146.597232,1149.143247
3358.033731,-10140.821405,-2294.638420,1838.629195
3358.034068,-10288.862594,-2812.782580,-76.609550
3358.034406,-10807.006753,-1998.556043,-1072.533697
3358.034743,-10066.800811,-1924.535449,-689.485948
3358.035081,-9622.677246,-2812.782580,-383.047749
3358.035418,-10510.924376,-2442.679609,-383.047749
3358.035756,-10288.862594,-1850.514855,536.266849
3358.036093,-9770.718434,-1036.288319,1685.410096
3358.036431,-11473.192101,-740.205942,612.876398
3358.036768,-11325.150913,0.000000,459.657299
3358.037106,-11251.130318,0.000000,919.314598
3358.037443,-10955.047942,-222.061783,1838.629195
3358.037781,-10066.800811,0.000000,1762.019645
3358.038118,-9696.697840,814.226536,2221.676944
3358.038456,-11251.130318,962.267725,1378.971896
3358.038793,-11843.295072,962.267725,-689.485948
3358.039131,-10214.842000,1850.514855,-1838.629195
3358.039468,-9474.636058,888.247130,-1838.629195
3358.039806,-8956.491898,-370.102971,-2221.676944
3358.040143,-7550.100608,-296.082377,-1149.143247
3358.040481,-8882.471304,74.020594,536.266849
3358.040818,-10140.821405,-518.144159,536.266849
3358.041155,-9548.656652,222.061783,-919.314598
3358.041493,-10214.842000,1258.350101,383.047749
3358.041830,-11103.089130,74.020594,0.000000
3358.042168,-9474.636058,-666.185348,-459.657299
3358.042505,-7698.141797,-1036.288319,1378.971896
3358.042843,-7994.224174,-1924.535449,2987.772442
3358.043180,-9474.636058,-740.205942,1225.752797
3358.043518,-10288.862594,74.020594,383.047749
3358.043855,-10955.047942,0.000000,1532.190996
3358.044193,-10732.986159,-592.164754,1149.143247
3358.044530,-10214.842000,0.000000,1072.533697
3358.044868,-9696.697840,1110.308913,1302.362347
3358.045205,-11325.150913,-962.267725,1302.362347
3358.045543,-11547.212695,-222.061783,-1149.143247
3358.045880,-11177.109724,222.061783,-1608.800546
3358.046218,-11103.089130,-1036.288319,-459.657299
3358.046555,-10658.965565,-2368.659014,-766.095498
3358.046893,-9252.574275,-2516.700203,-766.095498
3358.047230,-9548.656652,-1776.494261,459.657299
3358.047568,-11325.150913,-2368.659014,-76.609550
3358.047905,-10807.006753,-1924.535449,-1838.629195
3358.048242,-10881.027347,-2294.638420,-612.876398
3358.048580,-10881.027347,-2220.617826,612.876398
3358.048917,-8882.471304,-2442.679609,536.266849
3358.049255,-8216.285956,-1850.514855,1685.410096
3358.049592,-9622.677246,-2294.638420,2145.067394
3358.049930,-11251.130318,-1258.350101,1149.143247
3358.050267,-10732.986159,740.205942,459.657299
3358.050605,-10436.903782,0.000000,536.266849
3358.050942,-9992.780217,222.061783,0.000000
3358.051280,-8808.450710,592.164754,459.657299
3358.051617,-8734.430116,814.226536,2221.676944
3358.051955,-9548.656652,962.267725,1455.581446
3358.052292,-10510.924376,2590.720797,-536.266849
3358.052630,-10807.006753,3552.988522,-1225.752797
3358.052967,-11029.068536,2442.679609,-689.485948
3358.053305,-10066.800811,2220.617826,-1608.800546
3358.053642,-9178.553681,888.247130,0.000000
3358.053980,-9548.656652,962.267725,919.314598
3358.054317,-9844.739029,296.082377,0.000000
3358.054655,-10066.800811,592.164754,-1149.143247
3358.054992,-10214.842000,518.144159,-1072.533697
3358.055329,-10510.924376,-888.247130,-459.657299
3358.055667,-8956.491898,-814.226536,-306.438199
3358.056004,-8290.306550,0.000000,1455.581446
3358.056342,-10658.965565,-1628.453072,1762.019645
3358.056679,-11473.192101,-444.123565,-612.876398
3358.057017,-9474.636058,-296.082377,-919.314598
3358.057354,-10288.862594,0.000000,919.314598
3358.057692,-10362.883188,-666.185348,0.000000
3358.058029,-9178.553681,-1110.308913,-306.438199
3358.058367,-8586.388927,-1702.473667,2451.505594
3358.058704,-10140.821405,-1924.535449,2298.286494
3358.059042,-11029.068536,-74.020594,612.876398
3358.059379,-10732.986159,518.144159,995.924147
3358.059717,-11473.192101,0.000000,229.828649
3358.060054,-10066.800811,-888.247130,-1302.362347
3358.060392,-8364.327145,-666.185348,0.000000
3358.060729,-8660.409521,-1776.494261,1378.971896
3358.061067,-10510.924376,-2146.597232,76.609550
3358.061404,-10436.903782,-592.164754,-1762.019645
3358.061742,-10436.903782,-222.061783,-1608.800546
3358.062079,-11695.253884,0.000000,0.000000
3358.062417,-10955.047942,-666.185348,-612.876398
3358.062754,-9548.656652,-222.061783,995.924147
3358.063091,-10140.821405,-518.144159,1532.190996
3358.063429,-10658.965565,-962.267725,766.095498
3358.063766,-9992.780217,0.000000,536.266849
3358.064104,-9696.697840,-666.185348,1608.800546
3358.064441,-9622.677246,296.082377,1608.800546
3358.064779,-9030.512492,444.123565,2221.676944
3358.065116,-9548.656652,1406.391290,3447.429741
3358.065454,-11843.295072,518.144159,2221.676944
3358.065791,-11103.089130,1110.308913,-229.828649
3358.066129,-9844.739029,2146.597232,612.876398
3358.066466,-9474.636058,296.082377,0.000000
3358.066804,-8364.327145,-370.102971,-1225.752797
3358.067141,-7920.203579,0.000000,-459.657299
3358.067479,-8512.368333,-1184.329507,842.705048
3358.067816,-10510.924376,-1110.308913,0.000000
3358.068154,-10584.944971,-888.247130,-1302.362347
3358.068491,-10214.842000,-518.144159,-1838.629195
3358.068829,-10955.047942,-1258.350101,-1685.410096
3358.069166,-10362.883188,-2072.576638,-1378.971896
3358.069504,-8882.471304,-2368.659014,306.438199
3358.069841,-9622.677246,-2886.803174,1455.581446
3358.070178,-10881.027347,-2516.700203,0.000000
3358.070516,-11177.109724,-1332.370696,-612.876398
3358.070853,-11547.212695,-1850.514855,-612.876398
3358.071191,-11251.130318,-1554.432478,-612.876398
3358.071528,-9474.636058,-1850.514855,76.609550
3358.071866,-9474.636058,0.000000,1991.848295
3358.072203,-9992.780217,-444.123565,1302.362347
3358.072541,-10584.944971,-592.164754,766.095498
3358.072878,-11029.068536,222.061783,919.314598
3358.073216,-11251.130318,1184.329507,536.266849
3358.073553,-10362.883188,444.123565,153.219100
3358.073891,-8808.450710,1628.453072,153.219100
3358.074228,-9326.594869,370.102971,1225.752797
3358.074566,-10214.842000,1480.411884,-1149.143247
3358.074903,-9474.636058,1036.288319,-1685.410096
3358.075241,-9992.780217,666.185348,0.000000
3358.075578,-9400.615463,370.102971,-536.266849
3358.075916,-8734.430116,0.000000,-995.924147
3358.076253,-8660.409521,0.000000,1762.019645
3358.076591,-9178.553681,-666.185348,2374.896044
3358.076928,-10362.883188,74.020594,1838.629195
3358.077265,-11029.068536,1332.370696,1991.848295
3358.077603,-11103.089130,1702.473667,995.924147
3358.077940,-10881.027347,148.041188,383.047749
3358.078278,-10066.800811,370.102971,1149.143247
3358.078615,-8882.471304,-296.082377,3294.210641
3358.078953,-9548.656652,-222.061783,2451.505594
3358.079290,-9178.553681,518.144159,536.266849
3358.079628,-10066.800811,1036.288319,306.438199
3358.079965,-11029.068536,888.247130,-1532.190996
3358.080303,-10362.883188,74.020594,-2528.115143
3358.080640,-8586.388927,592.164754,-1378.971896
3358.080978,-9992.780217,-1332.370696,842.705048
3358.081315,-10584.944971,-1036.288319,536.266849
3358.081653,-9992.780217,-74.020594,-612.876398
3358.081990,-11029.068536,-1332.370696,-153.219100
3358.082328,-11325.150913,-2368.659014,-1225.752797
3358.082665,-9474.636058,-3108.864956,-1991.848295
3358.083003,-9104.533087,-2812.782580,153.219100
3358.083340,-9474.636058,-3478.967927,306.438199
3358.083678,-10288.862594,-2516.700203,-842.705048
3358.084015,-9770.718434,-1184.329507,-1685.410096
3358.084352,-11251.130318,-2072.576638,-919.314598
3358.084690,-10584.944971,-1628.453072,-995.924147
3358.085027,-9844.739029,-666.185348,0.000000
3358.085365,-10807.006753,-1258.350101,3600.648841
3358.085702,-10436.903782,-1184.329507,2221.676944
3358.086040,-9918.759623,0.000000,2068.457845
3358.086377,-10881.027347,962.267725,1762.019645
3358.086715,-10658.965565,518.144159,1302.362347
3358.087052,-10140.821405,814.226536,1072.533697
3358.087390,-9474.636058,1776.494261,1149.143247
3358.087727,-9548.656652,2220.617826,1302.362347
3358.088065,-10584.944971,1628.453072,-689.485948
3358.088402,-9400.615463,1702.473667,-2145.067394
3358.088740,-9104.533087,1998.556043,-1072.533697
3358.089077,-9770.718434,1184.329507,-689.485948
3358.089415,-8438.347739,1184.329507,-995.924147
3358.089752,-9474.636058,296.082377,306.438199
3358.090090,-10436.903782,-740.205942,306.438199
3358.090427,-10436.903782,0.000000,-612.876398
3358.090765,-9548.656652,0.000000,153.219100
3358.091102,-9548.656652,-888.247130,536.266849
3358.091440,-9696.697840,-1480.411884,0.000000
3358.091777,-9474.636058,-1110.308913,76.609550
3358.092114,-8956.491898,-1702.473667,1225.752797
3358.092452,-9770.718434,-1554.432478,2221.676944
3358.092789,-10510.924376,-666.185348,1072.533697
3358.093127,-11769.274478,814.226536,689.485948
3358.093464,-11621.233289,-1184.329507,0.000000
3358.093802,-10214.842000,-666.185348,-383.047749
3358.094139,-8956.491898,-1184.329507,1225.752797
3358.094477,-9844.739029,-1110.308913,1762.019645
3358.094814,-10214.842000,-666.185348,-689.485948
3358.095152,-10584.944971,-666.185348,-1455.581446
3358.095489,-10807.006753,-962.267725,-459.657299
3358.095827,-10658.965565,-1332.370696,-1225.752797
3358.096164,-9548.656652,-1036.288319,-383.047749
3358.096502,-9252.574275,-1480.411884,689.485948
3358.096839,-10658.965565,-2368.659014,919.314598
3358.097177,-10214.842000,-1258.350101,0.000000
3358.097514,-9326.594869,0.000000,-459.657299
3358.097852,-10881.027347,-888.247130,306.438199
3358.098189,-11251.130318,-962.267725,-1225.752797
3358.098527,-8882.471304,-592.164754,-612.876398
3358.098864,-8734.430116,-296.082377,2681.334243
3358.099201,-9474.636058,222.061783,2451.505594
3358.099539,-10066.800811,296.082377,1915.238745
3358.099876,-11029.068536,1332.370696,1532.190996
3358.100214,-11177.109724,1850.514855,1685.410096
3358.100550,-9918.759623,2812.782580,1532.190996
3358.100888,-9030.512492,2072.576638,2068.457845
3358.101225,-10214.842000,888.247130,1915.238745
3358.101562,-10362.883188,1702.473667,0.000000
3358.101900,-9326.594869,2368.659014,-383.047749
3358.102237,-9918.759623,1850.514855,153.219100
3358.102574,-10658.965565,518.144159,-1915.238745
3358.102912,-8808.450710,0.000000,-2298.286494
3358.103249,-8660.409521,-370.102971,0.000000
3358.103587,-9400.615463,-888.247130,842.705048
3358.103924,-9918.759623,-370.102971,-995.924147
3358.104261,-10066.800811,444.123565,-1302.362347
3358.104599,-11547.212695,-1258.350101,-1149.143247
3358.104936,-11399.171507,-1406.391290,-1685.410096
3358.105273,-9326.594869,-1258.350101,-536.266849
3358.105611,-8956.491898,-1924.535449,1608.800546
3358.105948,-10510.924376,-2368.659014,306.438199
3358.106285,-10362.883188,-1554.432478,-1302.362347
3358.106623,-10066.800811,-1184.329507,536.266849
3358.106960,-11399.171507,-2220.617826,1838.629195
3358.107297,-10140.821405,-1184.329507,842.705048
3358.107635,-9548.656652,-962.267725,2145.067394
3358.107972,-10436.903782,-518.144159,3064.381992
3358.108310,-10584.944971,-444.123565,1685.410096
3358.108647,-10436.903782,222.061783,766.095498
3358.108984,-10584.944971,-370.102971,995.924147
3358.109322,-10140.821405,-1110.308913,766.095498
3358.109659,-8956.491898,-740.205942,919.314598
3358.109996,-8216.285956,-296.082377,919.314598
3358.110334,-9992.780217,444.123565,153.219100
3358.110671,-11103.089130,814.226536,-2451.505594
3358.111008,-9844.739029,74.020594,-2681.334243
3358.111346,-9326.594869,-296.082377,-612.876398
3358.111683,-9696.697840,-296.082377,612.876398
3358.112020,-8586.388927,148.041188,1072.533697
3358.112358,-9474.636058,-666.185348,1685.410096
3358.112695,-11325.150913,-666.185348,842.705048
3358.113032,-10066.800811,0.000000,-536.266849
3358.113370,-9326.594869,814.226536,1455.581446
3358.113707,-11547.212695,0.000000,1685.410096
3358.114045,-10214.842000,148.041188,229.828649
3358.114382,-9104.533087,1036.288319,459.657299
3358.114719,-10658.965565,74.020594,1378.971896
3358.115057,-11325.150913,0.000000,306.438199
3358.115394,-9992.780217,814.226536,-842.705048
3358.115731,-9548.656652,444.123565,0.000000
3358.116069,-9992.780217,74.020594,-842.705048
3358.116406,-9992.780217,-148.041188,-1378.971896
3358.116743,-8882.471304,-296.082377,-383.047749
3358.117081,-9844.739029,-962.267725,-612.876398
3358.117418,-10288.862594,-1110.308913,-995.924147
3358.117755,-10066.800811,-592.164754,-995.924147
3358.118093,-10140.821405,-1998.556043,-1838.629195
3358.118430,-9474.636058,-2146.597232,-1915.238745
3358.118768,-8734.430116,-1850.514855,0.000000
3358.119105,-9696.697840,-1406.391290,842.705048
3358.119442,-11251.130318,-2146.597232,842.705048
3358.119780,-11177.109724,-296.082377,383.047749
3358.120117,-10436.903782,0.000000,842.705048
3358.120454,-10807.006753,-296.082377,1149.143247
3358.120792,-10732.986159,-740.205942,1685.410096
3358.121129,-9622.677246,0.000000,2757.943793
3358.121466,-10066.800811,962.267725,3447.429741
3358.121804,-11103.089130,1110.308913,1685.410096
3358.122141,-10732.986159,2072.576638,1225.752797
3358.122478,-10658.965565,1998.556043,1762.019645
3358.122816,-10732.986159,2294.638420,1608.800546
3358.123153,-9400.615463,2368.659014,306.438199
3358.123490,-8734.430116,2368.659014,536.266849
3358.123828,-9696.697840,1406.391290,76.609550
3358.124165,-9326.594869,518.144159,-689.485948
3358.124503,-9252.574275,2072.576638,-612.876398
3358.124840,-9400.615463,0.000000,-689.485948
3358.125177,-9030.512492,-370.102971,-459.657299
3358.125515,-9474.636058,-296.082377,842.705048
3358.125852,-9622.677246,-1258.350101,919.314598
3358.126189,-9992.780217,-814.226536,919.314598
3358.126527,-10214.842000,-740.205942,0.000000
3358.126864,-10066.800811,-1110.308913,-383.047749
3358.127201,-10066.800811,-1480.411884,-842.705048
3358.127539,-9252.574275,-2220.617826,0.000000
3358.127876,-9770.718434,-1184.329507,1302.362347
3358.128213,-10436.903782,-1702.473667,536.266849
3358.128551,-11103.089130,-666.185348,-995.924147
3358.128888,-11325.150913,0.000000,-842.705048
3358.129226,-10584.944971,-1036.288319,-536.266849
3358.129563,-9992.780217,-1702.473667,-383.047749
3358.129900,-9548.656652,-1628.453072,766.095498
3358.130238,-10066.800811,-1258.350101,2068.457845
3358.130575,-10955.047942,-1850.514855,383.047749
3358.130912,-10732.986159,-1110.308913,-766.095498
3358.131250,-10214.842000,-1184.329507,-459.657299
3358.131587,-10214.842000,-1258.350101,0.000000
3358.131924,-9326.594869,-1480.411884,-1455.581446
3358.132262,-9178.553681,-1258.350101,-1149.143247
3358.132599,-9770.718434,-2072.576638,153.219100
3358.132936,-10288.862594,-1628.453072,-842.705048
3358.133274,-9918.759623,0.000000,-1072.533697
3358.133611,-10214.842000,-296.082377,995.924147
3358.133948,-10066.800811,-148.041188,919.314598
3358.134286,-9252.574275,-814.226536,1225.752797
3358.134623,-10066.800811,0.000000,3677.258390
3358.134961,-10658.965565,222.061783,2681.334243
3358.135298,-11177.109724,1036.288319,1608.800546
3358.135635,-9992.780217,2072.576638,842.705048
3358.135973,-8882.471304,1924.535449,1225.752797
3358.136310,-9474.636058,2072.576638,1455.581446
3358.136647,-9844.739029,2220.617826,612.876398
3358.136985,-10066.800811,2368.659014,383.047749
3358.137322,-11325.150913,1850.514855,-766.095498
3358.137659,-10881.027347,1702.473667,-2298.286494
3358.137997,-9326.594869,1702.473667,-1532.190996
3358.138334,-9474.636058,0.000000,-536.266849
3358.138671,-9104.533087,-592.164754,-612.876398
3358.139009,-8364.327145,0.000000,-612.876398
3358.139346,-9548.656652,-1480.411884,459.657299
3358.139684,-10584.944971,-2220.617826,0.000000
3358.140021,-11177.109724,-1184.329507,-689.485948
3358.140358,-11251.130318,-444.123565,-76.609550
3358.140696,-10066.800811,-1924.535449,-1225.752797
3358.141033,-8956.491898,-2368.659014,-76.609550
3358.141370,-8512.368333,-1406.391290,459.657299
3358.141708,-10362.883188,-2072.576638,1455.581446
3358.142045,-11769.274478,-1850.514855,766.095498
3358.142382,-11251.130318,-518.144159,306.438199
3358.142720,-11103.089130,-888.247130,1225.752797
3358.143057,-10140.821405,-592.164754,1072.533697
3358.143394,-8068.244768,-518.144159,1225.752797
3358.143732,-10140.821405,-444.123565,2451.505594
3358.144069,-10807.006753,0.000000,1225.752797
3358.144406,-11399.171507,592.164754,-536.266849
3358.144744,-10436.903782,1406.391290,-612.876398
3358.145081,-10288.862594,888.247130,-536.266849
3358.145419,-10066.800811,-74.020594,0.000000
3358.145756,-8586.388927,888.247130,153.219100
3358.146093,-9030.512492,0.000000,689.485948
3358.146431,-11177.109724,518.144159,-459.657299
3358.146768,-9844.739029,370.102971,-2145.067394
3358.147105,-9992.780217,0.000000,0.000000
3358.147443,-9622.677246,-370.102971,306.438199
3358.147780,-8290.306550,-222.061783,536.266849
3358.148117,-9030.512492,444.123565,2221.676944
3358.148455,-10140.821405,-296.082377,1838.629195
3358.148792,-11843.295072,1110.308913,306.438199
3358.149129,-10807.006753,962.267725,-536.266849
3358.149467,-10288.862594,0.000000,842.705048
3358.149804,-9474.636058,-592.164754,842.705048
3358.150142,-8364.327145,0.000000,1072.533697
3358.150479,-9400.615463,296.082377,2145.067394
3358.150816,-11177.109724,-444.123565,689.485948
3358.151154,-10584.944971,888.247130,-2298.286494
3358.151491,-10881.027347,74.020594,-1072.533697
3358.151828,-10807.006753,-592.164754,-689.485948
3358.152166,-9326.594869,-1258.350101,-919.314598
3358.152503,-8808.450710,-1554.432478,919.314598
3358.152840,-9400.615463,-2590.720797,1378.971896
3358.153178,-10140.821405,-1702.473667,-1072.533697
3358.153515,-10584.944971,-1776.494261,-1455.581446
3358.153852,-11029.068536,-1480.411884,-1225.752797
3358.154190,-10658.965565,-3627.009116,229.828649
3358.154527,-9770.718434,-2368.659014,153.219100
3358.154864,-8364.327145,-1480.411884,766.095498
3358.155202,-10288.862594,-2294.638420,1225.752797
3358.155539,-10732.986159,-1554.432478,-153.219100
3358.155877,-10658.965565,-148.041188,842.705048
3358.156214,-11251.130318,-370.102971,2681.334243
3358.156551,-11399.171507,-888.247130,1991.848295
3358.156889,-9178.553681,-296.082377,2374.896044
3358.157226,-10214.842000,296.082377,3140.991542
3358.157563,-10510.924376,370.102971,1455.581446
3358.157901,-9918.759623,1036.288319,306.438199
3358.158238,-10436.903782,1850.514855,383.047749
3358.158575,-9992.780217,1480.411884,0.000000
3358.158913,-9844.739029,1628.453072,0.000000
3358.159250,-8660.409521,1702.473667,0.000000
3358.159587,-8956.491898,0.000000,-153.219100
3358.159925,-9918.759623,962.267725,-1149.143247
3358.160262,-9474.636058,1480.411884,-1915.238745
3358.160600,-9030.512492,962.267725,-2145.067394
3358.160937,-9622.677246,-1628.453072,-1225.752797
3358.161274,-9030.512492,-1036.288319,-1149.143247
3358.161612,-7920.203579,-814.226536,1072.533697
3358.161949,-10436.903782,-962.267725,1685.410096
3358.162286,-11547.212695,-962.267725,-919.314598
3358.162624,-11399.171507,-296.082377,-919.314598
3358.162961,-11177.109724,0.000000,-306.438199
3358.163298,-10140.821405,-444.123565,383.047749
3358.163636,-9326.594869,-592.164754,1149.143247
3358.163973,-9770.718434,0.000000,1072.533697
3358.164310,-11473.192101,-222.061783,76.609550
3358.164648,-10362.883188,518.144159,-1072.533697
3358.164985,-10955.047942,888.247130,-536.266849
3358.165322,-11621.233289,-1184.329507,459.657299
3358.165660,-9844.739029,-888.247130,0.000000
3358.165997,-8512.368333,74.020594,1532.190996
3358.166335,-10066.800811,-888.247130,2451.505594
3358.166672,-10732.986159,-148.041188,689.485948
3358.167009,-10807.006753,148.041188,-536.266849
3358.167347,-11103.089130,0.000000,-612.876398
3358.167684,-9770.718434,-1258.350101,-1149.143247
3358.168021,-8512.368333,-1036.288319,306.438199
3358.168359,-7994.224174,-518.144159,1915.238745
3358.168696,-9622.677246,-222.061783,995.924147
3358.169033,-11769.274478,592.164754,-229.828649
3358.169371,-10436.903782,1184.329507,-383.047749
3358.169708,-10214.842000,0.000000,1455.581446
3358.170045,-9844.739029,0.000000,2681.334243
3358.170383,-8290.306550,370.102971,2987.772442
3358.170720,-9770.718434,814.226536,3983.696590
3358.171058,-10658.965565,1258.350101,1838.629195
3358.171395,-10066.800811,2442.679609,76.609550
3358.171732,-10584.944971,2442.679609,536.266849
3358.172070,-10807.006753,1776.494261,76.609550
3358.172407,-9252.574275,962.267725,-1378.971896
3358.172744,-8216.285956,740.205942,306.438199
3358.173082,-9696.697840,0.000000,459.657299
3358.173419,-10140.821405,-1110.308913,-919.314598
3358.173756,-9548.656652,370.102971,-1225.752797
3358.174094,-9696.697840,0.000000,-459.657299
3358.174431,-11325.150913,-1110.308913,-1608.800546
3358.174768,-10140.821405,-1850.514855,-1991.848295
3358.175106,-10066.800811,-2590.720797,689.485948
3358.175443,-9918.759623,-3256.906145,1072.533697
3358.175780,-10140.821405,-2442.679609,-1149.143247
3358.176118,-10214.842000,-1628.453072,-689.485948
3358.176455,-10807.006753,-3330.926739,-766.095498
3358.176793,-9844.739029,-3923.091493,-459.657299
3358.177130,-8956.491898,-2294.638420,1149.143247
3358.177467,-9918.759623,-1850.514855,1762.019645
3358.177805,-11991.336260,-2072.576638,0.000000
3358.178142,-10510.924376,-1480.411884,-1991.848295
3358.178479,-8364.327145,-518.144159,-766.095498
3358.178817,-9252.574275,-1406.391290,1302.362347
3358.179154,-9252.574275,-1036.288319,1838.629195
3358.179491,-9474.636058,-962.267725,2987.772442
3358.179829,-12435.459826,-1406.391290,2374.896044
3358.180166,-11843.295072,-444.123565,689.485948
3358.180503,-9696.697840,1406.391290,-919.314598
3358.180841,-10436.903782,814.226536,-766.095498
3358.181178,-10362.883188,1036.288319,-2374.896044
3358.181516,-9252.574275,962.267725,-2374.896044
3358.181853,-9548.656652,-296.082377,-306.438199
3358.182190,-10881.027347,-518.144159,0.000000
3358.182528,-10658.965565,814.226536,-383.047749
3358.182865,-9918.759623,1924.535449,612.876398
3358.183202,-9992.780217,592.164754,536.266849
3358.183540,-9474.636058,148.041188,306.438199
3358.183877,-8364.327145,370.102971,2374.896044
3358.184214,-10066.800811,-370.102971,3983.696590
3358.184552,-10807.006753,592.164754,2068.457845
3358.184889,-11029.068536,2146.597232,383.047749
3358.185226,-10066.800811,1776.494261,-766.095498
3358.185564,-9104.533087,1406.391290,-536.266849
3358.185901,-8290.306550,814.226536,-383.047749
3358.186238,-8068.244768,666.185348,459.657299
3358.186576,-8882.471304,0.000000,536.266849
3358.186913,-10955.047942,-222.061783,-459.657299
3358.187251,-10140.821405,1332.370696,-1608.800546
3358.187588,-10881.027347,148.041188,-1608.800546
3358.187925,-10955.047942,-518.144159,-536.266849
3358.188263,-9252.574275,-814.226536,-842.705048
3358.188600,-9030.512492,-1110.308913,995.924147
3358.188937,-9992.780217,-1924.535449,383.047749
3358.189275,-11251.130318,-1776.494261,-306.438199
3358.189612,-11843.295072,-1480.411884,-306.438199
3358.189949,-11325.150913,-1998.556043,-383.047749
3358.190287,-9548.656652,-1258.350101,-383.047749
3358.190624,-8956.491898,-814.226536,1302.362347
3358.190961,-10214.842000,-1776.494261,2911.162892
3358.191299,-11843.295072,-1258.350101,1915.238745
3358.191636,-11917.315666,444.123565,1149.143247
3358.191974,-11029.068536,888.247130,842.705048
3358.192311,-9696.697840,0.000000,153.219100
3358.192648,-8808.450710,0.000000,995.924147
3358.192986,-8438.347739,-222.061783,2987.772442
3358.193323,-9622.677246,148.041188,2604.724693
3358.193660,-10807.006753,666.185348,612.876398
3358.193998,-10955.047942,2368.659014,0.000000
3358.194335,-11177.109724,962.267725,-1072.533697
3358.194672,-9474.636058,1184.329507,-1302.362347
3358.195010,-7402.059420,740.205942,-689.485948
3358.195347,-7328.038826,-148.041188,306.438199
3358.195684,-8956.491898,-296.082377,76.609550
3358.196022,-10658.965565,0.000000,-1608.800546
3358.196359,-11325.150913,444.123565,-1225.752797
3358.196696,-10881.027347,-1184.329507,-1072.533697
3358.197034,-9770.718434,-1480.411884,-612.876398
3358.197371,-7772.162391,-666.185348,536.266849
3358.197709,-8956.491898,-1554.432478,1225.752797
3358.198046,-10658.965565,-1628.453072,766.095498
3358.198383,-11325.150913,0.000000,-842.705048
3358.198721,-12731.542202,-296.082377,153.219100
3358.199058,-12435.459826,0.000000,0.000000
3358.199395,-9474.636058,-222.061783,306.438199
3358.199733,-8586.388927,-592.164754,1608.800546
3358.200070,-10066.800811,-1850.514855,2681.334243
3358.200407,-11177.109724,-888.247130,1072.533697
3358.200745,-11251.130318,-592.164754,76.609550
3358.201082,-11621.233289,-1480.411884,-383.047749
3358.201419,-9770.718434,-1110.308913,-766.095498
3358.201757,-9104.533087,-1110.308913,459.657299
3358.202094,-8734.430116,-2072.576638,842.705048
3358.202432,-9178.553681,-2368.659014,-459.657299
3358.202769,-10066.800811,-888.247130,-306.438199
3358.203106,-10214.842000,-1184.329507,-459.657299
3358.203444,-9844.739029,-1998.556043,-766.095498
3358.203781,-9474.636058,-1554.432478,-995.924147
3358.204118,-8512.368333,-1924.535449,842.705048
3358.204456,-9400.615463,-1110.308913,2221.676944
3358.204793,-11029.068536,-1850.514855,1149.143247
3358.205130,-9474.636058,518.144159,306.438199
3358.205468,-10584.944971,592.164754,1685.410096
3358.205805,-11769.274478,814.226536,1378.971896
3358.206142,-9844.739029,888.247130,919.314598
3358.206480,-10066.800811,1702.473667,3217.601092
3358.206817,-10214.842000,1628.453072,2451.505594
3358.207154,-10214.842000,2368.659014,459.657299
3358.207492,-10658.965565,3182.885551,0.000000
3358.207829,-11621.233289,2072.576638,-995.924147
3358.208166,-11399.171507,2072.576638,-1532.190996
3358.208504,-9252.574275,1406.391290,-1455.581446
3358.208841,-8068.244768,592.164754,0.000000
3358.209178,-9178.553681,148.041188,-459.657299
3358.209516,-9622.677246,-74.020594,-1915.238745
3358.209853,-9992.780217,370.102971,-995.924147
3358.210190,-10510.924376,-1258.350101,-1225.752797
3358.210528,-9918.759623,-1258.350101,-842.705048
3358.210865,-8808.450710,-1332.370696,0.000000
3358.211202,-9030.512492,-2220.617826,1225.752797
3358.211540,-10362.883188,-1702.473667,689.485948
3358.211877,-9844.739029,-1258.350101,-1149.143247
3358.212214,-10066.800811,-814.226536,229.828649
3358.212552,-10658.965565,-1554.432478,-306.438199
3358.212889,-9400.615463,-1480.411884,153.219100
3358.213227,-9326.594869,-592.164754,1532.190996
3358.213564,-10584.944971,-592.164754,2298.286494
3358.213901,-11029.068536,-444.123565,536.266849
3358.214239,-10066.800811,222.061783,842.705048
3358.214576,-11991.336260,518.144159,2068.457845
3358.214913,-11769.274478,962.267725,1455.581446
3358.215251,-9178.553681,888.247130,612.876398
3358.215588,-10436.903782,370.102971,1378.971896
3358.215925,-11029.068536,-148.041188,76.609550
3358.216263,-10140.821405,1110.308913,-2221.676944
3358.216600,-10658.965565,962.267725,0.000000
3358.216937,-10362.883188,888.247130,-1302.362347
3358.217275,-9178.553681,-444.123565,-1378.971896
3358.217612,-9178.553681,222.061783,689.485948
3358.217949,-8882.471304,-666.185348,2068.457845
3358.218287,-9844.739029,-1184.329507,1838.629195
3358.218624,-9548.656652,444.123565,1225.752797
3358.218961,-10066.800811,444.123565,1302.362347
3358.219299,-10214.842000,148.041188,919.314598
3358.219636,-9252.574275,0.000000,383.047749
3358.219973,-8734.430116,444.123565,1838.629195
3358.220311,-9770.718434,222.061783,2068.457845
3358.220648,-9696.697840,814.226536,0.000000
3358.220985,-9548.656652,666.185348,229.828649
3358.221323,-10066.800811,444.123565,-383.047749
3358.221660,-10362.883188,0.000000,-919.314598
3358.221997,-9474.636058,-592.164754,383.047749
3358.222335,-9474.636058,-148.041188,1532.190996
3358.222672,-10732.986159,-888.247130,919.314598
3358.223010,-10807.006753,-74.020594,-536.266849
3358.223347,-10066.800811,0.000000,-306.438199
3358.223684,-11917.315666,-1406.391290,-612.876398
3358.224022,-9844.739029,-1924.535449,-2374.896044
3358.224359,-9474.636058,-2812.782580,-766.095498
3358.224696,-9992.780217,-3404.947333,1149.143247
3358.225034,-10510.924376,-2960.823768,-689.485948
3358.225371,-10732.986159,-2146.597232,-383.047749
3358.225708,-10584.944971,-1776.494261,-689.485948
3358.226046,-10288.862594,-2294.638420,-1302.362347
3358.226383,-10066.800811,-1628.453072,-766.095498
3358.226720,-9252.574275,-2072.576638,1532.190996
3358.227058,-10584.944971,-2146.597232,2911.162892
3358.227395,-10066.800811,-1258.350101,1838.629195
3358.227732,-9844.739029,0.000000,2298.286494
3358.228070,-11399.171507,0.000000,2298.286494
3358.228407,-10807.006753,0.000000,842.705048
3358.228744,-9178.553681,1554.432478,689.485948
3358.229082,-9918.759623,814.226536,842.705048
3358.229419,-9844.739029,518.144159,-842.705048
3358.229756,-9030.512492,1184.329507,-2911.162892
3358.230094,-8290.306550,1776.494261,-995.924147
3358.230431,-9474.636058,888.247130,-995.924147
3358.230768,-10288.862594,444.123565,-919.314598
3358.231106,-9474.636058,1332.370696,0.000000
3358.231443,-10140.821405,370.102971,1532.190996
3358.231780,-11177.109724,74.020594,689.485948
3358.232118,-10584.944971,888.247130,-153.219100
3358.232455,-10362.883188,592.164754,0.000000
3358.232793,-10584.944971,0.000000,0.000000
3358.233130,-9918.759623,296.082377,0.000000
3358.233467,-9104.533087,0.000000,1685.410096
3358.233805,-9622.677246,222.061783,995.924147
3358.234142,-9844.739029,74.020594,536.266849
3358.234479,-11621.233289,1110.308913,1685.410096
3358.234817,-11399.171507,666.185348,766.095498
3358.235154,-10955.047942,814.226536,536.266849
3358.235491,-9474.636058,296.082377,1302.362347
3358.235829,-8956.491898,0.000000,1685.410096
3358.236166,-10066.800811,-222.061783,842.705048
3358.236503,-9918.759623,0.000000,-689.485948
3358.236841,-9030.512492,0.000000,-689.485948
3358.237178,-10362.883188,-518.144159,-842.705048
3358.237515,-9548.656652,-1406.391290,-2298.286494
3358.237853,-8808.450710,-1110.308913,-459.657299
3358.238190,-9252.574275,-1480.411884,689.485948
3358.238527,-9696.697840,-1776.494261,-536.266849
3358.238865,-10066.800811,-962.267725,766.095498
3358.239202,-11621.233289,-888.247130,995.924147
3358.239539,-11621.233289,-1480.411884,306.438199
3358.239877,-10510.924376,-1110.308913,536.266849
3358.240214,-9770.718434,-962.267725,2451.505594
3358.240551,-10436.903782,-74.020594,1302.362347
3358.240889,-10584.944971,74.020594,0.000000
3358.241226,-10140.821405,888.247130,-536.266849
3358.241563,-10510.924376,0.000000,536.266849
3358.241901,-10288.862594,-370.102971,1149.143247
3358.242238,-9252.574275,666.185348,2298.286494
3358.242576,-9548.656652,740.205942,3217.601092
3358.242913,-10658.965565,1554.432478,919.314598
3358.243250,-11103.089130,1850.514855,-536.266849
3358.243588,-10807.006753,666.185348,-153.219100
3358.243925,-9548.656652,0.000000,-842.705048
3358.244262,-9104.533087,-740.205942,-76.609550
3358.244600,-8660.409521,-74.020594,153.219100
3358.244937,-8956.491898,-962.267725,-842.705048
3358.245274,-9400.615463,-1332.370696,-1991.848295
3358.245612,-8808.450710,-1184.329507,-2451.505594
3358.245949,-8808.450710,-1554.432478,-1225.752797
3358.246286,-10584.944971,-2220.617826,0.000000
3358.246624,-9474.636058,-1184.329507,-306.438199
3358.246961,-9770.718434,-1110.308913,1302.362347
3358.247298,-11325.150913,-592.164754,1149.143247
3358.247636,-10881.027347,-74.020594,-689.485948
3358.247973,-10881.027347,-518.144159,306.438199
3358.248310,-11029.068536,-1480.411884,1378.971896
3358.248648,-9474.636058,-1702.473667,766.095498
3358.248985,-9474.636058,-296.082377,1685.410096
3358.249322,-9844.739029,0.000000,2374.896044
3358.249660,-10807.006753,-666.185348,-536.266849
3358.249997,-10881.027347,148.041188,-383.047749
3358.250334,-10362.883188,740.205942,1302.362347
3358.250672,-10436.903782,0.000000,2298.286494
3358.251009,-10362.883188,-518.144159,0.000000
3358.251346,-9548.656652,0.000000,306.438199
3358.251684,-9844.739029,-1258.350101,-229.828649
3358.252021,-9548.656652,-740.205942,-766.095498
3358.252358,-8660.409521,-666.185348,-919.314598
3358.252696,-9104.533087,-296.082377,-612.876398
3358.253033,-9992.780217,-1036.288319,-1302.362347
3358.253371,-9326.594869,-370.102971,-842.705048
3358.253708,-9400.615463,-592.164754,1149.143247
3358.254045,-10214.842000,-740.205942,1838.629195
3358.254383,-10140.821405,444.123565,1455.581446
3358.254720,-9474.636058,1332.370696,1302.362347
3358.255057,-10510.924376,444.123565,1685.410096
3358.255395,-10732.986159,518.144159,1455.581446
3358.255732,-9770.718434,1776.494261,1762.019645
3358.256069,-10658.965565,1628.453072,2374.896044
3358.256407,-11399.171507,888.247130,153.219100
3358.256744,-10732.986159,1702.473667,-919.314598
3358.257081,-9770.718434,1332.370696,0.000000
3358.257419,-9326.594869,0.000000,153.219100
3358.257756,-8882.471304,148.041188,0.000000
3358.258093,-10066.800811,0.000000,1302.362347
3358.258431,-10362.883188,0.000000,-306.438199
3358.258768,-9918.759623,370.102971,-1072.533697
3358.259105,-10510.924376,444.123565,-689.485948
3358.259443,-10140.821405,-888.247130,-2145.067394
3358.259780,-10214.842000,-1554.432478,-1532.190996
3358.260117,-9844.739029,-2368.659014,-383.047749
3358.260455,-9104.533087,-2368.659014,1149.143247
3358.260792,-10436.903782,-2146.597232,1225.752797
3358.261129,-10584.944971,-1702.473667,0.000000
3358.261467,-9696.697840,-962.267725,229.828649
3358.261804,-10066.800811,-1184.329507,306.438199
3358.262141,-9844.739029,-740.205942,842.705048
3358.262479,-9696.697840,-1332.370696,2681.334243
3358.262816,-10732.986159,-518.144159,3370.820191
3358.263154,-11473.192101,814.226536,1608.800546
3358.263491,-11177.109724,1258.350101,766.095498
3358.263828,-11103.089130,1480.411884,1072.533697
3358.264166,-11177.109724,-222.061783,459.657299
3358.264503,-8808.450710,1628.453072,0.000000
3358.264840,-8882.471304,888.247130,536.266849
3358.265178,-10658.965565,296.082377,536.266849
3358.265515,-9992.780217,888.247130,-2298.286494
3358.265852,-9696.697840,1184.329507,-1915.238745
3358.266190,-9622.677246,0.000000,-612.876398
3358.266527,-8364.327145,-296.082377,-306.438199
3358.266864,-8216.285956,-666.185348,306.438199
3358.267202,-9400.615463,-1110.308913,1608.800546
3358.267539,-10362.883188,-814.226536,1072.533697
3358.267876,-10881.027347,-888.247130,-229.828649
3358.268214,-9844.739029,-962.267725,-536.266849
3358.268551,-9252.574275,-1628.453072,-536.266849
3358.268888,-8956.491898,-1924.535449,0.000000
3358.269226,-8438.347739,-1036.288319,1302.362347
3358.269563,-9770.718434,-1110.308913,1685.410096
3358.269900,-11177.109724,-740.205942,1225.752797
3358.270238,-11251.130318,222.061783,229.828649
3358.270575,-11695.253884,148.041188,766.095498
3358.270912,-11621.233289,-592.164754,1072.533697
3358.271250,-9252.574275,0.000000,76.609550
3358.271587,-9696.697840,-222.061783,2145.067394
3358.271924,-11251.130318,-740.205942,1455.581446
3358.272262,-11177.109724,-740.205942,-1608.800546
3358.272599,-10658.965565,666.185348,-2145.067394
3358.272937,-10881.027347,-1036.288319,-536.266849
3358.273274,-10066.800811,-1776.494261,-1149.143247
3358.273611,-9104.533087,-2294.638420,-383.047749
3358.273949,-8882.471304,-1332.370696,1685.410096
3358.274286,-10510.924376,-1850.514855,689.485948
3358.274623,-11103.089130,0.000000,-919.314598
3358.274961,-9992.780217,518.144159,-1532.190996
3358.275298,-9622.677246,-962.267725,-919.314598
3358.275635,-9326.594869,-740.205942,-1225.752797
3358.275973,-8808.450710,-962.267725,842.705048
3358.276310,-9400.615463,-518.144159,2221.676944
3358.276647,-9770.718434,-148.041188,1838.629195
3358.276985,-9844.739029,1110.308913,2221.676944
3358.277322,-10510.924376,2220.617826,2068.457845
3358.277659,-11325.150913,1332.370696,1838.629195
3358.277997,-9622.677246,888.247130,459.657299
3358.278334,-8586.388927,1850.514855,1225.752797
3358.278671,-9770.718434,1924.535449,1149.143247
3358.279009,-10140.821405,1776.494261,-1838.629195
3358.279346,-9326.594869,2368.659014,-2145.067394
3358.279683,-10732.986159,1184.329507,-1455.581446
3358.280021,-10658.965565,666.185348,-1225.752797
3358.280358,-9252.574275,740.205942,-306.438199
3358.280695,-9622.677246,-740.205942,1225.752797
3358.281033,-10362.883188,-1332.370696,383.047749
3358.281370,-9696.697840,-296.082377,-306.438199
3358.281707,-10584.944971,518.144159,1225.752797
3358.282045,-10955.047942,-814.226536,919.314598
3358.282382,-10288.862594,-888.247130,-689.485948
3358.282720,-10066.800811,-1036.288319,1149.143247
3358.283057,-10510.924376,-1554.432478,2145.067394
3358.283394,-9770.718434,-1258.350101,1149.143247
3358.283732,-10510.924376,296.082377,0.000000
3358.284069,-9918.759623,-370.102971,229.828649
3358.284406,-10140.821405,-888.247130,0.000000
3358.284744,-9918.759623,-1110.308913,459.657299
3358.285081,-9622.677246,296.082377,1685.410096
3358.285418,-10214.842000,-1332.370696,1455.581446
3358.285756,-10066.800811,-1036.288319,-612.876398
3358.286093,-9252.574275,0.000000,-766.095498
3358.286430,-9474.636058,-888.247130,76.609550
3358.286768,-9622.677246,-1702.473667,153.219100
3358.287105,-9326.594869,-1184.329507,0.000000
3358.287442,-9696.697840,-888.247130,689.485948
3358.287780,-11029.068536,-1480.411884,306.438199
3358.288117,-10510.924376,-222.061783,-995.924147
3358.288454,-10288.862594,-592.164754,-383.047749
3358.288792,-10807.006753,-222.061783,76.609550
3358.289129,-9918.759623,-666.185348,-766.095498
3358.289466,-9030.512492,-740.205942,1532.190996
3358.289804,-10288.862594,-518.144159,2374.896044
3358.290141,-10732.986159,0.000000,919.314598
3358.290478,-11547.212695,1850.514855,1455.581446
3358.290816,-11917.315666,592.164754,919.314598
3358.291153,-10288.862594,666.185348,-76.609550
3358.291490,-9326.594869,740.205942,1149.143247
3358.291828,-9252.574275,518.144159,1838.629195
3358.292165,-10584.944971,0.000000,612.876398
3358.292502,-10658.965565,0.000000,-1378.971896
3358.292840,-8882.471304,888.247130,-995.924147
3358.293177,-8586.388927,-296.082377,-995.924147
3358.293515,-8734.430116,-370.102971,-919.314598
3358.293852,-8512.368333,-1776.494261,-153.219100
3358.294189,-9178.553681,-1036.288319,459.657299
3358.294527,-9918.759623,-1110.308913,-995.924147
3358.294864,-9992.780217,-740.205942,-1762.019645
3358.295201,-10584.944971,-592.164754,-1838.629195
3358.295539,-10214.842000,-1406.391290,-2298.286494
3358.295876,-10288.862594,-1036.288319,-1302.362347
3358.296213,-9770.718434,-1110.308913,0.000000
3358.296551,-10288.862594,-2220.617826,766.095498
3358.296888,-10658.965565,-1258.350101,-383.047749
3358.297225,-9918.759623,-666.185348,919.314598
3358.297563,-11991.336260,-222.061783,2374.896044
3358.297900,-11251.130318,-296.082377,1302.362347
3358.298237,-10732.986159,222.061783,1991.848295
3358.298575,-10658.965565,222.061783,2528.115143
3358.298912,-10658.965565,370.102971,1991.848295
3358.299249,-10658.965565,1702.473667,459.657299
3358.299587,-10881.027347,1480.411884,229.828649
3358.299924,-9474.636058,1036.288319,-612.876398
3358.300261,-8956.491898,74.020594,-1685.410096
3358.300599,-8142.265362,222.061783,766.095498
3358.300936,-8438.347739,-962.267725,1838.629195
3358.301273,-9474.636058,148.041188,1455.581446
3358.301610,-10214.842000,1036.288319,0.000000
3358.301948,-10732.986159,148.041188,-536.266849
3358.302285,-9474.636058,-222.061783,-1915.238745
3358.302622,-8290.306550,-1036.288319,153.219100
3358.302960,-8142.265362,-592.164754,2145.067394
3358.303297,-8734.430116,-814.226536,1532.190996
3358.303634,-10510.924376,-444.123565,612.876398
3358.303971,-10362.883188,1554.432478,76.609550
3358.304309,-12139.377449,518.144159,0.000000
3358.304646,-11547.212695,370.102971,-76.609550
3358.304983,-9474.636058,666.185348,153.219100
3358.305321,-9400.615463,74.020594,3294.210641
3358.305658,-10955.047942,0.000000,1455.581446
3358.305995,-10807.006753,1184.329507,-229.828649
3358.306332,-11473.192101,1406.391290,-306.438199
3358.306670,-11621.233289,444.123565,-842.705048
3358.307007,-10288.862594,-296.082377,-1378.971896
3358.307344,-8956.491898,-592.164754,459.657299
3358.307682,-9474.636058,-1184.329507,1608.800546
3358.308019,-10066.800811,-1406.391290,0.000000
3358.308356,-10510.924376,-518.144159,-1455.581446
3358.308693,-10510.924376,-666.185348,-2068.457845
3358.309031,-10066.800811,-2072.576638,-2298.286494
3358.309368,-9104.533087,-2146.597232,-1608.800546
3358.309705,-8512.368333,-2812.782580,153.219100
3358.310043,-8808.450710,-2664.741391,1532.190996
3358.310380,-9844.739029,-1332.370696,383.047749
3358.310717,-10362.883188,-1036.288319,842.705048
3358.311054,-11325.150913,-1258.350101,995.924147
3358.311392,-10362.883188,-1184.329507,842.705048
3358.311729,-9622.677246,-592.164754,2068.457845
3358.312066,-9770.718434,-592.164754,3140.991542
3358.312404,-10732.986159,-962.267725,2145.067394
3358.312741,-10732.986159,74.020594,1225.752797
3358.313078,-9622.677246,888.247130,1072.533697
3358.313415,-11029.068536,1258.350101,1455.581446
3358.313753,-10288.862594,1184.329507,-612.876398
3358.314090,-8956.491898,1480.411884,-306.438199
3358.314427,-10436.903782,740.205942,1149.143247
3358.314765,-10214.842000,444.123565,-1072.533697
3358.315102,-10362.883188,1036.288319,-536.266849
3358.315439,-10881.027347,370.102971,229.828649
3358.315776,-9844.739029,0.000000,-1378.971896
3358.316114,-8586.388927,-888.247130,-689.485948
3358.316451,-8660.409521,-1258.350101,919.314598
3358.316788,-9178.553681,-2220.617826,766.095498
3358.317126,-10510.924376,-592.164754,-383.047749
3358.317463,-10066.800811,-444.123565,-689.485948
3358.317800,-10066.800811,-222.061783,-766.095498
3358.318137,-9844.739029,-444.123565,-612.876398
3358.318475,-9474.636058,-814.226536,-153.219100
3358.318812,-9474.636058,-666.185348,1915.238745
3358.319149,-10362.883188,-666.185348,1225.752797
3358.319487,-10584.944971,-370.102971,995.924147
3358.319824,-10881.027347,296.082377,612.876398
3358.320161,-10807.006753,0.000000,0.000000
3358.320498,-10658.965565,296.082377,-1378.971896
3358.320836,-9548.656652,296.082377,0.000000
3358.321173,-9622.677246,-222.061783,0.000000
3358.321510,-9770.718434,-444.123565,-766.095498
3358.321848,-9252.574275,370.102971,0.000000
3358.322185,-10881.027347,444.123565,459.657299
3358.322522,-11547.212695,0.000000,-612.876398
3358.322859,-9622.677246,-296.082377,-919.314598
3358.323197,-9622.677246,148.041188,229.828649
3358.323534,-9918.759623,-1184.329507,919.314598
3358.323871,-9696.697840,-370.102971,-459.657299
3358.324209,-9548.656652,-592.164754,76.609550
3358.324546,-10436.903782,0.000000,612.876398
3358.324883,-9992.780217,0.000000,-76.609550
3358.325220,-9252.574275,-296.082377,842.705048
3358.325558,-9474.636058,-370.102971,2681.334243
3358.325895,-10140.821405,222.061783,2221.676944
3358.326232,-10436.903782,370.102971,2145.067394
3358.326570,-10732.986159,1702.473667,1378.971896
3358.326907,-10362.883188,370.102971,153.219100
3358.327244,-9770.718434,1036.288319,-459.657299
3358.327581,-9474.636058,666.185348,76.609550
3358.327919,-9474.636058,-148.041188,1072.533697
3358.328256,-9770.718434,-592.164754,76.609550
3358.328593,-9326.594869,0.000000,-612.876398
3358.328931,-10066.800811,370.102971,153.219100
3358.329268,-11473.192101,-148.041188,-842.705048
3358.329605,-9400.615463,-370.102971,-1685.410096
3358.329942,-9622.677246,-814.226536,-76.609550
3358.330280,-10584.944971,-962.267725,76.609550
3358.330617,-10066.800811,-1406.391290,-1608.800546
3358.330954,-9770.718434,-1258.350101,-459.657299
3358.331292,-9474.636058,-1258.350101,-383.047749
3358.331629,-10584.944971,-2146.597232,-689.485948
3358.331966,-10436.903782,-1184.329507,842.705048
3358.332303,-10732.986159,-1998.556043,1915.238745
3358.332641,-11325.150913,-1850.514855,2145.067394
3358.332978,-9992.780217,-962.267725,1225.752797
3358.333315,-9622.677246,222.061783,1991.848295
3358.333653,-10436.903782,-814.226536,1532.190996
3358.333990,-9474.636058,-370.102971,536.266849
3358.334327,-9474.636058,-222.061783,1225.752797
3358.334664,-9400.615463,0.000000,1532.190996
3358.335002,-10881.027347,296.082377,76.609550
3358.335339,-10584.944971,0.000000,-229.828649
3358.335676,-9844.739029,222.061783,-383.047749
3358.336013,-9474.636058,-518.144159,-459.657299
3358.336351,-8734.430116,-888.247130,-459.657299
3358.336688,-8364.327145,-444.123565,612.876398
3358.337025,-9918.759623,-1184.329507,306.438199
3358.337363,-10658.965565,-1554.432478,-689.485948
3358.337700,-9622.677246,74.020594,76.609550
3358.338037,-9918.759623,-592.164754,919.314598
3358.338374,-10732.986159,-888.247130,0.000000
3358.338712,-9622.677246,296.082377,229.828649
3358.339049,-10658.965565,74.020594,1149.143247
3358.339386,-11177.109724,-740.205942,0.000000
3358.339724,-10955.047942,-444.123565,-306.438199
3358.340061,-10362.883188,518.144159,306.438199
3358.340398,-10436.903782,222.061783,459.657299
3358.340735,-9918.759623,-370.102971,0.000000
3358.341073,-9474.636058,592.164754,1532.190996
3358.341410,-9844.739029,74.020594,1378.971896
3358.341747,-10214.842000,222.061783,-612.876398
3358.342085,-10807.006753,1184.329507,-459.657299
3358.342422,-11251.130318,-148.041188,0.000000
3358.342759,-9992.780217,-1110.308913,-766.095498
3358.343096,-8438.347739,-592.164754,-536.266849
3358.343434,-8438.347739,-1184.329507,612.876398
3358.343771,-9252.574275,-740.205942,-995.924147
3358.344108,-9548.656652,-666.185348,-2221.676944
3358.344446,-9326.594869,222.061783,-2298.286494
3358.344783,-10807.006753,-1184.329507,-1302.362347
3358.345120,-10807.006753,-1850.514855,-1455.581446
3358.345457,-8956.491898,-1480.411884,-229.828649
3358.345795,-9326.594869,-1184.329507,2451.505594
3358.346132,-10140.821405,-444.123565,1915.238745
3358.346469,-10362.883188,666.185348,1225.752797
3358.346807,-11843.295072,592.164754,2528.115143
3358.347144,-12065.356855,0.000000,1838.629195
3358.347481,-10362.883188,962.267725,1149.143247
3358.347818,-10436.903782,888.247130,2604.724693
3358.348156,-10288.862594,1480.411884,2681.334243
3358.348493,-9474.636058,1924.535449,-383.047749
3358.348830,-9400.615463,2368.659014,-306.438199
3358.349168,-10288.862594,2146.597232,229.828649
3358.349505,-10807.006753,1110.308913,229.828649
3358.349842,-9474.636058,888.247130,842.705048
3358.350179,-10436.903782,296.082377,1762.019645
3358.350517,-10362.883188,740.205942,536.266849
3358.350854,-10362.883188,74.020594,-1149.143247
3358.351191,-9030.512492,0.000000,-1608.800546
3358.351529,-8290.306550,-1480.411884,-383.047749
3358.351866,-9030.512492,-2590.720797,-383.047749
3358.352203,-8660.409521,-2072.576638,-459.657299
3358.352540,-8512.368333,-1702.473667,0.000000
3358.352878,-10214.842000,-962.267725,-383.047749
3358.353215,-10881.027347,-296.082377,-1302.362347
3358.353552,-11251.130318,-592.164754,-153.219100
3358.353890,-11695.253884,-962.267725,459.657299
3358.354227,-10362.883188,-2294.638420,1149.143247
3358.354564,-8512.368333,-666.185348,2374.896044
3358.354901,-10362.883188,-740.205942,1991.848295
3358.355239,-11769.274478,-1110.308913,766.095498
3358.355576,-10807.006753,-444.123565,-842.705048
3358.355913,-11029.068536,-222.061783,306.438199
3358.356251,-11029.068536,0.000000,0.000000
3358.356588,-9918.759623,-888.247130,-689.485948
3358.356925,-10214.842000,-666.185348,536.266849
3358.357262,-9844.739029,-962.267725,-689.485948
3358.357600,-10066.800811,-666.185348,-536.266849
3358.357937,-10214.842000,-888.247130,-153.219100
3358.358274,-10214.842000,-1406.391290,-689.485948
3358.358612,-9622.677246,-2442.679609,-995.924147
3358.358949,-9104.533087,-2220.617826,1225.752797
3358.359286,-8956.491898,-740.205942,2374.896044
3358.359623,-10066.800811,-1332.370696,1149.143247
3358.359961,-9696.697840,-222.061783,-459.657299
3358.360298,-10066.800811,-592.164754,0.000000
3358.360635,-10214.842000,-1036.288319,1225.752797
3358.360973,-9104.533087,-518.144159,2068.457845
3358.361310,-8882.471304,370.102971,2681.334243
3358.361647,-10214.842000,1924.535449,2298.286494
3358.361984,-10510.924376,1776.494261,229.828649
3358.362322,-11251.130318,2516.700203,0.000000
3358.362659,-10955.047942,1628.453072,153.219100
3358.362996,-10510.924376,1480.411884,0.000000
3358.363334,-9030.512492,1332.370696,-383.047749
3358.363671,-9918.759623,370.102971,306.438199
3358.364008,-9548.656652,740.205942,0.000000
3358.364345,-10214.842000,592.164754,-1532.190996
3358.364683,-10658.965565,518.144159,0.000000
3358.365020,-11103.089130,444.123565,-1762.019645
3358.365357,-9844.739029,-592.164754,-1838.629195
3358.365695,-9696.697840,-1258.350101,-842.705048
3358.366032,-9474.636058,-1776.494261,383.047749
3358.366369,-10288.862594,-1406.391290,-612.876398
3358.366706,-9474.636058,-1110.308913,-2068.457845
3358.367044,-9622.677246,-1850.514855,-1225.752797
3358.367381,-10066.800811,-2664.741391,76.609550
3358.367718,-10066.800811,-2294.638420,1532.190996
3358.368056,-9770.718434,-1554.432478,2987.772442
3358.368393,-10658.965565,-740.205942,2068.457845
3358.368730,-10955.047942,518.144159,1072.533697
3358.369067,-10658.965565,0.000000,0.000000
3358.369405,-10214.842000,-370.102971,1072.533697
3358.369742,-9844.739029,-518.144159,995.924147
3358.370079,-9252.574275,444.123565,995.924147
3358.370417,-10362.883188,1110.308913,1762.019645
3358.370754,-11473.192101,814.226536,229.828649
3358.371091,-10140.821405,1036.288319,-1072.533697
3358.371428,-9992.780217,740.205942,229.828649
3358.371766,-10584.944971,0.000000,1149.143247
3358.372103,-10214.842000,0.000000,306.438199
3358.372440,-9770.718434,296.082377,689.485948
3358.372778,-9844.739029,-74.020594,1608.800546
3358.373115,-10140.821405,0.000000,459.657299
3358.373452,-10362.883188,1554.432478,-153.219100
3358.373789,-11547.212695,370.102971,153.219100
3358.374127,-9918.759623,-370.102971,-229.828649
3358.374464,-8512.368333,-814.226536,76.609550
3358.374801,-8882.471304,-370.102971,2068.457845
3358.375139,-9992.780217,0.000000,1838.629195
3358.375476,-10288.862594,370.102971,-612.876398
3358.375813,-9770.718434,962.267725,-842.705048
3358.376150,-9622.677246,148.041188,383.047749
3358.376488,-9252.574275,-592.164754,1762.019645
3358.376825,-9326.594869,-444.123565,1608.800546
3358.377162,-9548.656652,-444.123565,1225.752797
3358.377500,-11029.068536,0.000000,76.609550
3358.377837,-10288.862594,-148.041188,-919.314598
3358.378174,-9844.739029,-444.123565,-842.705048
3358.378511,-9770.718434,-1110.308913,-1302.362347
3358.378849,-9622.677246,-962.267725,-1915.238745
3358.379186,-9474.636058,-1036.288319,-1838.629195
3358.379523,-9918.759623,-1850.514855,-1149.143247
3358.379861,-10140.821405,-2146.597232,-2604.724693
3358.380198,-10436.903782,-1850.514855,-1378.971896
3358.380535,-10807.006753,-1110.308913,612.876398
3358.380872,-10732.986159,-2368.659014,1149.143247
3358.381210,-11103.089130,-1776.494261,2298.286494
3358.381547,-10362.883188,-1702.473667,3140.991542
3358.381884,-10955.047942,-1776.494261,2681.334243
3358.382222,-10288.862594,-962.267725,-306.438199
3358.382559,-9844.739029,370.102971,766.095498
3358.382896,-10214.842000,0.000000,1149.143247
3358.383233,-9474.636058,-296.082377,0.000000
3358.383571,-9400.615463,-296.082377,1455.581446
3358.383908,-9178.553681,1036.288319,2145.067394
3358.384245,-10510.924376,1184.329507,2298.286494
3358.384583,-10362.883188,1702.473667,306.438199
3358.384920,-10288.862594,1850.514855,-306.438199
3358.385257,-10066.800811,1110.308913,0.000000
3358.385594,-9918.759623,-444.123565,-383.047749
3358.385932,-8290.306550,444.123565,-153.219100
3358.386269,-8956.491898,74.020594,229.828649
3358.386606,-9992.780217,0.000000,-1915.238745
3358.386944,-9326.594869,148.041188,-1915.238745
3358.387281,-10066.800811,-296.082377,-919.314598
3358.387618,-10584.944971,-888.247130,-1225.752797
3358.387955,-9474.636058,-1702.473667,-1072.533697
3358.388293,-9474.636058,-1332.370696,1378.971896
3358.388630,-9918.759623,-2072.576638,1685.410096
3358.388967,-10066.800811,-740.205942,842.705048
3358.389305,-10288.862594,888.247130,919.314598
3358.389642,-11769.274478,0.000000,459.657299
3358.389979,-11029.068536,-814.226536,-459.657299
3358.390316,-9770.718434,74.020594,0.000000
3358.390654,-9844.739029,-222.061783,1838.629195
3358.390991,-10436.903782,-1110.308913,1225.752797
3358.391328,-9474.636058,814.226536,-536.266849
3358.391666,-10436.903782,370.102971,0.000000
3358.392003,-10807.006753,296.082377,-306.438199
3358.392340,-9844.739029,0.000000,-1072.533697
3358.392677,-10214.842000,0.000000,459.657299
3358.393015,-10436.903782,-222.061783,689.485948
3358.393352,-10362.883188,-296.082377,-995.924147
3358.393689,-10066.800811,296.082377,-1072.533697
3358.394027,-9178.553681,-592.164754,-306.438199
3358.394364,-10584.944971,-1628.453072,612.876398
3358.394701,-9178.553681,-592.164754,689.485948
3358.395038,-9178.553681,-666.185348,2374.896044
3358.395376,-10436.903782,-518.144159,2528.115143
3358.395713,-10584.944971,0.000000,-153.219100
3358.396050,-10066.800811,1184.329507,842.705048
3358.396388,-10436.903782,1036.288319,2145.067394
3358.396725,-10066.800811,222.061783,1072.533697
3358.397062,-9178.553681,1036.288319,1532.190996
3358.397399,-10066.800811,222.061783,2681.334243
3358.397737,-10955.047942,1184.329507,612.876398
3358.398074,-9770.718434,888.247130,-1302.362347
3358.398411,-9622.677246,1406.391290,-383.047749
3358.398749,-9622.677246,888.247130,-536.266849
3358.399086,-9548.656652,0.000000,-995.924147
3358.399423,-9400.615463,-74.020594,383.047749
3358.399760,-10510.924376,-1406.391290,229.828649
3358.400098,-10658.965565,-1036.288319,-689.485948
3358.400435,-9696.697840,-444.123565,-1991.848295
3358.400772,-9474.636058,-1110.308913,-689.485948
3358.401110,-9992.780217,-2664.741391,-383.047749
3358.401447,-9918.759623,-1850.514855,229.828649
3358.401784,-9844.739029,-1258.350101,919.314598
3358.402122,-12065.356855,-1776.494261,76.609550
3358.402459,-11769.274478,-1628.453072,-1149.143247
3358.402796,-10066.800811,-1480.411884,-459.657299
3358.403134,-9474.636058,-1776.494261,612.876398
3358.403471,-9474.636058,-2590.720797,995.924147
3358.403808,-9326.594869,-1258.350101,2451.505594
3358.404146,-9918.759623,-2146.597232,2911.162892
3358.404483,-10732.986159,-592.164754,1991.848295
3358.404821,-10436.903782,370.102971,0.000000
3358.405158,-11399.171507,888.247130,1225.752797
3358.405495,-11325.150913,74.020594,1378.971896
3358.405833,-9178.553681,592.164754,-612.876398
3358.406170,-8660.409521,148.041188,919.314598
3358.406507,-10214.842000,0.000000,536.266849
3358.406845,-10436.903782,-296.082377,-1685.410096
3358.407182,-10066.800811,1554.432478,-1991.848295
3358.407519,-9326.594869,370.102971,-1302.362347
3358.407857,-9844.739029,-592.164754,-1378.971896
3358.408194,-8734.430116,-148.041188,-306.438199
3358.408531,-9030.512492,-740.205942,459.657299
3358.408869,-10510.924376,0.000000,459.657299
3358.409206,-11029.068536,0.000000,-76.609550
3358.409543,-10436.903782,518.144159,229.828649
3358.409881,-10510.924376,-666.185348,995.924147
3358.410218,-9770.718434,-592.164754,842.705048
3358.410555,-8660.409521,222.061783,1225.752797
3358.410893,-10436.903782,-814.226536,2068.457845
3358.411230,-10955.047942,222.061783,-76.609550
3358.411567,-10362.883188,740.205942,-1302.362347
3358.411905,-9918.759623,1332.370696,-153.219100
3358.412242,-9992.780217,518.144159,0.000000
3358.412580,-9548.656652,666.185348,-229.828649
3358.412917,-9252.574275,222.061783,1072.533697
3358.413254,-10362.883188,444.123565,766.095498
3358.413592,-11029.068536,-222.061783,-306.438199
3358.413929,-10510.924376,666.185348,-995.924147
3358.414266,-10658.965565,-888.247130,-306.438199
3358.414604,-9326.594869,-1702.473667,-1378.971896
3358.414941,-8586.388927,-592.164754,-1455.581446
3358.415278,-9178.553681,-962.267725,0.000000
3358.415616,-9474.636058,-1332.370696,-919.314598
3358.415953,-10955.047942,-740.205942,-1378.971896
3358.416290,-11103.089130,-222.061783,0.000000
3358.416628,-9844.739029,-518.144159,306.438199
3358.416965,-9992.780217,-1406.391290,1915.238745
3358.417302,-9178.553681,-1036.288319,3294.210641
3358.417640,-10066.800811,-444.123565,3907.087040
3358.417977,-11103.089130,0.000000,2911.162892
3358.418314,-10732.986159,518.144159,1378.971896
3358.418652,-10288.862594,1480.411884,766.095498
3358.418989,-10584.944971,1110.308913,383.047749
3358.419326,-9474.636058,740.205942,459.657299
3358.419664,-8438.347739,740.205942,1225.752797
3358.420001,-9770.718434,1036.288319,1149.143247
3358.420338,-10510.924376,1480.411884,-1072.533697
3358.420676,-10288.862594,1258.350101,-1378.971896
3358.421013,-9992.780217,814.226536,-1225.752797
3358.421351,-10214.842000,-592.164754,-766.095498
3358.421688,-9030.512492,-592.164754,919.314598
3358.422025,-9474.636058,-1110.308913,459.657299
3358.422363,-10362.883188,-1554.432478,0.000000
3358.422700,-9548.656652,-1332.370696,-1072.533697
3358.423037,-10066.800811,-1184.329507,612.876398
3358.423375,-10732.986159,-1850.514855,842.705048
3358.423712,-9696.697840,-740.205942,-1608.800546
3358.424049,-9622.677246,-2368.659014,919.314598
3358.424387,-11103.089130,-1036.288319,2374.896044
3358.424724,-11177.109724,-1406.391290,1915.238745
3358.425061,-10584.944971,222.061783,1378.971896
3358.425399,-10658.965565,0.000000,0.000000
3358.425736,-11547.212695,-518.144159,-459.657299
3358.426073,-9474.636058,74.020594,0.000000
3358.426411,-8882.471304,0.000000,229.828649
3358.426748,-9696.697840,-148.041188,459.657299
3358.427085,-10584.944971,-444.123565,-995.924147
3358.427423,-9474.636058,222.061783,-1149.143247
3358.427760,-10214.842000,-222.061783,-459.657299
3358.428097,-10362.883188,-296.082377,-1149.143247
3358.428435,-8586.388927,-1184.329507,-1532.190996
3358.428772,-9400.615463,-592.164754,536.266849
3358.429109,-10140.821405,-666.185348,153.219100
3358.429447,-10066.800811,-444.123565,-536.266849
3358.429784,-10436.903782,296.082377,0.000000
3358.430122,-11029.068536,-1924.535449,-612.876398
3358.430459,-10436.903782,0.000000,0.000000
3358.430796,-8956.491898,0.000000,766.095498
3358.431134,-9474.636058,-518.144159,1532.190996
3358.431471,-9844.739029,-592.164754,1149.143247
3358.431808,-10436.903782,814.226536,1455.581446
3358.432146,-10807.006753,1332.370696,1225.752797
3358.432483,-10955.047942,740.205942,153.219100
3358.432820,-9252.574275,1406.391290,459.657299
3358.433158,-9252.574275,518.144159,1608.800546
3358.433495,-9992.780217,222.061783,1225.752797
3358.433832,-10214.842000,962.267725,-306.438199
3358.434170,-9918.759623,296.082377,0.000000
3358.434507,-10140.821405,0.000000,-459.657299
3358.434844,-10140.821405,-666.185348,-1991.848295
3358.435182,-8586.388927,-666.185348,-1072.533697
3358.435519,-7920.203579,-1628.453072,-612.876398
3358.435856,-9252.574275,-1776.494261,-612.876398
3358.436194,-9474.636058,-518.144159,-2145.067394
3358.436531,-10066.800811,-1258.350101,-919.314598
3358.436868,-11843.295072,-2072.576638,0.000000
3358.437206,-10510.924376,-1554.432478,0.000000
3358.437543,-9474.636058,-1332.370696,1455.581446
3358.437881,-10066.800811,-2368.659014,2451.505594
3358.438218,-10807.006753,-2072.576638,919.314598
3358.438555,-10436.903782,-592.164754,612.876398
3358.438893,-11325.150913,-1036.288319,1378.971896
3358.439230,-11325.150913,0.000000,842.705048
3358.439567,-9918.759623,0.000000,0.000000
3358.439905,-10214.842000,592.164754,2987.772442
3358.440242,-10658.965565,148.041188,2604.724693
3358.440579,-10288.862594,2146.597232,1378.971896
3358.440917,-10584.944971,1332.370696,689.485948
3358.441254,-10584.944971,0.000000,612.876398
3358.441591,-10436.903782,148.041188,-229.828649
3358.441929,-9252.574275,518.144159,306.438199
3358.442266,-8438.347739,888.247130,0.000000
3358.442603,-9548.656652,74.020594,-1302.362347
3358.442941,-9400.615463,888.247130,-2221.676944
3358.443278,-8364.327145,74.020594,-2221.676944
3358.443615,-9326.594869,-814.226536,-612.876398
3358.443953,-9252.574275,-222.061783,76.609550
3358.444290,-9178.553681,-444.123565,76.609550
3358.444627,-9252.574275,-222.061783,1378.971896
3358.444965,-10288.862594,-222.061783,306.438199
3358.445302,-9770.718434,74.020594,995.924147
3358.445639,-10658.965565,0.000000,2145.067394
3358.445977,-11621.233289,-370.102971,612.876398
3358.446314,-10288.862594,-444.123565,0.000000
3358.446652,-9178.553681,-74.020594,1072.533697
3358.446989,-10214.842000,0.000000,919.314598
3358.447326,-10288.862594,0.000000,-919.314598
3358.447664,-10288.862594,518.144159,-459.657299
3358.448001,-11103.089130,0.000000,-1149.143247
3358.448338,-10955.047942,-1036.288319,-383.047749
3358.448676,-8660.409521,-1332.370696,612.876398
3358.449013,-9770.718434,-1850.514855,919.314598
3358.449350,-10955.047942,-1332.370696,536.266849
3358.449688,-10658.965565,-2220.617826,-995.924147
3358.450025,-9844.739029,-1776.494261,0.000000
3358.450362,-11621.233289,-1924.535449,-383.047749
3358.450700,-9918.759623,-2294.638420,-2221.676944
3358.451037,-8364.327145,-2072.576638,-919.314598
3358.451374,-9326.594869,-2368.659014,76.609550
3358.451712,-9400.615463,-1628.453072,-919.314598
3358.452049,-9252.574275,-592.164754,-306.438199
3358.452386,-10732.986159,-518.144159,842.705048
3358.452724,-11399.171507,-518.144159,612.876398
3358.453061,-9844.739029,-592.164754,1532.190996
3358.453398,-9992.780217,888.247130,4366.744339
3358.453736,-10732.986159,518.144159,4060.306139
3358.454073,-11029.068536,1702.473667,1762.019645
3358.454411,-10955.047942,2146.597232,612.876398
3358.454748,-11399.171507,1998.556043,1455.581446
3358.455085,-9844.739029,1554.432478,-612.876398
3358.455423,-8364.327145,1554.432478,-153.219100
3358.455760,-8956.491898,2072.576638,-153.219100
3358.456097,-9548.656652,1628.453072,-1532.190996
3358.456435,-10066.800811,2146.597232,-1915.238745
3358.456772,-10140.821405,1110.308913,-842.705048
3358.457109,-9992.780217,592.164754,-153.219100
3358.457447,-9474.636058,-222.061783,-76.609550
3358.457784,-8586.388927,-444.123565,1378.971896
3358.458121,-9400.615463,-1332.370696,1838.629195
3358.458459,-9548.656652,-2294.638420,229.828649
3358.458796,-9030.512492,-740.205942,76.609550
3358.459133,-10066.800811,-888.247130,459.657299
3358.459471,-11325.150913,-1184.329507,0.000000
3358.459808,-9844.739029,-888.247130,-995.924147
3358.460145,-9252.574275,-1184.329507,995.924147
3358.460483,-9770.718434,-592.164754,1149.143247
3358.460820,-10881.027347,-740.205942,229.828649
3358.461157,-10436.903782,0.000000,612.876398
3358.461495,-10807.006753,-1332.370696,1455.581446
3358.461832,-11325.150913,-814.226536,995.924147
3358.462169,-10288.862594,-592.164754,919.314598
3358.462507,-10510.924376,-444.123565,1072.533697
3358.462844,-11547.212695,-1110.308913,-76.609550
3358.463182,-10436.903782,0.000000,-1378.971896
3358.463519,-10140.821405,-592.164754,-919.314598
3358.463856,-10140.821405,-888.247130,-1915.238745
3358.464194,-9696.697840,-1628.453072,-1991.848295
3358.464531,-8882.471304,-1332.370696,-919.314598
3358.464868,-9252.574275,-1628.453072,306.438199
3358.465206,-10214.842000,-1184.329507,153.219100
3358.465543,-10214.842000,0.000000,612.876398
3358.465880,-10140.821405,0.000000,229.828649
3358.466218,-10510.924376,-1332.370696,229.828649
3358.466555,-9104.533087,-592.164754,2068.457845
3358.466892,-8068.244768,-592.164754,3140.991542
3358.467230,-9474.636058,0.000000,2757.943793
3358.467567,-10140.821405,1406.391290,842.705048
3358.467904,-10214.842000,1924.535449,383.047749
3358.468242,-10140.821405,1702.473667,842.705048
3358.468579,-10214.842000,740.205942,919.314598
3358.468916,-9030.512492,2220.617826,995.924147
3358.469254,-9770.718434,2220.617826,766.095498
3358.469591,-10362.883188,1110.308913,-1149.143247
3358.469928,-9548.656652,1110.308913,-1378.971896
3358.470266,-9992.780217,222.061783,-766.095498
3358.470603,-9696.697840,0.000000,-1072.533697
3358.470941,-9252.574275,-1924.535449,-1378.971896
3358.471278,-8882.471304,-888.247130,306.438199
3358.471615,-10288.862594,-1998.556043,842.705048
3358.471953,-10732.986159,-1258.350101,-306.438199
3358.472290,-10140.821405,-1036.288319,-153.219100
3358.472627,-10732.986159,-1554.432478,536.266849
3358.472965,-10584.944971,-2146.597232,76.609550
3358.473302,-9474.636058,-2220.617826,0.000000
3358.473639,-10510.924376,-2294.638420,1685.410096
3358.473977,-10066.800811,-1480.411884,536.266849
3358.474314,-10584.944971,-1628.453072,536.266849
3358.474651,-10066.800811,-370.102971,1608.800546
3358.474989,-10436.903782,-1110.308913,1302.362347
3358.475326,-10658.965565,-814.226536,1685.410096
3358.475663,-10288.862594,0.000000,1455.581446
3358.476001,-10140.821405,370.102971,919.314598
3358.476338,-10955.047942,740.205942,-612.876398
3358.476675,-9918.759623,1332.370696,-1608.800546
3358.477013,-9696.697840,814.226536,-1762.019645
3358.477350,-9326.594869,-444.123565,-1685.410096
3358.477687,-8586.388927,296.082377,-1225.752797
3358.478025,-9474.636058,-222.061783,0.000000
3358.478362,-10955.047942,0.000000,0.000000
3358.478699,-10362.883188,-222.061783,-1072.533697
3358.479037,-9918.759623,74.020594,76.609550
3358.479374,-9696.697840,0.000000,1455.581446
3358.479712,-9844.739029,-1258.350101,536.266849
3358.480049,-9104.533087,370.102971,995.924147
3358.480386,-9104.533087,0.000000,1225.752797
3358.480724,-10436.903782,814.226536,459.657299
3358.481061,-10362.883188,444.123565,-919.314598
3358.481398,-9696.697840,1406.391290,-306.438199
3358.481736,-9992.780217,592.164754,153.219100
3358.482073,-10066.800811,370.102971,76.609550
3358.482410,-9326.594869,814.226536,1685.410096
3358.482748,-9696.697840,-296.082377,1991.848295
3358.483085,-11177.109724,518.144159,1072.533697
3358.483422,-10436.903782,814.226536,76.609550
3358.483760,-10140.821405,666.185348,229.828649
3358.484097,-9992.780217,-888.247130,536.266849
3358.484434,-10066.800811,-666.185348,-306.438199
3358.484772,-8586.388927,-962.267725,-612.876398
3358.485109,-9548.656652,-888.247130,-1378.971896
3358.485446,-10584.944971,-1184.329507,-1455.581446
3358.485784,-10066.800811,-1332.370696,-1838.629195
3358.486121,-10066.800811,-1850.514855,-153.219100
3358.486458,-9992.780217,-1850.514855,0.000000
3358.486796,-9252.574275,-1554.432478,1455.581446
3358.487133,-10436.903782,-888.247130,1685.410096
3358.487471,-10732.986159,-1184.329507,383.047749
3358.487808,-10955.047942,-444.123565,689.485948
3358.488145,-10584.944971,0.000000,2145.067394
3358.488483,-10436.903782,-148.041188,2145.067394
3358.488820,-10288.862594,0.000000,1455.581446
3358.489157,-10066.800811,518.144159,1915.238745
3358.489495,-10066.800811,592.164754,1072.533697
3358.489832,-10436.903782,666.185348,-306.438199
3358.490169,-8882.471304,1554.432478,-536.266849
3358.490507,-9326.594869,1776.494261,-766.095498
3358.490844,-10288.862594,296.082377,-919.314598
3358.491181,-9030.512492,0.000000,-1149.143247
3358.491519,-8956.491898,-148.041188,1838.629195
3358.491856,-9918.759623,222.061783,1532.190996
3358.492193,-10510.924376,148.041188,-536.266849
3358.492531,-10510.924376,1036.288319,-1455.581446
3358.492868,-10066.800811,-592.164754,-1302.362347
3358.493205,-10140.821405,-962.267725,-1455.581446
3358.493543,-8586.388927,-1702.473667,-689.485948
3358.493880,-8512.368333,-888.247130,0.000000
3358.494217,-10214.842000,-2072.576638,0.000000
3358.494555,-9770.718434,-962.267725,-1225.752797
3358.494892,-8808.450710,-888.247130,76.609550
3358.495229,-11399.171507,-1480.411884,2221.676944
3358.495567,-11103.089130,-1702.473667,1149.143247
3358.495904,-10584.944971,-370.102971,2145.067394
3358.496242,-11177.109724,-444.123565,2374.896044
3358.496579,-10807.006753,-148.041188,842.705048
3358.496916,-10658.965565,-296.082377,-306.438199
3358.497254,-9844.739029,-1184.329507,-229.828649
3358.497591,-10066.800811,-814.226536,-459.657299
3358.497928,-9992.780217,-814.226536,-995.924147
3358.498266,-9474.636058,-296.082377,-612.876398
3358.498603,-10510.924376,-518.144159,-536.266849
3358.498940,-11177.109724,-814.226536,-1608.800546
3358.499278,-10066.800811,0.000000,-1149.143247
3358.499615,-9474.636058,-1332.370696,0.000000
3358.499952,-9770.718434,-1776.494261,459.657299
3358.500290,-9474.636058,-1554.432478,689.485948
3358.500627,-9770.718434,-962.267725,1532.190996
3358.500964,-10140.821405,-740.205942,842.705048
3358.501302,-9474.636058,-444.123565,229.828649
3358.501639,-9770.718434,148.041188,1532.190996
3358.501976,-9992.780217,814.226536,995.924147
3358.502314,-9844.739029,370.102971,229.828649
3358.502651,-9030.512492,222.061783,1838.629195
3358.502988,-10214.842000,1554.432478,2145.067394
3358.503326,-10584.944971,1628.453072,1225.752797
3358.503663,-10140.821405,2516.700203,383.047749
3358.504000,-10362.883188,1184.329507,1455.581446
3358.504338,-10658.965565,1998.556043,0.000000
3358.504675,-8882.471304,1110.308913,-536.266849
3358.505012,-9696.697840,962.267725,1455.581446
3358.505350,-10436.903782,-444.123565,0.000000
3358.505687,-10510.924376,0.000000,-1608.800546
3358.506025,-9326.594869,-148.041188,0.000000
3358.506362,-9400.615463,-444.123565,-229.828649
3358.506699,-9548.656652,-1258.350101,-1378.971896
3358.507037,-9770.718434,-1776.494261,-1225.752797
3358.507374,-8956.491898,-1850.514855,919.314598
3358.507711,-10140.821405,-2368.659014,0.000000
3358.508049,-10362.883188,-1110.308913,0.000000
3358.508386,-10510.924376,-1406.391290,-612.876398
3358.508723,-11621.233289,-1480.411884,153.219100
3358.509061,-10140.821405,-2368.659014,-919.314598
3358.509398,-9178.553681,-1702.473667,1455.581446
3358.509735,-10436.903782,-1554.432478,3140.991542
3358.510073,-10955.047942,-1480.411884,1072.533697
3358.510410,-10732.986159,740.205942,612.876398
3358.510747,-11695.253884,-518.144159,1532.190996
3358.511085,-11029.068536,-666.185348,459.657299
3358.511422,-9252.574275,-592.164754,842.705048
3358.511759,-9326.594869,0.000000,2757.943793
3358.512097,-10584.944971,0.000000,1225.752797
3358.512434,-10955.047942,666.185348,-1838.629195
3358.512771,-10140.821405,1702.473667,-1685.410096
3358.513109,-10140.821405,518.144159,-1762.019645
3358.513446,-9252.574275,-518.144159,-2298.286494
3358.513783,-8586.388927,-222.061783,-842.705048
3358.514121,-8660.409521,-592.164754,2298.286494
3358.514458,-10140.821405,-370.102971,1225.752797
3358.514795,-9992.780217,296.082377,-229.828649
3358.515133,-10436.903782,666.185348,1225.752797
3358.515470,-10584.944971,0.000000,919.314598
3358.515807,-9326.594869,-814.226536,536.266849
3358.516145,-8364.327145,-370.102971,2604.724693
3358.516482,-10214.842000,-518.144159,3217.601092
3358.516819,-11029.068536,370.102971,766.095498
3358.517157,-9622.677246,1776.494261,-459.657299
3358.517494,-10214.842000,1036.288319,229.828649
3358.517831,-10955.047942,-592.164754,306.438199
3358.518169,-9696.697840,148.041188,-383.047749
3358.518506,-9252.574275,222.061783,919.314598
3358.518843,-11103.089130,-370.102971,1225.752797
3358.519181,-10732.986159,518.144159,-689.485948
3358.519518,-10140.821405,148.041188,-995.924147
3358.519856,-10881.027347,-888.247130,-229.828649
3358.520193,-9474.636058,-2072.576638,-1225.752797
3358.520530,-9400.615463,-962.267725,-459.657299
3358.520868,-10436.903782,-2220.617826,-459.657299
3358.521205,-10436.903782,-2146.597232,-1915.238745
3358.521542,-10362.883188,-1998.556043,-2068.457845
3358.521880,-10732.986159,-1776.494261,306.438199
3358.522217,-9400.615463,-1850.514855,0.000000
3358.522554,-8882.471304,-1924.535449,459.657299
3358.522892,-9548.656652,-1776.494261,2451.505594
3358.523229,-10510.924376,-1554.432478,1838.629195
3358.523566,-11399.171507,-814.226536,1532.190996
3358.523904,-10732.986159,1036.288319,2145.067394
3358.524241,-11325.150913,740.205942,1455.581446
3358.524578,-10066.800811,1110.308913,0.000000
3358.524916,-8956.491898,1332.370696,-383.047749
3358.525253,-9400.615463,1184.329507,1225.752797
3358.525590,-9918.759623,1036.288319,76.609550
3358.525928,-10732.986159,1332.370696,-842.705048
3358.526265,-10510.924376,2146.597232,0.000000
3358.526602,-9992.780217,2220.617826,-153.219100
3358.526940,-9844.739029,740.205942,-612.876398
3358.527277,-9030.512492,370.102971,459.657299
3358.527614,-9474.636058,518.144159,1302.362347
3358.527952,-10732.986159,-518.144159,-153.219100
3358.528289,-10362.883188,518.144159,-1225.752797
3358.528626,-9918.759623,0.000000,-689.485948
3358.528964,-9548.656652,-1406.391290,-1149.143247
3358.529301,-8216.285956,-814.226536,-995.924147
3358.529638,-8142.265362,-1554.432478,0.000000
3358.529976,-9622.677246,-1480.411884,1915.238745
3358.530313,-10436.903782,-962.267725,0.000000
3358.530650,-11325.150913,518.144159,766.095498
3358.530988,-11695.253884,518.144159,383.047749
3358.531325,-10658.965565,-592.164754,459.657299
3358.531662,-9474.636058,-666.185348,1149.143247
3358.532000,-8734.430116,-1036.288319,2451.505594
3358.532337,-10732.986159,-1480.411884,2221.676944
3358.532674,-11695.253884,0.000000,306.438199
3358.533012,-10881.027347,296.082377,-842.705048
3358.533349,-10510.924376,222.061783,-995.924147
3358.533687,-10140.821405,-518.144159,-995.924147
3358.534024,-9104.533087,-1110.308913,0.000000
3358.534361,-9474.636058,-1776.494261,919.314598
3358.534699,-10584.944971,-962.267725,76.609550
3358.535036,-10140.821405,-518.144159,-766.095498
3358.535373,-10510.924376,-888.247130,229.828649
3358.535711,-10955.047942,-1554.432478,76.609550
3358.536048,-8808.450710,-1554.432478,0.000000
3358.536385,-8142.265362,-1406.391290,1225.752797
3358.536723,-9400.615463,-1776.494261,1838.629195
3358.537060,-9844.739029,-222.061783,919.314598
3358.537397,-10510.924376,518.144159,1149.143247
3358.537735,-11473.192101,518.144159,1608.800546
3358.538072,-10584.944971,518.144159,536.266849
3358.538409,-9548.656652,518.144159,2145.067394
3358.538747,-8734.430116,888.247130,2987.772442
3358.539084,-10214.842000,1850.514855,2528.115143
3358.539421,-11177.109724,2812.782580,229.828649
3358.539759,-11251.130318,1776.494261,-842.705048
3358.540096,-11547.212695,1036.288319,0.000000
3358.540433,-9992.780217,1554.432478,-1991.848295
3358.540771,-8216.285956,1110.308913,-1149.143247
3358.541108,-9400.615463,296.082377,-536.266849
3358.541445,-10658.965565,-592.164754,-2221.676944
3358.541783,-10066.800811,1258.350101,-3294.210641
3358.542120,-9474.636058,814.226536,-3830.477490
3358.542457,-10362.883188,444.123565,-3064.381992
3358.542795,-9770.718434,-1850.514855,-3294.210641
3358.543132,-8660.409521,-1924.535449,-1149.143247
3358.543469,-8808.450710,-1850.514855,766.095498
3358.543807,-9844.739029,-1036.288319,536.266849
3358.544144,-9770.718434,-666.185348,76.609550
3358.544481,-11473.192101,-1036.288319,306.438199
3358.544819,-11769.274478,-444.123565,76.609550
3358.545156,-9696.697840,1332.370696,-1302.362347
3358.545493,-9474.636058,888.247130,0.000000
3358.545831,-10362.883188,370.102971,-919.314598
3358.546168,-10807.006753,-296.082377,-1302.362347
3358.546505,-9400.615463,2368.659014,-766.095498
3358.546843,-9622.677246,2368.659014,0.000000
3358.547180,-12213.398043,2368.659014,-229.828649
3358.547518,-11695.253884,1258.350101,-2681.334243
3358.547855,-9992.780217,740.205942,-2145.067394
3358.548192,-10066.800811,1110.308913,0.000000
3358.548530,-9326.594869,814.226536,0.000000
3358.548867,-8660.409521,2960.823768,-1762.019645
3358.549204,-10362.883188,2516.700203,-3064.381992
3358.549542,-11325.150913,1554.432478,-3140.991542
3358.549879,-9770.718434,740.205942,-2834.553343
3358.550216,-7920.203579,740.205942,-1378.971896
3358.550554,-8142.265362,1776.494261,1225.752797
3358.550891,-10732.986159,1258.350101,536.266849
3358.551228,-10214.842000,2368.659014,-2145.067394
3358.551566,-9844.739029,1776.494261,-1149.143247
3358.551903,-9696.697840,2664.741391,0.000000
3358.552240,-9992.780217,2664.741391,-229.828649
3358.552578,-10584.944971,3330.926739,-2374.896044
3358.552915,-9104.533087,3034.844362,-2834.553343
3358.553252,-9400.615463,2220.617826,-1532.190996
3358.553590,-11843.295072,1184.329507,-612.876398
3358.553927,-9474.636058,2664.741391,-3294.210641
3358.554264,-8956.491898,1776.494261,-1838.629195
3358.554602,-9622.677246,2516.700203,-1302.362347
3358.554939,-11325.150913,1924.535449,-2451.505594
3358.555276,-11251.130318,2590.720797,-3983.696590
3358.555614,-8882.471304,1776.494261,-4979.620737
3358.555951,-9696.697840,814.226536,-1991.848295
3358.556288,-12435.459826,-814.226536,-1608.800546
3358.556626,-10066.800811,-888.247130,-3294.210641
3358.556963,-7328.038826,-296.082377,-3677.258390
3358.557300,-9178.553681,0.000000,-1072.533697
3358.557638,-11177.109724,-370.102971,-2451.505594
3358.557975,-11991.336260,0.000000,-2451.505594
3358.558312,-8512.368333,1554.432478,-1455.581446
3358.558650,-9548.656652,1702.473667,153.219100
3358.558987,-11991.336260,1924.535449,76.609550
3358.559324,-12213.398043,518.144159,-842.705048
3358.559662,-9474.636058,518.144159,-383.047749
3358.559999,-7846.182985,1776.494261,766.095498
3358.560337,-10510.924376,3108.864956,689.485948
3358.560674,-11621.233289,4145.153275,-2604.724693
3358.561011,-10362.883188,1628.453072,-4213.525239
3358.561349,-8956.491898,2294.638420,-2451.505594
3358.561686,-9030.512492,3108.864956,-1455.581446
3358.562023,-10881.027347,4071.132681,-2068.457845
3358.562361,-10362.883188,3849.070898,-4213.525239
3358.562698,-7846.182985,1110.308913,-4290.134789
3358.563035,-8956.491898,962.267725,153.219100
3358.563373,-9770.718434,1036.288319,1225.752797
3358.563710,-11325.150913,2368.659014,-766.095498
3358.564047,-10732.986159,1998.556043,-4060.306139
3358.564385,-9548.656652,1258.350101,-4749.792088
3358.564722,-7179.997637,296.082377,-1685.410096
3358.565059,-8882.471304,222.061783,919.314598
3358.565397,-11399.171507,814.226536,-689.485948
3358.565734,-11399.171507,1406.391290,-4826.401637
3358.566071,-9548.656652,2368.659014,-3907.087040
3358.566409,-9474.636058,1480.411884,-842.705048
3358.566746,-8660.409521,296.082377,229.828649
3358.567083,-10955.047942,1406.391290,536.266849
3358.567421,-11547.212695,1924.535449,919.314598
3358.567758,-11399.171507,2960.823768,-689.485948
3358.568095,-11325.150913,2812.782580,-2145.067394
3358.568433,-10214.842000,1850.514855,-3294.210641
3358.568770,-9844.739029,666.185348,-4136.915689
3358.569107,-10510.924376,74.020594,-3983.696590
3358.569445,-7994.224174,222.061783,-3447.429741
3358.569782,-8438.347739,-148.041188,-2221.676944
3358.570119,-9770.718434,0.000000,-1838.629195
3358.570457,-11399.171507,1554.432478,-3830.477490
