#time,accel_x,accel_y,accel_z
2802.638532,-10584.944971,0.000000,-383.047749
2802.638870,-10584.944971,962.267725,0.000000
2802.639207,-10584.944971,666.185348,229.828649
2802.639545,-10955.047942,-296.082377,842.705048
2802.639883,-9548.656652,-518.144159,1455.581446
2802.640221,-8512.368333,-1258.350101,2145.067394
2802.640558,-8586.388927,-370.102971,2987.772442
2802.640896,-9252.574275,74.020594,1149.143247
2802.641234,-9992.780217,148.041188,-306.438199
2802.641572,-10140.821405,0.000000,-919.314598
2802.641909,-9622.677246,74.020594,-306.438199
2802.642247,-10140.821405,1332.370696,0.000000
2802.642585,-9770.718434,1332.370696,-1072.533697
2802.642922,-9548.656652,444.123565,-2068.457845
2802.643260,-9474.636058,-962.267725,-1532.190996
2802.643598,-10066.800811,-1924.535449,919.314598
2802.643936,-10140.821405,-1332.370696,919.314598
2802.644273,-10658.965565,-1258.350101,-766.095498
2802.644611,-10807.006753,-1924.535449,-1762.019645
2802.644949,-11473.192101,-2294.638420,-995.924147
2802.645287,-9696.697840,-3108.864956,229.828649
2802.645624,-10436.903782,-1702.473667,1149.143247
2802.645962,-10732.986159,-962.267725,-306.438199
2802.646300,-10955.047942,-666.185348,-1532.190996
2802.646638,-11029.068536,-2220.617826,0.000000
2802.646975,-9696.697840,-1998.556043,995.924147
2802.647313,-9696.697840,-1924.535449,2528.115143
2802.647651,-10436.903782,-592.164754,1838.629195
2802.647989,-10288.862594,-148.041188,1608.800546
2802.648326,-10584.944971,0.000000,689.485948
2802.648664,-9696.697840,-518.144159,229.828649
2802.649002,-9030.512492,814.226536,842.705048
2802.649340,-10066.800811,1776.494261,995.924147
2802.649677,-9474.636058,1406.391290,-536.266849
2802.650015,-9178.553681,1184.329507,-1608.800546
2802.650353,-9178.553681,740.205942,-766.095498
2802.650691,-9696.697840,296.082377,-766.095498
2802.651028,-9548.656652,0.000000,-689.485948
2802.651366,-9104.533087,74.020594,-76.609550
2802.651704,-8882.471304,-222.061783,383.047749
2802.652042,-9178.553681,-222.061783,689.485948
2802.652379,-9474.636058,222.061783,766.095498
2802.652717,-11103.089130,0.000000,459.657299
2802.653055,-10510.924376,444.123565,76.609550
2802.653393,-10584.944971,370.102971,-612.876398
2802.653730,-9918.759623,-962.267725,-306.438199
2802.654068,-9770.718434,-1406.391290,689.485948
2802.654406,-9992.780217,-740.205942,1225.752797
2802.654744,-10584.944971,-518.144159,1455.581446
2802.655081,-10584.944971,-222.061783,383.047749
2802.655419,-11325.150913,-370.102971,1455.581446
2802.655757,-11325.150913,370.102971,1149.143247
2802.656095,-11325.150913,0.000000,612.876398
2802.656432,-10807.006753,-148.041188,383.047749
2802.656770,-10066.800811,-592.164754,-842.705048
2802.657108,-9548.656652,-1110.308913,-536.266849
2802.657446,-9474.636058,-1628.453072,-842.705048
2802.657783,-9178.553681,-1332.370696,-766.095498
2802.658121,-9104.533087,-1776.494261,-842.705048
2802.658459,-9252.574275,-2072.576638,-689.485948
2802.658797,-9474.636058,-1554.432478,0.000000
2802.659134,-9918.759623,-1702.473667,689.485948
2802.659472,-10881.027347,-1776.494261,1608.800546
2802.659810,-9770.718434,-1258.350101,612.876398
2802.660148,-10362.883188,-962.267725,919.314598
2802.660485,-9918.759623,-1110.308913,766.095498
2802.660823,-9474.636058,-1332.370696,689.485948
2802.661161,-9770.718434,0.000000,1838.629195
2802.661498,-9770.718434,222.061783,1608.800546
2802.661836,-10066.800811,1110.308913,689.485948
2802.662174,-10807.006753,1036.288319,229.828649
2802.662512,-10807.006753,2072.576638,306.438199
2802.662849,-10140.821405,1554.432478,153.219100
2802.663187,-9400.615463,2072.576638,0.000000
2802.663525,-9104.533087,1998.556043,0.000000
2802.663863,-9400.615463,1628.453072,0.000000
2802.664200,-9622.677246,1110.308913,-383.047749
2802.664538,-9548.656652,1258.350101,-1149.143247
2802.664876,-9770.718434,814.226536,-1072.533697
2802.665214,-10066.800811,444.123565,-689.485948
2802.665551,-9992.780217,0.000000,-1072.533697
2802.665889,-9844.739029,-518.144159,-766.095498
2802.666227,-9918.759623,-814.226536,-536.266849
2802.666565,-9548.656652,-1628.453072,0.000000
2802.666902,-9622.677246,-1776.494261,229.828649
2802.667240,-10362.883188,-1998.556043,1838.629195
2802.667578,-10362.883188,-1110.308913,536.266849
2802.667916,-10584.944971,-1554.432478,1149.143247
2802.668253,-10658.965565,-1258.350101,1225.752797
2802.668591,-10436.903782,-1776.494261,1532.190996
2802.668929,-10955.047942,-888.247130,1838.629195
2802.669267,-10807.006753,-1332.370696,1302.362347
2802.669603,-10140.821405,-1480.411884,612.876398
2802.669941,-9474.636058,-888.247130,612.876398
2802.670279,-10140.821405,-296.082377,689.485948
2802.670616,-9252.574275,-592.164754,-306.438199
2802.670954,-9326.594869,-370.102971,-842.705048
2802.671292,-9622.677246,-148.041188,229.828649
2802.671629,-9474.636058,-296.082377,-306.438199
2802.671967,-9696.697840,-370.102971,-536.266849
2802.672305,-10140.821405,-370.102971,-306.438199
2802.672642,-9104.533087,-518.144159,-612.876398
2802.672980,-9400.615463,-370.102971,-459.657299
2802.673318,-10066.800811,-1184.329507,76.609550
2802.673655,-9918.759623,-814.226536,383.047749
2802.673993,-10881.027347,-370.102971,766.095498
2802.674331,-10658.965565,0.000000,612.876398
2802.674668,-10288.862594,222.061783,689.485948
2802.675006,-11103.089130,74.020594,1302.362347
2802.675343,-10436.903782,296.082377,459.657299
2802.675681,-9918.759623,1110.308913,1455.581446
2802.676019,-10362.883188,888.247130,1302.362347
2802.676356,-10140.821405,888.247130,0.000000
2802.676694,-10214.842000,1480.411884,0.000000
2802.677032,-9770.718434,1184.329507,-76.609550
2802.677369,-9400.615463,1036.288319,-612.876398
2802.677707,-9474.636058,962.267725,-459.657299
2802.678045,-9474.636058,74.020594,-536.266849
2802.678382,-9400.615463,0.000000,-306.438199
2802.678720,-9474.636058,-592.164754,-919.314598
2802.679058,-9770.718434,-592.164754,0.000000
2802.679395,-9992.780217,-296.082377,-459.657299
2802.679733,-9844.739029,-1110.308913,-689.485948
2802.680071,-9696.697840,-1480.411884,0.000000
2802.680408,-9844.739029,-1776.494261,229.828649
2802.680746,-10362.883188,-1776.494261,1225.752797
2802.681084,-10955.047942,-1924.535449,995.924147
2802.681421,-10584.944971,-1850.514855,766.095498
2802.681759,-10658.965565,-1480.411884,919.314598
2802.682096,-10955.047942,-1776.494261,1838.629195
2802.682434,-10436.903782,-1332.370696,1532.190996
2802.682772,-9918.759623,-1480.411884,1685.410096
2802.683109,-11029.068536,-444.123565,2451.505594
2802.683447,-10807.006753,-74.020594,1838.629195
2802.683785,-10658.965565,0.000000,1149.143247
2802.684122,-10658.965565,0.000000,766.095498
2802.684460,-10288.862594,592.164754,229.828649
2802.684798,-9992.780217,518.144159,-153.219100
2802.685135,-9548.656652,0.000000,-612.876398
2802.685473,-8586.388927,222.061783,-1225.752797
2802.685811,-8956.491898,148.041188,-919.314598
2802.686148,-9326.594869,0.000000,-919.314598
2802.686486,-9326.594869,-74.020594,-1302.362347
2802.686824,-9252.574275,0.000000,-1225.752797
2802.687161,-9252.574275,-370.102971,-689.485948
2802.687499,-9770.718434,-370.102971,76.609550
2802.687836,-10214.842000,-296.082377,842.705048
2802.688174,-10214.842000,-666.185348,229.828649
2802.688512,-10214.842000,0.000000,153.219100
2802.688849,-10584.944971,-296.082377,766.095498
2802.689187,-10955.047942,0.000000,536.266849
2802.689525,-10658.965565,-592.164754,1302.362347
2802.689862,-9992.780217,0.000000,919.314598
2802.690200,-10510.924376,370.102971,995.924147
2802.690538,-10584.944971,74.020594,536.266849
2802.690875,-10510.924376,0.000000,995.924147
2802.691213,-10214.842000,148.041188,689.485948
2802.691551,-10214.842000,592.164754,536.266849
2802.691888,-9696.697840,518.144159,76.609550
2802.692226,-10288.862594,-740.205942,153.219100
2802.692564,-9548.656652,0.000000,-383.047749
2802.692901,-9770.718434,-592.164754,-76.609550
2802.693239,-9918.759623,-962.267725,229.828649
2802.693577,-10066.800811,-1332.370696,-612.876398
2802.693914,-9918.759623,-1850.514855,0.000000
2802.694252,-9474.636058,-1480.411884,-689.485948
2802.694589,-9770.718434,-2220.617826,766.095498
2802.694927,-10807.006753,-1628.453072,1685.410096
2802.695265,-9696.697840,-2072.576638,842.705048
2802.695602,-10510.924376,-814.226536,1149.143247
2802.695940,-10362.883188,-1258.350101,612.876398
2802.696278,-10732.986159,-888.247130,1762.019645
2802.696615,-10807.006753,-740.205942,1915.238745
2802.696953,-10584.944971,-370.102971,1072.533697
2802.697291,-9770.718434,1036.288319,1072.533697
2802.697628,-10362.883188,444.123565,383.047749
2802.697966,-10066.800811,666.185348,0.000000
2802.698304,-9474.636058,592.164754,-766.095498
2802.698641,-9104.533087,1184.329507,-229.828649
2802.698979,-9474.636058,1628.453072,-766.095498
2802.699317,-9104.533087,444.123565,-689.485948
2802.699654,-9178.553681,888.247130,-1225.752797
2802.699992,-9104.533087,0.000000,-1149.143247
2802.700329,-9844.739029,592.164754,-766.095498
2802.700667,-9696.697840,0.000000,-919.314598
2802.701005,-9770.718434,-444.123565,-612.876398
2802.701342,-9474.636058,-962.267725,-306.438199
2802.701680,-9844.739029,-1184.329507,-612.876398
2802.702018,-9770.718434,-1554.432478,306.438199
2802.702355,-10288.862594,-740.205942,536.266849
2802.702693,-11399.171507,-1480.411884,1378.971896
2802.703031,-11251.130318,-148.041188,689.485948
2802.703368,-10584.944971,-962.267725,1532.190996
2802.703706,-11251.130318,-740.205942,2528.115143
2802.704044,-10955.047942,-444.123565,1915.238745
2802.704381,-10362.883188,-148.041188,1378.971896
2802.704719,-10807.006753,-740.205942,1685.410096
2802.705057,-9992.780217,-592.164754,1378.971896
2802.705394,-9622.677246,-666.185348,919.314598
2802.705732,-9844.739029,0.000000,612.876398
2802.706070,-9400.615463,148.041188,-229.828649
2802.706407,-9474.636058,-518.144159,-612.876398
2802.706745,-9474.636058,74.020594,-306.438199
2802.707082,-8882.471304,-888.247130,-612.876398
2802.707420,-9622.677246,0.000000,-459.657299
2802.707758,-9548.656652,-814.226536,-76.609550
2802.708095,-9474.636058,-962.267725,0.000000
2802.708433,-9992.780217,-592.164754,76.609550
2802.708771,-10362.883188,-1628.453072,229.828649
2802.709108,-9770.718434,-518.144159,459.657299
2802.709446,-10436.903782,-1110.308913,689.485948
2802.709784,-10732.986159,-444.123565,612.876398
2802.710121,-10140.821405,-444.123565,383.047749
2802.710459,-10732.986159,0.000000,995.924147
2802.710797,-10066.800811,444.123565,689.485948
2802.711134,-9844.739029,74.020594,766.095498
2802.711472,-10510.924376,1406.391290,612.876398
2802.711810,-10436.903782,666.185348,536.266849
2802.712147,-10658.965565,814.226536,153.219100
2802.712485,-9548.656652,1110.308913,-689.485948
2802.712822,-9548.656652,370.102971,153.219100
2802.713160,-9178.553681,444.123565,0.000000
2802.713498,-9104.533087,148.041188,-612.876398
2802.713835,-9178.553681,-222.061783,-153.219100
2802.714173,-9326.594869,-222.061783,-995.924147
2802.714511,-9770.718434,-296.082377,-306.438199
2802.714848,-10288.862594,-296.082377,-612.876398
2802.715186,-9474.636058,-888.247130,-383.047749
2802.715524,-9770.718434,-1332.370696,0.000000
2802.715861,-9844.739029,-1554.432478,306.438199
2802.716199,-10881.027347,-1480.411884,842.705048
2802.716537,-11251.130318,-1702.473667,1302.362347
2802.716874,-10140.821405,-1406.391290,766.095498
2802.717212,-10732.986159,-1480.411884,919.314598
2802.717550,-11399.171507,-1332.370696,2145.067394
2802.717887,-9992.780217,-888.247130,1762.019645
2802.718225,-10362.883188,-888.247130,1532.190996
2802.718563,-10658.965565,370.102971,1838.629195
2802.718900,-10362.883188,296.082377,1149.143247
2802.719238,-10362.883188,444.123565,842.705048
2802.719575,-10214.842000,-296.082377,766.095498
2802.719913,-9252.574275,888.247130,0.000000
2802.720251,-9252.574275,962.267725,-766.095498
2802.720588,-9474.636058,296.082377,-689.485948
2802.720926,-9326.594869,444.123565,-1302.362347
2802.721264,-9104.533087,0.000000,-1532.190996
2802.721601,-9548.656652,592.164754,-766.095498
2802.721939,-9252.574275,-814.226536,-995.924147
2802.722277,-9622.677246,-370.102971,-1149.143247
2802.722614,-9548.656652,74.020594,-383.047749
2802.722952,-10066.800811,0.000000,-306.438199
2802.723290,-10214.842000,148.041188,995.924147
2802.723627,-10955.047942,-444.123565,536.266849
2802.723965,-10807.006753,-148.041188,766.095498
2802.724303,-10807.006753,-296.082377,1072.533697
2802.724640,-10510.924376,-222.061783,612.876398
2802.724978,-10362.883188,-296.082377,1225.752797
2802.725315,-10510.924376,-74.020594,1149.143247
2802.725653,-10362.883188,518.144159,766.095498
2802.725991,-10214.842000,0.000000,383.047749
2802.726328,-10362.883188,0.000000,919.314598
2802.726666,-9918.759623,0.000000,153.219100
2802.727004,-9548.656652,444.123565,459.657299
2802.727341,-9992.780217,592.164754,536.266849
2802.727679,-9844.739029,-518.144159,-383.047749
2802.728017,-9696.697840,-592.164754,0.000000
2802.728354,-9622.677246,-962.267725,0.000000
2802.728692,-9548.656652,-962.267725,76.609550
2802.729030,-9992.780217,-592.164754,-766.095498
2802.729367,-9918.759623,-1332.370696,-306.438199
2802.729705,-9844.739029,-1554.432478,-153.219100
2802.730043,-9844.739029,-1776.494261,689.485948
2802.730380,-10584.944971,-888.247130,1072.533697
2802.730718,-10288.862594,-1480.411884,995.924147
2802.731055,-10584.944971,-740.205942,1225.752797
2802.731393,-9992.780217,-666.185348,919.314598
2802.731731,-10732.986159,-666.185348,1455.581446
2802.732068,-10807.006753,-148.041188,1455.581446
2802.732406,-10288.862594,74.020594,1608.800546
2802.732744,-9770.718434,888.247130,842.705048
2802.733081,-10214.842000,814.226536,459.657299
2802.733419,-10362.883188,962.267725,612.876398
2802.733757,-9326.594869,666.185348,0.000000
2802.734094,-9104.533087,1480.411884,-229.828649
2802.734432,-9474.636058,1332.370696,-383.047749
2802.734770,-9326.594869,962.267725,-1072.533697
2802.735107,-9252.574275,814.226536,-842.705048
2802.735445,-9548.656652,370.102971,-766.095498
2802.735783,-9474.636058,518.144159,-536.266849
2802.736120,-10066.800811,0.000000,-766.095498
2802.736458,-10140.821405,-370.102971,-995.924147
2802.736796,-9474.636058,-740.205942,-536.266849
2802.737133,-9918.759623,-1110.308913,0.000000
2802.737471,-9844.739029,-1036.288319,459.657299
2802.737808,-10436.903782,-1406.391290,383.047749
2802.738146,-11177.109724,-1036.288319,1455.581446
2802.738484,-10807.006753,-1258.350101,536.266849
2802.738821,-10955.047942,-962.267725,1991.848295
2802.739159,-11177.109724,-370.102971,2374.896044
2802.739497,-10807.006753,-740.205942,1838.629195
2802.739834,-9992.780217,0.000000,1302.362347
2802.740172,-10436.903782,-814.226536,919.314598
2802.740510,-10066.800811,-370.102971,1302.362347
2802.740847,-9770.718434,-740.205942,0.000000
2802.741185,-10140.821405,296.082377,153.219100
2802.741523,-9696.697840,0.000000,0.000000
2802.741860,-9178.553681,-222.061783,-1149.143247
2802.742198,-9104.533087,-444.123565,0.000000
2802.742536,-9030.512492,0.000000,0.000000
2802.742873,-9474.636058,-222.061783,-229.828649
2802.743211,-9400.615463,-592.164754,-459.657299
2802.743548,-9474.636058,-222.061783,-459.657299
2802.743886,-9992.780217,-740.205942,229.828649
2802.744224,-10362.883188,-888.247130,229.828649
2802.744561,-9622.677246,-222.061783,612.876398
2802.744899,-10214.842000,-962.267725,995.924147
2802.745237,-10584.944971,-296.082377,1072.533697
2802.745574,-10140.821405,0.000000,383.047749
2802.745912,-10658.965565,0.000000,842.705048
2802.746250,-10510.924376,518.144159,1149.143247
2802.746587,-10362.883188,370.102971,536.266849
2802.746925,-10436.903782,1480.411884,536.266849
2802.747263,-10214.842000,888.247130,536.266849
2802.747600,-10214.842000,1332.370696,229.828649
2802.747938,-9844.739029,888.247130,0.000000
2802.748276,-9622.677246,740.205942,-306.438199
2802.748613,-9474.636058,518.144159,-306.438199
2802.748951,-9400.615463,222.061783,-536.266849
2802.749289,-9326.594869,0.000000,-612.876398
2802.749626,-9178.553681,-1110.308913,-612.876398
2802.749964,-9770.718434,222.061783,0.000000
2802.750301,-10214.842000,-740.205942,-459.657299
2802.750639,-9844.739029,-1184.329507,153.219100
2802.750977,-9770.718434,-1554.432478,-306.438199
2802.751314,-10066.800811,-1628.453072,612.876398
2802.751652,-10288.862594,-1480.411884,919.314598
2802.751990,-10658.965565,-1776.494261,842.705048
2802.752327,-10807.006753,-1406.391290,1302.362347
2802.752665,-10288.862594,-1628.453072,919.314598
2802.753003,-11325.150913,-1184.329507,1608.800546
2802.753340,-10436.903782,-962.267725,1455.581446
2802.753678,-9844.739029,-888.247130,1608.800546
2802.754016,-10584.944971,0.000000,2145.067394
2802.754353,-10658.965565,148.041188,995.924147
2802.754691,-10140.821405,444.123565,1072.533697
2802.755029,-10436.903782,148.041188,1072.533697
2802.755366,-8882.471304,296.082377,0.000000
2802.755704,-9400.615463,1332.370696,-306.438199
2802.756041,-9844.739029,148.041188,-459.657299
2802.756379,-9104.533087,592.164754,-919.314598
2802.756717,-8808.450710,0.000000,-919.314598
2802.757054,-9400.615463,444.123565,-689.485948
2802.757392,-9178.553681,0.000000,-842.705048
2802.757730,-9548.656652,0.000000,-612.876398
2802.758067,-9548.656652,-444.123565,-459.657299
2802.758405,-9696.697840,-444.123565,76.609550
2802.758743,-10584.944971,148.041188,689.485948
2802.759080,-10732.986159,-666.185348,459.657299
2802.759418,-10510.924376,-74.020594,689.485948
2802.759756,-11103.089130,-592.164754,383.047749
2802.760093,-10807.006753,-444.123565,1532.190996
2802.760431,-10436.903782,-296.082377,919.314598
2802.760769,-10510.924376,-444.123565,459.657299
2802.761106,-10140.821405,370.102971,689.485948
2802.761444,-9992.780217,-296.082377,383.047749
2802.761782,-10436.903782,518.144159,689.485948
2802.762119,-10140.821405,0.000000,306.438199
2802.762457,-9844.739029,296.082377,76.609550
2802.762794,-10066.800811,370.102971,306.438199
2802.763132,-10140.821405,0.000000,76.609550
2802.763470,-9474.636058,-666.185348,-383.047749
2802.763807,-9548.656652,-666.185348,-229.828649
2802.764145,-9770.718434,-444.123565,76.609550
2802.764483,-9844.739029,-962.267725,-995.924147
2802.764820,-9992.780217,-1480.411884,-383.047749
2802.765158,-9918.759623,-1332.370696,-153.219100
2802.765496,-9770.718434,-1628.453072,612.876398
2802.765833,-10362.883188,-1184.329507,1455.581446
2802.766171,-10584.944971,-1406.391290,1302.362347
2802.766509,-10510.924376,-1110.308913,919.314598
2802.766846,-10362.883188,-592.164754,1378.971896
2802.767184,-10510.924376,-592.164754,1608.800546
2802.767522,-10955.047942,0.000000,1915.238745
2802.767859,-10732.986159,0.000000,1302.362347
2802.768197,-9622.677246,814.226536,995.924147
2802.768534,-10288.862594,592.164754,919.314598
2802.768872,-10214.842000,1036.288319,306.438199
2802.769210,-9252.574275,888.247130,-536.266849
2802.769547,-9548.656652,1406.391290,-383.047749
2802.769885,-9252.574275,1776.494261,-919.314598
2802.770223,-9474.636058,444.123565,-995.924147
2802.770560,-9474.636058,740.205942,-306.438199
2802.770898,-9326.594869,148.041188,-689.485948
2802.771235,-10140.821405,814.226536,-536.266849
2802.771573,-9918.759623,148.041188,-1378.971896
2802.771910,-9844.739029,-444.123565,-919.314598
2802.772248,-9696.697840,-1480.411884,-306.438199
2802.772585,-9696.697840,-592.164754,-766.095498
2802.772922,-9770.718434,-1406.391290,842.705048
2802.773260,-10584.944971,-1332.370696,842.705048
2802.773597,-10732.986159,-740.205942,995.924147
2802.773935,-10881.027347,-1110.308913,766.095498
2802.774272,-10807.006753,-666.185348,1532.190996
2802.774610,-10955.047942,-666.185348,1455.581446
2802.774947,-11029.068536,-740.205942,1762.019645
2802.775285,-10066.800811,-592.164754,1302.362347
2802.775622,-10288.862594,-518.144159,1762.019645
2802.775959,-10362.883188,-740.205942,1072.533697
2802.776297,-9844.739029,-148.041188,383.047749
2802.776634,-10288.862594,0.000000,229.828649
2802.776972,-9400.615463,0.000000,-766.095498
2802.777309,-9178.553681,0.000000,0.000000
2802.777647,-9400.615463,-444.123565,0.000000
2802.777984,-9252.574275,-518.144159,0.000000
2802.778322,-9474.636058,-296.082377,-229.828649
2802.778659,-9474.636058,-518.144159,-689.485948
2802.778996,-9548.656652,-296.082377,-306.438199
2802.779334,-10066.800811,-962.267725,0.000000
2802.779671,-10066.800811,-740.205942,153.219100
2802.780009,-9992.780217,-592.164754,612.876398
2802.780346,-10214.842000,-518.144159,536.266849
2802.780684,-10436.903782,-222.061783,766.095498
2802.781021,-10066.800811,0.000000,0.000000
2802.781359,-10436.903782,222.061783,1072.533697
2802.781696,-10066.800811,370.102971,995.924147
2802.782033,-10140.821405,0.000000,689.485948
2802.782371,-10288.862594,1850.514855,766.095498
2802.782708,-10510.924376,740.205942,536.266849
2802.783046,-10140.821405,1184.329507,76.609550
2802.783383,-9844.739029,0.000000,-76.609550
2802.783721,-9474.636058,444.123565,536.266849
2802.784058,-9252.574275,888.247130,-229.828649
2802.784396,-9474.636058,518.144159,-1072.533697
2802.784733,-10140.821405,-814.226536,-689.485948
2802.785070,-10510.924376,-1554.432478,-383.047749
2802.785408,-9474.636058,0.000000,-766.095498
2802.785745,-9178.553681,0.000000,-1225.752797
2802.786083,-9548.656652,-1332.370696,-766.095498
2802.786420,-10214.842000,-2516.700203,-306.438199
2802.786758,-10288.862594,-1924.535449,-229.828649
2802.787095,-9474.636058,-1406.391290,0.000000
2802.787433,-10658.965565,-1332.370696,995.924147
2802.787770,-11621.233289,-1924.535449,383.047749
2802.788107,-11103.089130,-2146.597232,229.828649
2802.788445,-10510.924376,-1554.432478,1532.190996
2802.788782,-9844.739029,-1110.308913,1532.190996
2802.789120,-10362.883188,-592.164754,1685.410096
2802.789457,-11399.171507,0.000000,919.314598
2802.789795,-10732.986159,-444.123565,-766.095498
2802.790132,-9474.636058,296.082377,229.828649
2802.790470,-9474.636058,592.164754,383.047749
2802.790807,-9548.656652,0.000000,-536.266849
2802.791144,-9918.759623,0.000000,-1532.190996
2802.791482,-9474.636058,148.041188,-1302.362347
2802.791819,-9474.636058,222.061783,-1302.362347
2802.792157,-9104.533087,-370.102971,-1378.971896
2802.792494,-10066.800811,-74.020594,-1838.629195
2802.792832,-9992.780217,-1258.350101,-2604.724693
2802.793169,-8660.409521,-1702.473667,-2145.067394
2802.793507,-8586.388927,-1332.370696,-1149.143247
2802.793844,-9400.615463,-1628.453072,-995.924147
2802.794181,-9918.759623,-444.123565,-2068.457845
2802.794519,-10658.965565,-1554.432478,-2221.676944
2802.794856,-9918.759623,-1258.350101,-919.314598
2802.795194,-9918.759623,-1776.494261,0.000000
2802.795531,-10881.027347,-888.247130,842.705048
2802.795869,-11399.171507,-1406.391290,-383.047749
2802.796206,-10955.047942,-1480.411884,-1072.533697
2802.796544,-9696.697840,-1776.494261,-536.266849
2802.796881,-8808.450710,-1554.432478,76.609550
2802.797218,-10140.821405,-1406.391290,0.000000
2802.797556,-11103.089130,-2072.576638,-1149.143247
2802.797893,-10436.903782,-1258.350101,-1378.971896
2802.798231,-10288.862594,-1628.453072,-1762.019645
2802.798568,-10584.944971,-1776.494261,-1302.362347
2802.798906,-10066.800811,-2664.741391,-1685.410096
2802.799243,-9178.553681,-2960.823768,-1378.971896
2802.799581,-8882.471304,-3182.885551,-612.876398
2802.799918,-8808.450710,-2812.782580,-612.876398
2802.800255,-10140.821405,-2664.741391,-306.438199
2802.800593,-10214.842000,-2960.823768,-229.828649
2802.800930,-9400.615463,-2812.782580,0.000000
2802.801268,-9696.697840,-2368.659014,1838.629195
2802.801605,-10658.965565,-2812.782580,1991.848295
2802.801943,-9918.759623,-2590.720797,1762.019645
2802.802280,-10436.903782,-1924.535449,1762.019645
2802.802618,-10140.821405,-444.123565,919.314598
2802.802955,-10510.924376,-888.247130,766.095498
2802.803292,-9844.739029,-1332.370696,1532.190996
2802.803630,-9622.677246,74.020594,1991.848295
2802.803967,-10140.821405,814.226536,2911.162892
2802.804305,-11177.109724,2146.597232,2298.286494
2802.804642,-10732.986159,2368.659014,1532.190996
2802.804980,-11177.109724,1924.535449,1149.143247
2802.805317,-10881.027347,2146.597232,1302.362347
2802.805655,-10510.924376,1332.370696,306.438199
2802.805992,-9326.594869,666.185348,0.000000
2802.806329,-9622.677246,296.082377,-689.485948
2802.806667,-9474.636058,74.020594,-1685.410096
2802.807004,-9400.615463,-666.185348,-3140.991542
2802.807342,-8956.491898,-814.226536,-2145.067394
2802.807679,-8142.265362,-1628.453072,-2145.067394
2802.808017,-8364.327145,-444.123565,-459.657299
2802.808354,-9104.533087,0.000000,0.000000
2802.808692,-9696.697840,74.020594,383.047749
2802.809029,-10510.924376,518.144159,459.657299
2802.809366,-11399.171507,-592.164754,842.705048
2802.809704,-11177.109724,-814.226536,1225.752797
2802.810041,-10214.842000,-814.226536,766.095498
2802.810379,-9918.759623,-1332.370696,153.219100
2802.810716,-9474.636058,-814.226536,-383.047749
2802.811054,-10214.842000,-370.102971,-1685.410096
2802.811391,-9844.739029,148.041188,-1072.533697
2802.811729,-9400.615463,1258.350101,-612.876398
2802.812066,-9918.759623,2664.741391,459.657299
2802.812403,-11103.089130,3256.906145,1149.143247
2802.812741,-11399.171507,2960.823768,842.705048
2802.813078,-12213.398043,1554.432478,689.485948
2802.813416,-11991.336260,148.041188,1685.410096
2802.813753,-10732.986159,-444.123565,1608.800546
2802.814091,-9844.739029,-1036.288319,1762.019645
2802.814428,-9548.656652,-1850.514855,536.266849
2802.814766,-8882.471304,-1702.473667,-1378.971896
2802.815103,-8882.471304,-1554.432478,-1762.019645
2802.815440,-8586.388927,-222.061783,-1532.190996
2802.815778,-8734.430116,518.144159,-1072.533697
2802.816115,-9252.574275,1776.494261,0.000000
2802.816453,-10140.821405,1406.391290,1378.971896
2802.816790,-11029.068536,888.247130,3217.601092
2802.817128,-10881.027347,0.000000,3983.696590
2802.817465,-10140.821405,-1406.391290,3600.648841
2802.817803,-9844.739029,-1332.370696,3830.477490
2802.818140,-9844.739029,-1702.473667,3524.039291
2802.818477,-9548.656652,-888.247130,1378.971896
2802.818815,-9770.718434,-1332.370696,-689.485948
2802.819152,-9918.759623,444.123565,-2681.334243
2802.819490,-9030.512492,518.144159,-3753.867940
2802.819827,-9252.574275,1628.453072,-2987.772442
2802.820165,-9474.636058,518.144159,-689.485948
2802.820502,-10510.924376,0.000000,919.314598
2802.820840,-11547.212695,-592.164754,1149.143247
2802.821177,-11991.336260,-2368.659014,842.705048
2802.821514,-11621.233289,-3034.844362,995.924147
2802.821852,-10288.862594,-4441.235652,536.266849
2802.822189,-9770.718434,-4663.297435,689.485948
2802.822527,-9548.656652,-3849.070898,-1532.190996
2802.822864,-9770.718434,-2960.823768,-3677.258390
2802.823202,-9474.636058,-2368.659014,-4136.915689
2802.823539,-8956.491898,-1554.432478,-3447.429741
2802.823877,-9474.636058,-666.185348,-612.876398
2802.824214,-9844.739029,-222.061783,1149.143247
2802.824551,-10955.047942,-296.082377,2604.724693
2802.824889,-11843.295072,-592.164754,2987.772442
2802.825226,-11177.109724,-962.267725,3217.601092
2802.825564,-10658.965565,-1554.432478,3753.867940
2802.825901,-10584.944971,-1702.473667,2911.162892
2802.826239,-9696.697840,-1184.329507,76.609550
2802.826576,-8882.471304,-444.123565,-2374.896044
2802.826914,-8808.450710,666.185348,-2221.676944
2802.827251,-7624.121203,814.226536,-2145.067394
2802.827588,-8586.388927,1776.494261,-1685.410096
2802.827926,-9992.780217,3108.864956,-383.047749
2802.828263,-11103.089130,2664.741391,-536.266849
2802.828601,-11843.295072,1924.535449,919.314598
2802.828938,-11029.068536,0.000000,1991.848295
2802.829276,-9992.780217,-1480.411884,2528.115143
2802.829613,-9770.718434,-2072.576638,4826.401637
2802.829951,-9474.636058,-1406.391290,3524.039291
2802.830288,-9992.780217,-962.267725,536.266849
2802.830625,-9844.739029,-592.164754,-2451.505594
2802.830963,-9844.739029,518.144159,-2757.943793
2802.831300,-9696.697840,1110.308913,0.000000
2802.831638,-9770.718434,1554.432478,153.219100
2802.831975,-9548.656652,2146.597232,766.095498
2802.832313,-10732.986159,1776.494261,1149.143247
2802.832650,-11325.150913,1554.432478,2528.115143
2802.832988,-12361.439231,-518.144159,3677.258390
2802.833325,-10214.842000,-666.185348,2604.724693
2802.833662,-9992.780217,-1036.288319,2374.896044
2802.834000,-10288.862594,-1332.370696,919.314598
2802.834337,-9030.512492,-1036.288319,-2757.943793
2802.834675,-8734.430116,-592.164754,-3447.429741
2802.835012,-9326.594869,-148.041188,-2298.286494
2802.835350,-8882.471304,148.041188,-2451.505594
2802.835687,-9770.718434,1110.308913,-1608.800546
2802.836025,-10140.821405,74.020594,-1072.533697
2802.836362,-10584.944971,222.061783,1302.362347
2802.836699,-11843.295072,-740.205942,1685.410096
2802.837037,-10807.006753,-1702.473667,1532.190996
2802.837374,-10510.924376,-2294.638420,2911.162892
2802.837712,-10732.986159,-1554.432478,2451.505594
2802.838049,-10436.903782,-814.226536,459.657299
2802.838387,-10214.842000,0.000000,-1838.629195
2802.838724,-9918.759623,296.082377,-1608.800546
2802.839062,-9252.574275,1702.473667,-1378.971896
2802.839399,-9178.553681,2294.638420,0.000000
2802.839736,-9918.759623,2738.761985,383.047749
2802.840074,-10807.006753,2590.720797,919.314598
2802.840411,-11029.068536,1776.494261,1225.752797
2802.840749,-10807.006753,1258.350101,1532.190996
2802.841086,-10362.883188,0.000000,1762.019645
2802.841424,-9400.615463,-1184.329507,1608.800546
2802.841761,-9474.636058,-1332.370696,612.876398
2802.842099,-9178.553681,-2368.659014,-612.876398
2802.842436,-8956.491898,-1332.370696,-2681.334243
2802.842773,-8586.388927,-1850.514855,-2528.115143
2802.843111,-8808.450710,-1184.329507,-2221.676944
2802.843448,-8882.471304,-740.205942,-1378.971896
2802.843786,-9622.677246,74.020594,842.705048
2802.844123,-10658.965565,-666.185348,1532.190996
2802.844461,-11473.192101,-1702.473667,1302.362347
2802.844798,-11695.253884,-3182.885551,2068.457845
2802.845136,-11103.089130,-2664.741391,2451.505594
2802.845473,-10140.821405,-3256.906145,3217.601092
2802.845810,-10436.903782,-2738.761985,2451.505594
2802.846148,-10214.842000,-2146.597232,306.438199
2802.846485,-10510.924376,-1258.350101,-1225.752797
2802.846823,-10510.924376,-222.061783,-1378.971896
2802.847160,-9918.759623,0.000000,-383.047749
2802.847498,-9844.739029,962.267725,536.266849
2802.847835,-10362.883188,962.267725,995.924147
2802.848173,-10510.924376,740.205942,1072.533697
2802.848510,-11029.068536,-444.123565,1455.581446
2802.848847,-11251.130318,-1258.350101,1762.019645
2802.849185,-10288.862594,-1480.411884,1225.752797
2802.849522,-9918.759623,-1406.391290,459.657299
2802.849860,-9326.594869,-1406.391290,-1532.190996
2802.850197,-8068.244768,-2368.659014,-2221.676944
2802.850535,-7994.224174,-1184.329507,-1378.971896
2802.850872,-8142.265362,-740.205942,-842.705048
2802.851210,-9104.533087,1110.308913,0.000000
2802.851547,-9548.656652,1184.329507,229.828649
2802.851884,-10140.821405,2072.576638,1149.143247
2802.852222,-11029.068536,814.226536,2451.505594
2802.852559,-10807.006753,1406.391290,2604.724693
2802.852897,-10510.924376,-370.102971,3217.601092
2802.853234,-9474.636058,222.061783,2681.334243
2802.853572,-9474.636058,592.164754,1838.629195
2802.853909,-10658.965565,1480.411884,-383.047749
2802.854247,-10436.903782,814.226536,-2528.115143
2802.854584,-9992.780217,1406.391290,-2987.772442
2802.854921,-9548.656652,1258.350101,-2145.067394
2802.855259,-9252.574275,1480.411884,-1991.848295
2802.855596,-9104.533087,2146.597232,-766.095498
2802.855934,-10658.965565,740.205942,-689.485948
2802.856271,-11251.130318,444.123565,459.657299
2802.856609,-11177.109724,-1480.411884,766.095498
2802.856946,-10510.924376,-1998.556043,306.438199
2802.857284,-9770.718434,-3478.967927,153.219100
2802.857621,-10214.842000,-3108.864956,0.000000
2802.857958,-9326.594869,-2886.803174,-1378.971896
2802.858296,-8808.450710,-2368.659014,-2221.676944
2802.858633,-8808.450710,-1924.535449,-1302.362347
2802.858971,-9178.553681,-888.247130,-153.219100
2802.859308,-9918.759623,370.102971,1455.581446
2802.859646,-10732.986159,962.267725,2145.067394
2802.859983,-11769.274478,518.144159,2451.505594
2802.860321,-11843.295072,148.041188,2681.334243
2802.860658,-11325.150913,-444.123565,3830.477490
2802.860995,-10436.903782,-888.247130,4290.134789
2802.861333,-10066.800811,-518.144159,3370.820191
2802.861670,-9918.759623,-296.082377,306.438199
2802.862008,-9548.656652,592.164754,-2221.676944
2802.862345,-9474.636058,1628.453072,-2451.505594
2802.862683,-9326.594869,1406.391290,-1378.971896
2802.863020,-9400.615463,2072.576638,-766.095498
2802.863358,-9252.574275,2368.659014,-383.047749
2802.863695,-10214.842000,1924.535449,306.438199
2802.864032,-11103.089130,444.123565,995.924147
2802.864370,-11103.089130,-444.123565,1455.581446
2802.864707,-9770.718434,-1406.391290,2298.286494
2802.865045,-8660.409521,-2146.597232,1685.410096
2802.865382,-9104.533087,-2442.679609,1838.629195
2802.865720,-9178.553681,-1554.432478,-306.438199
2802.866057,-9178.553681,-1480.411884,-1762.019645
2802.866395,-9252.574275,-592.164754,-1608.800546
2802.866732,-9252.574275,222.061783,-1225.752797
2802.867069,-9770.718434,1110.308913,0.000000
2802.867407,-10066.800811,1406.391290,612.876398
2802.867744,-10658.965565,444.123565,1532.190996
2802.868082,-11547.212695,-222.061783,1685.410096
2802.868419,-11399.171507,-1850.514855,1685.410096
2802.868757,-10362.883188,-1628.453072,1532.190996
2802.869094,-10066.800811,-1850.514855,1532.190996
2802.869432,-10436.903782,-1702.473667,0.000000
2802.869769,-10436.903782,-1554.432478,-3217.601092
2802.870106,-9918.759623,-1184.329507,-4366.744339
2802.870444,-9548.656652,-814.226536,-3524.039291
2802.870781,-9548.656652,-592.164754,-2757.943793
2802.871119,-9770.718434,-148.041188,-1838.629195
2802.871456,-10066.800811,-370.102971,-153.219100
2802.871794,-11103.089130,-666.185348,842.705048
2802.872131,-11251.130318,-1628.453072,1302.362347
2802.872469,-11547.212695,-1184.329507,2451.505594
2802.872806,-10436.903782,-2738.761985,2987.772442
2802.873144,-10436.903782,-1998.556043,2451.505594
2802.873481,-9918.759623,-1332.370696,536.266849
2802.873818,-9252.574275,-444.123565,-995.924147
2802.874156,-8734.430116,74.020594,-612.876398
2802.874493,-8808.450710,888.247130,383.047749
2802.874831,-8216.285956,2590.720797,2068.457845
2802.875168,-9992.780217,3775.050304,2068.457845
2802.875506,-10881.027347,3108.864956,1991.848295
2802.875843,-11399.171507,3182.885551,1762.019645
2802.876181,-11695.253884,1924.535449,2451.505594
2802.876518,-9992.780217,222.061783,2298.286494
2802.876855,-8586.388927,148.041188,2374.896044
2802.877193,-8808.450710,-518.144159,1149.143247
2802.877530,-9474.636058,0.000000,-1302.362347
2802.877868,-9400.615463,370.102971,-2987.772442
2802.878205,-9178.553681,74.020594,-3753.867940
2802.878543,-9252.574275,74.020594,-2834.553343
2802.878880,-10584.944971,666.185348,-1302.362347
2802.879218,-9844.739029,1184.329507,689.485948
2802.879555,-10584.944971,0.000000,1915.238745
2802.879893,-10955.047942,-962.267725,1225.752797
2802.880230,-11547.212695,-2294.638420,2145.067394
2802.880567,-11621.233289,-2664.741391,2757.943793
2802.880905,-10362.883188,-2442.679609,1838.629195
2802.881242,-10140.821405,-1850.514855,842.705048
2802.881580,-9696.697840,-1776.494261,-1072.533697
2802.881917,-9252.574275,-888.247130,-2221.676944
2802.882255,-9474.636058,-444.123565,-1302.362347
2802.882592,-9622.677246,1110.308913,-1149.143247
2802.882930,-9918.759623,1184.329507,229.828649
2802.883267,-10807.006753,1036.288319,229.828649
2802.883604,-10510.924376,1258.350101,0.000000
2802.883942,-10807.006753,-740.205942,842.705048
2802.884279,-10658.965565,-1628.453072,1225.752797
2802.884617,-9474.636058,-1850.514855,1072.533697
2802.884954,-10140.821405,-1036.288319,0.000000
2802.885292,-9992.780217,-1184.329507,-2451.505594
2802.885629,-9548.656652,-1480.411884,-3064.381992
2802.885967,-9474.636058,-666.185348,-2757.943793
2802.886304,-9030.512492,370.102971,-1838.629195
2802.886642,-8882.471304,1036.288319,-536.266849
2802.886979,-9326.594869,1110.308913,153.219100
2802.887316,-10584.944971,1036.288319,2374.896044
2802.887654,-11769.274478,1110.308913,3294.210641
2802.887991,-11547.212695,592.164754,3830.477490
2802.888329,-10881.027347,-740.205942,3677.258390
2802.888666,-9548.656652,-444.123565,3600.648841
2802.889004,-9326.594869,0.000000,2681.334243
2802.889341,-9844.739029,-148.041188,76.609550
2802.889679,-9548.656652,-74.020594,-383.047749
2802.890016,-9326.594869,444.123565,-766.095498
2802.890353,-9104.533087,962.267725,-919.314598
2802.890691,-8660.409521,1258.350101,-842.705048
2802.891028,-9548.656652,1480.411884,-383.047749
2802.891366,-10881.027347,518.144159,919.314598
2802.891703,-11399.171507,-888.247130,1608.800546
2802.892041,-11251.130318,-1850.514855,1149.143247
2802.892378,-10288.862594,-3330.926739,1072.533697
2802.892716,-9770.718434,-3478.967927,383.047749
2802.893053,-10214.842000,-3552.988522,459.657299
2802.893391,-9918.759623,-2664.741391,-1225.752797
2802.893728,-9474.636058,-1554.432478,-2911.162892
2802.894065,-9918.759623,-1406.391290,-2528.115143
2802.894403,-10584.944971,-592.164754,-1532.190996
2802.894740,-10362.883188,296.082377,76.609550
2802.895078,-11029.068536,962.267725,1838.629195
2802.895415,-11177.109724,814.226536,2145.067394
2802.895753,-12065.356855,0.000000,2757.943793
2802.896090,-10955.047942,-370.102971,3064.381992
2802.896428,-9992.780217,-518.144159,2604.724693
2802.896765,-10436.903782,-222.061783,2451.505594
2802.897103,-10066.800811,0.000000,-766.095498
2802.897440,-9030.512492,814.226536,-2757.943793
2802.897777,-8660.409521,1554.432478,-3064.381992
2802.898115,-7920.203579,1406.391290,-2068.457845
2802.898452,-8512.368333,2368.659014,-689.485948
2802.898790,-9548.656652,2368.659014,-306.438199
2802.899127,-10584.944971,2442.679609,0.000000
2802.899465,-10881.027347,888.247130,459.657299
2802.899802,-10658.965565,-370.102971,1302.362347
2802.900140,-9178.553681,-1332.370696,2451.505594
2802.900477,-8734.430116,-1702.473667,2451.505594
2802.900814,-9474.636058,-666.185348,1225.752797
2802.901152,-10066.800811,-814.226536,-766.095498
2802.901489,-9992.780217,-370.102971,-1302.362347
2802.901827,-9770.718434,0.000000,-1608.800546
2802.902164,-9918.759623,888.247130,-536.266849
2802.902502,-9992.780217,1554.432478,76.609550
2802.902839,-10288.862594,888.247130,1608.800546
2802.903177,-11251.130318,1036.288319,1915.238745
2802.903514,-10881.027347,0.000000,1991.848295
2802.903852,-11917.315666,-1258.350101,2911.162892
2802.904189,-11251.130318,-1480.411884,2145.067394
2802.904526,-10140.821405,-2072.576638,1225.752797
2802.904864,-9918.759623,-1998.556043,0.000000
2802.905201,-9252.574275,-1998.556043,-2298.286494
2802.905539,-8808.450710,-2220.617826,-2528.115143
2802.905876,-8956.491898,-1480.411884,-2221.676944
2802.906214,-9030.512492,-296.082377,-1685.410096
2802.906551,-10214.842000,0.000000,-1149.143247
2802.906889,-10881.027347,-222.061783,689.485948
2802.907226,-10658.965565,-1258.350101,459.657299
2802.907563,-11251.130318,-1776.494261,1762.019645
2802.907901,-10732.986159,-1998.556043,2604.724693
2802.908238,-9992.780217,-3256.906145,2987.772442
2802.908576,-10288.862594,-2442.679609,2987.772442
2802.908913,-10066.800811,-1554.432478,766.095498
2802.909251,-9770.718434,0.000000,-1302.362347
2802.909588,-9474.636058,666.185348,-1762.019645
2802.909926,-9104.533087,1184.329507,-383.047749
2802.910263,-9400.615463,2442.679609,306.438199
2802.910601,-9622.677246,3182.885551,1149.143247
2802.910938,-10732.986159,3256.906145,1532.190996
2802.911275,-11843.295072,2220.617826,1455.581446
2802.911613,-10807.006753,1628.453072,1915.238745
2802.911950,-9548.656652,148.041188,1838.629195
2802.912288,-8882.471304,-1110.308913,1455.581446
2802.912625,-8734.430116,-444.123565,153.219100
2802.912963,-9844.739029,-592.164754,-1608.800546
2802.913300,-8734.430116,0.000000,-2834.553343
2802.913638,-8808.450710,-444.123565,-3294.210641
2802.913975,-8660.409521,-592.164754,-2221.676944
2802.914312,-9474.636058,0.000000,-1838.629195
2802.914650,-10066.800811,296.082377,536.266849
2802.914987,-10658.965565,-370.102971,1532.190996
2802.915325,-10584.944971,-1850.514855,1608.800546
2802.915662,-11029.068536,-2516.700203,1991.848295
2802.916000,-11029.068536,-2886.803174,2681.334243
2802.916337,-10658.965565,-2146.597232,2298.286494
2802.916675,-10658.965565,-1776.494261,306.438199
2802.917012,-9918.759623,-1184.329507,-1685.410096
2802.917350,-9844.739029,-666.185348,-1685.410096
2802.917687,-10066.800811,0.000000,-1455.581446
2802.918024,-10288.862594,1036.288319,-306.438199
2802.918362,-10732.986159,1184.329507,0.000000
2802.918699,-10362.883188,962.267725,842.705048
2802.919037,-10881.027347,962.267725,766.095498
2802.919374,-11325.150913,-592.164754,1532.190996
2802.919712,-11177.109724,-1258.350101,1838.629195
2802.920049,-9992.780217,-1554.432478,766.095498
2802.920387,-9622.677246,-1184.329507,-459.657299
2802.920724,-9474.636058,-1480.411884,-1915.238745
2802.921062,-8512.368333,-1702.473667,-2911.162892
2802.921399,-7994.224174,-888.247130,-1532.190996
2802.921736,-8364.327145,518.144159,229.828649
2802.922074,-8808.450710,1258.350101,1225.752797
2802.922411,-9696.697840,2072.576638,1225.752797
2802.922749,-10807.006753,1850.514855,2451.505594
2802.923086,-11769.274478,1258.350101,3677.258390
2802.923424,-10955.047942,296.082377,4213.525239
2802.923761,-9770.718434,-74.020594,3753.867940
2802.924099,-9326.594869,74.020594,3753.867940
2802.924436,-9326.594869,222.061783,1378.971896
2802.924773,-9770.718434,74.020594,-612.876398
2802.925111,-9918.759623,1258.350101,-1838.629195
2802.925448,-9622.677246,592.164754,-1991.848295
2802.925786,-9918.759623,1998.556043,-1608.800546
2802.926123,-8808.450710,1998.556043,-1991.848295
2802.926461,-10658.965565,1628.453072,0.000000
2802.926798,-10955.047942,222.061783,766.095498
2802.927136,-10658.965565,-1184.329507,995.924147
2802.927473,-10807.006753,-1850.514855,1302.362347
2802.927811,-9844.739029,-3478.967927,153.219100
2802.928148,-9696.697840,-3923.091493,306.438199
2802.928485,-10140.821405,-3775.050304,-689.485948
2802.928823,-9178.553681,-3552.988522,-1991.848295
2802.929160,-9252.574275,-2294.638420,-2604.724693
2802.929498,-9326.594869,-1776.494261,-1608.800546
2802.929835,-9696.697840,-1110.308913,-1072.533697
2802.930173,-9992.780217,-814.226536,766.095498
2802.930510,-10955.047942,518.144159,2374.896044
2802.930848,-11843.295072,-370.102971,2221.676944
2802.931185,-11917.315666,-814.226536,2834.553343
2802.931522,-11103.089130,-1110.308913,2987.772442
2802.931860,-9844.739029,-962.267725,2834.553343
2802.932197,-9696.697840,-962.267725,1532.190996
2802.932535,-10362.883188,296.082377,-995.924147
2802.932872,-9992.780217,296.082377,-2834.553343
2802.933210,-9326.594869,1332.370696,-3064.381992
2802.933547,-8660.409521,1332.370696,-1838.629195
2802.933885,-9178.553681,1702.473667,-919.314598
2802.934222,-9474.636058,1628.453072,0.000000
2802.934560,-10436.903782,1776.494261,229.828649
2802.934897,-10807.006753,444.123565,459.657299
2802.935234,-11103.089130,-370.102971,1762.019645
2802.935572,-9622.677246,-1628.453072,2298.286494
2802.935909,-8808.450710,-2294.638420,1991.848295
2802.936247,-9178.553681,-1184.329507,1302.362347
2802.936584,-9622.677246,-1850.514855,-842.705048
2802.936922,-8956.491898,-888.247130,-1991.848295
2802.937259,-8956.491898,-740.205942,-1149.143247
2802.937597,-9622.677246,1406.391290,536.266849
2802.937934,-9770.718434,1628.453072,1225.752797
2802.938271,-10807.006753,1554.432478,1455.581446
2802.938609,-11399.171507,962.267725,2068.457845
2802.938946,-11769.274478,0.000000,2528.115143
2802.939284,-11547.212695,-888.247130,2681.334243
2802.939621,-10288.862594,-1998.556043,1838.629195
2802.939959,-9992.780217,-1480.411884,1149.143247
2802.940296,-9992.780217,-1258.350101,-766.095498
2802.940634,-9992.780217,-1110.308913,-2911.162892
2802.940971,-9548.656652,-888.247130,-3447.429741
2802.941309,-9252.574275,-592.164754,-3064.381992
2802.941646,-9696.697840,370.102971,-2604.724693
2802.941983,-9770.718434,74.020594,-1532.190996
2802.942321,-10436.903782,0.000000,689.485948
2802.942658,-10807.006753,-888.247130,1149.143247
2802.942996,-11103.089130,-1702.473667,2068.457845
2802.943333,-10658.965565,-1702.473667,1991.848295
2802.943671,-10436.903782,-2368.659014,2604.724693
2802.944008,-10066.800811,-2220.617826,2221.676944
2802.944346,-9400.615463,-1628.453072,306.438199
2802.944683,-9030.512492,0.000000,-689.485948
2802.945021,-8808.450710,518.144159,-689.485948
2802.945358,-9104.533087,1184.329507,612.876398
2802.945695,-9030.512492,2960.823768,842.705048
2802.946033,-9622.677246,3256.906145,1225.752797
2802.946370,-11029.068536,3256.906145,1378.971896
2802.946708,-11251.130318,2220.617826,612.876398
2802.947045,-10881.027347,1554.432478,1762.019645
2802.947383,-9326.594869,0.000000,1608.800546
2802.947720,-8956.491898,-370.102971,1532.190996
2802.948058,-9474.636058,0.000000,0.000000
2802.948395,-10140.821405,-592.164754,-1991.848295
2802.948732,-9474.636058,74.020594,-2681.334243
2802.949070,-9326.594869,-444.123565,-4136.915689
2802.949407,-9178.553681,74.020594,-2451.505594
2802.949745,-9770.718434,-518.144159,-1915.238745
2802.950082,-9992.780217,0.000000,919.314598
2802.950420,-10584.944971,-592.164754,1455.581446
2802.950757,-10881.027347,-2368.659014,1149.143247
2802.951095,-11473.192101,-2590.720797,1302.362347
2802.951432,-11029.068536,-3849.070898,2757.943793
2802.951770,-10436.903782,-2960.823768,2145.067394
2802.952107,-9696.697840,-2960.823768,689.485948
2802.952444,-9696.697840,-2368.659014,-536.266849
2802.952782,-8808.450710,-2146.597232,-1225.752797
2802.953119,-9474.636058,-296.082377,-459.657299
2802.953457,-9844.739029,444.123565,229.828649
2802.953794,-10510.924376,1258.350101,229.828649
2802.954132,-11103.089130,1110.308913,1072.533697
2802.954469,-11251.130318,148.041188,536.266849
2802.954807,-10732.986159,-1332.370696,1378.971896
2802.955144,-10807.006753,-1554.432478,1532.190996
2802.955481,-9548.656652,-2368.659014,995.924147
2802.955819,-9992.780217,-1406.391290,153.219100
2802.956156,-9548.656652,-1628.453072,-1991.848295
2802.956494,-9474.636058,-1406.391290,-2681.334243
2802.956831,-9104.533087,-814.226536,-1685.410096
2802.957169,-9104.533087,0.000000,-459.657299
2802.957506,-9178.553681,1702.473667,0.000000
2802.957844,-9844.739029,888.247130,689.485948
2802.958181,-10658.965565,1184.329507,2298.286494
2802.958519,-11325.150913,740.205942,2298.286494
2802.958856,-11029.068536,296.082377,3524.039291
2802.959193,-10140.821405,0.000000,3217.601092
2802.959531,-9104.533087,-740.205942,2987.772442
2802.959868,-8734.430116,0.000000,1072.533697
2802.960206,-9326.594869,-370.102971,76.609550
2802.960543,-9548.656652,740.205942,-919.314598
2802.960881,-9178.553681,962.267725,-1838.629195
2802.961218,-9844.739029,2220.617826,-1225.752797
2802.961556,-9030.512492,1554.432478,-1838.629195
2802.961893,-9474.636058,1998.556043,-1149.143247
2802.962230,-11029.068536,-370.102971,0.000000
2802.962568,-10955.047942,-814.226536,153.219100
2802.962905,-10584.944971,-1850.514855,153.219100
2802.963243,-10436.903782,-2516.700203,0.000000
2802.963580,-9844.739029,-3034.844362,-612.876398
2802.963918,-10510.924376,-3108.864956,-383.047749
2802.964255,-10362.883188,-2516.700203,-1838.629195
2802.964593,-9400.615463,-1480.411884,-2604.724693
2802.964930,-10066.800811,-1258.350101,-1915.238745
2802.965268,-10140.821405,0.000000,-1149.143247
2802.965605,-10214.842000,222.061783,0.000000
2802.965942,-11103.089130,518.144159,1532.190996
2802.966280,-11473.192101,962.267725,1455.581446
2802.966617,-11695.253884,-296.082377,2528.115143
2802.966955,-11177.109724,-74.020594,3217.601092
2802.967292,-9770.718434,-962.267725,2757.943793
2802.967630,-10436.903782,-740.205942,2068.457845
2802.967967,-10066.800811,0.000000,-766.095498
2802.968305,-9252.574275,444.123565,-2298.286494
2802.968642,-8438.347739,1110.308913,-1608.800546
2802.968980,-8142.265362,1776.494261,-383.047749
2802.969317,-8586.388927,2812.782580,229.828649
2802.969654,-9844.739029,1850.514855,0.000000
2802.969992,-10658.965565,2590.720797,76.609550
2802.970329,-10955.047942,444.123565,0.000000
2802.970667,-10955.047942,-740.205942,2221.676944
2802.971004,-9030.512492,-1554.432478,2834.553343
2802.971342,-8660.409521,-1776.494261,2604.724693
2802.971679,-9474.636058,-888.247130,1762.019645
2802.972017,-10066.800811,-740.205942,-536.266849
2802.972354,-10140.821405,-518.144159,-1378.971896
2802.972691,-9400.615463,0.000000,-1225.752797
2802.973029,-10066.800811,740.205942,306.438199
2802.973366,-9918.759623,1480.411884,842.705048
2802.973703,-10732.986159,1850.514855,1302.362347
2802.974041,-11399.171507,592.164754,2374.896044
2802.974378,-11399.171507,-518.144159,1991.848295
2802.974715,-10658.965565,-1406.391290,2528.115143
2802.975052,-10807.006753,-2442.679609,1685.410096
2802.975390,-9548.656652,-2664.741391,919.314598
2802.975727,-9770.718434,-2368.659014,-612.876398
2802.976064,-9252.574275,-2146.597232,-2757.943793
2802.976401,-8660.409521,-1554.432478,-3447.429741
2802.976739,-9030.512492,-1110.308913,-2604.724693
2802.977076,-9474.636058,-666.185348,-2221.676944
2802.977413,-10214.842000,-74.020594,-1225.752797
2802.977751,-11103.089130,-888.247130,383.047749
2802.978088,-10881.027347,-1924.535449,459.657299
2802.978425,-11177.109724,-2368.659014,1072.533697
2802.978762,-10362.883188,-2294.638420,1991.848295
2802.979100,-10510.924376,-2516.700203,2221.676944
2802.979437,-10362.883188,-2442.679609,2068.457845
2802.979774,-10214.842000,-1480.411884,-383.047749
2802.980111,-9622.677246,0.000000,-1302.362347
2802.980449,-9548.656652,666.185348,-919.314598
2802.980786,-9474.636058,1924.535449,229.828649
2802.981123,-9474.636058,2516.700203,536.266849
2802.981460,-10066.800811,3404.947333,1762.019645
2802.981798,-11103.089130,3108.864956,1838.629195
2802.982135,-11695.253884,1184.329507,1455.581446
2802.982472,-11251.130318,1406.391290,1149.143247
2802.982809,-9104.533087,-296.082377,2068.457845
2802.983147,-8956.491898,-592.164754,1378.971896
2802.983484,-8586.388927,-518.144159,-689.485948
2802.983821,-9474.636058,-962.267725,-1915.238745
2802.984158,-8882.471304,0.000000,-2298.286494
2802.984496,-8956.491898,-592.164754,-2834.553343
2802.984833,-8808.450710,518.144159,-995.924147
2802.985170,-9178.553681,592.164754,-536.266849
2802.985507,-10436.903782,518.144159,689.485948
2802.985845,-11251.130318,0.000000,1838.629195
2802.986182,-11103.089130,-1924.535449,2221.676944
2802.986519,-11103.089130,-2590.720797,2834.553343
2802.986856,-10732.986159,-2960.823768,2987.772442
2802.987194,-10214.842000,-2294.638420,1838.629195
2802.987531,-10288.862594,-1554.432478,536.266849
2802.987868,-9992.780217,-1258.350101,-1149.143247
2802.988205,-9326.594869,-740.205942,-1532.190996
2802.988543,-10066.800811,740.205942,-689.485948
2802.988880,-10362.883188,1480.411884,0.000000
2802.989217,-10658.965565,1924.535449,0.000000
2802.989554,-10807.006753,1332.370696,919.314598
2802.989892,-10658.965565,370.102971,1225.752797
2802.990229,-10732.986159,-518.144159,1608.800546
2802.990566,-10288.862594,-1406.391290,1455.581446
2802.990903,-9918.759623,-1184.329507,76.609550
2802.991241,-9548.656652,-1184.329507,-536.266849
2802.991578,-9400.615463,-1406.391290,-2298.286494
2802.991915,-8290.306550,-1406.391290,-2451.505594
2802.992253,-8512.368333,-740.205942,-1378.971896
2802.992590,-8512.368333,888.247130,76.609550
2802.992927,-9474.636058,2146.597232,76.609550
2802.993264,-9770.718434,1406.391290,919.314598
2802.993602,-11325.150913,1184.329507,2528.115143
2802.993939,-11843.295072,148.041188,2987.772442
2802.994276,-10732.986159,0.000000,2911.162892
2802.994613,-9844.739029,-592.164754,3140.991542
2802.994951,-9548.656652,-592.164754,2451.505594
2802.995288,-9326.594869,0.000000,689.485948
2802.995625,-10140.821405,74.020594,-1225.752797
2802.995962,-9844.739029,1406.391290,-2221.676944
2802.996300,-9844.739029,1184.329507,-2221.676944
2802.996637,-9770.718434,1702.473667,-1302.362347
2802.996974,-8882.471304,1628.453072,-2145.067394
2802.997311,-9548.656652,1184.329507,-306.438199
2802.997649,-11621.233289,-296.082377,306.438199
2802.997986,-10955.047942,-1702.473667,536.266849
2802.998323,-10436.903782,-2516.700203,612.876398
2802.998660,-10140.821405,-3552.988522,153.219100
2802.998998,-9696.697840,-3552.988522,0.000000
2802.999335,-10066.800811,-3849.070898,-1225.752797
2802.999672,-9474.636058,-3849.070898,-1838.629195
2803.000009,-8438.347739,-2220.617826,-1608.800546
2803.000347,-9178.553681,-1332.370696,-1225.752797
2803.000684,-10362.883188,-444.123565,306.438199
2803.001021,-10214.842000,-74.020594,919.314598
2803.001358,-11325.150913,222.061783,2451.505594
2803.001696,-11843.295072,-74.020594,2528.115143
2803.002033,-11177.109724,-1036.288319,3370.820191
2803.002370,-10732.986159,-1258.350101,3830.477490
2803.002707,-9696.697840,-1036.288319,3370.820191
2803.003045,-9992.780217,-296.082377,1302.362347
2803.003382,-10214.842000,296.082377,-766.095498
2803.003719,-10288.862594,1110.308913,-1991.848295
2803.004056,-9326.594869,1776.494261,-1915.238745
2803.004394,-8734.430116,1554.432478,-1225.752797
2803.004731,-8882.471304,2812.782580,-612.876398
2803.005068,-10066.800811,2220.617826,0.000000
2803.005406,-10658.965565,2072.576638,536.266849
2803.005743,-11325.150913,1184.329507,536.266849
2803.006080,-10732.986159,-444.123565,1915.238745
2803.006417,-9326.594869,-1554.432478,2451.505594
2803.006755,-8808.450710,-1924.535449,2221.676944
2803.007092,-9178.553681,-1184.329507,1838.629195
2803.007429,-9474.636058,-1332.370696,76.609550
2803.007766,-9178.553681,-148.041188,-1378.971896
2803.008104,-9252.574275,0.000000,-229.828649
2803.008441,-10066.800811,1776.494261,842.705048
2803.008778,-9844.739029,2072.576638,229.828649
2803.009115,-10436.903782,2294.638420,229.828649
2803.009453,-10881.027347,518.144159,766.095498
2803.009790,-10881.027347,-518.144159,1838.629195
2803.010127,-10510.924376,-962.267725,2451.505594
2803.010464,-10584.944971,-1702.473667,2374.896044
2803.010802,-10510.924376,-1406.391290,536.266849
2803.011139,-10362.883188,-1332.370696,-1838.629195
2803.011476,-10214.842000,-962.267725,-2298.286494
2803.011813,-9252.574275,-1036.288319,-3140.991542
2803.012151,-9326.594869,-1110.308913,-2757.943793
2803.012488,-10066.800811,518.144159,-1915.238745
2803.012825,-10362.883188,222.061783,-1762.019645
2803.013162,-11177.109724,74.020594,-766.095498
2803.013500,-11251.130318,-1036.288319,0.000000
2803.013837,-10658.965565,-2146.597232,842.705048
2803.014174,-10362.883188,-2072.576638,2068.457845
2803.014511,-9992.780217,-2516.700203,1838.629195
2803.014849,-10510.924376,-2220.617826,1991.848295
2803.015186,-9770.718434,-1702.473667,842.705048
2803.015523,-8586.388927,-518.144159,-459.657299
2803.015860,-9178.553681,1110.308913,153.219100
2803.016198,-9474.636058,1480.411884,842.705048
2803.016535,-9178.553681,2664.741391,1149.143247
2803.016872,-10288.862594,3478.967927,1532.190996
2803.017209,-11103.089130,2960.823768,1532.190996
2803.017547,-11547.212695,1332.370696,1072.533697
2803.017884,-10732.986159,888.247130,1838.629195
2803.018221,-8808.450710,-518.144159,1608.800546
2803.018559,-8660.409521,-1110.308913,1762.019645
2803.018896,-9474.636058,-814.226536,0.000000
2803.019233,-9992.780217,-740.205942,-1532.190996
2803.019570,-9252.574275,0.000000,-2451.505594
2803.019908,-9548.656652,-148.041188,-3064.381992
2803.020245,-9474.636058,962.267725,-2068.457845
2803.020582,-10066.800811,592.164754,-1302.362347
2803.020919,-10584.944971,148.041188,306.438199
2803.021257,-10658.965565,-666.185348,919.314598
2803.021594,-10658.965565,-2368.659014,1455.581446
2803.021931,-11177.109724,-2368.659014,2068.457845
2803.022268,-11621.233289,-3182.885551,2911.162892
2803.022606,-10140.821405,-2442.679609,1838.629195
2803.022943,-10140.821405,-2368.659014,536.266849
2803.023280,-10140.821405,-1924.535449,-383.047749
2803.023617,-8882.471304,-1110.308913,-995.924147
2803.023955,-8956.491898,0.000000,-306.438199
2803.024292,-9992.780217,1184.329507,0.000000
2803.024629,-10436.903782,1480.411884,-612.876398
2803.024966,-10658.965565,666.185348,76.609550
2803.025304,-11029.068536,0.000000,536.266849
2803.025641,-10066.800811,-1258.350101,766.095498
2803.025978,-10288.862594,-1480.411884,1149.143247
2803.026315,-9770.718434,-1850.514855,306.438199
2803.026653,-10066.800811,-1628.453072,-229.828649
2803.026990,-10066.800811,-1036.288319,-1608.800546
2803.027327,-9400.615463,-962.267725,-2374.896044
2803.027664,-8512.368333,-370.102971,-1532.190996
2803.028002,-9252.574275,518.144159,-383.047749
2803.028339,-8882.471304,1776.494261,0.000000
2803.028676,-9992.780217,1628.453072,995.924147
2803.029013,-11103.089130,1998.556043,2451.505594
2803.029351,-11621.233289,592.164754,2068.457845
2803.029688,-11177.109724,296.082377,3064.381992
2803.030025,-9696.697840,0.000000,2911.162892
2803.030362,-9252.574275,-962.267725,2221.676944
2803.030700,-9326.594869,-296.082377,1149.143247
2803.031037,-9030.512492,222.061783,-536.266849
2803.031374,-9622.677246,888.247130,-1455.581446
2803.031712,-9252.574275,1406.391290,-1072.533697
2803.032049,-9622.677246,1776.494261,-1149.143247
2803.032386,-9400.615463,2664.741391,-995.924147
2803.032723,-9622.677246,1850.514855,-1149.143247
2803.033061,-11251.130318,74.020594,76.609550
2803.033398,-11177.109724,-1554.432478,689.485948
2803.033735,-9918.759623,-1628.453072,995.924147
2803.034072,-10362.883188,-3034.844362,1302.362347
2803.034410,-10140.821405,-3034.844362,0.000000
2803.034747,-10436.903782,-3256.906145,-689.485948
2803.035084,-10288.862594,-2590.720797,-1532.190996
2803.035421,-8956.491898,-1258.350101,-1915.238745
2803.035759,-9770.718434,-222.061783,-1149.143247
2803.036096,-10362.883188,-296.082377,-612.876398
2803.036433,-10214.842000,296.082377,459.657299
2803.036770,-11621.233289,370.102971,2145.067394
2803.037108,-11029.068536,0.000000,1838.629195
2803.037445,-11325.150913,-296.082377,2834.553343
2803.037782,-11029.068536,-1036.288319,3217.601092
2803.038119,-9696.697840,-1184.329507,2757.943793
2803.038457,-9992.780217,-370.102971,1762.019645
2803.038794,-9992.780217,-222.061783,-229.828649
2803.039131,-9400.615463,296.082377,-1762.019645
2803.039468,-8512.368333,444.123565,-1378.971896
2803.039806,-8216.285956,1998.556043,-995.924147
2803.040143,-8882.471304,2146.597232,0.000000
2803.040480,-10140.821405,2220.617826,229.828649
2803.040817,-10658.965565,1480.411884,76.609550
2803.041155,-11399.171507,444.123565,536.266849
2803.041492,-10214.842000,-1184.329507,1685.410096
2803.041829,-9178.553681,-1850.514855,2068.457845
2803.042166,-8734.430116,-2516.700203,2145.067394
2803.042504,-9474.636058,-740.205942,306.438199
2803.042841,-9992.780217,-1480.411884,-153.219100
2803.043178,-9844.739029,0.000000,-1455.581446
2803.043515,-9622.677246,-148.041188,-995.924147
2803.043853,-9992.780217,1258.350101,689.485948
2803.044190,-9918.759623,1776.494261,153.219100
2803.044527,-10955.047942,1110.308913,766.095498
2803.044865,-11103.089130,296.082377,1532.190996
2803.045202,-11029.068536,-888.247130,1225.752797
2803.045539,-10732.986159,-1258.350101,2298.286494
2803.045876,-10807.006753,-2146.597232,1608.800546
2803.046214,-10066.800811,-1702.473667,0.000000
2803.046551,-9992.780217,-2368.659014,-1915.238745
2803.046888,-9178.553681,-1628.453072,-2911.162892
2803.047225,-8586.388927,-1258.350101,-3677.258390
2803.047563,-9474.636058,-592.164754,-2221.676944
2803.047900,-9548.656652,296.082377,-1608.800546
2803.048237,-10214.842000,74.020594,-1455.581446
2803.048574,-11547.212695,222.061783,-306.438199
2803.048912,-11029.068536,-1924.535449,0.000000
2803.049249,-10658.965565,-1998.556043,919.314598
2803.049586,-10362.883188,-2072.576638,2068.457845
2803.049923,-9770.718434,-2146.597232,1915.238745
2803.050261,-10214.842000,-1998.556043,1608.800546
2803.050598,-10066.800811,-666.185348,229.828649
2803.050935,-9104.533087,-222.061783,-1149.143247
2803.051272,-9178.553681,1110.308913,-612.876398
2803.051610,-9918.759623,2516.700203,612.876398
2803.051947,-9770.718434,2664.741391,1149.143247
2803.052284,-9992.780217,2368.659014,1455.581446
2803.052621,-10732.986159,3256.906145,1302.362347
2803.052959,-11917.315666,1406.391290,1762.019645
2803.053296,-10510.924376,666.185348,1762.019645
2803.053633,-8734.430116,-222.061783,1991.848295
2803.053970,-8956.491898,-962.267725,2068.457845
2803.054308,-8956.491898,-592.164754,0.000000
2803.054645,-9474.636058,-1036.288319,-1225.752797
2803.054982,-9548.656652,444.123565,-1532.190996
2803.055319,-8956.491898,-296.082377,-1991.848295
2803.055657,-9030.512492,962.267725,-1149.143247
2803.055994,-9844.739029,814.226536,-153.219100
2803.056331,-10732.986159,222.061783,919.314598
2803.056668,-10955.047942,-1332.370696,1838.629195
2803.057006,-10955.047942,-2294.638420,2145.067394
2803.057343,-10807.006753,-2516.700203,3064.381992
2803.057680,-10955.047942,-3404.947333,2681.334243
2803.058018,-9844.739029,-2294.638420,1991.848295
2803.058355,-10140.821405,-1850.514855,229.828649
2803.058692,-9992.780217,-1480.411884,-612.876398
2803.059029,-9474.636058,-444.123565,-1378.971896
2803.059367,-10066.800811,444.123565,-612.876398
2803.059704,-10436.903782,1184.329507,0.000000
2803.060041,-10362.883188,1554.432478,0.000000
2803.060378,-11103.089130,1110.308913,612.876398
2803.060716,-11029.068536,-666.185348,383.047749
2803.061053,-10362.883188,-740.205942,229.828649
2803.061390,-10140.821405,-1406.391290,766.095498
2803.061727,-9992.780217,-1776.494261,76.609550
2803.062065,-9474.636058,-2368.659014,-1378.971896
2803.062402,-9400.615463,-1480.411884,-2604.724693
2803.062739,-8512.368333,-1184.329507,-2528.115143
2803.063076,-8438.347739,-148.041188,-2221.676944
2803.063414,-8734.430116,222.061783,-689.485948
2803.063751,-9252.574275,1776.494261,76.609550
2803.064088,-10288.862594,1332.370696,1225.752797
2803.064425,-11621.233289,740.205942,2298.286494
2803.064763,-11547.212695,-296.082377,2681.334243
2803.065100,-10807.006753,0.000000,3447.429741
2803.065437,-9326.594869,-740.205942,3064.381992
2803.065774,-9030.512492,-740.205942,2298.286494
2803.066112,-9252.574275,0.000000,766.095498
2803.066449,-9918.759623,222.061783,-1149.143247
2803.066786,-9770.718434,1998.556043,-1915.238745
2803.067123,-9992.780217,1406.391290,-1915.238745
2803.067461,-10362.883188,2442.679609,-689.485948
2803.067798,-9326.594869,1554.432478,-1915.238745
2803.068135,-9548.656652,1184.329507,0.000000
2803.068472,-10955.047942,-222.061783,766.095498
2803.068810,-11251.130318,-1702.473667,1072.533697
2803.069147,-10584.944971,-2072.576638,1225.752797
2803.069484,-10288.862594,-3552.988522,689.485948
2803.069821,-9844.739029,-3404.947333,-229.828649
2803.070159,-9992.780217,-3182.885551,-1072.533697
2803.070496,-9474.636058,-2738.761985,-1532.190996
2803.070833,-8364.327145,-1998.556043,-1532.190996
2803.071171,-9474.636058,-666.185348,-919.314598
2803.071508,-10362.883188,222.061783,229.828649
2803.071845,-10732.986159,0.000000,995.924147
2803.072183,-11251.130318,444.123565,2298.286494
2803.072520,-11769.274478,-370.102971,2451.505594
2803.072858,-11103.089130,-444.123565,3294.210641
2803.073195,-10732.986159,-1036.288319,3294.210641
2803.073532,-10214.842000,-962.267725,2681.334243
2803.073870,-9844.739029,0.000000,459.657299
2803.074207,-10066.800811,592.164754,-1455.581446
2803.074544,-9770.718434,1110.308913,-2298.286494
2803.074882,-8512.368333,1480.411884,-2221.676944
2803.075219,-8734.430116,2220.617826,-995.924147
2803.075557,-9400.615463,2812.782580,-689.485948
2803.075894,-10214.842000,2146.597232,-536.266849
2803.076231,-10881.027347,1480.411884,0.000000
2803.076569,-11103.089130,444.123565,612.876398
2803.076906,-10066.800811,-666.185348,2374.896044
2803.077243,-9400.615463,-1776.494261,2528.115143
2803.077581,-9030.512492,-2072.576638,1685.410096
2803.077918,-9178.553681,-1184.329507,459.657299
2803.078256,-9178.553681,-1184.329507,-766.095498
2803.078593,-9030.512492,-370.102971,-1302.362347
2803.078930,-9326.594869,0.000000,-229.828649
2803.079268,-10066.800811,2368.659014,612.876398
2803.079605,-10140.821405,1702.473667,689.485948
2803.079942,-10658.965565,1480.411884,1072.533697
2803.080280,-11621.233289,-296.082377,1302.362347
2803.080617,-11399.171507,-1554.432478,2834.553343
2803.080955,-9918.759623,-1628.453072,2451.505594
2803.081292,-10510.924376,-1998.556043,1915.238745
2803.081629,-10584.944971,-2146.597232,306.438199
2803.081967,-10214.842000,-1924.535449,-2145.067394
2803.082304,-9992.780217,-1406.391290,-2221.676944
2803.082642,-9030.512492,-148.041188,-2681.334243
2803.082979,-9918.759623,-814.226536,-2757.943793
2803.083316,-9918.759623,-296.082377,-1455.581446
2803.083654,-10214.842000,0.000000,-995.924147
2803.083991,-10955.047942,-962.267725,383.047749
2803.084328,-11177.109724,-1998.556043,766.095498
2803.084666,-10436.903782,-2516.700203,1378.971896
2803.085003,-10214.842000,-2812.782580,1915.238745
2803.085341,-10140.821405,-2516.700203,1991.848295
2803.085678,-10362.883188,-2220.617826,1225.752797
2803.086015,-9770.718434,-1184.329507,383.047749
2803.086353,-9030.512492,0.000000,-536.266849
2803.086690,-8586.388927,1110.308913,-153.219100
2803.087027,-9178.553681,1850.514855,1149.143247
2803.087365,-9400.615463,2664.741391,1532.190996
2803.087702,-10658.965565,3108.864956,1991.848295
2803.088040,-11029.068536,2590.720797,1762.019645
2803.088377,-11695.253884,1258.350101,1072.533697
2803.088714,-10288.862594,370.102971,2068.457845
2803.089052,-8734.430116,-444.123565,2374.896044
2803.089389,-8660.409521,-666.185348,612.876398
2803.089727,-9104.533087,-370.102971,-1149.143247
2803.090064,-9770.718434,222.061783,-2221.676944
2803.090401,-9622.677246,0.000000,-2987.772442
2803.090739,-9622.677246,296.082377,-1915.238745
2803.091076,-9696.697840,1332.370696,-1608.800546
2803.091413,-9844.739029,518.144159,-229.828649
2803.091751,-11029.068536,74.020594,153.219100
2803.092088,-10881.027347,-1406.391290,1302.362347
2803.092426,-11325.150913,-1776.494261,2298.286494
2803.092763,-10732.986159,-2738.761985,2681.334243
2803.093100,-11399.171507,-2960.823768,2604.724693
2803.093438,-10288.862594,-2146.597232,842.705048
2803.093775,-9844.739029,-1554.432478,76.609550
2803.094112,-9474.636058,-1258.350101,-536.266849
2803.094450,-9030.512492,-740.205942,-995.924147
2803.094787,-9474.636058,370.102971,229.828649
2803.095125,-10732.986159,2220.617826,0.000000
2803.095462,-10362.883188,1480.411884,153.219100
2803.095799,-11399.171507,1258.350101,612.876398
2803.096137,-11103.089130,-888.247130,1302.362347
2803.096474,-10436.903782,-1258.350101,1532.190996
2803.096811,-9770.718434,-1776.494261,1608.800546
2803.097149,-10066.800811,-1554.432478,306.438199
2803.097486,-9622.677246,-1258.350101,-1149.143247
2803.097824,-9844.739029,-1110.308913,-2604.724693
2803.098161,-8956.491898,-592.164754,-2681.334243
2803.098498,-9178.553681,370.102971,-1685.410096
2803.098836,-9326.594869,888.247130,0.000000
2803.099173,-9400.615463,1628.453072,76.609550
2803.099511,-10510.924376,1480.411884,1455.581446
2803.099848,-11473.192101,740.205942,2451.505594
2803.100185,-11769.274478,0.000000,2987.772442
2803.100523,-11103.089130,0.000000,3677.258390
2803.100860,-9474.636058,-370.102971,2911.162892
2803.101197,-9474.636058,-370.102971,2221.676944
2803.101535,-9178.553681,-518.144159,229.828649
2803.101872,-9252.574275,444.123565,-842.705048
2803.102210,-8956.491898,592.164754,-1532.190996
2803.102547,-9474.636058,2146.597232,-1302.362347
2803.102884,-9696.697840,1924.535449,-1149.143247
2803.103222,-9474.636058,1776.494261,-766.095498
2803.103559,-9918.759623,740.205942,-536.266849
2803.103896,-11251.130318,-740.205942,766.095498
2803.104234,-10955.047942,-2146.597232,842.705048
2803.104571,-9548.656652,-2738.761985,459.657299
2803.104909,-10140.821405,-3923.091493,612.876398
2803.105246,-10288.862594,-3108.864956,-689.485948
2803.105583,-10288.862594,-3404.947333,-1608.800546
2803.105921,-9992.780217,-2368.659014,-2145.067394
2803.106258,-8956.491898,-1332.370696,-1991.848295
2803.106595,-10066.800811,-888.247130,-1149.143247
2803.106933,-10510.924376,74.020594,0.000000
2803.107270,-10584.944971,-148.041188,995.924147
2803.107608,-11695.253884,222.061783,2145.067394
2803.107945,-11695.253884,-592.164754,2374.896044
2803.108282,-10881.027347,-962.267725,2298.286494
2803.108620,-10881.027347,-1184.329507,3370.820191
2803.108957,-10140.821405,-1184.329507,2451.505594
2803.109295,-9474.636058,0.000000,229.828649
2803.109632,-9770.718434,-296.082377,-995.924147
2803.109969,-8808.450710,592.164754,-1838.629195
2803.110307,-8142.265362,814.226536,-1608.800546
2803.110644,-8290.306550,2664.741391,-306.438199
2803.110981,-9178.553681,2368.659014,-612.876398
2803.111319,-10732.986159,2368.659014,153.219100
2803.111656,-11251.130318,1258.350101,306.438199
2803.111994,-10955.047942,0.000000,1225.752797
2803.112331,-9474.636058,-1480.411884,2528.115143
2803.112668,-8512.368333,-1184.329507,2528.115143
2803.113006,-8956.491898,-2146.597232,1838.629195
2803.113343,-9252.574275,-962.267725,-153.219100
2803.113680,-9400.615463,-74.020594,-1915.238745
2803.114018,-9992.780217,592.164754,-1762.019645
2803.114355,-9918.759623,740.205942,-842.705048
2803.114693,-9992.780217,1702.473667,536.266849
2803.115030,-10214.842000,2368.659014,919.314598
2803.115367,-10658.965565,1406.391290,1149.143247
2803.115705,-11029.068536,74.020594,1532.190996
2803.116042,-11177.109724,-1554.432478,2068.457845
2803.116379,-10436.903782,-1184.329507,2451.505594
2803.116717,-10732.986159,-1924.535449,1608.800546
2803.117054,-10066.800811,-1628.453072,-306.438199
2803.117392,-9622.677246,-1850.514855,-2145.067394
2803.117729,-9326.594869,-1184.329507,-3064.381992
2803.118066,-8734.430116,-592.164754,-3064.381992
2803.118404,-9474.636058,-296.082377,-2221.676944
2803.118741,-9696.697840,74.020594,-1072.533697
2803.119079,-10362.883188,-296.082377,-766.095498
2803.119416,-10881.027347,-962.267725,536.266849
2803.119753,-10807.006753,-1998.556043,1225.752797
2803.120091,-10510.924376,-2664.741391,1532.190996
2803.120428,-9918.759623,-2146.597232,2068.457845
2803.120765,-10066.800811,-2368.659014,2451.505594
2803.121103,-10362.883188,-1702.473667,1225.752797
2803.121440,-9844.739029,-740.205942,-229.828649
2803.121778,-9474.636058,148.041188,-689.485948
2803.122115,-8808.450710,1110.308913,0.000000
2803.122452,-9622.677246,2960.823768,919.314598
2803.122790,-10214.842000,2812.782580,2145.067394
2803.123127,-10658.965565,3256.906145,1608.800546
2803.123464,-11325.150913,2442.679609,1378.971896
2803.123802,-11843.295072,1332.370696,2221.676944
2803.124139,-10140.821405,222.061783,2298.286494
2803.124477,-8882.471304,-740.205942,1838.629195
2803.124814,-8882.471304,-1036.288319,1149.143247
2803.125151,-9104.533087,-296.082377,-1302.362347
2803.125489,-9474.636058,-518.144159,-2145.067394
2803.125826,-9030.512492,-370.102971,-2451.505594
2803.126163,-8808.450710,370.102971,-2451.505594
2803.126501,-9178.553681,1110.308913,-995.924147
2803.126838,-10436.903782,888.247130,-536.266849
2803.127176,-11103.089130,-222.061783,995.924147
2803.127513,-10955.047942,-1480.411884,1685.410096
2803.127850,-10436.903782,-2812.782580,2374.896044
2803.128188,-10436.903782,-3404.947333,2681.334243
2803.128525,-10658.965565,-3627.009116,2834.553343
2803.128863,-10214.842000,-2368.659014,766.095498
2803.129200,-10362.883188,-1258.350101,-842.705048
2803.129537,-9918.759623,-888.247130,-995.924147
2803.129875,-9474.636058,0.000000,-2374.896044
2803.130212,-10140.821405,666.185348,-1302.362347
2803.130549,-10140.821405,1554.432478,-153.219100
2803.130887,-10584.944971,1110.308913,-383.047749
2803.131224,-11103.089130,444.123565,536.266849
2803.131562,-11177.109724,-814.226536,1302.362347
2803.131899,-10807.006753,-1110.308913,1225.752797
2803.132236,-10362.883188,-1332.370696,1149.143247
2803.132574,-9992.780217,-1332.370696,-153.219100
2803.132911,-9622.677246,-1998.556043,-1225.752797
2803.133248,-8882.471304,-1406.391290,-2374.896044
2803.133586,-8142.265362,-666.185348,-2451.505594
2803.133923,-8512.368333,370.102971,-1225.752797
2803.134261,-9104.533087,1554.432478,0.000000
2803.134598,-9548.656652,1702.473667,612.876398
2803.134935,-10510.924376,1554.432478,1455.581446
2803.135273,-11621.233289,888.247130,2681.334243
2803.135610,-11251.130318,0.000000,3294.210641
2803.135948,-10140.821405,-296.082377,4060.306139
2803.136285,-9474.636058,-148.041188,3677.258390
2803.136622,-9474.636058,-518.144159,1991.848295
2803.136960,-9474.636058,444.123565,0.000000
2803.137297,-9622.677246,888.247130,-689.485948
2803.137634,-9474.636058,1628.453072,-1455.581446
2803.137972,-9992.780217,2294.638420,-995.924147
2803.138309,-10140.821405,2294.638420,-842.705048
2803.138647,-9622.677246,1850.514855,-919.314598
2803.138984,-10510.924376,666.185348,229.828649
2803.139321,-10881.027347,-666.185348,995.924147
2803.139659,-11251.130318,-2146.597232,1608.800546
2803.139996,-9992.780217,-2442.679609,612.876398
2803.140333,-10066.800811,-3627.009116,689.485948
2803.140671,-10436.903782,-3849.070898,-383.047749
2803.141008,-9474.636058,-3330.926739,-2298.286494
2803.141346,-9252.574275,-2220.617826,-1915.238745
2803.141683,-9030.512492,-1554.432478,-1378.971896
2803.142020,-9326.594869,-962.267725,-766.095498
2803.142358,-10510.924376,222.061783,766.095498
2803.142695,-11029.068536,296.082377,1302.362347
2803.143032,-11547.212695,-370.102971,2068.457845
2803.143370,-11695.253884,-1258.350101,2528.115143
2803.143707,-10510.924376,-296.082377,3217.601092
2803.144045,-10510.924376,-1628.453072,4136.915689
2803.144382,-9918.759623,-1332.370696,2298.286494
2803.144719,-9474.636058,0.000000,-383.047749
2803.145057,-10288.862594,888.247130,-1838.629195
2803.145394,-9474.636058,1110.308913,-3064.381992
2803.145732,-8734.430116,1776.494261,-2374.896044
2803.146069,-8586.388927,2220.617826,-1302.362347
2803.146406,-8734.430116,2368.659014,-766.095498
2803.146744,-10362.883188,1850.514855,-612.876398
2803.147081,-10881.027347,888.247130,-306.438199
2803.147418,-11029.068536,0.000000,1225.752797
2803.147756,-9474.636058,-1184.329507,1532.190996
2803.148093,-9030.512492,-1628.453072,2068.457845
2803.148431,-8956.491898,-2146.597232,919.314598
2803.148768,-8956.491898,-1628.453072,-536.266849
2803.149105,-9030.512492,-444.123565,-1225.752797
2803.149443,-9474.636058,148.041188,-1532.190996
2803.149780,-9474.636058,518.144159,-229.828649
2803.150117,-10140.821405,2146.597232,1072.533697
2803.150455,-10214.842000,1850.514855,919.314598
2803.150792,-10658.965565,1036.288319,1072.533697
2803.151130,-11103.089130,-296.082377,1991.848295
2803.151467,-10732.986159,-1776.494261,2528.115143
2803.151804,-9992.780217,-1776.494261,2681.334243
2803.152142,-10584.944971,-1332.370696,1915.238745
2803.152479,-10955.047942,-1628.453072,0.000000
2803.152816,-9696.697840,-1628.453072,-2145.067394
2803.153154,-9548.656652,-1184.329507,-2451.505594
2803.153491,-9400.615463,-518.144159,-1991.848295
2803.153829,-9474.636058,0.000000,-1608.800546
2803.154166,-10288.862594,296.082377,-612.876398
2803.154503,-10881.027347,-148.041188,0.000000
2803.154841,-11251.130318,-592.164754,995.924147
2803.155178,-11769.274478,-1924.535449,1915.238745
2803.155516,-10362.883188,-2294.638420,1838.629195
2803.155853,-9918.759623,-2516.700203,2451.505594
2803.156190,-10214.842000,-2368.659014,2528.115143
2803.156528,-9770.718434,-1628.453072,1149.143247
2803.156865,-9474.636058,-740.205942,383.047749
2803.157202,-9104.533087,370.102971,0.000000
2803.157540,-8586.388927,1850.514855,689.485948
2803.157877,-9770.718434,3404.947333,1455.581446
2803.158215,-10214.842000,3627.009116,1532.190996
2803.158552,-10732.986159,3330.926739,1915.238745
2803.158889,-11695.253884,2294.638420,1991.848295
2803.159227,-11103.089130,1480.411884,1608.800546
2803.159564,-9770.718434,0.000000,2068.457845
2803.159901,-8438.347739,-222.061783,1532.190996
2803.160239,-8438.347739,-222.061783,0.000000
2803.160576,-9252.574275,0.000000,-1838.629195
2803.160914,-9696.697840,888.247130,-3064.381992
2803.161251,-9622.677246,296.082377,-3753.867940
2803.161588,-9400.615463,962.267725,-3677.258390
2803.161926,-9326.594869,1332.370696,-3064.381992
2803.162263,-10732.986159,296.082377,-306.438199
2803.162600,-10362.883188,-296.082377,0.000000
2803.162938,-10584.944971,-1998.556043,1149.143247
2803.163275,-10732.986159,-2738.761985,1532.190996
2803.163613,-10214.842000,-2812.782580,1378.971896
2803.163950,-11103.089130,-3627.009116,1991.848295
2803.164287,-10732.986159,-2294.638420,0.000000
2803.164625,-9844.739029,-1776.494261,-1072.533697
2803.164962,-9770.718434,-1258.350101,-842.705048
2803.165300,-9030.512492,-370.102971,-995.924147
2803.165637,-9548.656652,518.144159,-383.047749
2803.165974,-10362.883188,1036.288319,76.609550
2803.166312,-10807.006753,1036.288319,0.000000
2803.166649,-11843.295072,-296.082377,919.314598
2803.166986,-11251.130318,-1184.329507,1762.019645
2803.167324,-9918.759623,-1554.432478,1838.629195
2803.167661,-9844.739029,-1998.556043,1762.019645
2803.167999,-10214.842000,-1480.411884,459.657299
2803.168336,-9548.656652,-2146.597232,-995.924147
2803.168673,-9548.656652,-1406.391290,-1991.848295
2803.169011,-8660.409521,-740.205942,-1685.410096
2803.169348,-8734.430116,74.020594,-306.438199
2803.169685,-9474.636058,1406.391290,612.876398
2803.170023,-9770.718434,1628.453072,1991.848295
2803.170360,-11029.068536,1480.411884,2374.896044
2803.170698,-11769.274478,666.185348,3370.820191
2803.171035,-11695.253884,74.020594,3524.039291
2803.171372,-10288.862594,-296.082377,4213.525239
2803.171710,-9474.636058,-148.041188,3294.210641
2803.172047,-9252.574275,-740.205942,2528.115143
2803.172384,-9030.512492,148.041188,76.609550
2803.172722,-8364.327145,592.164754,-919.314598
2803.173059,-9622.677246,1258.350101,-766.095498
2803.173396,-9252.574275,2368.659014,-995.924147
2803.173733,-9992.780217,2590.720797,-842.705048
2803.174071,-10362.883188,2072.576638,-536.266849
2803.174408,-10288.862594,518.144159,-689.485948
2803.174745,-11399.171507,-444.123565,842.705048
2803.175082,-10584.944971,-1850.514855,459.657299
2803.175420,-9104.533087,-3330.926739,306.438199
2803.175757,-9992.780217,-3627.009116,306.438199
2803.176094,-10066.800811,-3182.885551,-1762.019645
2803.176431,-10214.842000,-2072.576638,-2374.896044
2803.176769,-9844.739029,-1628.453072,-2757.943793
2803.177106,-9474.636058,-666.185348,-2987.772442
2803.177443,-10140.821405,148.041188,-1532.190996
2803.177780,-10732.986159,74.020594,0.000000
2803.178118,-10881.027347,-74.020594,536.266849
2803.178455,-11769.274478,-518.144159,1149.143247
2803.178792,-11769.274478,-962.267725,2374.896044
2803.179129,-10955.047942,-370.102971,2374.896044
2803.179467,-10214.842000,-1332.370696,3217.601092
2803.179804,-10362.883188,-888.247130,1685.410096
2803.180141,-9770.718434,-74.020594,-536.266849
2803.180478,-9844.739029,814.226536,-1762.019645
2803.180816,-9178.553681,666.185348,-1915.238745
2803.181153,-8142.265362,1406.391290,-1532.190996
2803.181490,-8438.347739,2738.761985,0.000000
2803.181827,-9770.718434,2886.803174,153.219100
2803.182165,-10510.924376,1850.514855,536.266849
2803.182502,-11399.171507,814.226536,306.438199
2803.182839,-10881.027347,-222.061783,2145.067394
2803.183176,-9474.636058,-1406.391290,2681.334243
2803.183514,-9178.553681,-1480.411884,2528.115143
2803.183851,-9326.594869,-1776.494261,1915.238745
2803.184188,-9326.594869,-888.247130,-76.609550
2803.184525,-9030.512492,-296.082377,-1378.971896
2803.184863,-9622.677246,0.000000,0.000000
2803.185200,-9770.718434,1332.370696,306.438199
2803.185537,-10066.800811,1776.494261,919.314598
2803.185874,-10658.965565,2442.679609,1532.190996
2803.186212,-10955.047942,1406.391290,1532.190996
2803.186549,-11843.295072,0.000000,2451.505594
2803.186886,-11177.109724,-1184.329507,2451.505594
2803.187223,-9696.697840,-2072.576638,2528.115143
2803.187561,-10140.821405,-2368.659014,1838.629195
2803.187898,-10362.883188,-2072.576638,-766.095498
2803.188235,-9474.636058,-2146.597232,-2298.286494
2803.188572,-8512.368333,-1480.411884,-2451.505594
2803.188910,-8660.409521,-740.205942,-2221.676944
2803.189247,-9474.636058,222.061783,-1762.019645
2803.189584,-10510.924376,0.000000,-919.314598
2803.189921,-10807.006753,-666.185348,-1149.143247
2803.190259,-11029.068536,-2072.576638,76.609550
2803.190596,-11325.150913,-2368.659014,1685.410096
2803.190933,-9992.780217,-3256.906145,1455.581446
2803.191270,-9992.780217,-2960.823768,2145.067394
2803.191607,-10140.821405,-2368.659014,1991.848295
2803.191945,-10288.862594,-1702.473667,0.000000
2803.192282,-10140.821405,-592.164754,-1532.190996
2803.192619,-9474.636058,1184.329507,-1762.019645
2803.192956,-10066.800811,1924.535449,-612.876398
2803.193294,-9548.656652,2516.700203,76.609550
2803.193631,-10214.842000,2886.803174,995.924147
2803.193968,-10658.965565,2368.659014,1302.362347
2803.194305,-11325.150913,1702.473667,1072.533697
2803.194643,-11325.150913,1332.370696,1991.848295
2803.194980,-9696.697840,0.000000,1608.800546
2803.195317,-8808.450710,-592.164754,1378.971896
2803.195654,-8660.409521,-962.267725,-306.438199
2803.195992,-8660.409521,-296.082377,-1991.848295
2803.196329,-9104.533087,148.041188,-2604.724693
2803.196666,-9104.533087,-518.144159,-2221.676944
2803.197003,-9030.512492,962.267725,-1915.238745
2803.197341,-9030.512492,740.205942,-689.485948
2803.197678,-10584.944971,518.144159,76.609550
2803.198015,-10658.965565,-740.205942,1455.581446
2803.198352,-10658.965565,-1924.535449,1685.410096
2803.198690,-10584.944971,-2516.700203,2911.162892
2803.199027,-10510.924376,-2738.761985,3140.991542
2803.199364,-11251.130318,-2368.659014,2451.505594
2803.199701,-10436.903782,-1850.514855,153.219100
2803.200039,-9992.780217,-1184.329507,-612.876398
2803.200376,-9548.656652,-444.123565,-766.095498
2803.200713,-9400.615463,0.000000,-383.047749
2803.201050,-9844.739029,962.267725,536.266849
2803.201388,-10436.903782,1702.473667,995.924147
2803.201725,-11177.109724,1184.329507,919.314598
2803.202062,-11325.150913,74.020594,1149.143247
2803.202399,-11473.192101,-740.205942,1915.238745
2803.202737,-10362.883188,-1554.432478,1378.971896
2803.203074,-9844.739029,-1776.494261,995.924147
2803.203411,-9770.718434,-1554.432478,-842.705048
2803.203748,-8956.491898,-1702.473667,-2604.724693
2803.204086,-8216.285956,-1554.432478,-2604.724693
2803.204423,-8290.306550,-370.102971,-1685.410096
2803.204760,-8660.409521,1036.288319,0.000000
2803.205097,-9474.636058,2146.597232,76.609550
2803.205435,-10362.883188,1924.535449,306.438199
2803.205772,-10881.027347,1406.391290,1685.410096
2803.206109,-11843.295072,148.041188,2834.553343
2803.206446,-11103.089130,-592.164754,3983.696590
2803.206784,-9400.615463,-592.164754,3524.039291
2803.207121,-9104.533087,0.000000,2911.162892
2803.207458,-9400.615463,222.061783,995.924147
2803.207795,-9548.656652,592.164754,-1378.971896
2803.208133,-9696.697840,1628.453072,-1838.629195
2803.208470,-10066.800811,1776.494261,-1762.019645
2803.208807,-9918.759623,2812.782580,-1915.238745
2803.209144,-10066.800811,2368.659014,-2374.896044
2803.209482,-9918.759623,1628.453072,-995.924147
2803.209819,-10436.903782,296.082377,-306.438199
2803.210156,-10732.986159,-1184.329507,1072.533697
2803.210493,-10510.924376,-1998.556043,1378.971896
2803.210831,-9770.718434,-3997.112087,919.314598
2803.211168,-10066.800811,-3552.988522,76.609550
2803.211505,-10510.924376,-3701.029710,-842.705048
2803.211842,-9770.718434,-2368.659014,-1991.848295
2803.212180,-8956.491898,-2516.700203,-2221.676944
2803.212517,-9178.553681,-1702.473667,-1532.190996
2803.212854,-9178.553681,-1332.370696,0.000000
2803.213191,-10658.965565,-148.041188,689.485948
2803.213529,-11177.109724,-962.267725,1685.410096
2803.213866,-11547.212695,-1554.432478,1991.848295
2803.214203,-11325.150913,-1628.453072,2757.943793
2803.214540,-10510.924376,-1184.329507,3064.381992
2803.214878,-10436.903782,-1998.556043,3677.258390
2803.215215,-10140.821405,-962.267725,1915.238745
2803.215552,-9918.759623,-592.164754,-1072.533697
2803.215889,-9696.697840,740.205942,-1608.800546
2803.216227,-9400.615463,814.226536,-1762.019645
2803.216564,-8660.409521,1332.370696,-1072.533697
2803.216901,-8660.409521,2442.679609,0.000000
2803.217238,-9844.739029,2368.659014,0.000000
2803.217576,-11177.109724,2072.576638,153.219100
2803.217913,-11621.233289,740.205942,459.657299
2803.218250,-10881.027347,-592.164754,1838.629195
2803.218587,-9252.574275,-1776.494261,2145.067394
2803.218925,-8956.491898,-1628.453072,2298.286494
2803.219262,-8734.430116,-1480.411884,919.314598
2803.219599,-8438.347739,-1554.432478,-766.095498
2803.219936,-8068.244768,0.000000,-1149.143247
2803.220274,-8882.471304,666.185348,0.000000
2803.220611,-9918.759623,2442.679609,536.266849
2803.220948,-10362.883188,2590.720797,459.657299
2803.221285,-11251.130318,2960.823768,1685.410096
2803.221623,-11325.150913,1036.288319,1455.581446
2803.221960,-11103.089130,-148.041188,1915.238745
2803.222297,-10584.944971,-2072.576638,2604.724693
2803.222634,-9326.594869,-1036.288319,2145.067394
2803.222972,-10214.842000,-1406.391290,612.876398
2803.223309,-10436.903782,-1258.350101,-1532.190996
2803.223646,-9770.718434,-444.123565,-3524.039291
2803.223983,-9622.677246,-592.164754,-3600.648841
2803.224321,-9474.636058,0.000000,-3524.039291
2803.224658,-9696.697840,444.123565,-2757.943793
2803.224995,-10732.986159,-296.082377,-1378.971896
2803.225332,-10214.842000,-1036.288319,-1072.533697
2803.225670,-10658.965565,-1554.432478,-229.828649
2803.226007,-11103.089130,-2664.741391,1302.362347
2803.226344,-10362.883188,-2738.761985,536.266849
2803.226681,-10436.903782,-2738.761985,1378.971896
2803.227019,-10362.883188,-2368.659014,1072.533697
2803.227356,-9548.656652,-1998.556043,-153.219100
2803.227693,-9696.697840,-888.247130,-689.485948
2803.228030,-8586.388927,-222.061783,0.000000
2803.228368,-8734.430116,1258.350101,919.314598
2803.228705,-9400.615463,2368.659014,1532.190996
2803.229042,-10288.862594,2516.700203,1685.410096
2803.229379,-11177.109724,2368.659014,2068.457845
2803.229717,-11547.212695,1110.308913,2068.457845
2803.230054,-10584.944971,1332.370696,2451.505594
2803.230391,-9252.574275,-740.205942,2374.896044
2803.230728,-9178.553681,-666.185348,1915.238745
2803.231066,-8956.491898,-740.205942,-306.438199
2803.231403,-9104.533087,0.000000,-1991.848295
2803.231740,-9178.553681,148.041188,-2604.724693
2803.232077,-9178.553681,-222.061783,-1455.581446
2803.232415,-9474.636058,814.226536,-1149.143247
2803.232752,-9474.636058,1110.308913,-383.047749
2803.233089,-11251.130318,1036.288319,1532.190996
2803.233426,-11547.212695,-1036.288319,1685.410096
2803.233763,-10955.047942,-1406.391290,2068.457845
2803.234101,-10732.986159,-2590.720797,2604.724693
2803.234438,-10436.903782,-2886.803174,2451.505594
2803.234775,-9918.759623,-2738.761985,1685.410096
2803.235112,-10288.862594,-2442.679609,0.000000
2803.235450,-8660.409521,-1628.453072,-1072.533697
2803.235787,-9326.594869,-444.123565,-1149.143247
2803.236124,-9400.615463,592.164754,-536.266849
2803.236461,-10066.800811,1406.391290,-383.047749
2803.236799,-11103.089130,1998.556043,383.047749
2803.237136,-11325.150913,888.247130,459.657299
2803.237473,-11399.171507,-148.041188,842.705048
2803.237810,-10955.047942,-1554.432478,1762.019645
2803.238148,-9622.677246,-2294.638420,1149.143247
2803.238485,-9474.636058,-1628.453072,766.095498
2803.238822,-10288.862594,-1184.329507,-1225.752797
2803.239159,-9918.759623,-518.144159,-3600.648841
2803.239497,-9474.636058,-740.205942,-3907.087040
2803.239834,-9104.533087,74.020594,-3217.601092
2803.240171,-8808.450710,592.164754,-1455.581446
2803.240508,-9326.594869,962.267725,-689.485948
2803.240846,-9696.697840,1036.288319,153.219100
2803.241183,-11177.109724,740.205942,1608.800546
2803.241520,-11843.295072,518.144159,2528.115143
2803.241857,-11399.171507,296.082377,3600.648841
2803.242195,-9992.780217,-1110.308913,3447.429741
2803.242532,-9104.533087,0.000000,2221.676944
2803.242869,-9030.512492,0.000000,766.095498
2803.243206,-9252.574275,518.144159,-766.095498
2803.243544,-8956.491898,1184.329507,-1608.800546
2803.243881,-9622.677246,1702.473667,-689.485948
2803.244218,-9474.636058,2886.803174,-689.485948
2803.244555,-9770.718434,1998.556043,-1225.752797
2803.244893,-10066.800811,1184.329507,306.438199
2803.245230,-10510.924376,-148.041188,842.705048
2803.245567,-10955.047942,-1258.350101,1838.629195
2803.245904,-10362.883188,-1924.535449,1915.238745
2803.246242,-9548.656652,-2812.782580,1149.143247
2803.246579,-10362.883188,-3256.906145,383.047749
2803.246916,-10214.842000,-3034.844362,-995.924147
2803.247253,-9474.636058,-1924.535449,-1915.238745
2803.247591,-9400.615463,-2294.638420,-2145.067394
2803.247928,-9474.636058,-1036.288319,-1072.533697
2803.248265,-9918.759623,-148.041188,-459.657299
2803.248602,-11029.068536,518.144159,1608.800546
2803.248940,-11843.295072,-148.041188,2374.896044
2803.249277,-11843.295072,-962.267725,2451.505594
2803.249614,-11695.253884,-1036.288319,2757.943793
2803.249951,-10362.883188,-1480.411884,2834.553343
2803.250289,-10436.903782,-1480.411884,3064.381992
2803.250626,-9918.759623,-1406.391290,1225.752797
2803.250963,-9400.615463,-370.102971,-842.705048
2803.251300,-9030.512492,370.102971,-1915.238745
2803.251638,-8956.491898,814.226536,-1991.848295
2803.251975,-8660.409521,1554.432478,-919.314598
2803.252312,-9474.636058,2442.679609,-306.438199
2803.252649,-9992.780217,2516.700203,229.828649
2803.252987,-11547.212695,1998.556043,459.657299
2803.253324,-11325.150913,-296.082377,76.609550
2803.253661,-10140.821405,-1258.350101,1685.410096
2803.253998,-8734.430116,-1998.556043,2298.286494
2803.254336,-8660.409521,-1998.556043,1762.019645
2803.254673,-9474.636058,-1554.432478,229.828649
2803.255010,-9770.718434,-74.020594,-1838.629195
2803.255347,-9474.636058,518.144159,-2681.334243
2803.255685,-10140.821405,592.164754,-1455.581446
2803.256022,-9918.759623,1998.556043,-536.266849
2803.256359,-10288.862594,1554.432478,229.828649
2803.256696,-10510.924376,1628.453072,1072.533697
2803.257034,-10732.986159,296.082377,1302.362347
2803.257371,-11103.089130,-370.102971,2145.067394
2803.257708,-10807.006753,-1554.432478,2451.505594
2803.258045,-9696.697840,-1998.556043,1762.019645
2803.258383,-9844.739029,-1332.370696,1072.533697
2803.258720,-10658.965565,-1702.473667,-1455.581446
2803.259057,-9178.553681,-962.267725,-2528.115143
2803.259394,-9178.553681,-1258.350101,-2987.772442
2803.259732,-9252.574275,0.000000,-2451.505594
2803.260069,-9252.574275,222.061783,-2221.676944
2803.260406,-10510.924376,0.000000,-842.705048
2803.260743,-10881.027347,-1554.432478,-229.828649
2803.261081,-10510.924376,-2294.638420,612.876398
2803.261418,-11029.068536,-1924.535449,1685.410096
2803.261755,-10584.944971,-3108.864956,1838.629195
2803.262092,-9844.739029,-2886.803174,1685.410096
2803.262430,-10658.965565,-1776.494261,919.314598
2803.262767,-10436.903782,-1554.432478,612.876398
2803.263104,-9178.553681,-888.247130,-612.876398
2803.263441,-8660.409521,0.000000,-229.828649
2803.263779,-9474.636058,1554.432478,995.924147
2803.264116,-9770.718434,2960.823768,1685.410096
2803.264453,-10955.047942,2960.823768,2374.896044
2803.264790,-11695.253884,2812.782580,2374.896044
2803.265128,-11843.295072,2220.617826,2451.505594
2803.265465,-10584.944971,666.185348,2757.943793
2803.265802,-9474.636058,0.000000,2068.457845
2803.266139,-8808.450710,-740.205942,1608.800546
2803.266477,-8586.388927,-592.164754,-306.438199
2803.266814,-8068.244768,0.000000,-1915.238745
2803.267151,-8882.471304,148.041188,-1991.848295
2803.267488,-9326.594869,370.102971,-1225.752797
2803.267826,-9178.553681,1998.556043,-1608.800546
2803.268163,-10214.842000,1776.494261,-766.095498
2803.268500,-11473.192101,1702.473667,612.876398
2803.268837,-11473.192101,-814.226536,919.314598
2803.269175,-10732.986159,-1480.411884,1532.190996
2803.269512,-9622.677246,-3182.885551,2604.724693
2803.269849,-9622.677246,-3034.844362,1991.848295
2803.270186,-10214.842000,-2146.597232,995.924147
2803.270524,-10584.944971,-1702.473667,-766.095498
2803.270861,-10140.821405,-296.082377,-1762.019645
2803.271198,-9918.759623,148.041188,-2145.067394
2803.271535,-10436.903782,1036.288319,-995.924147
2803.271873,-10214.842000,1036.288319,-842.705048
2803.272210,-10732.986159,592.164754,0.000000
2803.272547,-10584.944971,888.247130,536.266849
2803.272884,-11029.068536,-962.267725,1149.143247
2803.273222,-10955.047942,-1258.350101,1838.629195
2803.273559,-10288.862594,-1702.473667,689.485948
2803.273896,-9844.739029,-1554.432478,612.876398
2803.274233,-9918.759623,-1702.473667,-1608.800546
2803.274571,-9178.553681,-1998.556043,-2834.553343
2803.274908,-8290.306550,-1776.494261,-2221.676944
2803.275245,-8438.347739,-444.123565,-1838.629195
2803.275582,-8660.409521,592.164754,-383.047749
2803.275920,-9474.636058,1110.308913,459.657299
2803.276257,-10807.006753,962.267725,1685.410096
2803.276594,-11325.150913,222.061783,2068.457845
2803.276931,-11843.295072,74.020594,3830.477490
2803.277269,-10807.006753,-370.102971,4366.744339
2803.277606,-10362.883188,-888.247130,3447.429741
2803.277943,-9326.594869,-148.041188,2757.943793
2803.278281,-9326.594869,0.000000,153.219100
2803.278618,-9770.718434,518.144159,-842.705048
2803.278955,-9474.636058,1258.350101,-1149.143247
2803.279292,-9474.636058,1628.453072,-383.047749
2803.279630,-9548.656652,2664.741391,0.000000
2803.279967,-9770.718434,2146.597232,-536.266849
2803.280304,-10362.883188,1702.473667,153.219100
2803.280641,-10955.047942,-148.041188,1149.143247
2803.280979,-11251.130318,-666.185348,1685.410096
2803.281316,-10510.924376,-1850.514855,1915.238745
2803.281653,-9548.656652,-3478.967927,536.266849
2803.281990,-9474.636058,-3478.967927,0.000000
2803.282328,-9548.656652,-3627.009116,-1302.362347
2803.282665,-8808.450710,-1998.556043,-1762.019645
2803.283002,-8808.450710,-2146.597232,-1455.581446
2803.283340,-9696.697840,-370.102971,-536.266849
2803.283677,-10214.842000,222.061783,0.000000
2803.284014,-11029.068536,148.041188,1302.362347
2803.284351,-11843.295072,-592.164754,1762.019645
2803.284689,-11695.253884,-1110.308913,1838.629195
2803.285026,-10436.903782,-1480.411884,2834.553343
2803.285363,-10140.821405,-1628.453072,2987.772442
2803.285700,-9844.739029,-1184.329507,2451.505594
2803.286038,-10140.821405,-592.164754,-229.828649
2803.286375,-9770.718434,444.123565,-2374.896044
2803.286712,-9770.718434,1406.391290,-3294.210641
2803.287049,-9474.636058,1406.391290,-3140.991542
2803.287387,-9030.512492,2220.617826,-1838.629195
2803.287724,-8882.471304,1998.556043,-1455.581446
2803.288061,-10288.862594,2294.638420,-536.266849
2803.288399,-10658.965565,1554.432478,-153.219100
2803.288736,-11029.068536,0.000000,76.609550
2803.289073,-10066.800811,-740.205942,1378.971896
2803.289410,-9104.533087,-1850.514855,919.314598
2803.289748,-9326.594869,-1036.288319,1072.533697
2803.290085,-9178.553681,-888.247130,-153.219100
2803.290422,-9104.533087,-518.144159,-1991.848295
2803.290759,-8808.450710,0.000000,-1838.629195
2803.291097,-8956.491898,1036.288319,-383.047749
2803.291434,-9770.718434,1998.556043,995.924147
2803.291771,-10362.883188,1924.535449,842.705048
2803.292108,-10732.986159,1776.494261,1685.410096
2803.292446,-11029.068536,740.205942,1838.629195
2803.292783,-10881.027347,-592.164754,2987.772442
2803.293120,-10510.924376,-962.267725,3064.381992
2803.293458,-9992.780217,-1702.473667,2374.896044
2803.293795,-10214.842000,-740.205942,612.876398
2803.294132,-10807.006753,-1332.370696,-919.314598
2803.294469,-9474.636058,-518.144159,-2528.115143
2803.294807,-8956.491898,-962.267725,-1991.848295
2803.295144,-9622.677246,444.123565,-995.924147
2803.295481,-9622.677246,370.102971,-995.924147
2803.295818,-11029.068536,74.020594,306.438199
2803.296156,-11325.150913,-1110.308913,919.314598
2803.296493,-10955.047942,-2368.659014,1608.800546
2803.296830,-11177.109724,-2368.659014,2451.505594
2803.297167,-10066.800811,-3478.967927,2068.457845
2803.297505,-9770.718434,-2960.823768,2298.286494
2803.297842,-9770.718434,-3034.844362,1072.533697
2803.298179,-9622.677246,-1776.494261,0.000000
2803.298517,-8734.430116,-666.185348,76.609550
2803.298854,-8882.471304,148.041188,459.657299
2803.299191,-9178.553681,1924.535449,1149.143247
2803.299528,-10214.842000,2516.700203,1685.410096
2803.299866,-11103.089130,3108.864956,2068.457845
2803.300203,-11843.295072,1332.370696,1838.629195
2803.300540,-11473.192101,814.226536,1762.019645
2803.300877,-9696.697840,74.020594,1685.410096
2803.301215,-8956.491898,-962.267725,2068.457845
2803.301552,-8586.388927,-814.226536,0.000000
2803.301889,-8734.430116,-222.061783,-2374.896044
2803.302226,-9400.615463,0.000000,-3370.820191
2803.302564,-9252.574275,1702.473667,-4136.915689
2803.302901,-10214.842000,148.041188,-2987.772442
2803.303238,-9770.718434,1406.391290,-2451.505594
2803.303576,-9474.636058,666.185348,-1302.362347
2803.303913,-10807.006753,148.041188,76.609550
2803.304250,-10658.965565,-1258.350101,153.219100
2803.304587,-10362.883188,-2442.679609,1072.533697
2803.304925,-10658.965565,-2886.803174,2145.067394
2803.305262,-10362.883188,-3108.864956,1532.190996
2803.305599,-10288.862594,-2368.659014,229.828649
2803.305936,-10362.883188,-2442.679609,-1072.533697
2803.306274,-9178.553681,-444.123565,-1915.238745
2803.306611,-9252.574275,-592.164754,-1762.019645
2803.306948,-9622.677246,1110.308913,-229.828649
2803.307285,-9844.739029,1036.288319,-536.266849
2803.307623,-11029.068536,1036.288319,229.828649
2803.307960,-11177.109724,0.000000,995.924147
2803.308297,-11251.130318,-962.267725,1149.143247
2803.308635,-10732.986159,-1628.453072,2298.286494
2803.308972,-10066.800811,-2368.659014,1685.410096
2803.309309,-10140.821405,-1184.329507,612.876398
2803.309646,-10658.965565,-1480.411884,-1532.190996
2803.309984,-9770.718434,-888.247130,-2528.115143
2803.310321,-8808.450710,-1184.329507,-2451.505594
2803.310658,-8512.368333,-370.102971,-995.924147
2803.310995,-8438.347739,814.226536,229.828649
2803.311333,-9474.636058,1332.370696,1455.581446
2803.311670,-11843.295072,2220.617826,2221.676944
2803.312007,-11843.295072,592.164754,3140.991542
2803.312344,-11991.336260,444.123565,4136.915689
2803.312682,-10807.006753,74.020594,4366.744339
2803.313019,-10288.862594,-592.164754,4596.572988
2803.313356,-8956.491898,-592.164754,2911.162892
2803.313694,-8068.244768,222.061783,612.876398
2803.314031,-8808.450710,666.185348,0.000000
2803.314368,-8734.430116,1776.494261,-383.047749
2803.314705,-9474.636058,2590.720797,229.828649
2803.315043,-10288.862594,4367.215058,153.219100
2803.315380,-10214.842000,3108.864956,-612.876398
2803.315717,-10807.006753,2072.576638,153.219100
2803.316054,-10732.986159,-666.185348,612.876398
2803.316392,-10510.924376,-814.226536,1455.581446
2803.316729,-9992.780217,-1998.556043,1455.581446
2803.317066,-9178.553681,-3034.844362,306.438199
2803.317403,-9622.677246,-3034.844362,-1072.533697
2803.317741,-10362.883188,-2738.761985,-2604.724693
2803.318078,-9548.656652,-888.247130,-3447.429741
2803.318415,-9696.697840,-814.226536,-3370.820191
2803.318753,-10362.883188,-370.102971,-2374.896044
2803.319090,-10140.821405,0.000000,-1378.971896
2803.319427,-11103.089130,0.000000,229.828649
2803.319764,-10584.944971,-814.226536,1225.752797
2803.320102,-10955.047942,-2220.617826,1455.581446
2803.320439,-11029.068536,-1406.391290,2221.676944
2803.320776,-10214.842000,-1998.556043,2374.896044
2803.321113,-10658.965565,-1480.411884,1608.800546
2803.321451,-10288.862594,-1258.350101,0.000000
2803.321788,-9474.636058,0.000000,-1532.190996
2803.322125,-8660.409521,0.000000,-2451.505594
2803.322462,-8808.450710,814.226536,-2528.115143
2803.322800,-8882.471304,962.267725,-1072.533697
2803.323137,-9178.553681,1628.453072,-383.047749
2803.323474,-10066.800811,1110.308913,0.000000
2803.323812,-11621.233289,518.144159,919.314598
2803.324149,-11103.089130,-740.205942,689.485948
2803.324486,-9844.739029,-1554.432478,1838.629195
2803.324823,-9400.615463,-2220.617826,2451.505594
2803.325161,-9252.574275,-1480.411884,1915.238745
2803.325498,-9252.574275,-1554.432478,0.000000
2803.325835,-9548.656652,-666.185348,-1378.971896
2803.326172,-8956.491898,74.020594,-1149.143247
2803.326510,-9474.636058,370.102971,536.266849
2803.326847,-9992.780217,2294.638420,1225.752797
2803.327184,-10584.944971,1406.391290,1991.848295
2803.327521,-11399.171507,1924.535449,3294.210641
2803.327859,-11695.253884,370.102971,2451.505594
2803.328196,-11695.253884,-444.123565,3294.210641
2803.328533,-10436.903782,-1480.411884,3600.648841
2803.328871,-9548.656652,-2072.576638,2374.896044
2803.329208,-9844.739029,-1332.370696,612.876398
2803.329545,-9326.594869,-1554.432478,-689.485948
2803.329882,-8734.430116,-1258.350101,-1685.410096
2803.330220,-9030.512492,-222.061783,-1838.629195
2803.330557,-9548.656652,814.226536,-919.314598
2803.330894,-10288.862594,1184.329507,-1378.971896
2803.331231,-11325.150913,740.205942,-689.485948
2803.331569,-11251.130318,-888.247130,0.000000
2803.331906,-10955.047942,-2368.659014,1072.533697
2803.332243,-10288.862594,-2294.638420,1838.629195
2803.332580,-10214.842000,-3182.885551,2145.067394
2803.332918,-9696.697840,-2368.659014,919.314598
2803.333255,-10140.821405,-1776.494261,-229.828649
2803.333592,-10436.903782,-518.144159,-766.095498
2803.333930,-9252.574275,296.082377,-1915.238745
2803.334267,-9770.718434,1332.370696,-1149.143247
2803.334604,-9918.759623,2368.659014,-536.266849
2803.334941,-10066.800811,3034.844362,0.000000
2803.335279,-11029.068536,3034.844362,1378.971896
2803.335616,-11325.150913,1924.535449,995.924147
2803.335953,-10955.047942,962.267725,1532.190996
2803.336290,-10066.800811,666.185348,1915.238745
2803.336628,-9326.594869,-296.082377,1149.143247
2803.336965,-8956.491898,-148.041188,-76.609550
2803.337302,-9030.512492,-370.102971,-1991.848295
2803.337640,-8586.388927,296.082377,-2987.772442
2803.337977,-9178.553681,1110.308913,-2911.162892
2803.338314,-9326.594869,814.226536,-2221.676944
2803.338651,-9400.615463,1258.350101,-1762.019645
2803.338989,-9622.677246,666.185348,-383.047749
2803.339326,-10658.965565,592.164754,1072.533697
2803.339663,-11251.130318,-1998.556043,1149.143247
2803.340000,-10658.965565,-1628.453072,2145.067394
2803.340338,-10584.944971,-2664.741391,2911.162892
2803.340675,-10140.821405,-3256.906145,2145.067394
2803.341012,-10066.800811,-1998.556043,536.266849
2803.341349,-10362.883188,-1702.473667,-536.266849
2803.341687,-9622.677246,-1184.329507,-919.314598
2803.342024,-9252.574275,-518.144159,-689.485948
2803.342361,-10362.883188,1110.308913,689.485948
2803.342699,-10362.883188,962.267725,689.485948
2803.343036,-11251.130318,444.123565,1608.800546
2803.343373,-11547.212695,148.041188,1685.410096
2803.343710,-11325.150913,-888.247130,2221.676944
2803.344048,-10732.986159,-2072.576638,2757.943793
2803.344385,-10214.842000,-2738.761985,1685.410096
2803.344722,-9252.574275,-2220.617826,306.438199
2803.345059,-9622.677246,-2072.576638,-1149.143247
2803.345397,-8956.491898,-2368.659014,-2221.676944
2803.345734,-7994.224174,-1332.370696,-1685.410096
2803.346071,-8290.306550,-296.082377,-306.438199
2803.346408,-9474.636058,1184.329507,459.657299
2803.346746,-10362.883188,1406.391290,995.924147
2803.347083,-11399.171507,1036.288319,1149.143247
2803.347420,-11843.295072,0.000000,2604.724693
2803.347758,-11399.171507,-666.185348,3217.601092
2803.348095,-9992.780217,-1036.288319,3830.477490
2803.348432,-9474.636058,-1184.329507,3447.429741
2803.348769,-9326.594869,-444.123565,1762.019645
2803.349107,-9326.594869,592.164754,-612.876398
2803.349444,-9548.656652,1036.288319,-1225.752797
2803.349781,-9622.677246,2072.576638,-2528.115143
2803.350118,-9918.759623,2590.720797,-1991.848295
2803.350456,-10140.821405,3182.885551,-1608.800546
2803.350793,-10140.821405,2368.659014,-995.924147
2803.351130,-10436.903782,1184.329507,-536.266849
2803.351467,-10881.027347,-592.164754,459.657299
2803.351805,-10214.842000,-1258.350101,306.438199
2803.352142,-9918.759623,-2368.659014,459.657299
2803.352479,-9770.718434,-2590.720797,-536.266849
2803.352817,-9770.718434,-3701.029710,-1225.752797
2803.353154,-10066.800811,-2812.782580,-2068.457845
2803.353491,-9178.553681,-888.247130,-2604.724693
2803.353828,-9474.636058,-1258.350101,-1915.238745
2803.354166,-9844.739029,-444.123565,-1302.362347
2803.354503,-9770.718434,0.000000,-383.047749
2803.354840,-10881.027347,-370.102971,1608.800546
2803.355177,-11769.274478,-666.185348,2451.505594
2803.355515,-11547.212695,-1554.432478,2374.896044
2803.355852,-11103.089130,-1036.288319,2911.162892
2803.356189,-10510.924376,-1332.370696,3064.381992
2803.356526,-10214.842000,-888.247130,2221.676944
2803.356864,-10584.944971,-666.185348,459.657299
2803.357201,-9696.697840,0.000000,-919.314598
2803.357538,-9252.574275,814.226536,-1455.581446
2803.357876,-9104.533087,1480.411884,-612.876398
2803.358213,-8734.430116,1924.535449,0.000000
2803.358550,-9400.615463,1998.556043,919.314598
2803.358887,-10807.006753,2368.659014,1149.143247
2803.359225,-11843.295072,1628.453072,612.876398
2803.359562,-11399.171507,74.020594,1532.190996
2803.359899,-10066.800811,-1332.370696,1532.190996
2803.360236,-9030.512492,-1998.556043,2451.505594
2803.360574,-8216.285956,-1628.453072,1532.190996
2803.360911,-8512.368333,-1258.350101,-153.219100
2803.361248,-8882.471304,-740.205942,-1072.533697
2803.361585,-8882.471304,0.000000,-689.485948
2803.361923,-9474.636058,1776.494261,229.828649
2803.362260,-10584.944971,2368.659014,1532.190996
2803.362597,-10955.047942,3182.885551,919.314598
2803.362935,-11843.295072,1480.411884,1455.581446
2803.363272,-11769.274478,0.000000,1838.629195
2803.363609,-10214.842000,-666.185348,2145.067394
2803.363946,-9844.739029,-1924.535449,2451.505594
2803.364284,-9548.656652,-1924.535449,1608.800546
2803.364621,-9474.636058,-1406.391290,-383.047749
2803.364958,-10362.883188,-1036.288319,-2145.067394
2803.365295,-9474.636058,0.000000,-3600.648841
2803.365633,-9252.574275,-592.164754,-3677.258390
2803.365970,-9918.759623,740.205942,-2834.553343
2803.366307,-9992.780217,592.164754,-2528.115143
2803.366644,-11029.068536,-740.205942,-1225.752797
2803.366982,-10436.903782,-1776.494261,-383.047749
2803.367319,-10362.883188,-2886.803174,229.828649
2803.367656,-10807.006753,-2442.679609,1455.581446
2803.367994,-10732.986159,-3478.967927,995.924147
2803.368331,-9844.739029,-2960.823768,229.828649
2803.368668,-10288.862594,-2442.679609,0.000000
2803.369005,-9918.759623,-1258.350101,-766.095498
2803.369343,-8956.491898,-518.144159,-689.485948
2803.369680,-9326.594869,222.061783,0.000000
2803.370017,-9474.636058,1702.473667,766.095498
2803.370354,-9844.739029,2220.617826,1455.581446
2803.370692,-11251.130318,2294.638420,2145.067394
2803.371029,-11695.253884,1036.288319,1915.238745
2803.371366,-11177.109724,518.144159,2451.505594
2803.371703,-9696.697840,0.000000,1991.848295
2803.372041,-9252.574275,-592.164754,2451.505594
2803.372378,-9474.636058,-296.082377,383.047749
2803.372715,-9252.574275,-148.041188,-1608.800546
2803.373053,-9178.553681,74.020594,-1915.238745
2803.373390,-8660.409521,444.123565,-2145.067394
2803.373727,-9030.512492,962.267725,-1378.971896
2803.374064,-9696.697840,888.247130,0.000000
2803.374402,-9844.739029,1258.350101,0.000000
2803.374739,-10807.006753,518.144159,1455.581446
2803.375076,-11843.295072,-814.226536,2145.067394
2803.375413,-10510.924376,-2146.597232,2374.896044
2803.375751,-10288.862594,-2664.741391,2757.943793
2803.376088,-9844.739029,-2886.803174,2451.505594
2803.376425,-9770.718434,-2368.659014,1149.143247
2803.376762,-9622.677246,-2146.597232,0.000000
2803.377100,-8142.265362,-1036.288319,-919.314598
2803.377437,-9104.533087,592.164754,76.609550
2803.377774,-10436.903782,1924.535449,612.876398
2803.378111,-11103.089130,2146.597232,229.828649
2803.378449,-11695.253884,1628.453072,612.876398
2803.378786,-11547.212695,74.020594,842.705048
2803.379123,-10807.006753,-888.247130,995.924147
2803.379460,-10066.800811,-2146.597232,2221.676944
2803.379798,-9474.636058,-2220.617826,1149.143247
2803.380135,-9770.718434,-1850.514855,-306.438199
2803.380472,-9770.718434,-740.205942,-2451.505594
2803.380809,-9474.636058,-666.185348,-3907.087040
2803.381147,-9178.553681,-370.102971,-3600.648841
2803.381484,-9474.636058,592.164754,-1991.848295
2803.381821,-9474.636058,1702.473667,-842.705048
2803.382158,-10214.842000,1110.308913,229.828649
2803.382496,-10584.944971,1628.453072,612.876398
2803.382833,-11769.274478,-222.061783,1685.410096
2803.383170,-10881.027347,-370.102971,2757.943793
2803.383507,-9918.759623,-740.205942,3447.429741
2803.383845,-10362.883188,-888.247130,3524.039291
2803.384182,-8882.471304,-222.061783,1455.581446
2803.384519,-8956.491898,740.205942,-459.657299
2803.384856,-9548.656652,1258.350101,-766.095498
2803.385194,-9030.512492,1924.535449,-766.095498
2803.385531,-9474.636058,2812.782580,-306.438199
2803.385868,-9622.677246,2590.720797,-995.924147
2803.386205,-10066.800811,2516.700203,-1072.533697
2803.386543,-10066.800811,444.123565,76.609550
2803.386880,-10510.924376,-814.226536,689.485948
2803.387217,-10288.862594,-1702.473667,1608.800546
2803.387554,-10066.800811,-2146.597232,1608.800546
2803.387892,-10140.821405,-2368.659014,76.609550
2803.388229,-9918.759623,-3182.885551,-1455.581446
2803.388566,-9770.718434,-2886.803174,-2068.457845
2803.388903,-9030.512492,-1998.556043,-1915.238745
2803.389241,-9474.636058,-888.247130,-1225.752797
2803.389578,-10436.903782,-222.061783,0.000000
2803.389915,-9918.759623,-370.102971,0.000000
2803.390252,-11325.150913,-444.123565,1532.190996
2803.390590,-11843.295072,-962.267725,2451.505594
2803.390927,-11547.212695,-2146.597232,2451.505594
2803.391264,-10510.924376,-1924.535449,3140.991542
2803.391601,-10140.821405,-1776.494261,3217.601092
2803.391939,-10362.883188,-1776.494261,2068.457845
2803.392276,-9844.739029,-1628.453072,153.219100
2803.392613,-8808.450710,-370.102971,-1225.752797
2803.392950,-8660.409521,296.082377,-919.314598
2803.393288,-8808.450710,1332.370696,-689.485948
2803.393625,-9252.574275,2590.720797,-383.047749
2803.393962,-10214.842000,2146.597232,612.876398
2803.394299,-10881.027347,1554.432478,306.438199
2803.394637,-11843.295072,518.144159,1302.362347
2803.394974,-10807.006753,-222.061783,1302.362347
2803.395311,-9104.533087,-2072.576638,1685.410096
2803.395648,-9178.553681,-2072.576638,1991.848295
2803.395986,-8808.450710,-1036.288319,995.924147
2803.396323,-9548.656652,0.000000,-536.266849
2803.396660,-9770.718434,444.123565,-1608.800546
2803.396997,-9474.636058,888.247130,-1762.019645
2803.397335,-10214.842000,2294.638420,-383.047749
2803.397672,-10584.944971,2146.597232,459.657299
2803.398009,-10436.903782,2072.576638,1072.533697
2803.398346,-10955.047942,1036.288319,1302.362347
2803.398684,-10881.027347,74.020594,1762.019645
2803.399021,-10214.842000,-74.020594,1838.629195
2803.399358,-10214.842000,-1554.432478,1991.848295
2803.399696,-9548.656652,-1998.556043,612.876398
2803.400033,-9474.636058,-1258.350101,-1072.533697
2803.400370,-9696.697840,-518.144159,-2298.286494
2803.400707,-9326.594869,-666.185348,-2757.943793
2803.401045,-8956.491898,0.000000,-2911.162892
2803.401382,-9474.636058,814.226536,-2145.067394
2803.401719,-10584.944971,592.164754,-1532.190996
2803.402056,-10584.944971,-888.247130,-995.924147
2803.402394,-11029.068536,-1776.494261,0.000000
2803.402731,-10510.924376,-3330.926739,1072.533697
2803.403068,-10510.924376,-2812.782580,1608.800546
2803.403405,-10658.965565,-3182.885551,1378.971896
2803.403743,-10066.800811,-2368.659014,229.828649
2803.404080,-10214.842000,-2590.720797,76.609550
2803.404417,-10214.842000,-814.226536,-229.828649
2803.404754,-8882.471304,0.000000,0.000000
2803.405092,-9770.718434,1110.308913,919.314598
2803.405429,-9548.656652,1480.411884,2068.457845
2803.405766,-10436.903782,2516.700203,2451.505594
2803.406103,-11325.150913,2516.700203,2604.724693
2803.406441,-11917.315666,1406.391290,2604.724693
2803.406778,-11029.068536,814.226536,2451.505594
2803.407115,-9622.677246,0.000000,2374.896044
2803.407452,-9104.533087,-370.102971,2145.067394
2803.407790,-8438.347739,-888.247130,153.219100
2803.408127,-8068.244768,-518.144159,-1225.752797
2803.408464,-8142.265362,444.123565,-689.485948
2803.408801,-8438.347739,370.102971,-1302.362347
2803.409139,-9474.636058,1776.494261,-612.876398
2803.409476,-9844.739029,1258.350101,-153.219100
2803.409813,-10955.047942,2072.576638,1302.362347
2803.410150,-11325.150913,74.020594,1378.971896
2803.410488,-11547.212695,-1184.329507,1455.581446
2803.410825,-10140.821405,-2368.659014,2298.286494
2803.411162,-9622.677246,-3256.906145,2604.724693
2803.411499,-9844.739029,-2960.823768,2068.457845
2803.411837,-9918.759623,-1924.535449,0.000000
2803.412174,-10214.842000,-592.164754,-1378.971896
2803.412511,-9844.739029,-592.164754,-1915.238745
2803.412848,-9622.677246,1184.329507,-1608.800546
2803.413186,-10807.006753,1554.432478,-229.828649
2803.413523,-11399.171507,1258.350101,-306.438199
2803.413860,-10955.047942,370.102971,-153.219100
2803.414197,-10955.047942,-222.061783,536.266849
2803.414535,-10955.047942,-1406.391290,1149.143247
2803.414872,-9770.718434,-2220.617826,1072.533697
2803.415209,-9844.739029,-2664.741391,306.438199
2803.415546,-9918.759623,-1924.535449,-1532.190996
2803.415884,-9770.718434,-1480.411884,-2911.162892
2803.416221,-9474.636058,-1332.370696,-3907.087040
2803.416558,-8512.368333,-1036.288319,-3064.381992
2803.416895,-8586.388927,74.020594,-1608.800546
2803.417233,-9326.594869,1036.288319,-306.438199
2803.417570,-10140.821405,1184.329507,612.876398
2803.417907,-11325.150913,518.144159,1302.362347
2803.418244,-11991.336260,-518.144159,2834.553343
2803.418582,-11029.068536,-518.144159,3524.039291
2803.418919,-10214.842000,-666.185348,3907.087040
2803.419256,-9770.718434,74.020594,3370.820191
2803.419593,-9474.636058,-296.082377,919.314598
2803.419931,-9030.512492,1332.370696,-689.485948
2803.420268,-9400.615463,1332.370696,-766.095498
2803.420605,-9178.553681,2072.576638,-383.047749
2803.420942,-9474.636058,3108.864956,-459.657299
2803.421280,-10140.821405,3182.885551,536.266849
2803.421617,-10658.965565,2590.720797,0.000000
2803.421954,-10807.006753,888.247130,459.657299
2803.422291,-11251.130318,-518.144159,2298.286494
2803.422629,-10214.842000,-1332.370696,2374.896044
2803.422966,-9770.718434,-2294.638420,1532.190996
2803.423303,-9548.656652,-3182.885551,459.657299
2803.423640,-9400.615463,-3034.844362,-1072.533697
2803.423978,-8882.471304,-2664.741391,-1302.362347
2803.424315,-9104.533087,-1924.535449,-1608.800546
2803.424652,-9104.533087,-222.061783,-689.485948
2803.424989,-10510.924376,518.144159,0.000000
2803.425327,-10807.006753,444.123565,766.095498
2803.425664,-11695.253884,0.000000,2145.067394
2803.426001,-11769.274478,-1184.329507,2757.943793
2803.426338,-11399.171507,-2146.597232,3064.381992
2803.426676,-10214.842000,-2146.597232,3294.210641
2803.427013,-9622.677246,-1924.535449,2681.334243
2803.427350,-9918.759623,-888.247130,1378.971896
2803.427687,-10436.903782,-148.041188,-1302.362347
2803.428025,-9622.677246,962.267725,-2681.334243
2803.428362,-9400.615463,1554.432478,-3370.820191
2803.428699,-9548.656652,2072.576638,-2298.286494
2803.429036,-9548.656652,2516.700203,-1378.971896
2803.429374,-9992.780217,1702.473667,-383.047749
2803.429711,-10807.006753,1184.329507,-612.876398
2803.430048,-11103.089130,888.247130,536.266849
2803.430385,-10732.986159,-962.267725,536.266849
2803.430723,-9252.574275,-2146.597232,842.705048
2803.431060,-8586.388927,-2442.679609,459.657299
2803.431397,-9104.533087,-1406.391290,229.828649
2803.431734,-9178.553681,-296.082377,-1915.238745
2803.432072,-8882.471304,-296.082377,-2451.505594
2803.432409,-9178.553681,814.226536,-2068.457845
2803.432746,-9252.574275,1406.391290,-612.876398
2803.433083,-10436.903782,2072.576638,842.705048
2803.433421,-10436.903782,1184.329507,919.314598
2803.433758,-11325.150913,222.061783,1991.848295
2803.434095,-11251.130318,-740.205942,2834.553343
2803.434432,-10214.842000,-1110.308913,2757.943793
2803.434770,-10510.924376,-1554.432478,2757.943793
2803.435107,-10510.924376,-1628.453072,536.266849
2803.435444,-9326.594869,-1480.411884,-1378.971896
2803.435781,-9770.718434,-222.061783,-2298.286494
2803.436119,-9400.615463,-1184.329507,-2451.505594
2803.436456,-8882.471304,-592.164754,-2451.505594
2803.436793,-9548.656652,222.061783,-1378.971896
2803.437130,-10510.924376,444.123565,-306.438199
2803.437468,-11399.171507,-814.226536,383.047749
2803.437805,-11325.150913,-1998.556043,919.314598
2803.438142,-10732.986159,-3108.864956,1838.629195
2803.438479,-10510.924376,-2886.803174,2834.553343
2803.438817,-10658.965565,-3182.885551,2298.286494
2803.439154,-10214.842000,-2738.761985,306.438199
2803.439491,-9622.677246,-2516.700203,229.828649
2803.439829,-8808.450710,-1258.350101,-766.095498
2803.440166,-8512.368333,0.000000,689.485948
2803.440503,-9400.615463,1480.411884,1608.800546
2803.440840,-9844.739029,2368.659014,1608.800546
2803.441178,-10955.047942,3330.926739,2374.896044
2803.441515,-11843.295072,2812.782580,2451.505594
2803.441852,-11991.336260,1702.473667,2987.772442
2803.442189,-10436.903782,0.000000,2528.115143
2803.442527,-9104.533087,296.082377,2451.505594
2803.442864,-8734.430116,0.000000,1225.752797
2803.443201,-8956.491898,0.000000,-919.314598
2803.443538,-8586.388927,814.226536,-3524.039291
2803.443876,-8808.450710,962.267725,-3064.381992
2803.444213,-9548.656652,1628.453072,-2528.115143
2803.444550,-9622.677246,2294.638420,-2451.505594
2803.444887,-10510.924376,1184.329507,-1072.533697
2803.445225,-10436.903782,1332.370696,-536.266849
2803.445562,-10658.965565,0.000000,306.438199
2803.445899,-10955.047942,-1110.308913,1685.410096
2803.446236,-9918.759623,-2368.659014,1838.629195
2803.446574,-10362.883188,-2738.761985,1915.238745
2803.446911,-10140.821405,-2590.720797,995.924147
2803.447248,-9474.636058,-1776.494261,-1225.752797
2803.447585,-9696.697840,-1110.308913,-2145.067394
2803.447923,-9326.594869,-814.226536,-1838.629195
2803.448260,-9030.512492,518.144159,-1532.190996
2803.448597,-10288.862594,1480.411884,-76.609550
2803.448934,-10807.006753,1258.350101,229.828649
2803.449272,-11325.150913,444.123565,153.219100
2803.449609,-11399.171507,-1184.329507,1072.533697
2803.449946,-10362.883188,-1258.350101,1455.581446
2803.450283,-10066.800811,-2368.659014,1915.238745
2803.450621,-10658.965565,-1998.556043,1302.362347
2803.450958,-10362.883188,-1924.535449,-1455.581446
2803.451295,-9918.759623,-1110.308913,-2757.943793
2803.451632,-8956.491898,-1406.391290,-3524.039291
2803.451970,-8586.388927,-1628.453072,-1762.019645
2803.452307,-9030.512492,0.000000,-689.485948
2803.452644,-8956.491898,1406.391290,689.485948
2803.452981,-10658.965565,814.226536,1762.019645
2803.453319,-11547.212695,148.041188,1915.238745
2803.453656,-11843.295072,-444.123565,3524.039291
2803.453993,-11621.233289,-444.123565,4290.134789
2803.454330,-10140.821405,-1110.308913,3753.867940
2803.454668,-9622.677246,-814.226536,3600.648841
2803.455005,-9178.553681,-444.123565,1378.971896
2803.455342,-7920.203579,0.000000,-536.266849
2803.455679,-8660.409521,1184.329507,-229.828649
2803.456017,-8882.471304,1776.494261,0.000000
2803.456354,-9770.718434,3256.906145,0.000000
2803.456691,-10658.965565,3256.906145,229.828649
2803.457028,-10362.883188,2812.782580,76.609550
2803.457366,-11473.192101,518.144159,919.314598
2803.457703,-11103.089130,-1406.391290,1991.848295
2803.458040,-9548.656652,-2590.720797,1991.848295
2803.458377,-9474.636058,-2442.679609,1072.533697
2803.458715,-9400.615463,-3256.906145,-612.876398
2803.459052,-9474.636058,-3108.864956,-2298.286494
2803.459389,-9474.636058,-2590.720797,-2604.724693
2803.459726,-9622.677246,-962.267725,-2604.724693
2803.460064,-10436.903782,-74.020594,-1915.238745
2803.460401,-10436.903782,222.061783,-1302.362347
