#time,accel_x,accel_y,accel_z
3474.163601,-9400.615463,-444.123565,-306.438199
3474.163939,-9622.677246,0.000000,0.000000
3474.164277,-9400.615463,-592.164754,-459.657299
3474.164615,-9770.718434,-296.082377,-536.266849
3474.164953,-9252.574275,-814.226536,-919.314598
3474.165291,-9104.533087,-740.205942,-459.657299
3474.165628,-9548.656652,-1110.308913,536.266849
3474.165966,-10362.883188,-1406.391290,306.438199
3474.166304,-9622.677246,-1628.453072,1149.143247
3474.166642,-9474.636058,-592.164754,536.266849
3474.166980,-10140.821405,-666.185348,1455.581446
3474.167318,-11103.089130,-1110.308913,1455.581446
3474.167656,-11177.109724,-1332.370696,2068.457845
3474.167994,-10436.903782,518.144159,919.314598
3474.168332,-9622.677246,74.020594,1149.143247
3474.168670,-11029.068536,518.144159,1225.752797
3474.169008,-10436.903782,-1628.453072,459.657299
3474.169346,-10881.027347,-370.102971,459.657299
3474.169684,-9844.739029,74.020594,689.485948
3474.170022,-9918.759623,-1036.288319,229.828649
3474.170360,-10140.821405,-1110.308913,459.657299
3474.170698,-10288.862594,-2886.803174,153.219100
3474.171036,-10066.800811,-1332.370696,1149.143247
3474.171374,-9400.615463,-1480.411884,689.485948
3474.171712,-9770.718434,-2220.617826,842.705048
3474.172049,-9770.718434,-2590.720797,766.095498
3474.172387,-10214.842000,-3330.926739,1838.629195
3474.172725,-9252.574275,-2368.659014,2528.115143
3474.173063,-8956.491898,-3034.844362,3677.258390
3474.173401,-9992.780217,-2146.597232,3370.820191
3474.173739,-10510.924376,-3034.844362,3830.477490
3474.174077,-11399.171507,-2072.576638,4519.963438
3474.174415,-10140.821405,-1628.453072,4366.744339
3474.174753,-10436.903782,-1184.329507,5132.839837
3474.175091,-9992.780217,-666.185348,4826.401637
3474.175429,-10140.821405,-148.041188,2757.943793
3474.175767,-10510.924376,-1480.411884,2987.772442
3474.176105,-9844.739029,-814.226536,2911.162892
3474.176443,-9770.718434,-1332.370696,3753.867940
3474.176781,-9770.718434,-222.061783,2451.505594
3474.177119,-9844.739029,-370.102971,1455.581446
3474.177457,-10584.944971,-1110.308913,1302.362347
3474.177795,-10066.800811,-2442.679609,1149.143247
3474.178133,-9252.574275,-3330.926739,2451.505594
3474.178470,-9770.718434,-2442.679609,2451.505594
3474.178808,-9030.512492,-2738.761985,1149.143247
3474.179146,-9992.780217,-3404.947333,689.485948
3474.179484,-10288.862594,-4663.297435,612.876398
3474.179822,-9548.656652,-3997.112087,536.266849
3474.180160,-9178.553681,-6069.688724,2451.505594
3474.180498,-9622.677246,-4811.338623,4060.306139
3474.180836,-10288.862594,-4959.379811,3600.648841
3474.181174,-11103.089130,-3775.050304,2987.772442
3474.181512,-10658.965565,-2368.659014,1685.410096
3474.181850,-10807.006753,-2516.700203,766.095498
3474.182188,-10658.965565,-2368.659014,1762.019645
3474.182526,-9548.656652,-3034.844362,1608.800546
3474.182864,-9474.636058,-2738.761985,1838.629195
3474.183202,-10807.006753,-3627.009116,2451.505594
3474.183540,-10955.047942,-2590.720797,2221.676944
3474.183878,-9770.718434,-2516.700203,1302.362347
3474.184216,-9622.677246,-2960.823768,2528.115143
3474.184554,-10066.800811,-2812.782580,3753.867940
3474.184892,-11103.089130,-2072.576638,3140.991542
3474.185229,-10955.047942,0.000000,919.314598
3474.185567,-10955.047942,0.000000,-612.876398
3474.185905,-10955.047942,-1702.473667,-995.924147
3474.186243,-9770.718434,-3627.009116,229.828649
3474.186581,-8216.285956,-3404.947333,1608.800546
3474.186919,-6735.874072,-2738.761985,2298.286494
3474.187257,-8660.409521,-2442.679609,3217.601092
3474.187595,-11399.171507,-2960.823768,4826.401637
3474.187933,-11251.130318,-2072.576638,4443.353888
3474.188271,-9844.739029,0.000000,4596.572988
3474.188609,-11251.130318,2368.659014,3753.867940
3474.188947,-11547.212695,1554.432478,2987.772442
3474.189285,-11103.089130,370.102971,1532.190996
3474.189623,-8586.388927,-1258.350101,2681.334243
3474.189961,-7698.141797,-1924.535449,5975.544884
3474.190299,-10584.944971,-1998.556043,7277.907231
3474.190637,-10732.986159,-2072.576638,3677.258390
3474.190975,-9104.533087,0.000000,1225.752797
3474.191313,-9178.553681,148.041188,995.924147
3474.191650,-10732.986159,148.041188,1838.629195
3474.191988,-10362.883188,-814.226536,229.828649
3474.192326,-10066.800811,-444.123565,612.876398
3474.192664,-10510.924376,-1702.473667,306.438199
3474.193002,-11251.130318,-3034.844362,0.000000
3474.193340,-10214.842000,-4219.173869,229.828649
3474.193678,-7846.182985,-6439.791695,1302.362347
3474.194016,-8216.285956,-5995.668130,2451.505594
3474.194354,-9030.512492,-5847.626942,3064.381992
3474.194692,-9770.718434,-4145.153275,4979.620737
3474.195030,-11991.336260,-3404.947333,4519.963438
3474.195368,-13249.686362,-1480.411884,2374.896044
3474.195706,-12213.398043,-1258.350101,1225.752797
3474.196044,-11103.089130,-1628.453072,2451.505594
3474.196382,-9844.739029,-3775.050304,4136.915689
3474.196720,-9696.697840,-2664.741391,2604.724693
3474.197058,-8364.327145,-1998.556043,1532.190996
3474.197396,-10436.903782,-2664.741391,2451.505594
3474.197734,-10732.986159,-2886.803174,1685.410096
3474.198071,-9474.636058,-3478.967927,2451.505594
3474.198409,-9030.512492,-2220.617826,4443.353888
3474.198747,-8660.409521,0.000000,3447.429741
3474.199085,-11547.212695,592.164754,2145.067394
3474.199423,-11547.212695,74.020594,536.266849
3474.199761,-11103.089130,-1258.350101,842.705048
3474.200099,-10955.047942,-2368.659014,2221.676944
3474.200437,-8216.285956,-2146.597232,1455.581446
3474.200775,-7846.182985,-3701.029710,1532.190996
3474.201113,-8512.368333,-4589.276840,2604.724693
3474.201451,-8290.306550,-5995.668130,3830.477490
3474.201789,-9030.512492,-4663.297435,5056.230287
3474.202127,-9030.512492,-1258.350101,3907.087040
3474.202465,-11325.150913,518.144159,2528.115143
3474.202803,-13545.768739,592.164754,1991.848295
3474.203141,-12139.377449,-2368.659014,1455.581446
3474.203479,-9918.759623,-1702.473667,3447.429741
3474.203817,-8142.265362,-814.226536,4213.525239
3474.204155,-9622.677246,-2368.659014,5286.058936
3474.204492,-12657.521608,-4441.235652,2987.772442
3474.204830,-9178.553681,-4737.318029,612.876398
3474.205168,-7994.224174,-2442.679609,2604.724693
3474.205506,-9696.697840,-2072.576638,3294.210641
3474.205844,-11843.295072,-3034.844362,2068.457845
3474.206182,-11843.295072,-2812.782580,-842.705048
3474.206520,-8808.450710,-592.164754,-153.219100
3474.206858,-9918.759623,-2146.597232,2528.115143
3474.207196,-13323.706956,-3108.864956,3753.867940
3474.207534,-11473.192101,-5033.400406,0.000000
3474.207872,-8364.327145,-4737.318029,306.438199
3474.208210,-7254.018232,-4441.235652,3140.991542
3474.208548,-9474.636058,-5773.606348,3830.477490
3474.208886,-9992.780217,-4293.194464,1532.190996
3474.209224,-8586.388927,-3108.864956,919.314598
3474.209562,-9770.718434,-740.205942,3907.087040
3474.209900,-13101.645173,-1036.288319,3983.696590
3474.210238,-12065.356855,-370.102971,2911.162892
3474.210576,-9252.574275,0.000000,3600.648841
3474.210914,-9918.759623,-148.041188,4596.572988
3474.211251,-11843.295072,-370.102971,3753.867940
3474.211589,-10214.842000,-740.205942,3140.991542
3474.211927,-7772.162391,-1850.514855,5286.058936
3474.212265,-9030.512492,-2220.617826,3677.258390
3474.212603,-9992.780217,-666.185348,1915.238745
3474.212941,-9474.636058,296.082377,1608.800546
3474.213279,-9696.697840,-666.185348,1991.848295
3474.213617,-10362.883188,-74.020594,842.705048
3474.213955,-10955.047942,0.000000,306.438199
3474.214293,-10807.006753,-592.164754,1991.848295
3474.214631,-9474.636058,-1924.535449,1532.190996
3474.214969,-9474.636058,-2812.782580,1991.848295
3474.215307,-8882.471304,-3256.906145,2528.115143
3474.215645,-7698.141797,-4811.338623,2145.067394
3474.215983,-9622.677246,-5477.523971,3370.820191
3474.216321,-10510.924376,-5033.400406,4060.306139
3474.216659,-11103.089130,-3404.947333,2911.162892
3474.216997,-10955.047942,-1332.370696,2374.896044
3474.217335,-12213.398043,-1258.350101,3600.648841
3474.217672,-13249.686362,-1480.411884,1225.752797
3474.218010,-10881.027347,-2442.679609,689.485948
3474.218348,-8216.285956,-2812.782580,2068.457845
3474.218686,-9474.636058,-3849.070898,4443.353888
3474.219023,-10362.883188,-5033.400406,3140.991542
3474.219360,-10288.862594,-3701.029710,995.924147
3474.219698,-9918.759623,-3849.070898,1685.410096
3474.220035,-9622.677246,-3923.091493,2221.676944
3474.220373,-9844.739029,-3478.967927,1838.629195
3474.220711,-10732.986159,-1702.473667,-229.828649
3474.221048,-10584.944971,-1554.432478,919.314598
3474.221386,-10658.965565,-2590.720797,842.705048
3474.221723,-10436.903782,-3478.967927,1685.410096
3474.222061,-10288.862594,-3701.029710,3064.381992
3474.222398,-9548.656652,-3997.112087,3064.381992
3474.222736,-9474.636058,-2812.782580,2221.676944
3474.223073,-9474.636058,-2368.659014,1762.019645
3474.223411,-8512.368333,-2368.659014,1762.019645
3474.223748,-9252.574275,-2072.576638,3677.258390
3474.224086,-11029.068536,-1036.288319,4826.401637
3474.224423,-11991.336260,296.082377,3983.696590
3474.224761,-11251.130318,666.185348,3294.210641
3474.225099,-10288.862594,888.247130,3294.210641
3474.225436,-9770.718434,74.020594,3753.867940
3474.225774,-10436.903782,-1184.329507,3600.648841
3474.226111,-7920.203579,444.123565,3217.601092
3474.226449,-7031.956449,-222.061783,3064.381992
3474.226786,-9104.533087,-740.205942,2757.943793
3474.227124,-10436.903782,-2368.659014,1991.848295
3474.227461,-12065.356855,-3108.864956,3983.696590
3474.227799,-10436.903782,-1184.329507,2451.505594
3474.228136,-8808.450710,148.041188,-842.705048
3474.228474,-10732.986159,-666.185348,-612.876398
3474.228811,-9474.636058,-3552.988522,-995.924147
3474.229149,-9992.780217,-5847.626942,383.047749
3474.229486,-8882.471304,-4441.235652,2145.067394
3474.229824,-8512.368333,-5329.482782,3753.867940
3474.230162,-11621.233289,-5329.482782,3983.696590
3474.230499,-10362.883188,-5403.503377,2604.724693
3474.230837,-9918.759623,-4811.338623,3370.820191
3474.231174,-10732.986159,-2368.659014,4443.353888
3474.231512,-11177.109724,-2886.803174,4290.134789
3474.231849,-13101.645173,-3997.112087,2834.553343
3474.232187,-10881.027347,-4293.194464,1685.410096
3474.232524,-8512.368333,-3330.926739,3524.039291
3474.232862,-10881.027347,-666.185348,4826.401637
3474.233199,-9918.759623,-518.144159,1072.533697
3474.233537,-10732.986159,-2146.597232,-1225.752797
3474.233874,-10436.903782,-2886.803174,-306.438199
3474.234212,-7476.080014,-2368.659014,306.438199
3474.234549,-8882.471304,-1702.473667,3447.429741
3474.234887,-10807.006753,-1110.308913,2145.067394
3474.235225,-9770.718434,-592.164754,-1455.581446
3474.235562,-10584.944971,-296.082377,-1302.362347
3474.235900,-9474.636058,-148.041188,536.266849
3474.236237,-8512.368333,-592.164754,1302.362347
3474.236575,-10288.862594,-1702.473667,2528.115143
3474.236912,-11177.109724,-740.205942,1225.752797
3474.237250,-9104.533087,814.226536,1072.533697
3474.237587,-8512.368333,1110.308913,1378.971896
3474.237925,-9030.512492,74.020594,842.705048
3474.238262,-10658.965565,-296.082377,1149.143247
3474.238600,-10955.047942,148.041188,1302.362347
3474.238937,-9104.533087,2516.700203,612.876398
3474.239275,-9474.636058,2812.782580,612.876398
3474.239613,-11991.336260,148.041188,689.485948
3474.239950,-11769.274478,-1702.473667,-459.657299
3474.240288,-10214.842000,-592.164754,1455.581446
3474.240625,-8364.327145,296.082377,1991.848295
3474.240963,-8734.430116,-814.226536,766.095498
3474.241300,-11547.212695,-2516.700203,-1302.362347
3474.241638,-11325.150913,-3404.947333,-1991.848295
3474.241975,-9770.718434,-1480.411884,-1072.533697
3474.242313,-9918.759623,-814.226536,766.095498
3474.242650,-10584.944971,-2294.638420,-536.266849
3474.242988,-12139.377449,-3849.070898,-1838.629195
3474.243325,-9844.739029,-4145.153275,-1532.190996
3474.243663,-9474.636058,-2738.761985,-153.219100
3474.244000,-10732.986159,-2294.638420,3370.820191
3474.244338,-10362.883188,-4441.235652,612.876398
3474.244676,-9474.636058,-3404.947333,229.828649
3474.245013,-8290.306550,-2590.720797,2145.067394
3474.245351,-9696.697840,-2146.597232,4519.963438
3474.245688,-12953.603985,-1628.453072,4673.182538
3474.246026,-10732.986159,148.041188,919.314598
3474.246363,-8142.265362,2442.679609,1149.143247
3474.246701,-10807.006753,2664.741391,2911.162892
3474.247038,-11917.315666,2146.597232,1838.629195
3474.247376,-10066.800811,1332.370696,383.047749
3474.247713,-9326.594869,888.247130,306.438199
3474.248051,-8586.388927,1998.556043,459.657299
3474.248388,-10658.965565,1332.370696,229.828649
3474.248726,-10436.903782,1480.411884,0.000000
3474.249063,-6883.915261,1036.288319,-2451.505594
3474.249401,-8660.409521,1258.350101,-306.438199
3474.249739,-11325.150913,1036.288319,383.047749
3474.250076,-10436.903782,1332.370696,-842.705048
3474.250414,-9992.780217,2590.720797,-1838.629195
3474.250751,-9474.636058,1702.473667,-2528.115143
3474.251089,-11843.295072,74.020594,-459.657299
3474.251426,-11547.212695,-2072.576638,0.000000
3474.251764,-7698.141797,-2072.576638,-153.219100
3474.252101,-7402.059420,-888.247130,1378.971896
3474.252439,-9622.677246,-2146.597232,1378.971896
3474.252776,-12879.583391,-1924.535449,1302.362347
3474.253114,-11473.192101,-2146.597232,-459.657299
3474.253451,-8068.244768,-740.205942,-1149.143247
3474.253789,-9696.697840,-1332.370696,612.876398
3474.254127,-11473.192101,-1406.391290,612.876398
3474.254464,-9548.656652,-2146.597232,-1378.971896
3474.254802,-8956.491898,-1850.514855,-766.095498
3474.255139,-9400.615463,-2072.576638,306.438199
3474.255477,-12509.480420,-1850.514855,536.266849
3474.255814,-11695.253884,-3108.864956,0.000000
3474.256152,-8364.327145,-2590.720797,-1608.800546
3474.256489,-7920.203579,-2664.741391,153.219100
3474.256827,-10214.842000,-1332.370696,1455.581446
3474.257164,-12805.562797,-1110.308913,919.314598
3474.257502,-11251.130318,-1258.350101,-612.876398
3474.257839,-9400.615463,-740.205942,-612.876398
3474.258177,-11547.212695,148.041188,2068.457845
3474.258514,-10658.965565,740.205942,2298.286494
3474.258852,-8512.368333,0.000000,1149.143247
3474.259190,-9178.553681,814.226536,2068.457845
3474.259527,-10584.944971,888.247130,1378.971896
3474.259865,-11695.253884,2368.659014,1685.410096
3474.260202,-10362.883188,1554.432478,1149.143247
3474.260540,-8586.388927,2146.597232,1532.190996
3474.260877,-9104.533087,2664.741391,1149.143247
3474.261215,-10140.821405,2664.741391,1378.971896
3474.261552,-9844.739029,3182.885551,0.000000
3474.261890,-8734.430116,2590.720797,-1915.238745
3474.262227,-9178.553681,1332.370696,-153.219100
3474.262565,-11103.089130,-370.102971,1149.143247
3474.262902,-8216.285956,370.102971,1149.143247
3474.263240,-6069.688724,-296.082377,-306.438199
3474.263577,-8808.450710,296.082377,-919.314598
3474.263915,-12065.356855,-296.082377,-612.876398
3474.264253,-12435.459826,-888.247130,-2298.286494
3474.264590,-9548.656652,-1406.391290,-2145.067394
3474.264928,-9474.636058,-1628.453072,0.000000
3474.265265,-11103.089130,-592.164754,1608.800546
3474.265603,-9770.718434,-1850.514855,689.485948
3474.265940,-10510.924376,-2442.679609,306.438199
3474.266278,-9474.636058,-2072.576638,-306.438199
3474.266615,-11177.109724,-1776.494261,0.000000
3474.266953,-11991.336260,-2368.659014,383.047749
3474.267290,-10658.965565,-1628.453072,-76.609550
3474.267628,-9400.615463,-888.247130,1072.533697
3474.267965,-10362.883188,-814.226536,1302.362347
3474.268303,-11843.295072,-1036.288319,1302.362347
3474.268641,-10881.027347,-74.020594,76.609550
3474.268978,-8882.471304,-814.226536,-536.266849
3474.269316,-9844.739029,-370.102971,76.609550
3474.269653,-12139.377449,-888.247130,536.266849
3474.269991,-9770.718434,-2072.576638,-76.609550
3474.270328,-8660.409521,-2146.597232,-612.876398
3474.270666,-7698.141797,-592.164754,0.000000
3474.271003,-9474.636058,518.144159,1991.848295
3474.271341,-11251.130318,-222.061783,1455.581446
3474.271678,-11325.150913,444.123565,-1149.143247
3474.272016,-11843.295072,148.041188,-919.314598
3474.272353,-11621.233289,888.247130,612.876398
3474.272691,-7846.182985,740.205942,0.000000
3474.273028,-7624.121203,888.247130,2221.676944
3474.273366,-8216.285956,666.185348,2221.676944
3474.273704,-10214.842000,518.144159,2298.286494
3474.274041,-13027.624579,1480.411884,2068.457845
3474.274379,-10584.944971,518.144159,229.828649
3474.274716,-8734.430116,814.226536,1149.143247
3474.275054,-9548.656652,296.082377,2757.943793
3474.275391,-9252.574275,1554.432478,2298.286494
3474.275729,-9178.553681,2294.638420,383.047749
3474.276066,-10214.842000,1998.556043,-1915.238745
3474.276404,-10214.842000,370.102971,-1838.629195
3474.276741,-11547.212695,222.061783,-1608.800546
3474.277079,-9400.615463,-1924.535449,-1915.238745
3474.277416,-7698.141797,-1258.350101,-1762.019645
3474.277754,-7105.977043,-1628.453072,-1608.800546
3474.278091,-10288.862594,-1850.514855,-612.876398
3474.278429,-10881.027347,-2368.659014,-1302.362347
3474.278767,-10066.800811,-2294.638420,-842.705048
3474.279104,-11473.192101,-1480.411884,995.924147
3474.279442,-13101.645173,-1776.494261,1072.533697
3474.279779,-10732.986159,-1850.514855,0.000000
3474.280117,-9252.574275,-2812.782580,0.000000
3474.280454,-8364.327145,-1628.453072,1149.143247
3474.280792,-10584.944971,-1628.453072,1225.752797
3474.281129,-13027.624579,-222.061783,1378.971896
3474.281467,-11103.089130,-888.247130,-689.485948
3474.281804,-10510.924376,-222.061783,306.438199
3474.282142,-10288.862594,444.123565,1762.019645
3474.282479,-9696.697840,222.061783,1455.581446
3474.282817,-9178.553681,2146.597232,612.876398
3474.283155,-9474.636058,2220.617826,-229.828649
3474.283492,-11769.274478,0.000000,766.095498
3474.283830,-12657.521608,-296.082377,689.485948
3474.284167,-7994.224174,-222.061783,-229.828649
3474.284505,-6439.791695,296.082377,919.314598
3474.284842,-7698.141797,888.247130,1302.362347
3474.285180,-9622.677246,-814.226536,306.438199
3474.285517,-11029.068536,-592.164754,153.219100
3474.285855,-8438.347739,888.247130,-995.924147
3474.286192,-9844.739029,888.247130,1072.533697
3474.286530,-12287.418637,1850.514855,919.314598
3474.286867,-9400.615463,1924.535449,-1608.800546
3474.287205,-7179.997637,222.061783,-842.705048
3474.287542,-7846.182985,-888.247130,2681.334243
3474.287880,-11991.336260,-1258.350101,4136.915689
3474.288218,-13841.851115,222.061783,2757.943793
3474.288555,-9548.656652,518.144159,0.000000
3474.288893,-8734.430116,888.247130,1838.629195
3474.289230,-10362.883188,444.123565,2374.896044
3474.289568,-12065.356855,518.144159,1762.019645
3474.289905,-11843.295072,444.123565,-689.485948
3474.290243,-9918.759623,592.164754,-2528.115143
3474.290580,-10658.965565,444.123565,-1072.533697
3474.290918,-10807.006753,-1480.411884,-536.266849
3474.291255,-7698.141797,-1850.514855,-1225.752797
3474.291593,-7920.203579,-2738.761985,-1225.752797
3474.291930,-10955.047942,-2220.617826,842.705048
3474.292268,-12509.480420,-2590.720797,-995.924147
3474.292605,-9770.718434,-2738.761985,-1225.752797
3474.292943,-7105.977043,-1480.411884,-842.705048
3474.293281,-9252.574275,-2812.782580,536.266849
3474.293618,-9918.759623,-1184.329507,1455.581446
3474.293956,-9622.677246,-666.185348,1225.752797
3474.294293,-11103.089130,370.102971,1072.533697
3474.294631,-10732.986159,1480.411884,-689.485948
3474.294968,-11621.233289,444.123565,459.657299
3474.295306,-10658.965565,-518.144159,1225.752797
3474.295643,-7254.018232,-296.082377,1302.362347
3474.295981,-7846.182985,1184.329507,3294.210641
3474.296318,-9918.759623,1332.370696,2221.676944
3474.296656,-10658.965565,1480.411884,229.828649
3474.296993,-11325.150913,3182.885551,0.000000
3474.297331,-11103.089130,3775.050304,-1608.800546
3474.297669,-9696.697840,1998.556043,-919.314598
3474.298006,-10288.862594,1110.308913,-995.924147
3474.298344,-8734.430116,1184.329507,-995.924147
3474.298681,-9178.553681,0.000000,-2451.505594
3474.299019,-8438.347739,0.000000,-1149.143247
3474.299356,-9622.677246,0.000000,0.000000
3474.299694,-10140.821405,-1554.432478,229.828649
3474.300031,-9770.718434,-2516.700203,-536.266849
3474.300369,-10658.965565,-2072.576638,1149.143247
3474.300706,-11991.336260,-2220.617826,1685.410096
3474.301044,-9770.718434,-1776.494261,459.657299
3474.301381,-7846.182985,-888.247130,306.438199
3474.301719,-9548.656652,-1702.473667,2604.724693
3474.302056,-12657.521608,-2442.679609,2681.334243
3474.302394,-12731.542202,-1924.535449,1838.629195
3474.302732,-10362.883188,-888.247130,0.000000
3474.303069,-8364.327145,0.000000,1302.362347
3474.303407,-9474.636058,-74.020594,995.924147
3474.303744,-11103.089130,0.000000,1302.362347
3474.304082,-10881.027347,-148.041188,153.219100
3474.304419,-9548.656652,-296.082377,612.876398
3474.304757,-11399.171507,0.000000,1685.410096
3474.305094,-12139.377449,-222.061783,1455.581446
3474.305432,-9178.553681,1110.308913,-1149.143247
3474.305769,-7402.059420,0.000000,0.000000
3474.306107,-9696.697840,518.144159,689.485948
3474.306444,-11769.274478,-666.185348,153.219100
3474.306782,-10510.924376,0.000000,-1149.143247
3474.307119,-7772.162391,1036.288319,-1532.190996
3474.307457,-8808.450710,148.041188,536.266849
3474.307795,-11177.109724,370.102971,2068.457845
3474.308132,-8734.430116,370.102971,-842.705048
3474.308470,-7179.997637,1184.329507,383.047749
3474.308807,-9400.615463,1036.288319,229.828649
3474.309145,-11621.233289,370.102971,306.438199
3474.309482,-10584.944971,888.247130,459.657299
3474.309820,-7994.224174,222.061783,459.657299
3474.310157,-7772.162391,1628.453072,995.924147
3474.310495,-10807.006753,666.185348,1149.143247
3474.310832,-11917.315666,1110.308913,306.438199
3474.311170,-9770.718434,814.226536,-1455.581446
3474.311507,-9474.636058,1480.411884,-1685.410096
3474.311845,-10362.883188,1110.308913,-459.657299
3474.312183,-12213.398043,370.102971,-1608.800546
3474.312520,-9992.780217,-222.061783,-3447.429741
3474.312858,-7772.162391,-1184.329507,-3447.429741
3474.313195,-8512.368333,-1998.556043,383.047749
3474.313533,-11251.130318,-3256.906145,612.876398
3474.313870,-10732.986159,-2368.659014,-612.876398
3474.314208,-10510.924376,-2146.597232,0.000000
3474.314545,-11177.109724,-3552.988522,536.266849
3474.314883,-10288.862594,-2960.823768,2298.286494
3474.315220,-9326.594869,-1776.494261,1302.362347
3474.315558,-8660.409521,-2072.576638,1149.143247
3474.315895,-9622.677246,-2738.761985,2451.505594
3474.316233,-11547.212695,-444.123565,2604.724693
3474.316570,-12731.542202,-962.267725,2528.115143
3474.316908,-8882.471304,-148.041188,1302.362347
3474.317246,-8660.409521,888.247130,1072.533697
3474.317583,-10510.924376,148.041188,1991.848295
3474.317921,-10658.965565,740.205942,2068.457845
3474.318258,-8734.430116,2072.576638,1072.533697
3474.318596,-10362.883188,1184.329507,2068.457845
3474.318933,-11251.130318,2368.659014,1302.362347
3474.319271,-11769.274478,2220.617826,229.828649
3474.319609,-10658.965565,2590.720797,-919.314598
3474.319946,-7179.997637,1554.432478,-1991.848295
3474.320284,-8512.368333,888.247130,-612.876398
3474.320621,-10584.944971,370.102971,1225.752797
3474.320959,-9992.780217,222.061783,-919.314598
3474.321296,-9400.615463,2220.617826,-1149.143247
3474.321634,-8882.471304,1480.411884,-306.438199
3474.321971,-10214.842000,592.164754,1072.533697
3474.322309,-11325.150913,222.061783,1685.410096
3474.322647,-9548.656652,1776.494261,-459.657299
3474.322984,-8142.265362,-444.123565,-1532.190996
3474.323322,-11399.171507,-2590.720797,1378.971896
3474.323659,-9178.553681,-1110.308913,76.609550
3474.323997,-7031.956449,0.000000,-1378.971896
3474.324334,-7624.121203,0.000000,766.095498
3474.324672,-11399.171507,-888.247130,1072.533697
3474.325009,-12953.603985,-592.164754,-153.219100
3474.325347,-10955.047942,148.041188,-2451.505594
3474.325685,-8364.327145,74.020594,-1991.848295
3474.326022,-10362.883188,-666.185348,-1149.143247
3474.326360,-11621.233289,-2516.700203,-229.828649
3474.326697,-10510.924376,-2294.638420,0.000000
3474.327035,-8660.409521,-1924.535449,-1072.533697
3474.327372,-9770.718434,-1332.370696,-536.266849
3474.327710,-12139.377449,-1554.432478,-919.314598
3474.328048,-12361.439231,-1628.453072,-1762.019645
3474.328385,-11177.109724,-1850.514855,-1685.410096
3474.328723,-10066.800811,-2368.659014,0.000000
3474.329060,-9252.574275,-2368.659014,1149.143247
3474.329398,-7624.121203,-1406.391290,1762.019645
3474.329735,-7476.080014,-222.061783,919.314598
3474.330073,-10658.965565,-518.144159,1302.362347
3474.330410,-13693.809927,0.000000,3064.381992
3474.330748,-12139.377449,296.082377,1991.848295
3474.331086,-9474.636058,148.041188,2451.505594
3474.331423,-7550.100608,1628.453072,3600.648841
3474.331761,-8808.450710,1628.453072,3983.696590
3474.332098,-11621.233289,1776.494261,3753.867940
3474.332436,-10658.965565,1332.370696,1991.848295
3474.332773,-10362.883188,2812.782580,995.924147
3474.333111,-11991.336260,3627.009116,995.924147
3474.333448,-11251.130318,3404.947333,-919.314598
3474.333786,-8734.430116,2072.576638,-2298.286494
3474.334124,-7179.997637,1850.514855,-2451.505594
3474.334461,-8068.244768,1110.308913,-2068.457845
3474.334799,-11695.253884,-370.102971,0.000000
3474.335136,-11177.109724,-1628.453072,-1378.971896
3474.335474,-8586.388927,-2590.720797,-1991.848295
3474.335811,-7846.182985,-2294.638420,842.705048
3474.336149,-8660.409521,-1184.329507,2834.553343
3474.336487,-10658.965565,-2220.617826,1915.238745
3474.336824,-10584.944971,-518.144159,-995.924147
3474.337162,-10066.800811,-814.226536,-842.705048
3474.337499,-11769.274478,-1628.453072,919.314598
3474.337837,-10732.986159,-2442.679609,842.705048
3474.338174,-9474.636058,-2590.720797,-766.095498
3474.338512,-7402.059420,-666.185348,-1302.362347
3474.338849,-7772.162391,-1554.432478,-1225.752797
3474.339187,-11621.233289,-1554.432478,919.314598
3474.339525,-11917.315666,-814.226536,-1455.581446
3474.339862,-10658.965565,-592.164754,-1532.190996
3474.340200,-11473.192101,-1406.391290,766.095498
3474.340537,-12361.439231,-1110.308913,766.095498
3474.340875,-10066.800811,-296.082377,-536.266849
3474.341212,-8216.285956,-444.123565,-1455.581446
3474.341550,-9252.574275,-888.247130,0.000000
3474.341888,-12805.562797,-888.247130,-153.219100
3474.342225,-11917.315666,0.000000,-1532.190996
3474.342563,-9474.636058,814.226536,-2068.457845
3474.342900,-9104.533087,296.082377,-1149.143247
3474.343238,-9918.759623,-148.041188,229.828649
3474.343575,-9326.594869,-148.041188,229.828649
3474.343913,-8364.327145,1406.391290,1838.629195
3474.344250,-8734.430116,1110.308913,2834.553343
3474.344588,-12435.459826,0.000000,3753.867940
3474.344926,-12879.583391,1036.288319,2987.772442
3474.345263,-8586.388927,1406.391290,1455.581446
3474.345601,-6957.935855,1702.473667,2451.505594
3474.345938,-8660.409521,444.123565,2911.162892
3474.346276,-9918.759623,1332.370696,2451.505594
3474.346613,-10288.862594,814.226536,-153.219100
3474.346951,-9548.656652,1924.535449,-1762.019645
3474.347288,-11103.089130,2368.659014,-1991.848295
3474.347626,-10288.862594,518.144159,-1685.410096
3474.347964,-7254.018232,0.000000,-1915.238745
3474.348301,-7254.018232,-592.164754,306.438199
3474.348639,-10807.006753,-518.144159,1225.752797
3474.348976,-13397.727550,-2960.823768,766.095498
3474.349314,-12509.480420,-3182.885551,536.266849
3474.349651,-9548.656652,-1036.288319,-76.609550
3474.349989,-9178.553681,-222.061783,842.705048
3474.350327,-11769.274478,-296.082377,995.924147
3474.350664,-11103.089130,-1702.473667,-2604.724693
3474.351002,-10362.883188,-2812.782580,-2681.334243
3474.351339,-9696.697840,-3330.926739,-383.047749
3474.351677,-9992.780217,-2072.576638,2221.676944
3474.352014,-10214.842000,-888.247130,1838.629195
3474.352352,-9622.677246,296.082377,-612.876398
3474.352689,-8808.450710,814.226536,-995.924147
3474.353027,-10955.047942,-1258.350101,1149.143247
3474.353365,-11843.295072,-1924.535449,1991.848295
3474.353702,-10362.883188,-666.185348,1225.752797
3474.354040,-9326.594869,740.205942,919.314598
3474.354377,-9104.533087,-592.164754,306.438199
3474.354715,-9252.574275,-444.123565,-153.219100
3474.355052,-9992.780217,814.226536,-306.438199
3474.355390,-11029.068536,1406.391290,-1838.629195
3474.355728,-9474.636058,666.185348,-3677.258390
3474.356065,-8956.491898,666.185348,-2451.505594
3474.356403,-8808.450710,296.082377,-612.876398
3474.356740,-8882.471304,-962.267725,0.000000
3474.357078,-8956.491898,-1924.535449,995.924147
3474.357415,-10362.883188,-592.164754,1915.238745
3474.357753,-10140.821405,0.000000,1532.190996
3474.358090,-9400.615463,1702.473667,1149.143247
3474.358428,-9918.759623,666.185348,1455.581446
3474.358766,-12509.480420,-1480.411884,2451.505594
3474.359103,-10584.944971,-518.144159,2298.286494
3474.359441,-10362.883188,814.226536,1302.362347
3474.359778,-8956.491898,518.144159,842.705048
3474.360116,-9844.739029,-296.082377,536.266849
3474.360453,-9992.780217,814.226536,-1455.581446
3474.360791,-9992.780217,222.061783,-1762.019645
3474.361128,-9844.739029,518.144159,-766.095498
3474.361466,-11843.295072,-518.144159,-612.876398
3474.361804,-11547.212695,-2220.617826,-689.485948
3474.362141,-9030.512492,-1924.535449,-153.219100
3474.362479,-8808.450710,-1924.535449,1455.581446
3474.362816,-10658.965565,-2442.679609,2604.724693
3474.363154,-11547.212695,-2960.823768,689.485948
3474.363491,-10140.821405,-2368.659014,76.609550
3474.363829,-10066.800811,-1702.473667,536.266849
3474.364167,-10362.883188,-2294.638420,-689.485948
3474.364504,-11251.130318,-1924.535449,-1378.971896
3474.364842,-8438.347739,-888.247130,-3524.039291
3474.365179,-6587.832884,-444.123565,-2451.505594
3474.365517,-9178.553681,-740.205942,0.000000
3474.365854,-12287.418637,-1406.391290,766.095498
3474.366192,-10732.986159,-518.144159,1072.533697
3474.366529,-8216.285956,1184.329507,1455.581446
3474.366867,-9548.656652,1480.411884,3140.991542
3474.367205,-11547.212695,1258.350101,2987.772442
3474.367542,-11917.315666,2072.576638,1225.752797
3474.367880,-11399.171507,1702.473667,459.657299
3474.368217,-9696.697840,1480.411884,383.047749
3474.368555,-9400.615463,2146.597232,612.876398
3474.368892,-9992.780217,592.164754,-766.095498
3474.369230,-7624.121203,1850.514855,-3600.648841
3474.369568,-7328.038826,1406.391290,-2987.772442
3474.369905,-9622.677246,444.123565,-766.095498
3474.370243,-11103.089130,-1406.391290,-1532.190996
3474.370580,-9696.697840,-888.247130,-1762.019645
3474.370918,-9030.512492,-814.226536,995.924147
3474.371255,-9696.697840,-1480.411884,2604.724693
3474.371593,-9844.739029,-1628.453072,2528.115143
3474.371930,-10214.842000,-1924.535449,2221.676944
3474.372268,-10362.883188,148.041188,1608.800546
3474.372606,-11843.295072,-518.144159,536.266849
3474.372943,-12805.562797,-444.123565,919.314598
3474.373281,-10436.903782,-888.247130,-612.876398
3474.373618,-7328.038826,814.226536,-1302.362347
3474.373956,-9548.656652,148.041188,0.000000
3474.374293,-12213.398043,-1406.391290,536.266849
3474.374631,-10510.924376,-1110.308913,0.000000
3474.374968,-9030.512492,-1184.329507,1455.581446
3474.375306,-10066.800811,-222.061783,2681.334243
3474.375644,-11991.336260,-1998.556043,2068.457845
3474.375981,-11769.274478,-1998.556043,536.266849
3474.376319,-8512.368333,-666.185348,-842.705048
3474.376656,-9178.553681,-1554.432478,1072.533697
3474.376994,-11621.233289,-2886.803174,1532.190996
3474.377331,-9918.759623,-1850.514855,-1302.362347
3474.377669,-8142.265362,-888.247130,-2451.505594
3474.378007,-8438.347739,148.041188,-1915.238745
3474.378344,-10140.821405,-1554.432478,-1838.629195
3474.378682,-10807.006753,-1110.308913,-1225.752797
3474.379019,-6291.750507,-222.061783,306.438199
3474.379357,-9178.553681,-148.041188,2681.334243
3474.379694,-12139.377449,0.000000,3600.648841
3474.380032,-12583.501014,814.226536,2298.286494
3474.380369,-10436.903782,1628.453072,689.485948
3474.380707,-9918.759623,1776.494261,536.266849
3474.381045,-8734.430116,2590.720797,-766.095498
3474.381382,-10436.903782,296.082377,-229.828649
3474.381720,-9770.718434,1332.370696,0.000000
3474.382057,-8290.306550,1406.391290,-1455.581446
3474.382395,-10658.965565,2146.597232,-995.924147
3474.382732,-11917.315666,814.226536,-919.314598
3474.383070,-10214.842000,-1110.308913,-995.924147
3474.383407,-7698.141797,-962.267725,-919.314598
3474.383745,-7846.182985,-444.123565,0.000000
3474.384083,-9770.718434,-1480.411884,842.705048
3474.384420,-11029.068536,-2960.823768,76.609550
3474.384758,-10510.924376,-3701.029710,-1302.362347
3474.385095,-9178.553681,-2516.700203,459.657299
3474.385433,-8734.430116,-1258.350101,2221.676944
3474.385770,-11547.212695,-2294.638420,1455.581446
3474.386108,-11843.295072,-1480.411884,-1685.410096
3474.386446,-8290.306550,-888.247130,-3140.991542
3474.386783,-10658.965565,-1850.514855,1991.848295
3474.387121,-12287.418637,-3849.070898,3064.381992
3474.387458,-9992.780217,-3404.947333,1685.410096
3474.387796,-7476.080014,-370.102971,2528.115143
3474.388133,-7550.100608,-222.061783,3677.258390
3474.388471,-13619.789333,0.000000,4290.134789
3474.388808,-15026.180623,2146.597232,306.438199
3474.389146,-11843.295072,2294.638420,-1762.019645
3474.389484,-11103.089130,3034.844362,0.000000
3474.389821,-10436.903782,740.205942,383.047749
3474.390159,-8956.491898,444.123565,-536.266849
3474.390496,-7920.203579,0.000000,-1225.752797
3474.390834,-8216.285956,444.123565,-995.924147
3474.391171,-10510.924376,666.185348,76.609550
3474.391509,-11843.295072,0.000000,459.657299
3474.391847,-9326.594869,296.082377,-1455.581446
3474.392184,-7550.100608,666.185348,-1991.848295
3474.392522,-9104.533087,592.164754,153.219100
3474.392859,-9770.718434,148.041188,229.828649
3474.393197,-9252.574275,-962.267725,1225.752797
3474.393534,-7846.182985,-370.102971,2068.457845
3474.393872,-10288.862594,-666.185348,3294.210641
3474.394209,-13693.809927,-148.041188,3217.601092
3474.394547,-10510.924376,222.061783,-766.095498
3474.394885,-8068.244768,1406.391290,-2068.457845
3474.395222,-7179.997637,888.247130,-1991.848295
3474.395560,-10584.944971,370.102971,-842.705048
3474.395897,-11103.089130,296.082377,-1915.238745
3474.396235,-9474.636058,814.226536,-3447.429741
3474.396572,-10362.883188,0.000000,-536.266849
3474.396910,-11843.295072,-814.226536,1838.629195
3474.397247,-9918.759623,-1702.473667,1378.971896
3474.397585,-10214.842000,-666.185348,842.705048
3474.397923,-9844.739029,-370.102971,0.000000
3474.398260,-12509.480420,-2368.659014,229.828649
3474.398598,-13767.830521,-3552.988522,0.000000
3474.398935,-8364.327145,-2590.720797,-1915.238745
3474.399273,-7179.997637,-1332.370696,-229.828649
3474.399610,-9770.718434,-1776.494261,842.705048
3474.399948,-9474.636058,-1554.432478,0.000000
3474.400286,-9326.594869,-2368.659014,-306.438199
3474.400623,-10066.800811,0.000000,1608.800546
3474.400961,-10881.027347,-814.226536,1455.581446
3474.401298,-12805.562797,-1850.514855,3064.381992
3474.401636,-9252.574275,-1258.350101,3064.381992
3474.401973,-7772.162391,-370.102971,4596.572988
3474.402311,-9474.636058,1702.473667,4290.134789
3474.402648,-10140.821405,666.185348,2068.457845
3474.402986,-12361.439231,1480.411884,536.266849
3474.403324,-11251.130318,2516.700203,-2528.115143
3474.403661,-7772.162391,3108.864956,-1991.848295
3474.403999,-10807.006753,1332.370696,306.438199
3474.404336,-9696.697840,1628.453072,-1455.581446
3474.404674,-8586.388927,2072.576638,-3677.258390
3474.405011,-9474.636058,2368.659014,-1378.971896
3474.405349,-11325.150913,-666.185348,306.438199
3474.405687,-11695.253884,-1554.432478,536.266849
3474.406024,-9400.615463,-1406.391290,-766.095498
3474.406362,-7476.080014,-1480.411884,919.314598
3474.406699,-10732.986159,-2220.617826,1838.629195
3474.407037,-9548.656652,-1184.329507,-383.047749
3474.407374,-8290.306550,-962.267725,-1225.752797
3474.407712,-9844.739029,0.000000,1225.752797
3474.408049,-10362.883188,-1480.411884,0.000000
3474.408387,-11843.295072,-1110.308913,536.266849
3474.408725,-11473.192101,-740.205942,0.000000
3474.409062,-8512.368333,-148.041188,-612.876398
3474.409400,-7402.059420,-1036.288319,0.000000
3474.409737,-9844.739029,-2294.638420,2374.896044
3474.410075,-11695.253884,-1036.288319,2221.676944
3474.410412,-11103.089130,0.000000,919.314598
3474.410750,-11177.109724,1036.288319,306.438199
3474.411087,-12731.542202,-740.205942,536.266849
3474.411425,-11325.150913,-1332.370696,-1072.533697
3474.411763,-7179.997637,-74.020594,-2681.334243
3474.412100,-7624.121203,-444.123565,-689.485948
3474.412438,-10955.047942,-1480.411884,459.657299
3474.412775,-11399.171507,-2220.617826,-383.047749
3474.413113,-10510.924376,-666.185348,-612.876398
3474.413450,-9548.656652,296.082377,0.000000
3474.413788,-9548.656652,-518.144159,1072.533697
3474.414126,-10214.842000,-592.164754,1685.410096
3474.414463,-8586.388927,-1110.308913,1762.019645
3474.414801,-9770.718434,-962.267725,3294.210641
3474.415138,-10066.800811,814.226536,3907.087040
3474.415476,-10732.986159,296.082377,2298.286494
3474.415813,-9770.718434,296.082377,383.047749
3474.416151,-8290.306550,3627.009116,1149.143247
3474.416488,-9770.718434,2664.741391,1685.410096
3474.416826,-13175.665768,2590.720797,995.924147
3474.417164,-11251.130318,2220.617826,-1762.019645
3474.417501,-8882.471304,2146.597232,-1378.971896
3474.417839,-8068.244768,1036.288319,459.657299
3474.418176,-10288.862594,-592.164754,1302.362347
3474.418513,-10362.883188,0.000000,-1225.752797
3474.418851,-8512.368333,0.000000,-1762.019645
3474.419188,-10362.883188,-370.102971,306.438199
3474.419526,-11695.253884,148.041188,-536.266849
3474.419863,-10288.862594,-370.102971,-2604.724693
3474.420200,-9548.656652,-962.267725,-2145.067394
3474.420538,-10362.883188,-1036.288319,-536.266849
3474.420875,-10584.944971,-2368.659014,0.000000
3474.421212,-9696.697840,-3108.864956,-612.876398
3474.421550,-7254.018232,-2368.659014,536.266849
3474.421887,-8956.491898,-1850.514855,2068.457845
3474.422224,-11029.068536,-1702.473667,2374.896044
3474.422562,-12287.418637,-1332.370696,842.705048
3474.422899,-11473.192101,-370.102971,0.000000
3474.423237,-10732.986159,-1036.288319,1455.581446
3474.423574,-8290.306550,-592.164754,1378.971896
3474.423911,-8808.450710,0.000000,3294.210641
3474.424249,-10066.800811,0.000000,2757.943793
3474.424586,-11029.068536,814.226536,76.609550
3474.424923,-11991.336260,1184.329507,-536.266849
3474.425261,-12435.459826,740.205942,842.705048
3474.425598,-10362.883188,592.164754,536.266849
3474.425936,-7698.141797,370.102971,-1378.971896
3474.426273,-7624.121203,1406.391290,-1302.362347
3474.426610,-9918.759623,-370.102971,-1608.800546
3474.426948,-10066.800811,-1184.329507,-1838.629195
3474.427285,-9326.594869,-740.205942,-995.924147
3474.427622,-9326.594869,0.000000,1455.581446
3474.427960,-9104.533087,740.205942,2528.115143
3474.428297,-10881.027347,0.000000,1608.800546
3474.428634,-9104.533087,0.000000,153.219100
3474.428972,-9326.594869,-666.185348,1302.362347
3474.429309,-11399.171507,-2294.638420,3140.991542
3474.429647,-11325.150913,-1184.329507,2451.505594
3474.429984,-9400.615463,1258.350101,2068.457845
3474.430321,-9918.759623,888.247130,459.657299
3474.430659,-10362.883188,888.247130,-383.047749
3474.430996,-11991.336260,740.205942,0.000000
3474.431333,-10140.821405,296.082377,-1149.143247
3474.431671,-8956.491898,592.164754,0.000000
3474.432008,-10436.903782,0.000000,1762.019645
3474.432346,-11991.336260,-1258.350101,229.828649
3474.432683,-9844.739029,-1332.370696,-1685.410096
3474.433020,-8586.388927,-1258.350101,-536.266849
3474.433358,-8956.491898,-1924.535449,76.609550
3474.433695,-10658.965565,-1776.494261,-1378.971896
3474.434032,-10436.903782,-1850.514855,-1532.190996
3474.434370,-8290.306550,-962.267725,-1455.581446
3474.434707,-9770.718434,-740.205942,-612.876398
3474.435044,-11695.253884,-814.226536,-383.047749
3474.435382,-10807.006753,-1332.370696,-1302.362347
3474.435719,-8882.471304,-1998.556043,-612.876398
3474.436057,-8216.285956,-888.247130,995.924147
3474.436394,-10066.800811,148.041188,2681.334243
3474.436731,-11843.295072,-814.226536,2451.505594
3474.437069,-11103.089130,-1480.411884,689.485948
3474.437406,-9474.636058,1406.391290,1532.190996
3474.437743,-11769.274478,2294.638420,3524.039291
3474.438081,-11843.295072,1406.391290,1532.190996
3474.438418,-9326.594869,1184.329507,-1608.800546
3474.438756,-8586.388927,2664.741391,-995.924147
3474.439093,-9104.533087,1332.370696,-689.485948
3474.439430,-11547.212695,1332.370696,-766.095498
3474.439768,-8660.409521,740.205942,-2911.162892
3474.440105,-9696.697840,-740.205942,-1838.629195
3474.440442,-9918.759623,0.000000,842.705048
3474.440780,-9474.636058,0.000000,1302.362347
3474.441117,-9474.636058,1554.432478,1455.581446
3474.441454,-10584.944971,962.267725,-1302.362347
3474.441792,-11251.130318,-370.102971,-1225.752797
3474.442129,-11769.274478,-2146.597232,1378.971896
3474.442467,-8586.388927,-2442.679609,2221.676944
3474.442804,-7402.059420,-888.247130,2681.334243
3474.443141,-8956.491898,-444.123565,842.705048
3474.443479,-10362.883188,-888.247130,842.705048
3474.443816,-12879.583391,-888.247130,1608.800546
3474.444153,-11251.130318,-518.144159,1455.581446
3474.444491,-8882.471304,0.000000,2221.676944
3474.444828,-10955.047942,0.000000,1378.971896
3474.445166,-10881.027347,-518.144159,689.485948
3474.445503,-8290.306550,-1480.411884,76.609550
3474.445840,-7254.018232,-1628.453072,1532.190996
3474.446178,-9400.615463,-1554.432478,2451.505594
3474.446515,-14063.912898,0.000000,1762.019645
3474.446852,-13249.686362,222.061783,-1532.190996
3474.447190,-9474.636058,222.061783,-2221.676944
3474.447527,-8512.368333,222.061783,0.000000
3474.447864,-10658.965565,-444.123565,-306.438199
3474.448202,-10881.027347,-1628.453072,-1532.190996
3474.448539,-9474.636058,-1554.432478,-1838.629195
3474.448877,-8586.388927,-592.164754,229.828649
3474.449214,-10732.986159,370.102971,919.314598
3474.449551,-10807.006753,0.000000,-612.876398
3474.449889,-8438.347739,222.061783,-1608.800546
3474.450226,-9474.636058,222.061783,383.047749
3474.450563,-11991.336260,518.144159,2757.943793
3474.450901,-11103.089130,814.226536,1685.410096
3474.451238,-9474.636058,814.226536,1225.752797
3474.451576,-9474.636058,2294.638420,306.438199
3474.451913,-9770.718434,1332.370696,-536.266849
3474.452250,-10510.924376,1406.391290,1149.143247
3474.452588,-8290.306550,0.000000,76.609550
3474.452925,-7846.182985,1184.329507,-612.876398
3474.453262,-10362.883188,0.000000,153.219100
3474.453600,-11029.068536,-666.185348,383.047749
3474.453937,-9252.574275,-1258.350101,-1072.533697
3474.454274,-8956.491898,-888.247130,-306.438199
3474.454612,-8290.306550,-592.164754,229.828649
3474.454949,-11843.295072,-2072.576638,689.485948
3474.455287,-11029.068536,-1036.288319,-536.266849
3474.455624,-9178.553681,-1332.370696,-1072.533697
3474.455961,-10881.027347,-1332.370696,1608.800546
3474.456299,-12213.398043,-2516.700203,612.876398
3474.456636,-11695.253884,-2812.782580,-842.705048
3474.456973,-8956.491898,-1776.494261,76.609550
3474.457311,-8512.368333,-814.226536,766.095498
3474.457648,-10807.006753,-1924.535449,1225.752797
3474.457986,-12509.480420,-2442.679609,153.219100
3474.458323,-9770.718434,-1258.350101,1455.581446
3474.458660,-9622.677246,148.041188,4213.525239
3474.458998,-10658.965565,222.061783,3830.477490
3474.459335,-12213.398043,222.061783,1838.629195
3474.459672,-11177.109724,888.247130,919.314598
3474.460010,-9844.739029,666.185348,995.924147
3474.460347,-9104.533087,148.041188,1225.752797
3474.460684,-11103.089130,0.000000,1378.971896
3474.461022,-9770.718434,296.082377,-2068.457845
3474.461359,-7772.162391,148.041188,-2911.162892
3474.461697,-6365.771101,2442.679609,-1608.800546
3474.462034,-9252.574275,148.041188,-689.485948
3474.462371,-12065.356855,74.020594,-459.657299
3474.462709,-10955.047942,1110.308913,-1302.362347
3474.463046,-9548.656652,370.102971,153.219100
3474.463383,-10584.944971,0.000000,2528.115143
3474.463721,-9548.656652,666.185348,1225.752797
3474.464058,-7994.224174,740.205942,0.000000
3474.464396,-8734.430116,-1332.370696,689.485948
3474.464733,-11103.089130,0.000000,2681.334243
3474.465070,-12139.377449,1110.308913,229.828649
3474.465408,-10658.965565,1776.494261,-1915.238745
3474.465745,-9326.594869,2072.576638,-1532.190996
3474.466082,-9030.512492,1110.308913,-1762.019645
3474.466420,-11103.089130,148.041188,-766.095498
3474.466757,-10658.965565,-74.020594,383.047749
3474.467094,-9400.615463,-1036.288319,153.219100
3474.467432,-10955.047942,-888.247130,842.705048
3474.467769,-11399.171507,-1110.308913,0.000000
3474.468107,-10807.006753,-444.123565,-306.438199
3474.468444,-9992.780217,-1480.411884,-383.047749
3474.468781,-9474.636058,-1924.535449,-1608.800546
3474.469119,-10584.944971,-1628.453072,-383.047749
3474.469456,-10955.047942,-1924.535449,-766.095498
3474.469793,-8216.285956,-2220.617826,-1378.971896
3474.470131,-8586.388927,-2072.576638,76.609550
3474.470468,-11177.109724,-2220.617826,995.924147
3474.470806,-10807.006753,-2368.659014,-1072.533697
3474.471143,-7328.038826,-296.082377,536.266849
3474.471480,-9844.739029,-296.082377,3677.258390
3474.471818,-12583.501014,0.000000,5132.839837
3474.472155,-12139.377449,0.000000,2451.505594
3474.472492,-9992.780217,370.102971,1838.629195
3474.472830,-8438.347739,1332.370696,2374.896044
3474.473167,-9178.553681,148.041188,995.924147
3474.473504,-9548.656652,888.247130,1225.752797
3474.473842,-9474.636058,1332.370696,612.876398
3474.474179,-8808.450710,2664.741391,76.609550
3474.474517,-11103.089130,2812.782580,383.047749
3474.474854,-13471.748144,370.102971,153.219100
3474.475191,-9770.718434,1036.288319,-229.828649
3474.475529,-7698.141797,1332.370696,-306.438199
3474.475866,-8512.368333,0.000000,1608.800546
3474.476203,-10510.924376,-666.185348,536.266849
3474.476541,-10362.883188,-666.185348,-1072.533697
3474.476878,-9178.553681,370.102971,-1378.971896
3474.477216,-9474.636058,0.000000,-76.609550
3474.477553,-11917.315666,-962.267725,612.876398
3474.477890,-10955.047942,-1850.514855,-995.924147
3474.478228,-7994.224174,-1184.329507,-1838.629195
3474.478565,-8068.244768,-1776.494261,1072.533697
3474.478902,-9844.739029,-1776.494261,2221.676944
3474.479240,-11325.150913,-2590.720797,1225.752797
3474.479577,-10955.047942,-1628.453072,842.705048
3474.479914,-9770.718434,148.041188,306.438199
3474.480252,-10066.800811,-888.247130,229.828649
3474.480589,-11399.171507,444.123565,-612.876398
3474.480927,-10140.821405,74.020594,-2374.896044
3474.481264,-10140.821405,-814.226536,-1915.238745
3474.481601,-9770.718434,-666.185348,-612.876398
3474.481939,-10214.842000,-1258.350101,306.438199
3474.482276,-11177.109724,-888.247130,-612.876398
3474.482613,-8512.368333,-518.144159,-2145.067394
3474.482951,-8290.306550,0.000000,0.000000
3474.483288,-13471.748144,-1480.411884,2145.067394
3474.483626,-11251.130318,-518.144159,-612.876398
3474.483963,-9104.533087,0.000000,-1915.238745
3474.484300,-8438.347739,-222.061783,536.266849
3474.484638,-9844.739029,-1406.391290,1455.581446
3474.484975,-10955.047942,74.020594,612.876398
3474.485312,-10140.821405,0.000000,1225.752797
3474.485650,-9252.574275,-888.247130,3064.381992
3474.485987,-10510.924376,-518.144159,3524.039291
3474.486324,-9770.718434,2516.700203,3294.210641
3474.486662,-9548.656652,2812.782580,1991.848295
3474.486999,-10362.883188,2590.720797,306.438199
3474.487337,-12361.439231,1702.473667,-612.876398
3474.487674,-10066.800811,1924.535449,-1608.800546
3474.488011,-6365.771101,1184.329507,-1455.581446
3474.488349,-7994.224174,0.000000,459.657299
3474.488686,-9252.574275,-296.082377,306.438199
3474.489023,-11325.150913,-740.205942,0.000000
3474.489361,-11029.068536,370.102971,766.095498
3474.489698,-9104.533087,296.082377,-689.485948
3474.490036,-9252.574275,1184.329507,-612.876398
3474.490373,-12065.356855,-1628.453072,0.000000
3474.490710,-10732.986159,-1110.308913,-1225.752797
3474.491048,-8734.430116,-1332.370696,-766.095498
3474.491385,-9326.594869,-1406.391290,76.609550
3474.491722,-10436.903782,-2368.659014,0.000000
3474.492060,-10510.924376,-2516.700203,-2068.457845
3474.492397,-8660.409521,-1406.391290,-1225.752797
3474.492734,-9178.553681,-2812.782580,842.705048
3474.493072,-11769.274478,-1850.514855,3140.991542
3474.493409,-12213.398043,-740.205942,1608.800546
3474.493747,-10807.006753,0.000000,0.000000
3474.494084,-10510.924376,-962.267725,689.485948
3474.494421,-10362.883188,-740.205942,1149.143247
3474.494759,-9252.574275,-592.164754,612.876398
3474.495096,-9918.759623,0.000000,76.609550
3474.495433,-9400.615463,-296.082377,-612.876398
3474.495771,-9474.636058,-74.020594,-459.657299
3474.496108,-11843.295072,0.000000,229.828649
3474.496446,-9918.759623,888.247130,-1225.752797
3474.496783,-9030.512492,1184.329507,-1608.800546
3474.497120,-9178.553681,518.144159,-1685.410096
3474.497458,-10658.965565,-2072.576638,-919.314598
3474.497795,-8808.450710,-666.185348,76.609550
3474.498132,-8586.388927,148.041188,612.876398
3474.498470,-9326.594869,-666.185348,2451.505594
3474.498807,-11029.068536,148.041188,3294.210641
3474.499144,-11103.089130,0.000000,2145.067394
3474.499482,-11103.089130,1036.288319,842.705048
3474.499819,-10214.842000,518.144159,229.828649
3474.500157,-10510.924376,-370.102971,1225.752797
3474.500494,-9474.636058,444.123565,0.000000
3474.500831,-8142.265362,0.000000,76.609550
3474.501169,-10288.862594,666.185348,1608.800546
3474.501506,-9326.594869,222.061783,1532.190996
3474.501843,-10807.006753,1110.308913,383.047749
3474.502181,-11843.295072,1924.535449,459.657299
3474.502518,-10066.800811,888.247130,-1225.752797
3474.502856,-10732.986159,-148.041188,306.438199
3474.503193,-11473.192101,-1628.453072,995.924147
3474.503530,-8512.368333,-962.267725,-1302.362347
3474.503868,-8586.388927,-1184.329507,-383.047749
3474.504205,-9104.533087,-1702.473667,-766.095498
3474.504542,-10584.944971,-2516.700203,-2757.943793
3474.504880,-10066.800811,-2368.659014,-2528.115143
3474.505217,-8882.471304,-3256.906145,689.485948
3474.505554,-9548.656652,-1776.494261,2068.457845
3474.505892,-10807.006753,-2368.659014,1762.019645
3474.506229,-10288.862594,-1702.473667,459.657299
3474.506567,-9696.697840,-2664.741391,612.876398
3474.506904,-8364.327145,-1924.535449,1225.752797
3474.507241,-9178.553681,-814.226536,2681.334243
3474.507579,-11695.253884,962.267725,2987.772442
3474.507916,-12509.480420,888.247130,0.000000
3474.508253,-11917.315666,1628.453072,-1762.019645
3474.508591,-10955.047942,0.000000,0.000000
3474.508928,-9104.533087,370.102971,383.047749
3474.509266,-6439.791695,1554.432478,-459.657299
3474.509603,-8364.327145,666.185348,153.219100
3474.509940,-11177.109724,-74.020594,-306.438199
3474.510278,-10732.986159,148.041188,-1378.971896
3474.510615,-9474.636058,2368.659014,-1838.629195
3474.510952,-10214.842000,1406.391290,383.047749
3474.511290,-10955.047942,296.082377,229.828649
3474.511627,-10732.986159,0.000000,-153.219100
3474.511964,-9548.656652,370.102971,0.000000
3474.512302,-9178.553681,444.123565,-153.219100
3474.512639,-9844.739029,444.123565,153.219100
3474.512977,-11843.295072,-962.267725,76.609550
3474.513314,-9548.656652,-1924.535449,153.219100
3474.513651,-7105.977043,518.144159,1991.848295
3474.513989,-9918.759623,370.102971,3294.210641
3474.514326,-12287.418637,-222.061783,1991.848295
3474.514663,-10066.800811,74.020594,-1532.190996
3474.515001,-8216.285956,888.247130,689.485948
3474.515338,-9844.739029,-888.247130,3370.820191
3474.515675,-10807.006753,-1776.494261,2145.067394
3474.516013,-10436.903782,-1850.514855,229.828649
3474.516350,-8438.347739,-148.041188,459.657299
3474.516688,-8216.285956,370.102971,1838.629195
3474.517025,-11547.212695,0.000000,1991.848295
3474.517362,-11621.233289,-518.144159,-766.095498
3474.517700,-10584.944971,-1258.350101,-1762.019645
3474.518037,-10881.027347,-1258.350101,-1608.800546
3474.518374,-8734.430116,-1480.411884,-1915.238745
3474.518712,-9918.759623,-2368.659014,-842.705048
3474.519049,-8586.388927,-1332.370696,-1455.581446
3474.519387,-9326.594869,518.144159,-1225.752797
3474.519724,-11695.253884,0.000000,459.657299
3474.520061,-13915.871710,-1110.308913,1762.019645
3474.520398,-11991.336260,-1184.329507,459.657299
3474.520736,-10214.842000,-296.082377,1149.143247
3474.521073,-9400.615463,0.000000,3370.820191
3474.521410,-9992.780217,-1480.411884,3830.477490
3474.521748,-9178.553681,-74.020594,842.705048
3474.522085,-8660.409521,592.164754,-229.828649
3474.522422,-10732.986159,0.000000,383.047749
3474.522760,-11843.295072,-1332.370696,-383.047749
3474.523097,-8586.388927,1628.453072,-1302.362347
3474.523434,-7031.956449,2072.576638,-229.828649
3474.523772,-8808.450710,1406.391290,1685.410096
3474.524109,-10807.006753,-592.164754,-766.095498
3474.524446,-11177.109724,-592.164754,-1225.752797
3474.524784,-9992.780217,-444.123565,-383.047749
3474.525121,-7550.100608,-814.226536,-1991.848295
3474.525458,-7698.141797,-888.247130,-2221.676944
3474.525796,-9326.594869,-2368.659014,-1302.362347
3474.526133,-8734.430116,-1850.514855,-1455.581446
3474.526470,-9770.718434,-222.061783,76.609550
3474.526808,-12213.398043,518.144159,1225.752797
3474.527145,-13471.748144,-1480.411884,612.876398
3474.527482,-11325.150913,-888.247130,153.219100
3474.527820,-7698.141797,-1184.329507,1225.752797
3474.528157,-9400.615463,-1258.350101,2298.286494
3474.528494,-11695.253884,-1702.473667,2604.724693
3474.528832,-11547.212695,-962.267725,0.000000
3474.529169,-9030.512492,666.185348,153.219100
3474.529506,-10288.862594,296.082377,1991.848295
3474.529844,-12953.603985,-370.102971,2451.505594
3474.530181,-12287.418637,296.082377,842.705048
3474.530518,-9918.759623,1184.329507,306.438199
3474.530856,-8956.491898,444.123565,536.266849
3474.531193,-8660.409521,-518.144159,536.266849
3474.531530,-9770.718434,-962.267725,0.000000
3474.531868,-9474.636058,-740.205942,-1378.971896
3474.532205,-7698.141797,444.123565,-689.485948
3474.532542,-9696.697840,-222.061783,76.609550
3474.532880,-12065.356855,666.185348,-995.924147
3474.533217,-10362.883188,0.000000,-3600.648841
3474.533554,-7772.162391,74.020594,-2298.286494
3474.533892,-7994.224174,-1554.432478,1378.971896
3474.534229,-10658.965565,-1258.350101,3524.039291
3474.534566,-9252.574275,-592.164754,995.924147
3474.534904,-9252.574275,74.020594,306.438199
3474.535241,-9770.718434,1998.556043,536.266849
3474.535578,-11547.212695,962.267725,383.047749
3474.535916,-11029.068536,296.082377,383.047749
3474.536253,-9844.739029,740.205942,-229.828649
3474.536590,-10140.821405,592.164754,306.438199
3474.536928,-11473.192101,222.061783,689.485948
3474.537265,-10658.965565,-666.185348,-612.876398
3474.537602,-8216.285956,-1110.308913,0.000000
3474.537940,-7920.203579,962.267725,1378.971896
3474.538277,-11399.171507,1406.391290,2145.067394
3474.538614,-13767.830521,1110.308913,-229.828649
3474.538952,-12657.521608,-222.061783,-4136.915689
3474.539289,-10066.800811,-1480.411884,-3447.429741
3474.539626,-8142.265362,-2368.659014,-229.828649
3474.539964,-9030.512492,-2146.597232,1838.629195
3474.540301,-7846.182985,-1554.432478,-383.047749
3474.540638,-9474.636058,-1480.411884,-459.657299
3474.540975,-11029.068536,-1628.453072,383.047749
3474.541313,-12731.542202,-2812.782580,1149.143247
3474.541650,-10955.047942,-962.267725,1225.752797
3474.541987,-8586.388927,518.144159,689.485948
3474.542325,-8734.430116,444.123565,2528.115143
3474.542662,-11621.233289,-592.164754,2987.772442
3474.542999,-9918.759623,-296.082377,1149.143247
3474.543337,-9474.636058,814.226536,2068.457845
3474.543674,-10732.986159,740.205942,1915.238745
3474.544011,-11991.336260,148.041188,1225.752797
3474.544349,-10362.883188,814.226536,0.000000
3474.544686,-7476.080014,0.000000,0.000000
3474.545023,-7179.997637,296.082377,842.705048
3474.545361,-9104.533087,1406.391290,0.000000
3474.545698,-10732.986159,518.144159,-612.876398
3474.546035,-11251.130318,0.000000,0.000000
3474.546373,-10140.821405,444.123565,229.828649
3474.546710,-11547.212695,444.123565,383.047749
3474.547047,-10807.006753,-370.102971,-689.485948
3474.547385,-8142.265362,-1184.329507,-306.438199
3474.547722,-8734.430116,-814.226536,689.485948
3474.548059,-10955.047942,-1184.329507,612.876398
3474.548397,-12583.501014,-1406.391290,0.000000
3474.548734,-11695.253884,-518.144159,-1378.971896
3474.549071,-9696.697840,-1184.329507,-1608.800546
3474.549409,-8956.491898,-666.185348,-536.266849
3474.549746,-9030.512492,-444.123565,0.000000
3474.550083,-9474.636058,0.000000,0.000000
3474.550421,-10362.883188,148.041188,0.000000
3474.550758,-11103.089130,74.020594,-612.876398
3474.551095,-11251.130318,-592.164754,842.705048
3474.551433,-10807.006753,-2220.617826,1378.971896
3474.551770,-9474.636058,-1258.350101,1608.800546
3474.552107,-8734.430116,-296.082377,306.438199
3474.552445,-9326.594869,-888.247130,-612.876398
3474.552782,-9178.553681,-444.123565,-2221.676944
3474.553119,-10214.842000,-1036.288319,-2145.067394
3474.553457,-9178.553681,-666.185348,-2221.676944
3474.553794,-9252.574275,-740.205942,-689.485948
3474.554131,-10881.027347,-592.164754,1149.143247
3474.554469,-9474.636058,-1702.473667,229.828649
3474.554806,-9770.718434,-370.102971,1455.581446
3474.555143,-9622.677246,0.000000,1762.019645
3474.555481,-11473.192101,-1036.288319,2451.505594
3474.555818,-11029.068536,-888.247130,306.438199
3474.556155,-8216.285956,518.144159,0.000000
3474.556493,-8438.347739,814.226536,2451.505594
3474.556830,-11991.336260,1850.514855,2604.724693
3474.557167,-10510.924376,2368.659014,0.000000
3474.557505,-10066.800811,3034.844362,612.876398
3474.557842,-10807.006753,2664.741391,1532.190996
3474.558179,-11029.068536,2368.659014,919.314598
3474.558517,-11177.109724,1628.453072,229.828649
3474.558854,-8660.409521,0.000000,306.438199
3474.559191,-8660.409521,-296.082377,1991.848295
3474.559529,-10288.862594,74.020594,1532.190996
3474.559866,-9622.677246,-370.102971,612.876398
3474.560203,-10066.800811,0.000000,-995.924147
3474.560541,-9770.718434,1110.308913,-1608.800546
3474.560878,-10140.821405,-592.164754,-2911.162892
3474.561215,-10732.986159,-1110.308913,0.000000
3474.561552,-7402.059420,-2220.617826,-612.876398
3474.561890,-8512.368333,-2442.679609,1225.752797
3474.562227,-9696.697840,-1554.432478,842.705048
3474.562564,-11103.089130,-1628.453072,689.485948
3474.562902,-11843.295072,-666.185348,0.000000
3474.563239,-10732.986159,-2146.597232,-459.657299
3474.563576,-9252.574275,0.000000,612.876398
3474.563914,-11325.150913,-888.247130,1378.971896
3474.564251,-11399.171507,-1332.370696,1532.190996
3474.564588,-10436.903782,-814.226536,0.000000
3474.564926,-9548.656652,888.247130,76.609550
3474.565263,-9844.739029,518.144159,1455.581446
3474.565600,-10066.800811,0.000000,-306.438199
3474.565938,-9474.636058,1036.288319,-1685.410096
3474.566275,-9696.697840,148.041188,-1532.190996
3474.566612,-10584.944971,-666.185348,919.314598
3474.566950,-10066.800811,1110.308913,766.095498
3474.567287,-11325.150913,1036.288319,-919.314598
3474.567624,-10955.047942,370.102971,-766.095498
3474.567962,-9474.636058,-1480.411884,-1072.533697
3474.568299,-8290.306550,-2146.597232,536.266849
3474.568636,-7254.018232,-1332.370696,2451.505594
3474.568974,-9548.656652,740.205942,2987.772442
3474.569311,-13175.665768,1406.391290,0.000000
3474.569648,-11621.233289,666.185348,-3064.381992
3474.569986,-8364.327145,0.000000,-1225.752797
3474.570323,-7772.162391,-740.205942,2145.067394
3474.570660,-7920.203579,-296.082377,2681.334243
3474.570998,-11473.192101,0.000000,2298.286494
3474.571335,-11325.150913,-518.144159,0.000000
3474.571672,-9252.574275,74.020594,995.924147
3474.572010,-10288.862594,222.061783,1838.629195
3474.572347,-12361.439231,518.144159,2911.162892
3474.572684,-10362.883188,148.041188,153.219100
3474.573022,-9548.656652,0.000000,612.876398
3474.573359,-9178.553681,0.000000,76.609550
3474.573696,-11029.068536,-518.144159,536.266849
3474.574034,-11473.192101,-888.247130,-1225.752797
3474.574371,-9474.636058,-1702.473667,-2068.457845
3474.574708,-8956.491898,-740.205942,-1225.752797
3474.575046,-9918.759623,-1184.329507,-229.828649
3474.575383,-11399.171507,-3034.844362,0.000000
3474.575720,-10214.842000,-2516.700203,-1762.019645
3474.576058,-8512.368333,-2516.700203,153.219100
3474.576395,-10066.800811,-962.267725,2604.724693
3474.576732,-11473.192101,-1258.350101,2298.286494
3474.577070,-10658.965565,-1998.556043,-689.485948
3474.577407,-9474.636058,-2294.638420,-612.876398
3474.577744,-9474.636058,-1110.308913,1378.971896
3474.578082,-10436.903782,-1036.288319,3064.381992
3474.578419,-9548.656652,222.061783,995.924147
3474.578756,-9030.512492,1036.288319,0.000000
3474.579094,-10066.800811,-518.144159,-612.876398
3474.579431,-10955.047942,1258.350101,995.924147
3474.579768,-9622.677246,0.000000,-383.047749
3474.580106,-8882.471304,518.144159,1225.752797
3474.580443,-9770.718434,1184.329507,1685.410096
3474.580780,-12213.398043,2368.659014,1149.143247
3474.581118,-11547.212695,2590.720797,-1378.971896
3474.581455,-8660.409521,1184.329507,-1838.629195
3474.581792,-9474.636058,1258.350101,-766.095498
3474.582129,-10066.800811,0.000000,-1149.143247
3474.582467,-9400.615463,814.226536,-1302.362347
3474.582804,-9326.594869,592.164754,-1149.143247
3474.583141,-9252.574275,-148.041188,-919.314598
3474.583479,-9474.636058,74.020594,0.000000
3474.583816,-10584.944971,148.041188,1302.362347
3474.584153,-8734.430116,-518.144159,995.924147
3474.584491,-7994.224174,-1258.350101,1302.362347
3474.584828,-10214.842000,-1110.308913,2528.115143
3474.585165,-11325.150913,-1258.350101,2451.505594
3474.585503,-9844.739029,370.102971,1072.533697
3474.585840,-9104.533087,518.144159,919.314598
3474.586177,-10584.944971,444.123565,842.705048
3474.586515,-11251.130318,-370.102971,689.485948
3474.586852,-8956.491898,-592.164754,-689.485948
3474.587189,-8586.388927,-1628.453072,306.438199
3474.587527,-11103.089130,222.061783,1225.752797
3474.587864,-11843.295072,-74.020594,-689.485948
3474.588201,-11029.068536,222.061783,-2451.505594
3474.588539,-9326.594869,-1480.411884,-1225.752797
3474.588876,-9992.780217,-1184.329507,459.657299
3474.589213,-11399.171507,-1628.453072,0.000000
3474.589551,-10881.027347,-1332.370696,-842.705048
3474.589888,-9326.594869,-1850.514855,-1838.629195
3474.590225,-10066.800811,-2368.659014,229.828649
3474.590563,-11251.130318,-1924.535449,2068.457845
3474.590900,-12065.356855,-1628.453072,2145.067394
3474.591237,-9400.615463,0.000000,383.047749
3474.591575,-8808.450710,74.020594,766.095498
3474.591912,-11843.295072,518.144159,2681.334243
3474.592249,-11695.253884,74.020594,459.657299
3474.592587,-8882.471304,0.000000,0.000000
3474.592924,-7624.121203,740.205942,1991.848295
3474.593261,-8586.388927,0.000000,1838.629195
3474.593599,-10140.821405,1480.411884,-229.828649
3474.593936,-7994.224174,2146.597232,-2374.896044
3474.594273,-8734.430116,2072.576638,-1455.581446
3474.594611,-12139.377449,1998.556043,-919.314598
3474.594948,-13471.748144,1110.308913,-689.485948
3474.595285,-9326.594869,74.020594,-1685.410096
3474.595623,-5551.544565,0.000000,-1608.800546
3474.595960,-6809.894666,74.020594,1608.800546
3474.596297,-11029.068536,-222.061783,1149.143247
3474.596635,-12361.439231,-2146.597232,-1991.848295
3474.596972,-8734.430116,-888.247130,-3524.039291
3474.597309,-9474.636058,-1554.432478,229.828649
3474.597647,-12657.521608,-1184.329507,4519.963438
3474.597984,-11325.150913,-1036.288319,459.657299
3474.598321,-8068.244768,-740.205942,-1072.533697
3474.598659,-10140.821405,-2294.638420,1838.629195
3474.598996,-10510.924376,-3552.988522,2911.162892
3474.599333,-9992.780217,-2072.576638,3907.087040
3474.599671,-10214.842000,-370.102971,2604.724693
3474.600008,-11103.089130,1702.473667,995.924147
3474.600345,-13027.624579,-814.226536,-76.609550
3474.600683,-12879.583391,-666.185348,842.705048
3474.601020,-7994.224174,-962.267725,153.219100
3474.601357,-7179.997637,0.000000,2221.676944
3474.601695,-8956.491898,222.061783,919.314598
3474.602032,-12213.398043,-1480.411884,383.047749
3474.602369,-10732.986159,74.020594,-919.314598
3474.602706,-8882.471304,-1184.329507,-1455.581446
3474.603044,-9400.615463,370.102971,1149.143247
3474.603381,-10362.883188,-1184.329507,995.924147
3474.603718,-11621.233289,-666.185348,306.438199
3474.604056,-7994.224174,-592.164754,-1072.533697
3474.604393,-7698.141797,-592.164754,383.047749
3474.604730,-10732.986159,0.000000,1455.581446
3474.605068,-11917.315666,0.000000,0.000000
3474.605405,-9252.574275,1924.535449,-1608.800546
3474.605742,-7846.182985,0.000000,153.219100
3474.606080,-9474.636058,222.061783,1532.190996
3474.606417,-12065.356855,1184.329507,1762.019645
3474.606754,-11547.212695,1480.411884,0.000000
3474.607092,-10584.944971,592.164754,-536.266849
3474.607429,-8956.491898,370.102971,229.828649
3474.607766,-8956.491898,518.144159,1915.238745
3474.608104,-9844.739029,740.205942,-1302.362347
3474.608441,-9326.594869,222.061783,-2834.553343
3474.608778,-10436.903782,1554.432478,-2451.505594
3474.609116,-11251.130318,148.041188,-459.657299
3474.609453,-11843.295072,296.082377,-153.219100
3474.609790,-9178.553681,0.000000,-1991.848295
3474.610128,-9252.574275,-666.185348,-2451.505594
3474.610465,-10807.006753,-3108.864956,-1225.752797
3474.610802,-10288.862594,-3330.926739,0.000000
3474.611140,-8586.388927,-2590.720797,459.657299
3474.611477,-9252.574275,-3108.864956,612.876398
3474.611814,-10807.006753,-962.267725,306.438199
3474.612152,-11621.233289,-962.267725,0.000000
3474.612489,-10436.903782,-1702.473667,76.609550
3474.612826,-8142.265362,-1036.288319,2451.505594
3474.613164,-11399.171507,-1406.391290,5132.839837
3474.613501,-13693.809927,-814.226536,4519.963438
3474.613838,-9252.574275,-592.164754,2451.505594
3474.614176,-7254.018232,1184.329507,3140.991542
3474.614513,-9474.636058,518.144159,3217.601092
3474.614850,-10732.986159,740.205942,-306.438199
3474.615188,-9844.739029,1110.308913,-1302.362347
3474.615525,-8808.450710,2738.761985,-995.924147
3474.615862,-9178.553681,2516.700203,-1149.143247
3474.616200,-11695.253884,1924.535449,-1378.971896
3474.616537,-10955.047942,148.041188,-995.924147
3474.616874,-7698.141797,444.123565,459.657299
3474.617212,-7179.997637,740.205942,3600.648841
3474.617549,-11473.192101,444.123565,3983.696590
3474.617886,-11473.192101,-962.267725,919.314598
3474.618224,-11029.068536,-1480.411884,-612.876398
3474.618561,-10658.965565,-1332.370696,-306.438199
3474.618898,-10214.842000,-518.144159,1225.752797
3474.619236,-8068.244768,-666.185348,0.000000
3474.619573,-7772.162391,444.123565,-2298.286494
3474.619910,-9400.615463,74.020594,-2834.553343
3474.620248,-10362.883188,-2072.576638,-1302.362347
3474.620585,-11843.295072,-1702.473667,1225.752797
3474.620922,-10436.903782,-1332.370696,995.924147
3474.621259,-8734.430116,-814.226536,612.876398
3474.621597,-9474.636058,-370.102971,1225.752797
3474.621934,-10732.986159,0.000000,2451.505594
3474.622271,-10881.027347,-518.144159,-612.876398
3474.622608,-9918.759623,-370.102971,-919.314598
3474.622946,-9326.594869,-370.102971,-1302.362347
3474.623283,-11843.295072,-2072.576638,0.000000
3474.623620,-10436.903782,-1258.350101,-2604.724693
3474.623958,-8068.244768,0.000000,-2604.724693
3474.624295,-8660.409521,666.185348,-1762.019645
3474.624632,-10881.027347,-740.205942,-1378.971896
3474.624969,-10140.821405,-444.123565,-1608.800546
3474.625307,-10955.047942,-1258.350101,-153.219100
3474.625644,-10140.821405,-2368.659014,1455.581446
3474.625981,-11103.089130,-2146.597232,2911.162892
3474.626318,-10140.821405,-2072.576638,3447.429741
3474.626656,-7550.100608,0.000000,3140.991542
3474.626993,-8512.368333,0.000000,3064.381992
3474.627330,-11621.233289,888.247130,2528.115143
3474.627668,-11547.212695,1110.308913,-689.485948
3474.628005,-9622.677246,1258.350101,-919.314598
3474.628342,-9178.553681,962.267725,689.485948
3474.628679,-8882.471304,592.164754,1378.971896
3474.629017,-9030.512492,1036.288319,1608.800546
3474.629354,-7328.038826,1258.350101,0.000000
3474.629691,-8512.368333,1480.411884,842.705048
3474.630028,-11473.192101,2368.659014,1991.848295
3474.630366,-15766.386565,740.205942,1532.190996
3474.630703,-14063.912898,962.267725,-612.876398
3474.631040,-9474.636058,0.000000,-1991.848295
3474.631378,-7254.018232,-2220.617826,76.609550
3474.631715,-7772.162391,-1628.453072,1915.238745
3474.632052,-7846.182985,-1702.473667,0.000000
3474.632389,-10066.800811,-1258.350101,-2451.505594
3474.632727,-11325.150913,-1998.556043,-2451.505594
3474.633064,-11695.253884,-1258.350101,-995.924147
3474.633401,-10140.821405,-1184.329507,-1532.190996
3474.633738,-8216.285956,-2368.659014,229.828649
3474.634076,-8290.306550,-1110.308913,2451.505594
3474.634413,-10510.924376,-1850.514855,2681.334243
3474.634750,-12731.542202,-1554.432478,2145.067394
3474.635088,-10732.986159,-2146.597232,536.266849
3474.635425,-9400.615463,-1776.494261,1072.533697
3474.635762,-7772.162391,-1110.308913,1225.752797
3474.636099,-10362.883188,444.123565,1915.238745
3474.636437,-10140.821405,0.000000,-1378.971896
3474.636774,-9844.739029,0.000000,-1838.629195
3474.637111,-11103.089130,74.020594,-1455.581446
3474.637448,-12287.418637,296.082377,153.219100
3474.637786,-9326.594869,1332.370696,-1072.533697
3474.638123,-9548.656652,-148.041188,-1072.533697
3474.638460,-10362.883188,-592.164754,0.000000
3474.638798,-10732.986159,-1628.453072,229.828649
3474.639135,-9030.512492,-740.205942,459.657299
3474.639472,-9474.636058,518.144159,1532.190996
3474.639809,-12139.377449,592.164754,1838.629195
3474.640147,-11917.315666,666.185348,536.266849
3474.640484,-10066.800811,518.144159,536.266849
3474.640821,-8216.285956,1628.453072,229.828649
3474.641158,-9104.533087,1406.391290,766.095498
3474.641496,-9622.677246,296.082377,459.657299
3474.641833,-10658.965565,-444.123565,1302.362347
3474.642170,-8882.471304,962.267725,1072.533697
3474.642508,-7328.038826,666.185348,1378.971896
3474.642845,-10510.924376,0.000000,2145.067394
3474.643182,-10732.986159,0.000000,1149.143247
3474.643519,-9252.574275,888.247130,-842.705048
3474.643857,-9030.512492,1110.308913,1685.410096
3474.644194,-10732.986159,-666.185348,1532.190996
3474.644531,-11103.089130,-444.123565,306.438199
3474.644868,-10140.821405,222.061783,-2068.457845
3474.645206,-8438.347739,-444.123565,-1838.629195
3474.645543,-8438.347739,-296.082377,-2604.724693
3474.645880,-9178.553681,-2664.741391,-2911.162892
3474.646218,-10362.883188,-2442.679609,-2068.457845
3474.646555,-10732.986159,-2442.679609,-1149.143247
3474.646892,-11103.089130,-1258.350101,0.000000
3474.647229,-11547.212695,-814.226536,306.438199
3474.647567,-11399.171507,-1850.514855,766.095498
3474.647904,-8734.430116,-1406.391290,1378.971896
3474.648241,-9844.739029,-1480.411884,2374.896044
3474.648579,-12139.377449,-1332.370696,4290.134789
3474.648916,-11473.192101,-1110.308913,1685.410096
3474.649253,-9548.656652,0.000000,306.438199
3474.649590,-9992.780217,592.164754,1532.190996
3474.649928,-11547.212695,296.082377,2528.115143
3474.650265,-11103.089130,1628.453072,766.095498
3474.650602,-9252.574275,3108.864956,-2374.896044
3474.650939,-9474.636058,2146.597232,-1991.848295
3474.651277,-9844.739029,-814.226536,-1072.533697
3474.651614,-10214.842000,-814.226536,459.657299
3474.651951,-6809.894666,962.267725,-306.438199
3474.652289,-7179.997637,1554.432478,842.705048
3474.652626,-11547.212695,0.000000,1762.019645
3474.652963,-12657.521608,-888.247130,76.609550
3474.653300,-9770.718434,0.000000,-842.705048
3474.653638,-8364.327145,592.164754,612.876398
3474.653975,-9474.636058,-1332.370696,689.485948
3474.654312,-9992.780217,-1480.411884,153.219100
3474.654649,-8660.409521,-1702.473667,-689.485948
3474.654987,-7402.059420,518.144159,1149.143247
3474.655324,-10732.986159,888.247130,1685.410096
3474.655661,-12731.542202,444.123565,-919.314598
3474.655999,-11177.109724,-666.185348,-1302.362347
3474.656336,-8734.430116,-962.267725,229.828649
3474.656673,-9400.615463,-888.247130,2911.162892
3474.657010,-11251.130318,-962.267725,3677.258390
3474.657348,-11843.295072,296.082377,1838.629195
3474.657685,-10955.047942,0.000000,459.657299
3474.658022,-10955.047942,-518.144159,459.657299
3474.658359,-11177.109724,-1406.391290,383.047749
3474.658697,-11251.130318,-2368.659014,153.219100
3474.659034,-7402.059420,-1406.391290,-2451.505594
3474.659371,-6587.832884,-1998.556043,-2451.505594
3474.659709,-8956.491898,-2886.803174,229.828649
3474.660046,-11621.233289,-2146.597232,919.314598
3474.660383,-11251.130318,-1554.432478,-1455.581446
3474.660720,-10140.821405,-1184.329507,-1072.533697
3474.661058,-10362.883188,-1480.411884,1302.362347
3474.661395,-11029.068536,-1924.535449,2451.505594
3474.661732,-9918.759623,-962.267725,842.705048
3474.662069,-7402.059420,-222.061783,0.000000
3474.662407,-9770.718434,-222.061783,1302.362347
3474.662744,-11917.315666,444.123565,612.876398
3474.663081,-10510.924376,0.000000,0.000000
3474.663419,-8808.450710,1776.494261,383.047749
3474.663756,-8512.368333,2886.803174,612.876398
3474.664093,-10436.903782,2516.700203,-306.438199
3474.664430,-11991.336260,2664.741391,-306.438199
3474.664768,-9844.739029,2220.617826,-1608.800546
3474.665105,-9326.594869,1480.411884,-459.657299
3474.665442,-10658.965565,666.185348,1608.800546
3474.665779,-11029.068536,-74.020594,2298.286494
3474.666117,-8734.430116,1184.329507,-689.485948
3474.666454,-7254.018232,518.144159,-1532.190996
3474.666791,-10066.800811,148.041188,-766.095498
3474.667129,-12139.377449,-518.144159,-1915.238745
3474.667466,-9770.718434,-666.185348,-3447.429741
3474.667803,-7772.162391,74.020594,-2451.505594
3474.668140,-8290.306550,0.000000,-612.876398
3474.668478,-11547.212695,-444.123565,1149.143247
3474.668815,-11251.130318,666.185348,-153.219100
3474.669152,-9030.512492,1332.370696,-383.047749
3474.669489,-10436.903782,666.185348,919.314598
3474.669827,-12139.377449,-2516.700203,842.705048
3474.670164,-12139.377449,-1924.535449,1685.410096
3474.670501,-8364.327145,888.247130,1072.533697
3474.670839,-7772.162391,2960.823768,536.266849
3474.671176,-11695.253884,1258.350101,689.485948
3474.671513,-14582.057057,666.185348,-383.047749
3474.671850,-10955.047942,888.247130,-3140.991542
3474.672188,-8290.306550,1702.473667,-1532.190996
3474.672525,-8068.244768,1258.350101,-153.219100
3474.672862,-10436.903782,1184.329507,-766.095498
3474.673199,-10658.965565,0.000000,-2681.334243
3474.673537,-9474.636058,370.102971,-1991.848295
3474.673874,-9474.636058,1332.370696,-1762.019645
3474.674211,-9844.739029,0.000000,-1762.019645
3474.674549,-10288.862594,0.000000,-1608.800546
3474.674886,-8808.450710,370.102971,-3140.991542
3474.675223,-8290.306550,592.164754,-1991.848295
3474.675560,-9474.636058,1406.391290,-842.705048
3474.675898,-11103.089130,962.267725,153.219100
3474.676235,-10955.047942,2664.741391,-1302.362347
3474.676572,-10584.944971,2664.741391,-2987.772442
3474.676909,-8290.306550,3478.967927,-2604.724693
3474.677247,-9992.780217,2442.679609,-306.438199
3474.677584,-10510.924376,1332.370696,-1455.581446
3474.677921,-9030.512492,3182.885551,-3217.601092
3474.678259,-10362.883188,3701.029710,-2681.334243
3474.678596,-11177.109724,3256.906145,-2298.286494
3474.678933,-10658.965565,1406.391290,-3294.210641
3474.679270,-8808.450710,1332.370696,-2298.286494
3474.679608,-7402.059420,2516.700203,-1455.581446
3474.679945,-9548.656652,4367.215058,-1762.019645
3474.680282,-12583.501014,2960.823768,-3907.087040
3474.680619,-12361.439231,592.164754,-4903.011187
3474.680957,-9474.636058,148.041188,-3907.087040
3474.681294,-8290.306550,888.247130,-2145.067394
3474.681631,-8586.388927,1776.494261,-2221.676944
3474.681969,-9918.759623,222.061783,-4060.306139
3474.682306,-10140.821405,-1554.432478,-3753.867940
3474.682643,-8956.491898,0.000000,-2451.505594
3474.682980,-9252.574275,814.226536,153.219100
3474.683318,-11991.336260,1850.514855,306.438199
3474.683655,-10214.842000,1776.494261,-2221.676944
3474.683992,-10436.903782,1406.391290,-459.657299
3474.684329,-9844.739029,1702.473667,1455.581446
3474.684667,-9622.677246,2368.659014,1302.362347
3474.685004,-12139.377449,3404.947333,-612.876398
3474.685341,-12435.459826,1776.494261,-2834.553343
3474.685679,-10066.800811,740.205942,-1532.190996
3474.686016,-8512.368333,2516.700203,919.314598
3474.686353,-8882.471304,3775.050304,0.000000
3474.686690,-11177.109724,4219.173869,-3370.820191
3474.687028,-11473.192101,3923.091493,-5515.887586
3474.687365,-10140.821405,2368.659014,-4060.306139
3474.687702,-9178.553681,1406.391290,0.000000
3474.688040,-9326.594869,1628.453072,459.657299
3474.688377,-10436.903782,1998.556043,-766.095498
3474.688714,-10584.944971,2146.597232,-2604.724693
3474.689051,-9104.533087,962.267725,-2374.896044
3474.689389,-8512.368333,1184.329507,-1072.533697
3474.689726,-10214.842000,740.205942,-153.219100
3474.690063,-11547.212695,1184.329507,-2221.676944
3474.690400,-10140.821405,1998.556043,-4366.744339
3474.690738,-8734.430116,2368.659014,-2757.943793
3474.691075,-8882.471304,1332.370696,-306.438199
3474.691412,-9474.636058,1554.432478,0.000000
3474.691750,-11547.212695,2220.617826,-459.657299
3474.692087,-11769.274478,2294.638420,-1455.581446
3474.692424,-10510.924376,1258.350101,-1608.800546
3474.692761,-9992.780217,1702.473667,-1608.800546
3474.693099,-8512.368333,1110.308913,-2528.115143
3474.693436,-9992.780217,1406.391290,-3447.429741
3474.693773,-10955.047942,1184.329507,-3600.648841
3474.694110,-9770.718434,2220.617826,-3830.477490
3474.694448,-9992.780217,1184.329507,-4443.353888
3474.694785,-10436.903782,1036.288319,-3907.087040
3474.695122,-9918.759623,444.123565,-3370.820191
3474.695460,-9548.656652,0.000000,-3064.381992
3474.695797,-9326.594869,-518.144159,-383.047749
3474.696134,-10140.821405,592.164754,-229.828649
3474.696471,-11029.068536,740.205942,-1915.238745
3474.696809,-10732.986159,1702.473667,-2681.334243
3474.697146,-10881.027347,1110.308913,-1378.971896
3474.697483,-10955.047942,1554.432478,-919.314598
3474.697820,-8956.491898,1924.535449,-1149.143247
3474.698158,-9030.512492,3034.844362,-153.219100
3474.698495,-9844.739029,2960.823768,-306.438199
3474.698832,-10807.006753,3330.926739,-2145.067394
3474.699170,-9622.677246,3775.050304,-1762.019645
3474.699507,-9474.636058,3552.988522,0.000000
3474.699844,-10732.986159,2886.803174,-76.609550
3474.700181,-10214.842000,2738.761985,-2068.457845
3474.700519,-9400.615463,3478.967927,-1149.143247
3474.700856,-11399.171507,2146.597232,-536.266849
3474.701193,-10881.027347,1776.494261,-2068.457845
3474.701530,-8364.327145,3034.844362,-3907.087040
3474.701868,-8068.244768,2738.761985,-3447.429741
3474.702205,-9622.677246,1110.308913,-3140.991542
3474.702542,-9474.636058,370.102971,-4826.401637
3474.702880,-8216.285956,1258.350101,-3753.867940
3474.703217,-9474.636058,666.185348,-919.314598
3474.703554,-11251.130318,222.061783,76.609550
3474.703891,-11991.336260,666.185348,-1225.752797
3474.704229,-9770.718434,740.205942,-1532.190996
3474.704566,-9252.574275,888.247130,689.485948
3474.704903,-11547.212695,518.144159,766.095498
3474.705240,-11251.130318,888.247130,-1838.629195
3474.705578,-8586.388927,2516.700203,-3294.210641
3474.705915,-8808.450710,2516.700203,-995.924147
3474.706252,-12361.439231,1628.453072,-995.924147
3474.706590,-12213.398043,1258.350101,-2757.943793
3474.706927,-9770.718434,2368.659014,-3753.867940
3474.707264,-9104.533087,3330.926739,-2221.676944
3474.707601,-10362.883188,2072.576638,-2298.286494
3474.707939,-11251.130318,592.164754,-1302.362347
3474.708276,-9104.533087,1998.556043,-1915.238745
3474.708613,-8438.347739,2590.720797,-1838.629195
3474.708950,-10881.027347,2812.782580,-1455.581446
3474.709288,-11473.192101,814.226536,-2528.115143
3474.709625,-9696.697840,0.000000,-2145.067394
3474.709962,-7105.977043,1184.329507,-1378.971896
3474.710300,-8438.347739,2516.700203,-1149.143247
3474.710637,-11029.068536,3182.885551,-2757.943793
3474.710974,-10510.924376,1036.288319,-3983.696590
3474.711311,-8512.368333,1258.350101,-2068.457845
3474.711649,-8882.471304,2368.659014,306.438199
3474.711986,-10362.883188,4145.153275,383.047749
3474.712323,-11843.295072,4737.318029,-1685.410096
3474.712660,-10066.800811,3034.844362,-2911.162892
3474.712998,-9178.553681,1406.391290,-612.876398
3474.713335,-9548.656652,2368.659014,2145.067394
3474.713672,-10732.986159,3775.050304,306.438199
3474.714010,-12361.439231,3701.029710,-3140.991542
3474.714347,-10214.842000,2664.741391,-6052.154434
3474.714684,-7698.141797,1924.535449,-3600.648841
3474.715021,-8808.450710,1110.308913,842.705048
3474.715359,-11029.068536,1480.411884,-229.828649
3474.715696,-11251.130318,1776.494261,-5286.058936
3474.716033,-10658.965565,2368.659014,-6435.202183
3474.716370,-9326.594869,296.082377,-2987.772442
3474.716708,-9030.512492,-1480.411884,-766.095498
3474.717045,-9770.718434,-1332.370696,-766.095498
3474.717382,-10214.842000,-296.082377,-919.314598
3474.717720,-11103.089130,592.164754,-689.485948
3474.718057,-10584.944971,1184.329507,-2374.896044
3474.718394,-10214.842000,222.061783,-1762.019645
3474.718731,-10584.944971,740.205942,-1838.629195
3474.719069,-10510.924376,1184.329507,-2604.724693
3474.719406,-9252.574275,1776.494261,-1149.143247
3474.719743,-8882.471304,1184.329507,1072.533697
3474.720080,-10362.883188,1554.432478,383.047749
3474.720418,-11843.295072,3256.906145,-1455.581446
3474.720755,-12213.398043,4663.297435,-2528.115143
3474.721092,-11621.233289,4589.276840,-2604.724693
3474.721430,-9770.718434,2368.659014,-2604.724693
3474.721767,-7920.203579,2960.823768,-2451.505594
3474.722104,-7105.977043,2812.782580,-2145.067394
3474.722442,-9474.636058,1702.473667,-536.266849
3474.722779,-11695.253884,1554.432478,-842.705048
3474.723116,-10881.027347,1554.432478,-1991.848295
3474.723454,-9844.739029,3256.906145,-2987.772442
3474.723791,-9474.636058,2664.741391,-2451.505594
3474.724128,-10955.047942,2664.741391,-2834.553343
3474.724466,-9178.553681,1258.350101,-5056.230287
3474.724803,-8068.244768,1480.411884,-3830.477490
3474.725140,-7920.203579,1258.350101,-2221.676944
3474.725478,-9770.718434,1184.329507,-2145.067394
3474.725815,-10807.006753,518.144159,-1685.410096
3474.726153,-9252.574275,1184.329507,-1072.533697
3474.726490,-9474.636058,666.185348,2221.676944
3474.726827,-11917.315666,2294.638420,2681.334243
3474.727165,-12657.521608,3404.947333,-306.438199
3474.727502,-11843.295072,3923.091493,-2528.115143
3474.727839,-9844.739029,2960.823768,-3524.039291
3474.728177,-9326.594869,1406.391290,-3140.991542
3474.728514,-9326.594869,592.164754,-2068.457845
3474.728851,-8364.327145,666.185348,-3524.039291
3474.729189,-8808.450710,370.102971,-4136.915689
3474.729526,-10881.027347,592.164754,-2604.724693
3474.729863,-10807.006753,1184.329507,-2451.505594
3474.730201,-11325.150913,1332.370696,-1302.362347
3474.730538,-11029.068536,2072.576638,-1225.752797
3474.730875,-10288.862594,1184.329507,-1915.238745
3474.731213,-9844.739029,1184.329507,-153.219100
3474.731550,-8956.491898,74.020594,919.314598
3474.731887,-8734.430116,148.041188,842.705048
3474.732225,-10362.883188,518.144159,-153.219100
3474.732562,-11029.068536,666.185348,-842.705048
3474.732900,-9770.718434,1628.453072,-1838.629195
3474.733237,-9474.636058,1850.514855,-1225.752797
3474.733574,-9844.739029,3849.070898,-842.705048
3474.733912,-11029.068536,5255.462188,-2068.457845
3474.734249,-11029.068536,5255.462188,-2451.505594
3474.734586,-9918.759623,4737.318029,-2987.772442
3474.734924,-8956.491898,3923.091493,-2451.505594
3474.735261,-8808.450710,3330.926739,-1072.533697
3474.735598,-9178.553681,1628.453072,-766.095498
3474.735936,-9252.574275,1702.473667,-1991.848295
3474.736273,-10140.821405,2442.679609,-2451.505594
3474.736610,-11325.150913,2368.659014,-2145.067394
3474.736948,-10807.006753,2072.576638,-3217.601092
3474.737285,-10288.862594,2220.617826,-4903.011187
3474.737622,-9474.636058,1184.329507,-4366.744339
3474.737960,-8956.491898,296.082377,-3064.381992
3474.738297,-8438.347739,-518.144159,-1149.143247
3474.738635,-9104.533087,0.000000,-612.876398
3474.738972,-9696.697840,0.000000,-229.828649
3474.739309,-11251.130318,-592.164754,76.609550
3474.739647,-11547.212695,-814.226536,383.047749
3474.739984,-10955.047942,-592.164754,1225.752797
3474.740321,-11103.089130,0.000000,1225.752797
3474.740659,-11029.068536,814.226536,153.219100
3474.740996,-10584.944971,1184.329507,-995.924147
3474.741333,-10066.800811,962.267725,-1455.581446
3474.741671,-9252.574275,1480.411884,-2298.286494
3474.742008,-9696.697840,1554.432478,-1838.629195
3474.742345,-9770.718434,1554.432478,-2374.896044
3474.742683,-9992.780217,1332.370696,-3064.381992
3474.743020,-10140.821405,1554.432478,-2604.724693
3474.743357,-10510.924376,1998.556043,-2757.943793
3474.743695,-10288.862594,2368.659014,-3140.991542
3474.744032,-9992.780217,2220.617826,-4366.744339
3474.744370,-9474.636058,1554.432478,-4290.134789
3474.744707,-8808.450710,888.247130,-3907.087040
3474.745044,-9252.574275,1184.329507,-2374.896044
3474.745382,-9548.656652,2590.720797,-1455.581446
3474.745719,-9696.697840,2294.638420,-1608.800546
3474.746056,-9770.718434,3404.947333,-1915.238745
3474.746394,-9992.780217,3330.926739,-1838.629195
3474.746731,-10658.965565,3552.988522,-1685.410096
3474.747068,-10066.800811,3627.009116,-1608.800546
3474.747406,-10510.924376,3701.029710,-1532.190996
3474.747743,-10214.842000,3997.112087,-1302.362347
3474.748080,-10288.862594,3108.864956,-1608.800546
3474.748418,-10140.821405,2886.803174,-1149.143247
3474.748755,-9770.718434,4071.132681,-2298.286494
3474.749092,-9548.656652,4737.318029,-3600.648841
3474.749430,-10066.800811,4589.276840,-3830.477490
3474.749767,-9844.739029,2960.823768,-2834.553343
3474.750104,-9400.615463,2368.659014,-1225.752797
3474.750442,-9770.718434,2664.741391,-766.095498
3474.750779,-11473.192101,3034.844362,-1225.752797
3474.751117,-11251.130318,2220.617826,-2604.724693
3474.751454,-9252.574275,740.205942,-3524.039291
3474.751791,-8734.430116,518.144159,-1685.410096
3474.752129,-10510.924376,666.185348,-1532.190996
3474.752466,-10584.944971,1480.411884,-2604.724693
3474.752803,-9548.656652,1702.473667,-4136.915689
3474.753141,-9474.636058,740.205942,-2604.724693
3474.753478,-9622.677246,-444.123565,-1149.143247
3474.753815,-10066.800811,296.082377,995.924147
3474.754153,-10436.903782,1628.453072,1762.019645
3474.754490,-11325.150913,1998.556043,919.314598
3474.754827,-11843.295072,2146.597232,536.266849
3474.755165,-11473.192101,2294.638420,-612.876398
3474.755502,-9474.636058,3182.885551,-1302.362347
3474.755839,-8512.368333,3182.885551,-1532.190996
3474.756177,-11177.109724,2516.700203,-1838.629195
3474.756514,-10140.821405,1702.473667,-2834.553343
3474.756852,-8142.265362,1776.494261,-1915.238745
3474.757189,-9474.636058,2146.597232,689.485948
3474.757526,-11917.315666,2812.782580,-1378.971896
3474.757864,-11621.233289,3182.885551,-4903.011187
3474.758201,-8734.430116,2664.741391,-4903.011187
3474.758538,-7254.018232,1258.350101,-2145.067394
3474.758876,-8512.368333,592.164754,-919.314598
3474.759213,-11103.089130,814.226536,-2068.457845
3474.759550,-10214.842000,1554.432478,-2834.553343
3474.759888,-10288.862594,888.247130,-3294.210641
3474.760225,-10066.800811,518.144159,-4290.134789
3474.760562,-9104.533087,148.041188,-3370.820191
3474.760900,-8734.430116,0.000000,-1532.190996
3474.761237,-8438.347739,74.020594,-1532.190996
3474.761574,-10436.903782,1184.329507,-995.924147
3474.761912,-11177.109724,2886.803174,-1608.800546
3474.762249,-10732.986159,1998.556043,-3600.648841
3474.762587,-10140.821405,1406.391290,-1915.238745
3474.762924,-10362.883188,740.205942,-689.485948
3474.763261,-9918.759623,-222.061783,0.000000
3474.763599,-9992.780217,1258.350101,-919.314598
3474.763936,-10140.821405,1258.350101,-2604.724693
3474.764273,-11251.130318,666.185348,-3677.258390
3474.764611,-10881.027347,222.061783,-3907.087040
3474.764948,-10066.800811,1110.308913,-1915.238745
3474.765285,-9992.780217,1258.350101,-2068.457845
3474.765623,-9770.718434,1924.535449,-4596.572988
3474.765960,-9252.574275,1036.288319,-4673.182538
3474.766297,-9474.636058,592.164754,-2145.067394
3474.766635,-10140.821405,-370.102971,153.219100
3474.766972,-10288.862594,-296.082377,766.095498
3474.767309,-10436.903782,2146.597232,-612.876398
3474.767647,-10584.944971,1628.453072,-842.705048
3474.767984,-11029.068536,1184.329507,-1225.752797
3474.768322,-9474.636058,1628.453072,-229.828649
3474.768659,-9770.718434,2960.823768,995.924147
3474.768996,-9770.718434,4737.318029,-153.219100
3474.769334,-10658.965565,3923.091493,-2298.286494
3474.769671,-9474.636058,2442.679609,-2451.505594
3474.770008,-7994.224174,2072.576638,-842.705048
3474.770346,-8660.409521,3923.091493,1378.971896
3474.770683,-10584.944971,4515.256246,766.095498
3474.771020,-12509.480420,2812.782580,-1838.629195
3474.771358,-11399.171507,3034.844362,-4213.525239
3474.771695,-8438.347739,3997.112087,-2604.724693
3474.772032,-9104.533087,4145.153275,-1762.019645
3474.772370,-10658.965565,2516.700203,-3294.210641
3474.772707,-9844.739029,1554.432478,-6052.154434
3474.773044,-6809.894666,592.164754,-4290.134789
3474.773382,-6587.832884,1036.288319,-1378.971896
3474.773719,-11843.295072,666.185348,459.657299
3474.774056,-13841.851115,222.061783,-2987.772442
3474.774394,-9770.718434,370.102971,-4290.134789
3474.774731,-8290.306550,1258.350101,-689.485948
3474.775069,-10807.006753,814.226536,2451.505594
3474.775406,-12435.459826,2072.576638,-689.485948
3474.775743,-10584.944971,1628.453072,-3983.696590
3474.776081,-9474.636058,2812.782580,-2987.772442
3474.776418,-10584.944971,1776.494261,-995.924147
3474.776755,-11621.233289,2072.576638,-1915.238745
3474.777093,-9252.574275,2368.659014,-3830.477490
3474.777430,-9622.677246,2072.576638,-2451.505594
3474.777767,-10436.903782,1998.556043,-2298.286494
3474.778105,-10658.965565,1406.391290,-2757.943793
3474.778442,-10436.903782,1628.453072,-536.266849
3474.778779,-10732.986159,1554.432478,-842.705048
3474.779117,-10066.800811,2738.761985,-2604.724693
3474.779454,-9696.697840,3256.906145,-2834.553343
3474.779791,-9474.636058,2220.617826,-2374.896044
3474.780129,-8734.430116,1258.350101,-3753.867940
3474.780466,-9030.512492,962.267725,-3677.258390
3474.780804,-9474.636058,1480.411884,-1915.238745
3474.781141,-9548.656652,1036.288319,-1608.800546
3474.781478,-8808.450710,1850.514855,-2298.286494
3474.781816,-9548.656652,1554.432478,-1608.800546
3474.782153,-10955.047942,1998.556043,-229.828649
3474.782490,-10510.924376,2368.659014,383.047749
3474.782828,-10214.842000,2220.617826,842.705048
3474.783165,-10584.944971,2812.782580,0.000000
3474.783502,-9622.677246,2368.659014,-1685.410096
3474.783840,-9844.739029,2442.679609,-1378.971896
3474.784177,-9918.759623,1480.411884,-1072.533697
3474.784514,-9918.759623,444.123565,-2451.505594
3474.784852,-9770.718434,1184.329507,-2834.553343
3474.785189,-9474.636058,1628.453072,-2604.724693
3474.785526,-9770.718434,1998.556043,-3370.820191
3474.785864,-11029.068536,296.082377,-3677.258390
3474.786201,-11103.089130,1702.473667,-1991.848295
3474.786539,-10066.800811,518.144159,-1225.752797
3474.786876,-10140.821405,0.000000,-766.095498
3474.787213,-9622.677246,0.000000,-2298.286494
3474.787551,-9696.697840,-370.102971,-3294.210641
3474.787888,-9400.615463,-740.205942,-2757.943793
3474.788225,-9474.636058,-1184.329507,-2451.505594
3474.788563,-10066.800811,-2072.576638,-1532.190996
3474.788900,-10362.883188,-518.144159,-1838.629195
3474.789237,-9844.739029,296.082377,-1915.238745
3474.789575,-9400.615463,1258.350101,-612.876398
3474.789912,-10436.903782,1628.453072,-459.657299
3474.790249,-9992.780217,1184.329507,76.609550
3474.790587,-10732.986159,1924.535449,1225.752797
3474.790924,-10881.027347,2886.803174,229.828649
3474.791261,-10955.047942,3108.864956,-766.095498
3474.791599,-10658.965565,3552.988522,-1915.238745
3474.791936,-9474.636058,3108.864956,-3217.601092
3474.792273,-8512.368333,2590.720797,-1762.019645
3474.792611,-10214.842000,3034.844362,-1225.752797
3474.792948,-10658.965565,2664.741391,-3064.381992
3474.793286,-10881.027347,2812.782580,-3064.381992
3474.793623,-9104.533087,3775.050304,-3830.477490
3474.793960,-8956.491898,2368.659014,-2298.286494
3474.794298,-10214.842000,2960.823768,-612.876398
3474.794635,-9992.780217,3034.844362,-2451.505594
3474.794972,-9474.636058,2960.823768,-3064.381992
3474.795310,-8882.471304,2146.597232,-3140.991542
3474.795647,-10362.883188,666.185348,-1838.629195
3474.795984,-10584.944971,222.061783,-2451.505594
3474.796322,-7550.100608,888.247130,-2757.943793
3474.796659,-9178.553681,888.247130,-383.047749
3474.796996,-9622.677246,888.247130,-919.314598
3474.797334,-9622.677246,1998.556043,0.000000
3474.797671,-12213.398043,2886.803174,383.047749
3474.798008,-11991.336260,3849.070898,-1149.143247
3474.798346,-11991.336260,2368.659014,-2068.457845
3474.798683,-9622.677246,-296.082377,-1149.143247
3474.799021,-8216.285956,-962.267725,-536.266849
3474.799358,-8142.265362,1628.453072,-459.657299
3474.799695,-9474.636058,1554.432478,-3677.258390
3474.800033,-11399.171507,740.205942,-4596.572988
3474.800370,-12361.439231,-592.164754,-3830.477490
3474.800707,-10955.047942,518.144159,-2604.724693
3474.801045,-9918.759623,888.247130,-536.266849
3474.801382,-8512.368333,1406.391290,-229.828649
3474.801719,-9178.553681,444.123565,-2068.457845
3474.802057,-11695.253884,-444.123565,-612.876398
3474.802394,-9474.636058,0.000000,0.000000
3474.802731,-10140.821405,1406.391290,995.924147
3474.803069,-11473.192101,592.164754,-995.924147
3474.803406,-10140.821405,74.020594,-1302.362347
3474.803743,-8882.471304,0.000000,-229.828649
3474.804081,-7846.182985,1258.350101,1608.800546
3474.804418,-9696.697840,3701.029710,2451.505594
3474.804756,-12509.480420,4219.173869,-383.047749
3474.805093,-11621.233289,2368.659014,-1838.629195
3474.805430,-9030.512492,2590.720797,-842.705048
3474.805768,-7994.224174,2294.638420,2911.162892
3474.806105,-9548.656652,2516.700203,2681.334243
3474.806442,-11177.109724,148.041188,-306.438199
3474.806780,-9400.615463,2368.659014,-2681.334243
3474.807117,-9252.574275,444.123565,-1608.800546
3474.807454,-10807.006753,-444.123565,995.924147
3474.807792,-9474.636058,74.020594,-995.924147
3474.808129,-9992.780217,592.164754,-2757.943793
3474.808466,-7402.059420,0.000000,-1838.629195
3474.808804,-9992.780217,-1258.350101,995.924147
3474.809141,-11325.150913,-1850.514855,1225.752797
3474.809478,-9844.739029,-2590.720797,919.314598
3474.809816,-9326.594869,-814.226536,1455.581446
3474.810153,-10510.924376,-2220.617826,2604.724693
3474.810491,-11621.233289,-2960.823768,229.828649
3474.810828,-10140.821405,-3034.844362,-1378.971896
3474.811165,-9178.553681,-2294.638420,689.485948
3474.811503,-9770.718434,-1332.370696,3064.381992
3474.811840,-11621.233289,-1924.535449,2911.162892
3474.812177,-11621.233289,-740.205942,2298.286494
3474.812515,-10066.800811,148.041188,0.000000
3474.812852,-10807.006753,-518.144159,0.000000
3474.813189,-12805.562797,-2072.576638,1378.971896
3474.813527,-10066.800811,-1776.494261,-689.485948
3474.813864,-7772.162391,-1554.432478,0.000000
3474.814201,-7105.977043,74.020594,689.485948
3474.814539,-9548.656652,-740.205942,153.219100
3474.814876,-12509.480420,74.020594,-1532.190996
3474.815213,-11991.336260,0.000000,-2451.505594
3474.815551,-9992.780217,0.000000,-1225.752797
3474.815888,-10732.986159,-740.205942,1685.410096
3474.816225,-9548.656652,74.020594,0.000000
3474.816563,-7846.182985,-370.102971,-766.095498
3474.816900,-6291.750507,-740.205942,0.000000
3474.817238,-8364.327145,-1850.514855,2528.115143
3474.817575,-11843.295072,-592.164754,2604.724693
3474.817912,-10658.965565,1332.370696,-76.609550
3474.818250,-10510.924376,1776.494261,-612.876398
3474.818587,-9992.780217,2516.700203,-1072.533697
3474.818924,-10584.944971,888.247130,0.000000
3474.819262,-10362.883188,0.000000,612.876398
3474.819599,-8364.327145,222.061783,1378.971896
3474.819936,-9474.636058,0.000000,2298.286494
3474.820274,-11103.089130,0.000000,2451.505594
3474.820611,-11399.171507,0.000000,-612.876398
3474.820948,-10140.821405,296.082377,-1608.800546
3474.821286,-8216.285956,740.205942,-2298.286494
3474.821623,-9548.656652,148.041188,-842.705048
3474.821960,-11029.068536,-666.185348,-1991.848295
3474.822298,-9400.615463,-1110.308913,-3677.258390
3474.822635,-8512.368333,0.000000,-689.485948
3474.822973,-10510.924376,-962.267725,1378.971896
3474.823310,-12213.398043,-1998.556043,383.047749
3474.823647,-10288.862594,-1776.494261,-689.485948
3474.823985,-8660.409521,-740.205942,1685.410096
3474.824322,-9252.574275,-2294.638420,3907.087040
3474.824660,-11769.274478,-1184.329507,2987.772442
3474.824997,-11991.336260,222.061783,1225.752797
3474.825335,-12361.439231,814.226536,612.876398
3474.825672,-9474.636058,296.082377,536.266849
3474.826009,-10288.862594,-296.082377,1455.581446
3474.826347,-9400.615463,592.164754,1149.143247
3474.826684,-8290.306550,1554.432478,383.047749
3474.827022,-9178.553681,1036.288319,612.876398
3474.827359,-11325.150913,1480.411884,1378.971896
3474.827696,-12879.583391,1184.329507,536.266849
3474.828034,-10288.862594,1998.556043,-2298.286494
3474.828371,-7105.977043,740.205942,-995.924147
3474.828709,-9770.718434,-444.123565,2451.505594
3474.829046,-9474.636058,-1036.288319,459.657299
3474.829384,-9474.636058,-814.226536,-612.876398
3474.829721,-8882.471304,-814.226536,229.828649
3474.830058,-10436.903782,-1554.432478,1685.410096
3474.830396,-10510.924376,0.000000,536.266849
3474.830733,-9696.697840,0.000000,-766.095498
3474.831071,-8290.306550,74.020594,-1302.362347
3474.831408,-8956.491898,-592.164754,-1762.019645
3474.831746,-10584.944971,-1110.308913,-76.609550
3474.832083,-11325.150913,-1702.473667,2145.067394
3474.832420,-10362.883188,-962.267725,1302.362347
3474.832758,-10436.903782,444.123565,383.047749
3474.833095,-10436.903782,0.000000,612.876398
3474.833433,-9770.718434,-666.185348,459.657299
3474.833770,-9770.718434,0.000000,-1072.533697
3474.834107,-10362.883188,-518.144159,0.000000
3474.834445,-11917.315666,-592.164754,1762.019645
3474.834782,-11621.233289,-148.041188,-612.876398
3474.835120,-9770.718434,-222.061783,-1838.629195
3474.835457,-9030.512492,-1406.391290,-1149.143247
3474.835795,-10288.862594,-1554.432478,306.438199
3474.836132,-9770.718434,-1628.453072,-766.095498
3474.836469,-10214.842000,0.000000,-1685.410096
3474.836807,-10066.800811,-1184.329507,-1532.190996
3474.837144,-10955.047942,-2590.720797,842.705048
3474.837482,-9918.759623,-1628.453072,1072.533697
3474.837819,-9622.677246,-1036.288319,1608.800546
3474.838156,-9770.718434,-370.102971,1762.019645
3474.838494,-10066.800811,-1554.432478,1685.410096
3474.838831,-11843.295072,-962.267725,1225.752797
3474.839169,-8882.471304,-370.102971,842.705048
3474.839506,-8068.244768,666.185348,2374.896044
3474.839844,-9696.697840,-222.061783,2681.334243
3474.840181,-9992.780217,222.061783,1532.190996
3474.840518,-9326.594869,666.185348,1378.971896
3474.840856,-10584.944971,1406.391290,2145.067394
3474.841193,-10436.903782,1776.494261,459.657299
3474.841531,-11325.150913,1776.494261,-459.657299
3474.841868,-10584.944971,888.247130,-76.609550
3474.842206,-8512.368333,-74.020594,-689.485948
3474.842543,-7772.162391,444.123565,229.828649
3474.842880,-9770.718434,666.185348,612.876398
3474.843218,-11029.068536,-592.164754,-153.219100
3474.843555,-11473.192101,-444.123565,-1915.238745
3474.843893,-10066.800811,-666.185348,-2298.286494
3474.844230,-10140.821405,-1998.556043,229.828649
3474.844567,-8882.471304,-888.247130,306.438199
3474.844905,-8216.285956,148.041188,-536.266849
3474.845242,-9252.574275,0.000000,-995.924147
3474.845580,-12509.480420,-666.185348,842.705048
3474.845917,-14434.015869,-222.061783,2145.067394
3474.846255,-11843.295072,1332.370696,383.047749
3474.846592,-9326.594869,296.082377,306.438199
3474.846929,-8956.491898,-592.164754,2451.505594
3474.847267,-9992.780217,-740.205942,1685.410096
3474.847604,-9030.512492,-1554.432478,383.047749
3474.847942,-9548.656652,444.123565,0.000000
3474.848279,-9770.718434,222.061783,76.609550
3474.848617,-11473.192101,0.000000,229.828649
3474.848954,-9770.718434,962.267725,-842.705048
3474.849291,-9844.739029,1628.453072,-383.047749
3474.849629,-9474.636058,1110.308913,-1149.143247
3474.849966,-9696.697840,-1480.411884,-1378.971896
3474.850304,-9548.656652,-1998.556043,-306.438199
3474.850641,-8586.388927,-2072.576638,1302.362347
3474.850978,-7105.977043,-592.164754,1608.800546
3474.851316,-9770.718434,-740.205942,1838.629195
3474.851653,-11029.068536,-592.164754,-153.219100
3474.851991,-10362.883188,-592.164754,-1762.019645
3474.852328,-8512.368333,666.185348,-153.219100
3474.852666,-9622.677246,1406.391290,919.314598
3474.853003,-11695.253884,74.020594,1455.581446
3474.853340,-11251.130318,592.164754,689.485948
3474.853678,-8734.430116,1110.308913,1532.190996
3474.854015,-9844.739029,1554.432478,3064.381992
3474.854353,-11547.212695,888.247130,2834.553343
3474.854690,-13323.706956,-222.061783,612.876398
3474.855027,-11251.130318,-296.082377,-1455.581446
3474.855365,-7254.018232,592.164754,-459.657299
3474.855702,-10214.842000,740.205942,3064.381992
3474.856040,-11325.150913,148.041188,0.000000
3474.856377,-10066.800811,-592.164754,-2911.162892
3474.856715,-9252.574275,-666.185348,-1915.238745
3474.857052,-9696.697840,-1110.308913,153.219100
3474.857389,-10066.800811,-1702.473667,306.438199
3474.857727,-9326.594869,-2368.659014,-1915.238745
3474.858064,-7994.224174,-2368.659014,-2221.676944
3474.858402,-9548.656652,-3256.906145,153.219100
3474.858739,-10436.903782,-2812.782580,995.924147
3474.859077,-9474.636058,-1850.514855,229.828649
3474.859414,-9252.574275,-1332.370696,-842.705048
3474.859751,-9918.759623,-2960.823768,842.705048
3474.860089,-12805.562797,-3552.988522,3600.648841
3474.860426,-10214.842000,-1998.556043,2987.772442
3474.860764,-8882.471304,-962.267725,2451.505594
3474.861101,-9400.615463,444.123565,2374.896044
3474.861438,-11251.130318,-148.041188,536.266849
3474.861776,-10658.965565,0.000000,0.000000
3474.862113,-9992.780217,1406.391290,-229.828649
3474.862451,-11621.233289,740.205942,1149.143247
3474.862788,-12435.459826,1702.473667,-1762.019645
3474.863126,-9548.656652,740.205942,-1915.238745
3474.863463,-7920.203579,1628.453072,76.609550
3474.863800,-9178.553681,666.185348,766.095498
3474.864138,-11547.212695,0.000000,1072.533697
3474.864475,-11547.212695,-444.123565,0.000000
3474.864813,-9696.697840,74.020594,76.609550
3474.865150,-7624.121203,1036.288319,-689.485948
3474.865487,-10066.800811,444.123565,612.876398
3474.865825,-10362.883188,-1850.514855,842.705048
3474.866162,-8216.285956,-814.226536,0.000000
3474.866500,-7698.141797,1184.329507,306.438199
3474.866837,-9770.718434,1480.411884,842.705048
3474.867175,-12435.459826,-666.185348,306.438199
3474.867512,-11843.295072,-1628.453072,229.828649
3474.867849,-9030.512492,-444.123565,536.266849
3474.868187,-7402.059420,1184.329507,3830.477490
3474.868524,-11695.253884,888.247130,4749.792088
3474.868862,-12213.398043,0.000000,-153.219100
3474.869199,-10436.903782,814.226536,-2757.943793
3474.869537,-10436.903782,1258.350101,-689.485948
3474.869874,-11251.130318,-74.020594,919.314598
3474.870211,-10807.006753,-2368.659014,0.000000
3474.870549,-8438.347739,-962.267725,-1991.848295
3474.870886,-8216.285956,222.061783,-1072.533697
3474.871224,-11621.233289,-888.247130,459.657299
3474.871561,-11917.315666,-2294.638420,-459.657299
3474.871898,-10955.047942,-2812.782580,-1378.971896
3474.872236,-8512.368333,-370.102971,-689.485948
3474.872573,-7846.182985,-666.185348,536.266849
3474.872911,-10436.903782,-1554.432478,1685.410096
3474.873248,-11695.253884,-3108.864956,-1685.410096
3474.873586,-8808.450710,-888.247130,-2221.676944
3474.873923,-8808.450710,-296.082377,1685.410096
3474.874260,-11177.109724,-1184.329507,4596.572988
3474.874598,-11325.150913,-962.267725,919.314598
3474.874935,-9030.512492,1924.535449,-766.095498
3474.875273,-9104.533087,2368.659014,1455.581446
3474.875610,-11621.233289,0.000000,1685.410096
3474.875948,-11473.192101,814.226536,153.219100
3474.876285,-8438.347739,3182.885551,-153.219100
3474.876622,-9844.739029,2516.700203,2451.505594
3474.876960,-12287.418637,1776.494261,0.000000
3474.877297,-11843.295072,1184.329507,-2068.457845
3474.877635,-8808.450710,814.226536,-1532.190996
3474.877972,-7179.997637,0.000000,-689.485948
3474.878309,-9104.533087,-1332.370696,-76.609550
3474.878647,-10362.883188,-1480.411884,-612.876398
3474.878984,-9770.718434,-1924.535449,-995.924147
3474.879322,-8660.409521,-1554.432478,0.000000
3474.879659,-9252.574275,-1184.329507,1225.752797
3474.879997,-11843.295072,-1184.329507,1302.362347
3474.880334,-10732.986159,-1258.350101,-1455.581446
3474.880671,-7179.997637,-1628.453072,-2068.457845
3474.881009,-9696.697840,-3330.926739,1072.533697
3474.881346,-9474.636058,-4367.215058,1915.238745
3474.881684,-9030.512492,-2368.659014,3907.087040
3474.882021,-10658.965565,-444.123565,3600.648841
3474.882358,-12435.459826,-666.185348,1608.800546
3474.882696,-12953.603985,148.041188,-76.609550
3474.883033,-11325.150913,296.082377,536.266849
3474.883371,-8290.306550,-296.082377,842.705048
3474.883708,-9400.615463,-370.102971,1762.019645
3474.884046,-11473.192101,-370.102971,1608.800546
3474.884383,-11843.295072,-592.164754,0.000000
3474.884720,-8808.450710,1184.329507,-2374.896044
3474.885058,-8512.368333,814.226536,-1455.581446
3474.885395,-12583.501014,74.020594,612.876398
3474.885733,-12287.418637,-370.102971,-919.314598
3474.886070,-8956.491898,-1184.329507,-1762.019645
3474.886408,-7920.203579,-592.164754,459.657299
3474.886745,-8364.327145,-1628.453072,2451.505594
3474.887082,-11547.212695,-1850.514855,2068.457845
3474.887420,-10214.842000,-666.185348,0.000000
3474.887757,-8660.409521,0.000000,459.657299
3474.888095,-9992.780217,888.247130,1532.190996
3474.888432,-10066.800811,-1184.329507,229.828649
3474.888769,-9474.636058,74.020594,0.000000
3474.889107,-8068.244768,1184.329507,0.000000
3474.889444,-8808.450710,2294.638420,1072.533697
3474.889782,-11917.315666,148.041188,612.876398
3474.890119,-10066.800811,148.041188,76.609550
3474.890457,-9326.594869,814.226536,-2145.067394
3474.890794,-9252.574275,666.185348,842.705048
3474.891131,-9844.739029,148.041188,-1302.362347
3474.891469,-11103.089130,0.000000,-153.219100
3474.891806,-9622.677246,0.000000,-995.924147
3474.892144,-9844.739029,-962.267725,459.657299
3474.892481,-10066.800811,-592.164754,1991.848295
3474.892818,-13841.851115,-1110.308913,919.314598
3474.893156,-12731.542202,-1258.350101,-842.705048
3474.893493,-8068.244768,-1924.535449,-3677.258390
3474.893831,-11325.150913,-1776.494261,-1378.971896
3474.894168,-9104.533087,-1702.473667,1532.190996
3474.894506,-8290.306550,-1258.350101,-1762.019645
3474.894843,-10288.862594,148.041188,-459.657299
3474.895180,-12953.603985,-296.082377,0.000000
3474.895518,-12583.501014,-962.267725,2145.067394
3474.895855,-10955.047942,-2442.679609,3140.991542
3474.896193,-7031.956449,444.123565,3524.039291
3474.896530,-7846.182985,148.041188,4826.401637
3474.896868,-10584.944971,-1332.370696,3983.696590
3474.897205,-9474.636058,-962.267725,0.000000
3474.897542,-8068.244768,1924.535449,-306.438199
3474.897880,-9844.739029,2072.576638,1455.581446
3474.898217,-11695.253884,592.164754,-995.924147
3474.898555,-9918.759623,740.205942,-2068.457845
3474.898892,-7772.162391,1332.370696,-842.705048
3474.899229,-8068.244768,0.000000,1072.533697
3474.899567,-10436.903782,-444.123565,2451.505594
3474.899904,-11473.192101,-444.123565,459.657299
3474.900242,-11843.295072,-814.226536,-995.924147
3474.900579,-9400.615463,444.123565,-153.219100
3474.900917,-10066.800811,296.082377,2068.457845
3474.901254,-11547.212695,0.000000,1225.752797
3474.901591,-11917.315666,-1184.329507,-766.095498
3474.901929,-10066.800811,0.000000,-1532.190996
3474.902266,-10140.821405,-1184.329507,-76.609550
3474.902604,-9696.697840,-1110.308913,1072.533697
3474.902941,-9400.615463,-1258.350101,0.000000
3474.903279,-9104.533087,-1850.514855,-306.438199
3474.903616,-8068.244768,-1702.473667,0.000000
3474.903953,-10584.944971,-1184.329507,1915.238745
3474.904291,-10658.965565,666.185348,1532.190996
3474.904628,-9696.697840,1036.288319,-1378.971896
3474.904966,-10584.944971,296.082377,-1685.410096
3474.905303,-10955.047942,-2072.576638,-689.485948
3474.905640,-9400.615463,-2960.823768,229.828649
3474.905978,-7772.162391,-1850.514855,306.438199
3474.906315,-7179.997637,370.102971,-766.095498
3474.906653,-9770.718434,148.041188,-689.485948
3474.906990,-12953.603985,-1628.453072,-919.314598
3474.907328,-12065.356855,-1036.288319,-1302.362347
3474.907665,-11103.089130,-444.123565,-1225.752797
3474.908002,-9770.718434,-1036.288319,229.828649
3474.908340,-9474.636058,-1850.514855,995.924147
3474.908677,-9622.677246,-1184.329507,1685.410096
3474.909015,-8142.265362,-370.102971,1072.533697
3474.909352,-10140.821405,592.164754,2911.162892
3474.909689,-14730.098246,222.061783,2911.162892
3474.910027,-12805.562797,222.061783,842.705048
3474.910364,-8660.409521,1036.288319,612.876398
3474.910702,-8290.306550,1924.535449,3217.601092
3474.911039,-9992.780217,1184.329507,3447.429741
3474.911377,-10362.883188,0.000000,459.657299
3474.911714,-8438.347739,-296.082377,-306.438199
3474.912051,-7402.059420,0.000000,1149.143247
3474.912389,-9548.656652,1110.308913,2068.457845
3474.912726,-10732.986159,962.267725,612.876398
3474.913064,-9918.759623,1702.473667,-2221.676944
3474.913401,-8290.306550,444.123565,-2834.553343
3474.913739,-10288.862594,222.061783,459.657299
3474.914076,-10881.027347,-1924.535449,1378.971896
3474.914413,-9548.656652,-1702.473667,76.609550
3474.914751,-7624.121203,-518.144159,-766.095498
3474.915088,-10066.800811,-888.247130,0.000000
3474.915426,-11547.212695,-888.247130,-459.657299
3474.915763,-9770.718434,-1332.370696,-1072.533697
3474.916100,-9474.636058,518.144159,-229.828649
3474.916438,-11399.171507,-296.082377,0.000000
3474.916775,-13027.624579,296.082377,383.047749
3474.917113,-11103.089130,-518.144159,-383.047749
3474.917450,-9326.594869,-518.144159,76.609550
3474.917788,-9918.759623,-888.247130,2374.896044
3474.918125,-9992.780217,-592.164754,1532.190996
3474.918462,-10214.842000,-74.020594,1685.410096
3474.918800,-10584.944971,222.061783,-995.924147
3474.919137,-10955.047942,0.000000,-1149.143247
3474.919475,-10881.027347,-296.082377,-536.266849
3474.919812,-9474.636058,-740.205942,-229.828649
3474.920149,-7698.141797,-296.082377,0.000000
3474.920487,-9104.533087,74.020594,842.705048
3474.920824,-10732.986159,-1110.308913,-689.485948
3474.921162,-9844.739029,-1406.391290,-2451.505594
3474.921499,-8882.471304,-1258.350101,-995.924147
3474.921837,-7920.203579,-1036.288319,-76.609550
3474.922174,-9992.780217,-1110.308913,919.314598
3474.922511,-10584.944971,-666.185348,1302.362347
3474.922849,-9326.594869,0.000000,76.609550
3474.923186,-9992.780217,0.000000,2068.457845
3474.923524,-11251.130318,1628.453072,2528.115143
3474.923861,-11325.150913,814.226536,1762.019645
3474.924199,-10362.883188,444.123565,612.876398
3474.924536,-8290.306550,962.267725,689.485948
3474.924873,-10140.821405,814.226536,1915.238745
3474.925211,-10955.047942,1110.308913,2068.457845
3474.925548,-10658.965565,1924.535449,689.485948
3474.925886,-10732.986159,1998.556043,766.095498
3474.926223,-12065.356855,2590.720797,995.924147
3474.926560,-11917.315666,-740.205942,306.438199
3474.926898,-9252.574275,-1110.308913,0.000000
3474.927235,-6513.812290,-1184.329507,0.000000
3474.927573,-8660.409521,-1258.350101,1608.800546
3474.927910,-10436.903782,-1184.329507,919.314598
3474.928248,-10732.986159,-1184.329507,-1685.410096
3474.928585,-10584.944971,666.185348,-3294.210641
3474.928922,-9992.780217,0.000000,-2451.505594
3474.929260,-11843.295072,-1332.370696,-459.657299
3474.929597,-11103.089130,-2294.638420,-459.657299
3474.929935,-8438.347739,-2812.782580,-153.219100
3474.930272,-8290.306550,-2960.823768,1685.410096
3474.930609,-8956.491898,-3108.864956,2374.896044
3474.930947,-11029.068536,-1184.329507,2451.505594
3474.931284,-10436.903782,-1480.411884,766.095498
3474.931622,-9474.636058,-888.247130,229.828649
3474.931959,-11029.068536,74.020594,1455.581446
3474.932297,-11917.315666,888.247130,536.266849
3474.932634,-9696.697840,740.205942,-766.095498
3474.932971,-7624.121203,444.123565,-1378.971896
3474.933309,-7476.080014,444.123565,229.828649
3474.933646,-11251.130318,0.000000,1685.410096
3474.933984,-11547.212695,370.102971,-1685.410096
3474.934321,-9178.553681,444.123565,-3294.210641
3474.934658,-9622.677246,444.123565,-612.876398
3474.934996,-10436.903782,518.144159,995.924147
3474.935333,-10066.800811,666.185348,689.485948
3474.935671,-9104.533087,0.000000,-995.924147
3474.936008,-9548.656652,74.020594,-612.876398
3474.936346,-12139.377449,-592.164754,1378.971896
3474.936683,-10955.047942,0.000000,229.828649
3474.937020,-9252.574275,-740.205942,153.219100
3474.937358,-8734.430116,0.000000,1532.190996
3474.937695,-9844.739029,222.061783,2834.553343
3474.938033,-12509.480420,296.082377,2911.162892
3474.938370,-11695.253884,814.226536,229.828649
3474.938707,-9252.574275,-1332.370696,0.000000
3474.939045,-9770.718434,-518.144159,1838.629195
3474.939382,-10362.883188,-296.082377,2068.457845
3474.939720,-8068.244768,-814.226536,919.314598
3474.940057,-6957.935855,148.041188,536.266849
3474.940395,-9992.780217,1110.308913,612.876398
3474.940732,-12583.501014,592.164754,-383.047749
3474.941069,-11917.315666,-518.144159,-1149.143247
3474.941407,-9696.697840,-1258.350101,-2145.067394
3474.941744,-7994.224174,-1110.308913,-1838.629195
3474.942082,-8364.327145,-1332.370696,842.705048
3474.942419,-10584.944971,-4145.153275,612.876398
3474.942756,-8660.409521,-2738.761985,-1225.752797
3474.943094,-8586.388927,-1628.453072,0.000000
3474.943431,-12583.501014,-592.164754,1838.629195
3474.943769,-12361.439231,-1184.329507,306.438199
3474.944106,-11399.171507,-518.144159,-1225.752797
3474.944444,-9548.656652,-592.164754,306.438199
3474.944781,-10066.800811,-1184.329507,2221.676944
3474.945118,-10362.883188,444.123565,2145.067394
3474.945456,-9622.677246,888.247130,689.485948
3474.945793,-9992.780217,444.123565,0.000000
3474.946131,-10955.047942,1110.308913,-689.485948
3474.946468,-10510.924376,1776.494261,-766.095498
3474.946806,-10732.986159,2220.617826,-612.876398
3474.947143,-9178.553681,1332.370696,-306.438199
3474.947480,-9178.553681,1628.453072,1455.581446
3474.947818,-10066.800811,2294.638420,766.095498
3474.948155,-10955.047942,1406.391290,0.000000
3474.948493,-8956.491898,1480.411884,-2221.676944
3474.948830,-9622.677246,0.000000,-2068.457845
3474.949167,-9696.697840,-592.164754,-1302.362347
3474.949505,-8660.409521,-444.123565,-1762.019645
3474.949842,-7402.059420,148.041188,-1532.190996
3474.950180,-8512.368333,-1628.453072,-536.266849
3474.950517,-11029.068536,-2146.597232,1455.581446
3474.950855,-10510.924376,-518.144159,2221.676944
3474.951192,-10214.842000,-888.247130,1149.143247
3474.951529,-11103.089130,-666.185348,919.314598
3474.951867,-11473.192101,-666.185348,995.924147
3474.952204,-10881.027347,-1480.411884,766.095498
3474.952542,-7994.224174,-1036.288319,229.828649
3474.952879,-7846.182985,592.164754,766.095498
3474.953216,-12065.356855,518.144159,2451.505594
3474.953554,-13545.768739,-1110.308913,612.876398
3474.953891,-12065.356855,-1480.411884,-842.705048
3474.954229,-9474.636058,-666.185348,1608.800546
3474.954566,-8734.430116,222.061783,2757.943793
3474.954904,-10362.883188,148.041188,1455.581446
3474.955241,-11251.130318,-888.247130,-536.266849
3474.955578,-7994.224174,-666.185348,-2911.162892
3474.955916,-9548.656652,-1332.370696,612.876398
3474.956253,-12731.542202,-592.164754,1762.019645
3474.956591,-12361.439231,-1258.350101,-689.485948
3474.956928,-9326.594869,-444.123565,-2298.286494
3474.957265,-7476.080014,-1332.370696,919.314598
3474.957603,-9844.739029,-2294.638420,3907.087040
3474.957940,-11103.089130,-1924.535449,2451.505594
3474.958278,-10362.883188,-1332.370696,-229.828649
3474.958615,-9178.553681,-592.164754,1149.143247
3474.958953,-10214.842000,1332.370696,1838.629195
3474.959290,-10140.821405,2442.679609,-306.438199
3474.959627,-10140.821405,1628.453072,-2681.334243
3474.959965,-8956.491898,518.144159,-1915.238745
3474.960302,-9252.574275,296.082377,536.266849
3474.960640,-11399.171507,740.205942,2604.724693
3474.960977,-11251.130318,1036.288319,1762.019645
3474.961314,-8660.409521,962.267725,-1149.143247
3474.961652,-9474.636058,888.247130,-229.828649
3474.961989,-11325.150913,148.041188,919.314598
3474.962327,-9178.553681,444.123565,-689.485948
3474.962664,-8438.347739,1110.308913,-2834.553343
3474.963002,-11621.233289,1554.432478,-1838.629195
3474.963339,-12657.521608,1480.411884,-2451.505594
3474.963676,-10658.965565,-518.144159,-3600.648841
3474.964014,-8142.265362,-2442.679609,-2298.286494
3474.964351,-6883.915261,-3034.844362,536.266849
3474.964689,-10584.944971,-2516.700203,2451.505594
3474.965026,-10955.047942,-2072.576638,766.095498
3474.965364,-9548.656652,-1850.514855,-689.485948
3474.965701,-10510.924376,-1702.473667,919.314598
3474.966038,-12065.356855,-2368.659014,2911.162892
3474.966376,-11177.109724,-1406.391290,2681.334243
3474.966713,-9548.656652,-1480.411884,1838.629195
3474.967051,-7920.203579,-1776.494261,2834.553343
3474.967388,-8956.491898,-740.205942,3217.601092
3474.967725,-11991.336260,0.000000,1915.238745
3474.968063,-12065.356855,0.000000,-689.485948
3474.968400,-9844.739029,1776.494261,-536.266849
3474.968738,-11029.068536,888.247130,2451.505594
3474.969075,-11621.233289,222.061783,2221.676944
3474.969413,-9696.697840,444.123565,229.828649
3474.969750,-9030.512492,962.267725,-1149.143247
3474.970087,-10066.800811,0.000000,-919.314598
3474.970425,-10584.944971,-592.164754,459.657299
3474.970762,-9474.636058,-1184.329507,76.609550
3474.971100,-8512.368333,-222.061783,76.609550
3474.971437,-9548.656652,1776.494261,76.609550
3474.971774,-12287.418637,666.185348,612.876398
3474.972112,-11473.192101,-370.102971,-919.314598
3474.972449,-8290.306550,-1776.494261,-1762.019645
3474.972787,-6439.791695,222.061783,1149.143247
3474.973124,-9622.677246,-1776.494261,2221.676944
3474.973462,-10288.862594,-962.267725,153.219100
3474.973799,-8438.347739,518.144159,-919.314598
3474.974136,-9104.533087,592.164754,153.219100
3474.974474,-11473.192101,0.000000,1608.800546
3474.974811,-11917.315666,370.102971,536.266849
3474.975149,-10362.883188,1924.535449,306.438199
3474.975486,-9770.718434,1850.514855,-766.095498
3474.975823,-10066.800811,222.061783,0.000000
3474.976161,-11325.150913,0.000000,689.485948
3474.976498,-10510.924376,222.061783,-842.705048
3474.976836,-9400.615463,1554.432478,-2451.505594
3474.977173,-8512.368333,1110.308913,-3064.381992
3474.977511,-10288.862594,444.123565,-2145.067394
3474.977848,-11991.336260,-1628.453072,-2374.896044
3474.978185,-10362.883188,-1184.329507,-2604.724693
3474.978523,-9400.615463,-1554.432478,459.657299
3474.978860,-9770.718434,-1702.473667,3064.381992
3474.979198,-9400.615463,-962.267725,1991.848295
3474.979535,-9548.656652,-1332.370696,1149.143247
3474.979872,-9992.780217,-1554.432478,995.924147
3474.980210,-10510.924376,-1924.535449,1762.019645
3474.980547,-10955.047942,-296.082377,2681.334243
3474.980885,-8660.409521,0.000000,1532.190996
3474.981222,-8364.327145,0.000000,1225.752797
3474.981560,-10288.862594,814.226536,2221.676944
3474.981897,-11251.130318,74.020594,995.924147
3474.982234,-11399.171507,-518.144159,1532.190996
3474.982572,-8142.265362,-444.123565,306.438199
3474.982909,-9474.636058,1036.288319,2145.067394
3474.983247,-10807.006753,370.102971,766.095498
3474.983584,-10140.821405,1776.494261,-536.266849
3474.983922,-10436.903782,592.164754,-1685.410096
3474.984259,-11769.274478,-370.102971,-459.657299
3474.984596,-10362.883188,-222.061783,-383.047749
3474.984934,-9770.718434,-1184.329507,612.876398
3474.985271,-8808.450710,-814.226536,612.876398
3474.985609,-9400.615463,-2072.576638,0.000000
3474.985946,-11251.130318,-2294.638420,0.000000
