#time,accel_x,accel_y,accel_z
3349.814809,-9474.636058,-666.185348,-383.047749
3349.815147,-10140.821405,-1110.308913,153.219100
3349.815484,-10066.800811,-592.164754,-153.219100
3349.815821,-9844.739029,-1480.411884,842.705048
3349.816159,-10288.862594,-1036.288319,689.485948
3349.816496,-9992.780217,-1628.453072,1149.143247
3349.816833,-11103.089130,0.000000,1838.629195
3349.817171,-10510.924376,-1110.308913,612.876398
3349.817508,-10214.842000,0.000000,383.047749
3349.817845,-10436.903782,0.000000,1225.752797
3349.818183,-11325.150913,-666.185348,536.266849
3349.818520,-10732.986159,74.020594,612.876398
3349.818857,-10214.842000,0.000000,383.047749
3349.819195,-9622.677246,444.123565,306.438199
3349.819532,-10881.027347,-814.226536,153.219100
3349.819869,-10362.883188,-1184.329507,459.657299
3349.820207,-9548.656652,-962.267725,229.828649
3349.820544,-9770.718434,-740.205942,1072.533697
3349.820881,-9770.718434,-740.205942,-689.485948
3349.821219,-9696.697840,-2220.617826,76.609550
3349.821556,-10140.821405,-1850.514855,766.095498
3349.821893,-9548.656652,-1998.556043,919.314598
3349.822231,-9474.636058,-592.164754,766.095498
3349.822568,-9770.718434,-1554.432478,1072.533697
3349.822905,-10214.842000,-1924.535449,842.705048
3349.823243,-9770.718434,-1850.514855,1915.238745
3349.823580,-9104.533087,-592.164754,2911.162892
3349.823917,-9178.553681,-518.144159,3753.867940
3349.824255,-10807.006753,148.041188,2987.772442
3349.824592,-11029.068536,-296.082377,2451.505594
3349.824930,-11029.068536,0.000000,3217.601092
3349.825267,-9474.636058,0.000000,4673.182538
3349.825604,-9918.759623,74.020594,4596.572988
3349.825942,-10658.965565,-296.082377,4443.353888
3349.826279,-10658.965565,-296.082377,2911.162892
3349.826616,-10214.842000,-1480.411884,2145.067394
3349.826954,-9918.759623,-962.267725,2834.553343
3349.827291,-9844.739029,-1628.453072,2298.286494
3349.827628,-9696.697840,-2294.638420,1149.143247
3349.827966,-9252.574275,-2368.659014,-383.047749
3349.828303,-9400.615463,-3923.091493,0.000000
3349.828640,-9252.574275,-4293.194464,1838.629195
3349.828978,-9030.512492,-4663.297435,1762.019645
3349.829315,-9622.677246,-3849.070898,2451.505594
3349.829652,-10362.883188,-3923.091493,1532.190996
3349.829990,-10955.047942,-4441.235652,1608.800546
3349.830327,-9770.718434,-4515.256246,2451.505594
3349.830664,-9770.718434,-4219.173869,3600.648841
3349.831002,-9992.780217,-3478.967927,3677.258390
3349.831339,-11029.068536,-2960.823768,2911.162892
3349.831676,-11103.089130,-2368.659014,2221.676944
3349.832014,-10214.842000,-2886.803174,1149.143247
3349.832351,-10140.821405,-3627.009116,2298.286494
3349.832688,-9474.636058,-3701.029710,2834.553343
3349.833026,-9548.656652,-3034.844362,3370.820191
3349.833363,-11177.109724,-1480.411884,3677.258390
3349.833700,-11695.253884,-1258.350101,1838.629195
3349.834038,-10066.800811,-1110.308913,0.000000
3349.834375,-9770.718434,-1924.535449,-306.438199
3349.834712,-9770.718434,-2368.659014,1072.533697
3349.835050,-9178.553681,-3034.844362,1838.629195
3349.835387,-9178.553681,-3256.906145,1838.629195
3349.835724,-9918.759623,-3552.988522,2528.115143
3349.836062,-9992.780217,-3404.947333,2374.896044
3349.836399,-9252.574275,-2738.761985,3140.991542
3349.836737,-9548.656652,-2886.803174,3753.867940
3349.837074,-9770.718434,-2072.576638,4826.401637
3349.837411,-10732.986159,-740.205942,4443.353888
3349.837749,-10732.986159,74.020594,3140.991542
3349.838086,-10584.944971,518.144159,2528.115143
3349.838423,-11547.212695,-1406.391290,2604.724693
3349.838761,-9844.739029,-2368.659014,2757.943793
3349.839098,-7254.018232,-1554.432478,3217.601092
3349.839435,-7920.203579,-1480.411884,4213.525239
3349.839773,-10066.800811,-1924.535449,3983.696590
3349.840110,-11251.130318,-2368.659014,3370.820191
3349.840447,-10955.047942,-444.123565,2604.724693
3349.840785,-10807.006753,666.185348,995.924147
3349.841122,-10288.862594,1554.432478,536.266849
3349.841459,-10955.047942,-1258.350101,-1149.143247
3349.841797,-9252.574275,-3701.029710,-842.705048
3349.842134,-7328.038826,-4589.276840,1072.533697
3349.842471,-9400.615463,-4663.297435,4903.011187
3349.842809,-11695.253884,-4885.359217,3983.696590
3349.843146,-11325.150913,-4737.318029,689.485948
3349.843483,-9400.615463,-2738.761985,612.876398
3349.843821,-9326.594869,-2590.720797,2451.505594
3349.844158,-10658.965565,-2812.782580,2834.553343
3349.844495,-10214.842000,-2442.679609,1915.238745
3349.844833,-10288.862594,-2072.576638,2068.457845
3349.845170,-11695.253884,-1480.411884,2757.943793
3349.845507,-12213.398043,-2368.659014,2451.505594
3349.845845,-9844.739029,-2146.597232,2298.286494
3349.846182,-8438.347739,-3034.844362,2145.067394
3349.846519,-7846.182985,-3034.844362,2987.772442
3349.846857,-8364.327145,-1406.391290,4519.963438
3349.847194,-10214.842000,-740.205942,5132.839837
3349.847531,-11843.295072,518.144159,2834.553343
3349.847869,-11917.315666,1184.329507,76.609550
3349.848206,-11029.068536,962.267725,689.485948
3349.848544,-9918.759623,-1554.432478,2987.772442
3349.848881,-8808.450710,-2368.659014,2681.334243
3349.849218,-8290.306550,-1702.473667,1225.752797
3349.849556,-9104.533087,-2220.617826,229.828649
3349.849893,-9622.677246,-4145.153275,1149.143247
3349.850230,-9104.533087,-4959.379811,2145.067394
3349.850568,-8512.368333,-4441.235652,4749.792088
3349.850905,-8882.471304,-2220.617826,4213.525239
3349.851242,-10288.862594,-444.123565,2604.724693
3349.851580,-12435.459826,0.000000,1378.971896
3349.851917,-11547.212695,-1628.453072,842.705048
3349.852254,-11695.253884,-2664.741391,3217.601092
3349.852592,-10732.986159,-2812.782580,4596.572988
3349.852929,-9474.636058,-2812.782580,4290.134789
3349.853266,-9770.718434,-3923.091493,3217.601092
3349.853604,-8660.409521,-4885.359217,2834.553343
3349.853941,-9548.656652,-5773.606348,4366.744339
3349.854278,-10584.944971,-2442.679609,4519.963438
3349.854616,-9770.718434,444.123565,1991.848295
3349.854953,-11991.336260,0.000000,536.266849
3349.855290,-11917.315666,-2220.617826,-459.657299
3349.855628,-9918.759623,-4145.153275,-76.609550
3349.855965,-8808.450710,-2072.576638,2528.115143
3349.856302,-7254.018232,-2072.576638,2221.676944
3349.856640,-11325.150913,-4811.338623,1608.800546
3349.856977,-11991.336260,-6291.750507,536.266849
3349.857314,-8512.368333,-5847.626942,2145.067394
3349.857652,-7476.080014,-2960.823768,3907.087040
3349.857989,-9474.636058,-1924.535449,4060.306139
3349.858326,-12361.439231,-2368.659014,1072.533697
3349.858664,-10214.842000,-1924.535449,-766.095498
3349.859001,-7846.182985,-296.082377,3370.820191
3349.859338,-10362.883188,74.020594,6281.983084
3349.859676,-13323.706956,0.000000,4213.525239
3349.860013,-11547.212695,-592.164754,153.219100
3349.860351,-9696.697840,-518.144159,1149.143247
3349.860688,-8438.347739,-740.205942,4596.572988
3349.861025,-9770.718434,-1480.411884,4749.792088
3349.861363,-9030.512492,-74.020594,536.266849
3349.861700,-7624.121203,1702.473667,-383.047749
3349.862037,-11251.130318,1776.494261,1685.410096
3349.862375,-13471.748144,592.164754,1302.362347
3349.862712,-10881.027347,1110.308913,-1149.143247
3349.863049,-7476.080014,1184.329507,-1072.533697
3349.863387,-9918.759623,-1258.350101,612.876398
3349.863724,-11695.253884,-2220.617826,612.876398
3349.864061,-7994.224174,-3108.864956,0.000000
3349.864399,-6217.729913,-2960.823768,2298.286494
3349.864736,-9696.697840,-3552.988522,2451.505594
3349.865073,-13101.645173,-2516.700203,383.047749
3349.865411,-10881.027347,-1406.391290,-766.095498
3349.865748,-7328.038826,-962.267725,76.609550
3349.866085,-10214.842000,-1850.514855,1608.800546
3349.866423,-11991.336260,-592.164754,306.438199
3349.866760,-11177.109724,-1036.288319,1225.752797
3349.867097,-10140.821405,-1554.432478,2528.115143
3349.867435,-10362.883188,-2294.638420,1532.190996
3349.867772,-10732.986159,-888.247130,1072.533697
3349.868109,-9474.636058,-444.123565,995.924147
3349.868447,-10140.821405,-1702.473667,153.219100
3349.868784,-10362.883188,-518.144159,-1225.752797
3349.869121,-9104.533087,0.000000,-536.266849
3349.869459,-9474.636058,592.164754,1991.848295
3349.869796,-11843.295072,0.000000,1072.533697
3349.870133,-11621.233289,1702.473667,-2987.772442
3349.870471,-9918.759623,1184.329507,-3140.991542
3349.870808,-9770.718434,-1184.329507,-229.828649
3349.871145,-9104.533087,-1924.535449,1149.143247
3349.871483,-7550.100608,-1258.350101,842.705048
3349.871820,-8808.450710,0.000000,2451.505594
3349.872157,-11103.089130,0.000000,1991.848295
3349.872495,-11843.295072,222.061783,0.000000
3349.872832,-10658.965565,592.164754,-153.219100
3349.873169,-9252.574275,0.000000,1532.190996
3349.873506,-9474.636058,1184.329507,1838.629195
3349.873844,-9474.636058,962.267725,1225.752797
3349.874181,-10066.800811,296.082377,1915.238745
3349.874518,-10140.821405,-148.041188,995.924147
3349.874856,-9252.574275,1036.288319,-76.609550
3349.875193,-9326.594869,1480.411884,0.000000
3349.875530,-9474.636058,0.000000,-153.219100
3349.875868,-10510.924376,444.123565,-459.657299
3349.876205,-9548.656652,444.123565,-919.314598
3349.876542,-9548.656652,-592.164754,306.438199
3349.876879,-12583.501014,-740.205942,536.266849
3349.877217,-10807.006753,-1628.453072,-1838.629195
3349.877554,-9178.553681,-1776.494261,-1838.629195
3349.877891,-9326.594869,-2664.741391,-842.705048
3349.878229,-8882.471304,-3404.947333,-1378.971896
3349.878566,-9252.574275,-2664.741391,-306.438199
3349.878903,-10584.944971,-2368.659014,383.047749
3349.879240,-11547.212695,-2516.700203,229.828649
3349.879578,-11843.295072,-1406.391290,-612.876398
3349.879915,-10436.903782,-1776.494261,-229.828649
3349.880252,-9844.739029,-1776.494261,919.314598
3349.880590,-10066.800811,-1628.453072,1378.971896
3349.880927,-9770.718434,-666.185348,1762.019645
3349.881264,-10436.903782,-1406.391290,2911.162892
3349.881602,-11399.171507,-740.205942,2451.505594
3349.881939,-10955.047942,0.000000,459.657299
3349.882276,-10066.800811,1184.329507,842.705048
3349.882613,-9252.574275,-370.102971,766.095498
3349.882951,-8808.450710,518.144159,536.266849
3349.883288,-8142.265362,592.164754,383.047749
3349.883625,-9030.512492,1628.453072,536.266849
3349.883963,-12065.356855,370.102971,919.314598
3349.884300,-11103.089130,1776.494261,-1378.971896
3349.884637,-9696.697840,1628.453072,-1685.410096
3349.884974,-8956.491898,-518.144159,0.000000
3349.885312,-7994.224174,-1110.308913,-306.438199
3349.885649,-7328.038826,-1480.411884,1225.752797
3349.885986,-9030.512492,-1554.432478,2528.115143
3349.886324,-10214.842000,-444.123565,1915.238745
3349.886661,-11695.253884,370.102971,0.000000
3349.886998,-10807.006753,518.144159,459.657299
3349.887336,-10140.821405,222.061783,306.438199
3349.887673,-9918.759623,296.082377,919.314598
3349.888010,-9400.615463,444.123565,1378.971896
3349.888347,-10436.903782,0.000000,2451.505594
3349.888685,-11843.295072,-592.164754,1302.362347
3349.889022,-11177.109724,-222.061783,-766.095498
3349.889359,-9548.656652,-148.041188,-919.314598
3349.889697,-9770.718434,-1480.411884,-229.828649
3349.890034,-8734.430116,-1406.391290,-1762.019645
3349.890371,-7698.141797,-592.164754,-689.485948
3349.890708,-10066.800811,-1258.350101,1072.533697
3349.891046,-12065.356855,-1036.288319,76.609550
3349.891383,-11843.295072,-370.102971,-995.924147
3349.891720,-10510.924376,-296.082377,-1072.533697
3349.892058,-10362.883188,-2442.679609,-1991.848295
3349.892395,-9104.533087,-1850.514855,-1762.019645
3349.892732,-7920.203579,-1776.494261,-766.095498
3349.893070,-9178.553681,-2960.823768,766.095498
3349.893407,-11399.171507,-2072.576638,1149.143247
3349.893744,-11695.253884,592.164754,-842.705048
3349.894081,-10807.006753,0.000000,0.000000
3349.894419,-9918.759623,-1406.391290,919.314598
3349.894756,-9400.615463,370.102971,689.485948
3349.895093,-9030.512492,1110.308913,2681.334243
3349.895431,-9770.718434,1184.329507,2757.943793
3349.895768,-12065.356855,1480.411884,2374.896044
3349.896105,-12139.377449,2442.679609,-689.485948
3349.896442,-10066.800811,2220.617826,-459.657299
3349.896780,-9622.677246,888.247130,229.828649
3349.897117,-8290.306550,592.164754,76.609550
3349.897454,-7624.121203,1110.308913,0.000000
3349.897792,-8808.450710,666.185348,1149.143247
3349.898129,-10881.027347,370.102971,0.000000
3349.898466,-11399.171507,1406.391290,-1608.800546
3349.898804,-10436.903782,888.247130,-1455.581446
3349.899141,-9770.718434,222.061783,-1532.190996
3349.899478,-8956.491898,-1184.329507,-1915.238745
3349.899815,-7476.080014,-1554.432478,0.000000
3349.900153,-8956.491898,-2368.659014,1915.238745
3349.900490,-12657.521608,-2738.761985,1838.629195
3349.900827,-11029.068536,-1480.411884,-919.314598
3349.901165,-9622.677246,-1036.288319,-536.266849
3349.901502,-10584.944971,-1850.514855,1378.971896
3349.901839,-10066.800811,-2368.659014,689.485948
3349.902176,-8364.327145,-814.226536,766.095498
3349.902514,-9770.718434,-1406.391290,2604.724693
3349.902851,-12287.418637,-592.164754,2451.505594
3349.903188,-11991.336260,-296.082377,0.000000
3349.903526,-11695.253884,814.226536,0.000000
3349.903863,-9622.677246,-1850.514855,0.000000
3349.904200,-8808.450710,-1036.288319,-612.876398
3349.904538,-7624.121203,-1036.288319,536.266849
3349.904875,-9622.677246,-1850.514855,1532.190996
3349.905212,-11843.295072,-1628.453072,536.266849
3349.905549,-11547.212695,-296.082377,-1532.190996
3349.905887,-10362.883188,592.164754,-1072.533697
3349.906224,-9474.636058,-370.102971,-919.314598
3349.906561,-8512.368333,-1184.329507,-919.314598
3349.906899,-7772.162391,-592.164754,306.438199
3349.907236,-9770.718434,-1184.329507,1838.629195
3349.907573,-11991.336260,-962.267725,1072.533697
3349.907910,-11103.089130,740.205942,0.000000
3349.908248,-9992.780217,0.000000,842.705048
3349.908585,-9696.697840,370.102971,2068.457845
3349.908922,-8512.368333,1036.288319,689.485948
3349.909260,-8216.285956,2146.597232,1915.238745
3349.909597,-11177.109724,1406.391290,2987.772442
3349.909934,-11843.295072,814.226536,919.314598
3349.910272,-11251.130318,2368.659014,229.828649
3349.910609,-10362.883188,2220.617826,1838.629195
3349.910946,-10214.842000,1406.391290,229.828649
3349.911283,-8586.388927,888.247130,-1915.238745
3349.911621,-7105.977043,296.082377,-995.924147
3349.911958,-9400.615463,-1480.411884,995.924147
3349.912295,-12065.356855,-814.226536,0.000000
3349.912633,-10955.047942,-370.102971,-2528.115143
3349.912970,-9400.615463,-444.123565,-1608.800546
3349.913307,-9918.759623,-2072.576638,-919.314598
3349.913644,-8956.491898,-2368.659014,-1532.190996
3349.913982,-8068.244768,-2516.700203,76.609550
3349.914319,-10510.924376,-3256.906145,2374.896044
3349.914656,-12361.439231,-2812.782580,2145.067394
3349.914994,-11843.295072,-1628.453072,153.219100
3349.915331,-11251.130318,-1850.514855,766.095498
3349.915668,-10214.842000,-2664.741391,1532.190996
3349.916006,-9030.512492,-1480.411884,153.219100
3349.916343,-7994.224174,-370.102971,689.485948
3349.916680,-9844.739029,-888.247130,1608.800546
3349.917017,-11991.336260,-222.061783,689.485948
3349.917355,-12139.377449,1036.288319,-1072.533697
3349.917692,-10881.027347,1850.514855,76.609550
3349.918029,-9844.739029,1258.350101,919.314598
3349.918367,-9326.594869,888.247130,76.609550
3349.918704,-7846.182985,1110.308913,536.266849
3349.919041,-9400.615463,518.144159,1991.848295
3349.919378,-11843.295072,518.144159,2068.457845
3349.919716,-10807.006753,666.185348,-1532.190996
3349.920053,-9548.656652,1036.288319,-1378.971896
3349.920390,-9326.594869,1110.308913,-766.095498
3349.920728,-8364.327145,222.061783,-1991.848295
3349.921065,-7105.977043,1480.411884,-842.705048
3349.921402,-9474.636058,222.061783,536.266849
3349.921740,-11399.171507,222.061783,536.266849
3349.922077,-11177.109724,1184.329507,-689.485948
3349.922414,-10288.862594,1406.391290,1302.362347
3349.922751,-10362.883188,814.226536,1072.533697
3349.923089,-8586.388927,518.144159,0.000000
3349.923426,-8512.368333,1480.411884,1762.019645
3349.923763,-10732.986159,222.061783,1915.238745
3349.924101,-12731.542202,0.000000,766.095498
3349.924438,-11251.130318,888.247130,0.000000
3349.924775,-10510.924376,1258.350101,0.000000
3349.925112,-10658.965565,-370.102971,-229.828649
3349.925450,-9474.636058,-666.185348,-1608.800546
3349.925787,-7105.977043,0.000000,-766.095498
3349.926124,-9622.677246,-1702.473667,1149.143247
3349.926462,-11473.192101,-1702.473667,0.000000
3349.926799,-11769.274478,-814.226536,-1302.362347
3349.927136,-11399.171507,-1702.473667,-459.657299
3349.927474,-10807.006753,-2516.700203,-995.924147
3349.927811,-8956.491898,-2368.659014,-1072.533697
3349.928148,-7772.162391,-2664.741391,995.924147
3349.928485,-8956.491898,-3552.988522,1608.800546
3349.928823,-11103.089130,-2368.659014,1149.143247
3349.929160,-11399.171507,-814.226536,612.876398
3349.929497,-11325.150913,-962.267725,842.705048
3349.929835,-10732.986159,-888.247130,1225.752797
3349.930172,-9400.615463,148.041188,383.047749
3349.930509,-8734.430116,370.102971,2374.896044
3349.930846,-9844.739029,0.000000,2987.772442
3349.931184,-11325.150913,1036.288319,2987.772442
3349.931521,-10881.027347,2072.576638,1225.752797
3349.931858,-10510.924376,2146.597232,1225.752797
3349.932196,-10881.027347,1628.453072,153.219100
3349.932533,-9104.533087,1184.329507,-383.047749
3349.932870,-6735.874072,1850.514855,0.000000
3349.933208,-8512.368333,74.020594,1838.629195
3349.933545,-10881.027347,1184.329507,766.095498
3349.933882,-10658.965565,1628.453072,-1608.800546
3349.934219,-10658.965565,1702.473667,-1149.143247
3349.934557,-10362.883188,148.041188,-1915.238745
3349.934894,-9326.594869,-592.164754,-1455.581446
3349.935231,-7920.203579,-814.226536,0.000000
3349.935569,-9252.574275,-2146.597232,766.095498
3349.935906,-10807.006753,-1184.329507,1225.752797
3349.936243,-10288.862594,-666.185348,-229.828649
3349.936580,-10658.965565,-1998.556043,229.828649
3349.936918,-11103.089130,-2072.576638,689.485948
3349.937255,-9326.594869,-2368.659014,0.000000
3349.937592,-8364.327145,-1258.350101,1608.800546
3349.937930,-9918.759623,-1702.473667,2604.724693
3349.938267,-11547.212695,-666.185348,1608.800546
3349.938604,-11769.274478,0.000000,0.000000
3349.938942,-11991.336260,222.061783,0.000000
3349.939279,-10955.047942,-962.267725,0.000000
3349.939616,-9400.615463,-1036.288319,-689.485948
3349.939953,-8364.327145,-666.185348,306.438199
3349.940291,-9400.615463,-1924.535449,306.438199
3349.940628,-11621.233289,-444.123565,-536.266849
3349.940965,-10955.047942,0.000000,-2221.676944
3349.941303,-10436.903782,-296.082377,-1225.752797
3349.941640,-9770.718434,-740.205942,-612.876398
3349.941977,-9030.512492,-814.226536,-919.314598
3349.942314,-8216.285956,74.020594,612.876398
3349.942652,-9474.636058,-666.185348,2221.676944
3349.942989,-11843.295072,666.185348,2451.505594
3349.943326,-11769.274478,592.164754,766.095498
3349.943664,-11103.089130,1406.391290,536.266849
3349.944001,-10362.883188,444.123565,1225.752797
3349.944338,-8068.244768,666.185348,1225.752797
3349.944676,-7105.977043,1924.535449,1685.410096
3349.945013,-9326.594869,1924.535449,2451.505594
3349.945350,-11473.192101,2590.720797,459.657299
3349.945687,-10881.027347,3404.947333,-1378.971896
3349.946025,-10510.924376,2886.803174,0.000000
3349.946362,-9844.739029,2886.803174,-383.047749
3349.946699,-9030.512492,1480.411884,-1149.143247
3349.947037,-8216.285956,1702.473667,306.438199
3349.947374,-8882.471304,0.000000,0.000000
3349.947711,-9918.759623,-222.061783,-383.047749
3349.948048,-10807.006753,0.000000,-919.314598
3349.948386,-10288.862594,-1480.411884,-995.924147
3349.948723,-10066.800811,-1628.453072,-766.095498
3349.949060,-8808.450710,-1628.453072,-919.314598
3349.949398,-7920.203579,-1184.329507,229.828649
3349.949735,-11029.068536,-3330.926739,1149.143247
3349.950072,-12213.398043,-2368.659014,536.266849
3349.950410,-11177.109724,-962.267725,0.000000
3349.950747,-11325.150913,-2146.597232,1608.800546
3349.951084,-11103.089130,-2220.617826,1608.800546
3349.951421,-9696.697840,-2368.659014,536.266849
3349.951759,-9030.512492,-1036.288319,1532.190996
3349.952096,-9548.656652,-2146.597232,1762.019645
3349.952433,-11103.089130,-888.247130,1455.581446
3349.952771,-10881.027347,666.185348,0.000000
3349.953108,-11029.068536,666.185348,689.485948
3349.953445,-10732.986159,296.082377,-1072.533697
3349.953782,-8660.409521,0.000000,-1225.752797
3349.954120,-8216.285956,0.000000,919.314598
3349.954457,-9326.594869,-370.102971,1991.848295
3349.954794,-11547.212695,666.185348,1072.533697
3349.955132,-10807.006753,888.247130,-1532.190996
3349.955469,-9770.718434,148.041188,-1302.362347
3349.955806,-10436.903782,-296.082377,229.828649
3349.956144,-9622.677246,74.020594,-306.438199
3349.956481,-7328.038826,148.041188,153.219100
3349.956818,-9844.739029,0.000000,1532.190996
3349.957155,-10807.006753,518.144159,0.000000
3349.957493,-9622.677246,1554.432478,-1072.533697
3349.957830,-10732.986159,592.164754,766.095498
3349.958167,-10881.027347,370.102971,0.000000
3349.958505,-8882.471304,518.144159,0.000000
3349.958842,-8290.306550,1258.350101,1455.581446
3349.959179,-10066.800811,0.000000,2374.896044
3349.959516,-11695.253884,518.144159,1149.143247
3349.959854,-10436.903782,888.247130,306.438199
3349.960191,-10510.924376,592.164754,995.924147
3349.960528,-11325.150913,-296.082377,459.657299
3349.960866,-9622.677246,-592.164754,-1838.629195
3349.961203,-7846.182985,-1332.370696,-383.047749
3349.961540,-9252.574275,-1850.514855,1072.533697
3349.961878,-10510.924376,-962.267725,-766.095498
3349.962215,-10288.862594,-370.102971,-2451.505594
3349.962552,-10658.965565,-1998.556043,-2068.457845
3349.962889,-10066.800811,-2886.803174,-1225.752797
3349.963227,-9400.615463,-3108.864956,-1378.971896
3349.963564,-8438.347739,-1628.453072,76.609550
3349.963901,-9770.718434,-3923.091493,1762.019645
3349.964239,-10732.986159,-1554.432478,0.000000
3349.964576,-9918.759623,-1628.453072,-919.314598
3349.964913,-11547.212695,-1406.391290,1455.581446
3349.965250,-10140.821405,-1036.288319,1378.971896
3349.965588,-9474.636058,-222.061783,1608.800546
3349.965925,-9770.718434,592.164754,3370.820191
3349.966262,-10584.944971,518.144159,3064.381992
3349.966600,-11695.253884,1998.556043,1072.533697
3349.966937,-11103.089130,3108.864956,76.609550
3349.967274,-10140.821405,2738.761985,0.000000
3349.967612,-10510.924376,1776.494261,-536.266849
3349.967949,-9178.553681,1776.494261,-1838.629195
3349.968286,-7402.059420,1924.535449,-536.266849
3349.968623,-8956.491898,962.267725,0.000000
3349.968961,-9844.739029,1776.494261,-1455.581446
3349.969298,-9326.594869,2368.659014,-2068.457845
3349.969635,-9844.739029,1480.411884,-306.438199
3349.969973,-11103.089130,-148.041188,-612.876398
3349.970310,-9474.636058,222.061783,-995.924147
3349.970648,-8956.491898,-296.082377,1225.752797
3349.970985,-9548.656652,-1776.494261,1685.410096
3349.971322,-10066.800811,-518.144159,0.000000
3349.971660,-9622.677246,222.061783,-689.485948
3349.971997,-9770.718434,-666.185348,0.000000
3349.972334,-10658.965565,-962.267725,0.000000
3349.972672,-10584.944971,-740.205942,-306.438199
3349.973009,-9400.615463,-296.082377,919.314598
3349.973346,-10807.006753,-518.144159,1838.629195
3349.973684,-11695.253884,740.205942,919.314598
3349.974021,-10732.986159,296.082377,-306.438199
3349.974359,-10436.903782,-592.164754,766.095498
3349.974696,-11029.068536,-962.267725,689.485948
3349.975033,-10510.924376,-1480.411884,459.657299
3349.975371,-8956.491898,-1184.329507,306.438199
3349.975708,-9918.759623,-2960.823768,1149.143247
3349.976045,-10658.965565,-1258.350101,-612.876398
3349.976383,-9770.718434,-222.061783,-2068.457845
3349.976720,-9696.697840,-1924.535449,-1225.752797
3349.977057,-9548.656652,-2368.659014,-306.438199
3349.977395,-9326.594869,-1480.411884,-76.609550
3349.977732,-9400.615463,-1184.329507,1915.238745
3349.978069,-10066.800811,-1998.556043,1608.800546
3349.978407,-10807.006753,-814.226536,1378.971896
3349.978744,-10658.965565,0.000000,459.657299
3349.979082,-9474.636058,-592.164754,689.485948
3349.979419,-9696.697840,-814.226536,2374.896044
3349.979756,-9178.553681,-296.082377,1762.019645
3349.980094,-8512.368333,1184.329507,2528.115143
3349.980431,-11399.171507,888.247130,2451.505594
3349.980768,-12361.439231,2294.638420,459.657299
3349.981106,-10584.944971,2738.761985,-1378.971896
3349.981443,-10362.883188,2146.597232,76.609550
3349.981780,-9474.636058,1036.288319,229.828649
3349.982118,-8216.285956,814.226536,-995.924147
3349.982455,-8808.450710,740.205942,0.000000
3349.982793,-10732.986159,-740.205942,-459.657299
3349.983130,-11103.089130,-518.144159,-2145.067394
3349.983467,-10214.842000,296.082377,-2528.115143
3349.983805,-9252.574275,-1924.535449,-383.047749
3349.984142,-9474.636058,-2886.803174,-612.876398
3349.984479,-9326.594869,-2960.823768,0.000000
3349.984817,-9178.553681,-666.185348,995.924147
3349.985154,-10658.965565,-2886.803174,995.924147
3349.985491,-11769.274478,-2146.597232,-766.095498
3349.985829,-10510.924376,-1628.453072,-689.485948
3349.986166,-10658.965565,-3034.844362,459.657299
3349.986503,-9400.615463,-3182.885551,1072.533697
3349.986841,-8068.244768,-1850.514855,842.705048
3349.987178,-9474.636058,-1110.308913,1838.629195
3349.987516,-12287.418637,-1776.494261,1378.971896
3349.987853,-11991.336260,222.061783,-459.657299
3349.988190,-10807.006753,370.102971,-153.219100
3349.988528,-10510.924376,0.000000,1915.238745
3349.988865,-9030.512492,0.000000,612.876398
3349.989202,-9326.594869,592.164754,383.047749
3349.989540,-10436.903782,814.226536,1455.581446
3349.989877,-11621.233289,-296.082377,689.485948
3349.990214,-12139.377449,1110.308913,-766.095498
3349.990552,-10658.965565,1184.329507,-1455.581446
3349.990889,-9252.574275,148.041188,-1072.533697
3349.991227,-9252.574275,0.000000,-612.876398
3349.991564,-8216.285956,148.041188,-1149.143247
3349.991901,-8216.285956,962.267725,-612.876398
3349.992239,-10881.027347,518.144159,-229.828649
3349.992576,-11029.068536,1702.473667,-1072.533697
3349.992913,-9474.636058,1924.535449,-383.047749
3349.993251,-9474.636058,1036.288319,2145.067394
3349.993588,-10140.821405,222.061783,2451.505594
3349.993925,-8438.347739,370.102971,1838.629195
3349.994263,-9622.677246,444.123565,2528.115143
3349.994600,-11473.192101,592.164754,2528.115143
3349.994937,-11029.068536,962.267725,153.219100
3349.995275,-9992.780217,1332.370696,-612.876398
3349.995612,-9252.574275,370.102971,-689.485948
3349.995950,-8438.347739,962.267725,-1762.019645
3349.996287,-8364.327145,0.000000,-2068.457845
3349.996624,-10214.842000,-592.164754,-306.438199
3349.996962,-11103.089130,-1480.411884,383.047749
3349.997299,-11621.233289,-148.041188,-536.266849
3349.997636,-10658.965565,-222.061783,-459.657299
3349.997974,-10436.903782,-1998.556043,0.000000
3349.998311,-9844.739029,-3182.885551,-306.438199
3349.998648,-8956.491898,-3552.988522,459.657299
3349.998986,-10214.842000,-2516.700203,2374.896044
3349.999323,-11399.171507,-3330.926739,1915.238745
3349.999661,-11473.192101,-2146.597232,-383.047749
3349.999998,-9992.780217,-1110.308913,0.000000
3350.000335,-9992.780217,-1776.494261,1532.190996
3350.000673,-9918.759623,-2738.761985,1455.581446
3350.001010,-8290.306550,-1850.514855,1378.971896
3350.001347,-9178.553681,-666.185348,3677.258390
3350.001685,-11399.171507,-888.247130,3677.258390
3350.002022,-12139.377449,592.164754,1455.581446
3350.002359,-11621.233289,962.267725,919.314598
3350.002697,-10288.862594,296.082377,689.485948
3350.003034,-8808.450710,740.205942,-689.485948
3350.003371,-8068.244768,666.185348,76.609550
3350.003709,-8364.327145,1036.288319,1072.533697
3350.004046,-10732.986159,0.000000,459.657299
3350.004384,-11251.130318,1110.308913,-1991.848295
3350.004721,-10066.800811,1850.514855,-3677.258390
3350.005058,-10214.842000,444.123565,-1378.971896
3350.005396,-8882.471304,-518.144159,-1072.533697
3350.005733,-7179.997637,-592.164754,-612.876398
3350.006070,-9622.677246,-666.185348,1608.800546
3350.006408,-11251.130318,-1184.329507,1072.533697
3350.006745,-11843.295072,-518.144159,-153.219100
3350.007082,-10955.047942,-814.226536,-842.705048
3350.007420,-9770.718434,-1924.535449,689.485948
3350.007757,-9030.512492,-2146.597232,1149.143247
3350.008095,-8290.306550,-1480.411884,995.924147
3350.008432,-8808.450710,-592.164754,1608.800546
3350.008769,-11547.212695,-888.247130,1149.143247
3350.009107,-12583.501014,592.164754,-766.095498
3350.009444,-10955.047942,148.041188,-1762.019645
3350.009781,-10066.800811,-1184.329507,0.000000
3350.010119,-9400.615463,-962.267725,229.828649
3350.010456,-8438.347739,-1480.411884,229.828649
3350.010793,-8734.430116,-1258.350101,995.924147
3350.011131,-11251.130318,-1480.411884,1378.971896
3350.011468,-13101.645173,-814.226536,-536.266849
3350.011805,-11103.089130,0.000000,-2221.676944
3350.012143,-9770.718434,-1036.288319,-1072.533697
3350.012480,-8956.491898,-1406.391290,-1072.533697
3350.012818,-7698.141797,-888.247130,-1455.581446
3350.013155,-8808.450710,-518.144159,1608.800546
3350.013492,-11325.150913,222.061783,1149.143247
3350.013830,-11547.212695,1036.288319,-1149.143247
3350.014167,-11473.192101,1036.288319,76.609550
3350.014504,-10807.006753,-296.082377,1608.800546
3350.014842,-9030.512492,-592.164754,1838.629195
3350.015179,-7846.182985,74.020594,2451.505594
3350.015516,-8142.265362,444.123565,3753.867940
3350.015854,-10436.903782,1110.308913,3217.601092
3350.016191,-11769.274478,2516.700203,-153.219100
3350.016529,-10288.862594,2368.659014,-1991.848295
3350.016866,-10214.842000,2072.576638,-383.047749
3350.017203,-9030.512492,1110.308913,-536.266849
3350.017541,-7624.121203,1332.370696,-842.705048
3350.017878,-8586.388927,962.267725,689.485948
3350.018215,-11473.192101,0.000000,-383.047749
3350.018553,-11917.315666,814.226536,-2374.896044
3350.018890,-10658.965565,666.185348,-2221.676944
3350.019227,-9844.739029,-1110.308913,-459.657299
3350.019565,-9474.636058,-1702.473667,0.000000
3350.019902,-9178.553681,-1850.514855,459.657299
3350.020239,-9548.656652,-1554.432478,1608.800546
3350.020577,-12139.377449,-1110.308913,1685.410096
3350.020914,-12361.439231,-814.226536,-1455.581446
3350.021252,-10881.027347,-666.185348,-1532.190996
3350.021589,-9844.739029,-1924.535449,612.876398
3350.021926,-9252.574275,-2220.617826,0.000000
3350.022264,-8586.388927,-2146.597232,229.828649
3350.022601,-8364.327145,-1924.535449,1838.629195
3350.022938,-10658.965565,-740.205942,1991.848295
3350.023276,-12509.480420,-74.020594,229.828649
3350.023613,-10807.006753,1702.473667,-842.705048
3350.023950,-10288.862594,-888.247130,536.266849
3350.024288,-9474.636058,-962.267725,766.095498
3350.024625,-7254.018232,-222.061783,689.485948
3350.024963,-8512.368333,-592.164754,2451.505594
3350.025300,-11251.130318,-814.226536,2221.676944
3350.025637,-11695.253884,740.205942,-2068.457845
3350.025975,-11103.089130,814.226536,-2145.067394
3350.026312,-9770.718434,-592.164754,-2145.067394
3350.026649,-7846.182985,-2072.576638,-766.095498
3350.026987,-7254.018232,-666.185348,612.876398
3350.027324,-8068.244768,0.000000,1685.410096
3350.027661,-11547.212695,-888.247130,1455.581446
3350.027999,-12583.501014,0.000000,-536.266849
3350.028336,-10288.862594,444.123565,-306.438199
3350.028673,-9918.759623,-444.123565,2145.067394
3350.029011,-9252.574275,-962.267725,2451.505594
3350.029348,-8364.327145,0.000000,2145.067394
3350.029686,-9844.739029,-666.185348,2451.505594
3350.030023,-10955.047942,-962.267725,2451.505594
3350.030360,-10584.944971,148.041188,0.000000
3350.030698,-9844.739029,74.020594,-306.438199
3350.031035,-9326.594869,-444.123565,-383.047749
3350.031372,-9030.512492,-1406.391290,-1149.143247
3350.031710,-7920.203579,-666.185348,0.000000
3350.032047,-9400.615463,-1850.514855,919.314598
3350.032384,-11843.295072,-1332.370696,842.705048
3350.032722,-11621.233289,-740.205942,-1532.190996
3350.033059,-10807.006753,-962.267725,-1302.362347
3350.033397,-10288.862594,-2886.803174,-229.828649
3350.033734,-9622.677246,-2368.659014,306.438199
3350.034071,-9400.615463,-2220.617826,689.485948
3350.034409,-10288.862594,-1480.411884,689.485948
3350.034746,-12287.418637,-888.247130,0.000000
3350.035083,-13175.665768,-740.205942,-1532.190996
3350.035421,-10214.842000,-666.185348,0.000000
3350.035758,-10140.821405,-1924.535449,1378.971896
3350.036095,-9474.636058,0.000000,1225.752797
3350.036433,-7254.018232,74.020594,1072.533697
3350.036770,-9918.759623,74.020594,2834.553343
3350.037107,-11251.130318,0.000000,1838.629195
3350.037445,-11547.212695,888.247130,76.609550
3350.037782,-11177.109724,2072.576638,1149.143247
3350.038120,-8808.450710,888.247130,-842.705048
3350.038457,-8364.327145,1258.350101,-383.047749
3350.038794,-7846.182985,1702.473667,-995.924147
3350.039132,-8734.430116,814.226536,-76.609550
3350.039469,-10658.965565,296.082377,-612.876398
3350.039806,-10362.883188,888.247130,-2298.286494
3350.040144,-9474.636058,2442.679609,-1302.362347
3350.040481,-10214.842000,74.020594,-766.095498
3350.040818,-9844.739029,-296.082377,-842.705048
3350.041156,-9030.512492,-518.144159,0.000000
3350.041493,-9548.656652,222.061783,1455.581446
3350.041831,-11103.089130,296.082377,612.876398
3350.042168,-11843.295072,148.041188,-689.485948
3350.042505,-11325.150913,148.041188,76.609550
3350.042843,-11103.089130,-296.082377,383.047749
3350.043180,-9178.553681,-296.082377,-383.047749
3350.043517,-8290.306550,740.205942,1072.533697
3350.043855,-10362.883188,-1480.411884,3140.991542
3350.044192,-11325.150913,-444.123565,2374.896044
3350.044529,-11547.212695,222.061783,1225.752797
3350.044867,-11177.109724,888.247130,1302.362347
3350.045204,-10584.944971,0.000000,459.657299
3350.045541,-9844.739029,0.000000,-689.485948
3350.045879,-8438.347739,-296.082377,766.095498
3350.046216,-8586.388927,-962.267725,1455.581446
3350.046554,-10436.903782,-666.185348,995.924147
3350.046891,-10807.006753,0.000000,-1991.848295
3350.047228,-9918.759623,222.061783,-2757.943793
3350.047566,-9474.636058,-1554.432478,-1991.848295
3350.047903,-8438.347739,-1480.411884,-306.438199
3350.048240,-7550.100608,-1776.494261,1532.190996
3350.048578,-9178.553681,-1184.329507,3294.210641
3350.048915,-11399.171507,0.000000,1991.848295
3350.049252,-12139.377449,222.061783,-459.657299
3350.049590,-12213.398043,296.082377,1378.971896
3350.049927,-10658.965565,-740.205942,689.485948
3350.050265,-8808.450710,296.082377,689.485948
3350.050602,-8438.347739,444.123565,2298.286494
3350.050939,-9400.615463,148.041188,2374.896044
3350.051277,-11325.150913,962.267725,1685.410096
3350.051614,-12139.377449,1480.411884,0.000000
3350.051951,-10881.027347,1480.411884,-689.485948
3350.052289,-10732.986159,148.041188,-536.266849
3350.052626,-9400.615463,148.041188,306.438199
3350.052963,-7031.956449,222.061783,536.266849
3350.053301,-9474.636058,-962.267725,2298.286494
3350.053638,-11843.295072,0.000000,306.438199
3350.053975,-11695.253884,-1110.308913,-1685.410096
3350.054313,-10436.903782,-888.247130,-1532.190996
3350.054650,-8956.491898,-2812.782580,-1608.800546
3350.054988,-8734.430116,-3182.885551,-766.095498
3350.055325,-7179.997637,-2516.700203,76.609550
3350.055662,-8364.327145,-2664.741391,1302.362347
3350.056000,-10955.047942,-1554.432478,459.657299
3350.056337,-12139.377449,-1776.494261,-1225.752797
3350.056674,-11695.253884,-1702.473667,-536.266849
3350.057012,-9770.718434,-2368.659014,612.876398
3350.057349,-8956.491898,-1332.370696,306.438199
3350.057686,-8290.306550,-962.267725,766.095498
3350.058024,-9252.574275,-1480.411884,1991.848295
3350.058361,-11917.315666,-1184.329507,2298.286494
3350.058699,-13101.645173,-592.164754,612.876398
3350.059036,-10807.006753,1406.391290,842.705048
3350.059373,-10955.047942,0.000000,536.266849
3350.059711,-9474.636058,814.226536,-306.438199
3350.060048,-7476.080014,1332.370696,-842.705048
3350.060385,-9178.553681,296.082377,536.266849
3350.060723,-11251.130318,-74.020594,153.219100
3350.061060,-11103.089130,1184.329507,-1685.410096
3350.061397,-10955.047942,2442.679609,-1608.800546
3350.061735,-10214.842000,148.041188,-689.485948
3350.062072,-8808.450710,888.247130,-842.705048
3350.062409,-7994.224174,740.205942,76.609550
3350.062747,-8364.327145,-444.123565,2068.457845
3350.063084,-10066.800811,-370.102971,1762.019645
3350.063422,-11251.130318,740.205942,1225.752797
3350.063759,-10214.842000,1036.288319,1608.800546
3350.064096,-9622.677246,370.102971,766.095498
3350.064434,-8660.409521,962.267725,689.485948
3350.064771,-7772.162391,2072.576638,153.219100
3350.065108,-9178.553681,518.144159,1608.800546
3350.065446,-10214.842000,1036.288319,919.314598
3350.065783,-10732.986159,1036.288319,-995.924147
3350.066120,-11029.068536,1480.411884,459.657299
3350.066458,-10436.903782,222.061783,536.266849
3350.066795,-9252.574275,0.000000,-306.438199
3350.067133,-8068.244768,-370.102971,306.438199
3350.067470,-9622.677246,-1258.350101,1915.238745
3350.067807,-11621.233289,-666.185348,1762.019645
3350.068145,-12213.398043,-1628.453072,-995.924147
3350.068482,-11251.130318,-444.123565,-383.047749
3350.068819,-10955.047942,-1702.473667,-842.705048
3350.069157,-10066.800811,-1258.350101,-1532.190996
3350.069494,-8734.430116,-1998.556043,-766.095498
3350.069831,-9326.594869,-2516.700203,919.314598
3350.070168,-10955.047942,-1628.453072,536.266849
3350.070506,-11399.171507,-1258.350101,-919.314598
3350.070843,-11251.130318,-370.102971,0.000000
3350.071181,-11251.130318,-1850.514855,459.657299
3350.071518,-10288.862594,-666.185348,689.485948
3350.071855,-7772.162391,0.000000,1991.848295
3350.072193,-9252.574275,-592.164754,3753.867940
3350.072530,-11103.089130,0.000000,3370.820191
3350.072868,-10584.944971,888.247130,306.438199
3350.073205,-10658.965565,2442.679609,612.876398
3350.073543,-10658.965565,814.226536,0.000000
3350.073880,-9104.533087,1036.288319,-383.047749
3350.074218,-7698.141797,1628.453072,-229.828649
3350.074555,-8364.327145,1332.370696,919.314598
3350.074892,-10807.006753,1258.350101,-306.438199
3350.075230,-11251.130318,1850.514855,-1991.848295
3350.075567,-10214.842000,1850.514855,-1149.143247
3350.075905,-9696.697840,0.000000,-383.047749
3350.076242,-9696.697840,-370.102971,-383.047749
3350.076580,-8438.347739,518.144159,536.266849
3350.076917,-9770.718434,-962.267725,2451.505594
3350.077254,-11103.089130,-814.226536,1532.190996
3350.077592,-11251.130318,-296.082377,-536.266849
3350.077929,-10881.027347,148.041188,919.314598
3350.078267,-10807.006753,-1998.556043,536.266849
3350.078604,-8808.450710,-1702.473667,-229.828649
3350.078942,-6735.874072,-1036.288319,842.705048
3350.079279,-8512.368333,-2072.576638,2604.724693
3350.079617,-10881.027347,-1628.453072,1225.752797
3350.079954,-11695.253884,-1258.350101,-153.219100
3350.080291,-10955.047942,-518.144159,0.000000
3350.080629,-9992.780217,-2442.679609,1225.752797
3350.080966,-9326.594869,-1554.432478,612.876398
3350.081304,-8364.327145,-1554.432478,1072.533697
3350.081641,-10362.883188,-2146.597232,2298.286494
3350.081979,-11991.336260,-1480.411884,-76.609550
3350.082316,-11473.192101,-1184.329507,-1991.848295
3350.082653,-10732.986159,-370.102971,-919.314598
3350.082991,-10658.965565,-1184.329507,-842.705048
3350.083328,-10658.965565,-814.226536,-995.924147
3350.083666,-9178.553681,-370.102971,-612.876398
3350.084003,-9918.759623,-1850.514855,689.485948
3350.084341,-11177.109724,-888.247130,766.095498
3350.084678,-10807.006753,814.226536,-766.095498
3350.085016,-10510.924376,148.041188,1455.581446
3350.085353,-10288.862594,-740.205942,766.095498
3350.085690,-8216.285956,296.082377,459.657299
3350.086028,-8734.430116,1480.411884,1991.848295
3350.086365,-9696.697840,518.144159,2298.286494
3350.086703,-10584.944971,740.205942,1072.533697
3350.087040,-10658.965565,1850.514855,-76.609550
3350.087378,-9252.574275,3108.864956,1072.533697
3350.087715,-9770.718434,1110.308913,842.705048
3350.088052,-9252.574275,1110.308913,-689.485948
3350.088390,-6883.915261,1036.288319,-1149.143247
3350.088727,-9548.656652,518.144159,229.828649
3350.089065,-10807.006753,962.267725,-766.095498
3350.089402,-10362.883188,666.185348,-2528.115143
3350.089740,-10214.842000,1036.288319,-1378.971896
3350.090077,-10510.924376,-592.164754,-1302.362347
3350.090415,-9622.677246,-740.205942,-995.924147
3350.090752,-9326.594869,-814.226536,612.876398
3350.091089,-10362.883188,-1628.453072,2298.286494
3350.091427,-11769.274478,-1480.411884,1378.971896
3350.091764,-10732.986159,-888.247130,0.000000
3350.092102,-11251.130318,-592.164754,1455.581446
3350.092439,-11399.171507,-1628.453072,2298.286494
3350.092777,-10510.924376,-1110.308913,459.657299
3350.093114,-8882.471304,-518.144159,1302.362347
3350.093451,-10584.944971,-814.226536,1915.238745
3350.093789,-11177.109724,296.082377,995.924147
3350.094126,-10584.944971,592.164754,76.609550
3350.094464,-9474.636058,444.123565,536.266849
3350.094801,-10140.821405,-518.144159,1225.752797
3350.095139,-9770.718434,0.000000,1302.362347
3350.095476,-8068.244768,74.020594,612.876398
3350.095814,-9992.780217,-444.123565,1455.581446
3350.096151,-11103.089130,444.123565,-383.047749
3350.096488,-9474.636058,592.164754,-1608.800546
3350.096826,-9474.636058,962.267725,-383.047749
3350.097163,-9474.636058,-666.185348,-919.314598
3350.097501,-8364.327145,518.144159,-1225.752797
3350.097838,-9104.533087,740.205942,0.000000
3350.098176,-10362.883188,-592.164754,842.705048
3350.098513,-10881.027347,444.123565,-76.609550
3350.098850,-9844.739029,814.226536,-459.657299
3350.099188,-10140.821405,222.061783,2145.067394
3350.099525,-10140.821405,0.000000,2451.505594
3350.099863,-9844.739029,1110.308913,2221.676944
3350.100200,-9992.780217,1850.514855,1762.019645
3350.100538,-10955.047942,1332.370696,1302.362347
3350.100875,-10955.047942,1406.391290,-76.609550
3350.101213,-9770.718434,-370.102971,-766.095498
3350.101550,-8734.430116,222.061783,153.219100
3350.101887,-9474.636058,-370.102971,229.828649
3350.102225,-9252.574275,-296.082377,-536.266849
3350.102562,-8586.388927,-1036.288319,-842.705048
3350.102900,-10584.944971,-1850.514855,-612.876398
3350.103237,-10881.027347,-2368.659014,-1378.971896
3350.103575,-10140.821405,-1924.535449,-1302.362347
3350.103912,-9770.718434,-3034.844362,842.705048
3350.104249,-9474.636058,-3404.947333,612.876398
3350.104587,-9104.533087,-2960.823768,-459.657299
3350.104924,-9918.759623,-2368.659014,536.266849
3350.105262,-10955.047942,-3182.885551,919.314598
3350.105599,-12065.356855,-2590.720797,0.000000
3350.105937,-11547.212695,-2146.597232,306.438199
3350.106274,-10732.986159,-1258.350101,536.266849
3350.106612,-10066.800811,-1480.411884,995.924147
3350.106949,-9992.780217,-222.061783,1149.143247
3350.107286,-9770.718434,444.123565,1685.410096
3350.107624,-11177.109724,-148.041188,1685.410096
3350.107961,-11547.212695,592.164754,459.657299
3350.108299,-10214.842000,1110.308913,-536.266849
3350.108636,-10214.842000,1850.514855,689.485948
3350.108974,-9992.780217,1924.535449,0.000000
3350.109311,-9252.574275,2146.597232,-995.924147
3350.109648,-8956.491898,1480.411884,-153.219100
3350.109986,-9548.656652,740.205942,459.657299
3350.110323,-10214.842000,1776.494261,-459.657299
3350.110661,-10214.842000,1702.473667,-1762.019645
3350.110998,-8512.368333,1184.329507,-2068.457845
3350.111336,-7920.203579,296.082377,-1608.800546
3350.111673,-7994.224174,666.185348,-995.924147
3350.112011,-7920.203579,0.000000,459.657299
3350.112348,-10436.903782,-74.020594,1532.190996
3350.112685,-11769.274478,222.061783,689.485948
3350.113023,-10510.924376,222.061783,0.000000
3350.113360,-9696.697840,-296.082377,1072.533697
3350.113698,-9474.636058,-222.061783,1532.190996
3350.114035,-9696.697840,-666.185348,1149.143247
3350.114373,-8734.430116,-222.061783,1072.533697
3350.114710,-10288.862594,-518.144159,2145.067394
3350.115047,-12435.459826,0.000000,1225.752797
3350.115385,-11547.212695,0.000000,0.000000
3350.115722,-10584.944971,0.000000,1072.533697
3350.116060,-10362.883188,-444.123565,995.924147
3350.116397,-9252.574275,-592.164754,0.000000
3350.116735,-9918.759623,-1332.370696,612.876398
3350.117072,-10807.006753,-3034.844362,689.485948
3350.117410,-10732.986159,-1776.494261,-229.828649
3350.117747,-11621.233289,-1480.411884,-536.266849
3350.118084,-10881.027347,-1110.308913,-995.924147
3350.118422,-9474.636058,-2368.659014,-1149.143247
3350.118759,-8068.244768,-2442.679609,-1225.752797
3350.119097,-7624.121203,-2738.761985,459.657299
3350.119434,-10436.903782,-3182.885551,2604.724693
3350.119772,-11399.171507,-1554.432478,1225.752797
3350.120109,-10066.800811,-518.144159,459.657299
3350.120446,-10881.027347,-666.185348,1608.800546
3350.120784,-10140.821405,0.000000,842.705048
3350.121121,-8808.450710,592.164754,536.266849
3350.121459,-9104.533087,1184.329507,2145.067394
3350.121796,-10436.903782,1110.308913,2528.115143
3350.122134,-11621.233289,1850.514855,459.657299
3350.122471,-10510.924376,2590.720797,-1225.752797
3350.122809,-9770.718434,2146.597232,0.000000
3350.123146,-9474.636058,1406.391290,0.000000
3350.123483,-8438.347739,2442.679609,-1532.190996
3350.123821,-8882.471304,2220.617826,0.000000
3350.124158,-10732.986159,888.247130,153.219100
3350.124496,-11843.295072,888.247130,-1532.190996
3350.124833,-11251.130318,1554.432478,-2451.505594
3350.125171,-9770.718434,222.061783,-2068.457845
3350.125508,-8808.450710,-1406.391290,-766.095498
3350.125845,-7624.121203,-1776.494261,76.609550
3350.126183,-7772.162391,-1702.473667,1149.143247
3350.126520,-10140.821405,-2590.720797,1225.752797
3350.126858,-11399.171507,-1702.473667,-612.876398
3350.127195,-10955.047942,-1036.288319,-1072.533697
3350.127533,-10732.986159,-1702.473667,766.095498
3350.127870,-9622.677246,-1998.556043,1762.019645
3350.128208,-8512.368333,-2368.659014,995.924147
3350.128545,-8956.491898,-1850.514855,2145.067394
3350.128882,-11621.233289,-2072.576638,2528.115143
3350.129220,-11991.336260,-1628.453072,689.485948
3350.129557,-10732.986159,-740.205942,0.000000
3350.129895,-9844.739029,-592.164754,459.657299
3350.130232,-10288.862594,-888.247130,612.876398
3350.130570,-9474.636058,-592.164754,0.000000
3350.130907,-8660.409521,-962.267725,306.438199
3350.131244,-10955.047942,-1406.391290,1072.533697
3350.131582,-13101.645173,-666.185348,-459.657299
3350.131919,-10362.883188,296.082377,-2145.067394
3350.132257,-8956.491898,-518.144159,-1378.971896
3350.132594,-9400.615463,-1628.453072,306.438199
3350.132932,-9178.553681,-1554.432478,-459.657299
3350.133269,-8586.388927,-666.185348,842.705048
3350.133607,-10436.903782,-888.247130,2145.067394
3350.133944,-11695.253884,-740.205942,1225.752797
3350.134281,-9548.656652,1036.288319,-76.609550
3350.134619,-10510.924376,1036.288319,919.314598
3350.134956,-10214.842000,518.144159,689.485948
3350.135294,-7550.100608,1702.473667,229.828649
3350.135631,-8660.409521,1702.473667,1991.848295
3350.135969,-11103.089130,1702.473667,2374.896044
3350.136306,-11843.295072,2294.638420,-383.047749
3350.136643,-11103.089130,2368.659014,-1532.190996
3350.136981,-9548.656652,888.247130,0.000000
3350.137318,-9104.533087,592.164754,536.266849
3350.137656,-8364.327145,518.144159,-306.438199
3350.137993,-8438.347739,592.164754,1149.143247
3350.138331,-11251.130318,-518.144159,1762.019645
3350.138668,-12065.356855,370.102971,-919.314598
3350.139006,-10584.944971,1406.391290,-3064.381992
3350.139343,-10658.965565,-666.185348,-1608.800546
3350.139680,-9770.718434,-1998.556043,-1608.800546
3350.140018,-8068.244768,-2368.659014,-1378.971896
3350.140355,-8290.306550,-1406.391290,842.705048
3350.140693,-11029.068536,-2812.782580,1915.238745
3350.141030,-12139.377449,-1702.473667,-766.095498
3350.141368,-11843.295072,-666.185348,-919.314598
3350.141705,-11251.130318,-1924.535449,536.266849
3350.142042,-9770.718434,-1776.494261,1225.752797
3350.142380,-9030.512492,-1406.391290,1455.581446
3350.142717,-8882.471304,-444.123565,2528.115143
3350.143055,-10214.842000,-962.267725,2451.505594
3350.143392,-12065.356855,74.020594,1225.752797
3350.143730,-11029.068536,1406.391290,-306.438199
3350.144067,-10732.986159,518.144159,0.000000
3350.144405,-10510.924376,0.000000,0.000000
3350.144742,-7698.141797,1480.411884,-1455.581446
3350.145079,-7698.141797,222.061783,229.828649
3350.145417,-10066.800811,-370.102971,1225.752797
3350.145754,-10510.924376,0.000000,-689.485948
3350.146092,-10214.842000,1332.370696,-1302.362347
3350.146429,-9474.636058,148.041188,-536.266849
3350.146767,-9178.553681,-962.267725,76.609550
3350.147104,-8068.244768,-592.164754,153.219100
3350.147441,-8364.327145,-370.102971,2298.286494
3350.147779,-11029.068536,-222.061783,2757.943793
3350.148116,-12509.480420,0.000000,76.609550
3350.148454,-11843.295072,1702.473667,-1225.752797
3350.148791,-10436.903782,-592.164754,-1455.581446
3350.149129,-9548.656652,-962.267725,-689.485948
3350.149466,-7772.162391,-814.226536,-153.219100
3350.149804,-7328.038826,-1036.288319,2298.286494
3350.150141,-10066.800811,-296.082377,2834.553343
3350.150478,-13027.624579,-444.123565,842.705048
3350.150816,-12287.418637,814.226536,306.438199
3350.151153,-11325.150913,-592.164754,76.609550
3350.151491,-10066.800811,-962.267725,153.219100
3350.151828,-7920.203579,-962.267725,-76.609550
3350.152166,-7920.203579,-1628.453072,689.485948
3350.152503,-10140.821405,-2664.741391,1302.362347
3350.152840,-11399.171507,-1406.391290,-1455.581446
3350.153178,-11251.130318,-444.123565,-2221.676944
3350.153515,-11103.089130,-2220.617826,-2221.676944
3350.153853,-9474.636058,-2294.638420,-1991.848295
3350.154190,-7846.182985,-2738.761985,-1532.190996
3350.154528,-8216.285956,-2368.659014,1608.800546
3350.154865,-10214.842000,-2294.638420,2145.067394
3350.155203,-12065.356855,-1332.370696,459.657299
3350.155540,-12139.377449,-518.144159,229.828649
3350.155877,-11325.150913,-1036.288319,995.924147
3350.156215,-9992.780217,-370.102971,1378.971896
3350.156552,-8364.327145,0.000000,1915.238745
3350.156890,-9252.574275,222.061783,3677.258390
3350.157227,-11251.130318,1406.391290,3370.820191
3350.157565,-11769.274478,3256.906145,229.828649
3350.157902,-11695.253884,3849.070898,-689.485948
3350.158239,-10732.986159,2072.576638,-612.876398
3350.158577,-9400.615463,1776.494261,-1072.533697
3350.158914,-7254.018232,2516.700203,-1685.410096
3350.159252,-7698.141797,2072.576638,-76.609550
3350.159589,-9474.636058,1628.453072,-842.705048
3350.159927,-10881.027347,1776.494261,-2451.505594
3350.160264,-10807.006753,2590.720797,-2528.115143
3350.160602,-10214.842000,-222.061783,-1302.362347
3350.160939,-9030.512492,-1406.391290,-153.219100
3350.161276,-7031.956449,-1776.494261,689.485948
3350.161614,-7994.224174,-1258.350101,2681.334243
3350.161951,-9844.739029,-1480.411884,1532.190996
3350.162289,-11251.130318,-1332.370696,-383.047749
3350.162626,-11177.109724,-592.164754,-536.266849
3350.162964,-10584.944971,-1628.453072,0.000000
3350.163301,-9992.780217,-1480.411884,689.485948
3350.163638,-8290.306550,-444.123565,76.609550
3350.163976,-9178.553681,-1036.288319,1762.019645
3350.164313,-11399.171507,-888.247130,2374.896044
3350.164651,-11991.336260,0.000000,536.266849
3350.164988,-11769.274478,0.000000,306.438199
3350.165326,-11621.233289,-1480.411884,153.219100
3350.165663,-9696.697840,-1406.391290,0.000000
3350.166001,-8142.265362,-666.185348,76.609550
3350.166338,-8660.409521,-740.205942,842.705048
3350.166675,-10658.965565,-1110.308913,766.095498
3350.167013,-12213.398043,0.000000,-229.828649
3350.167350,-11251.130318,518.144159,-1762.019645
3350.167688,-10955.047942,-1406.391290,-2221.676944
3350.168025,-9844.739029,-1702.473667,-1149.143247
3350.168363,-7179.997637,-1554.432478,-1225.752797
3350.168700,-7550.100608,-1480.411884,1302.362347
3350.169037,-9474.636058,-814.226536,2528.115143
3350.169375,-11843.295072,-518.144159,919.314598
3350.169712,-11769.274478,1036.288319,995.924147
3350.170050,-10732.986159,-296.082377,919.314598
3350.170387,-9400.615463,0.000000,1072.533697
3350.170725,-7624.121203,222.061783,1838.629195
3350.171062,-8586.388927,518.144159,3140.991542
3350.171399,-10658.965565,444.123565,2911.162892
3350.171737,-10658.965565,1776.494261,383.047749
3350.172074,-10955.047942,2442.679609,-306.438199
3350.172412,-11177.109724,444.123565,-536.266849
3350.172749,-9252.574275,1036.288319,-383.047749
3350.173086,-8068.244768,148.041188,-1225.752797
3350.173424,-8956.491898,-592.164754,689.485948
3350.173761,-9844.739029,-444.123565,995.924147
3350.174098,-11695.253884,-814.226536,0.000000
3350.174436,-10362.883188,592.164754,-1378.971896
3350.174773,-10955.047942,-740.205942,-1762.019645
3350.175110,-10362.883188,-1702.473667,-2221.676944
3350.175448,-8216.285956,-2590.720797,-2451.505594
3350.175785,-9252.574275,-2590.720797,1302.362347
3350.176122,-11251.130318,-2146.597232,2068.457845
3350.176460,-11029.068536,-1628.453072,229.828649
3350.176797,-11843.295072,74.020594,0.000000
3350.177134,-11547.212695,-1258.350101,-995.924147
3350.177472,-9622.677246,-1184.329507,-689.485948
3350.177809,-8438.347739,-1258.350101,153.219100
3350.178147,-8438.347739,-1184.329507,2221.676944
3350.178484,-9844.739029,-1184.329507,2911.162892
3350.178821,-11621.233289,148.041188,1225.752797
3350.179159,-10732.986159,888.247130,76.609550
3350.179496,-10584.944971,0.000000,-229.828649
3350.179833,-9770.718434,222.061783,-306.438199
3350.180171,-8364.327145,814.226536,-1225.752797
3350.180508,-8956.491898,0.000000,0.000000
3350.180845,-9770.718434,148.041188,-306.438199
3350.181183,-9548.656652,444.123565,-1685.410096
3350.181520,-9844.739029,1850.514855,-1149.143247
3350.181857,-10214.842000,74.020594,-536.266849
3350.182195,-9622.677246,0.000000,-1225.752797
3350.182532,-8364.327145,0.000000,0.000000
3350.182869,-9326.594869,370.102971,1838.629195
3350.183207,-10807.006753,0.000000,1991.848295
3350.183544,-11177.109724,888.247130,-229.828649
3350.183882,-10658.965565,370.102971,995.924147
3350.184219,-11103.089130,-592.164754,1915.238745
3350.184556,-9844.739029,-222.061783,1762.019645
3350.184894,-8660.409521,370.102971,1225.752797
3350.185231,-8660.409521,148.041188,1915.238745
3350.185568,-10436.903782,296.082377,1762.019645
3350.185906,-11177.109724,518.144159,995.924147
3350.186243,-9992.780217,1628.453072,0.000000
3350.186580,-10288.862594,-740.205942,0.000000
3350.186918,-10436.903782,-592.164754,-76.609550
3350.187255,-7920.203579,296.082377,-1149.143247
3350.187592,-8956.491898,-148.041188,842.705048
3350.187930,-11251.130318,-814.226536,306.438199
3350.188267,-10732.986159,-814.226536,-1915.238745
3350.188605,-10658.965565,0.000000,-1532.190996
3350.188942,-10214.842000,-2368.659014,-612.876398
3350.189279,-9474.636058,-1628.453072,-229.828649
3350.189617,-9400.615463,-1776.494261,0.000000
3350.189954,-9918.759623,-1628.453072,1149.143247
3350.190291,-10881.027347,-666.185348,1072.533697
3350.190629,-11251.130318,-148.041188,-536.266849
3350.190966,-10288.862594,0.000000,0.000000
3350.191303,-11177.109724,-1554.432478,919.314598
3350.191641,-11029.068536,-740.205942,1302.362347
3350.191978,-8734.430116,0.000000,995.924147
3350.192315,-9622.677246,962.267725,2451.505594
3350.192653,-11325.150913,518.144159,1685.410096
3350.192990,-11325.150913,1110.308913,-842.705048
3350.193327,-9992.780217,1258.350101,0.000000
3350.193665,-9548.656652,888.247130,689.485948
3350.194002,-9770.718434,148.041188,-153.219100
3350.194340,-7402.059420,1110.308913,-995.924147
3350.194677,-8956.491898,666.185348,0.000000
3350.195014,-11325.150913,0.000000,383.047749
3350.195352,-10214.842000,0.000000,-1685.410096
3350.195689,-9400.615463,740.205942,-1302.362347
3350.196026,-9104.533087,-1184.329507,-919.314598
3350.196364,-9178.553681,-2072.576638,-995.924147
3350.196701,-8586.388927,-2368.659014,0.000000
3350.197038,-8882.471304,-3034.844362,2068.457845
3350.197376,-10140.821405,-1702.473667,1532.190996
3350.197713,-11177.109724,-1702.473667,306.438199
3350.198050,-10807.006753,296.082377,76.609550
3350.198388,-11399.171507,-1776.494261,1149.143247
3350.198725,-11029.068536,-222.061783,919.314598
3350.199062,-9770.718434,0.000000,76.609550
3350.199400,-10881.027347,-888.247130,1302.362347
3350.199737,-11177.109724,-888.247130,842.705048
3350.200075,-10584.944971,0.000000,-766.095498
3350.200412,-9992.780217,666.185348,-153.219100
3350.200749,-9770.718434,-888.247130,229.828649
3350.201087,-10214.842000,-740.205942,0.000000
3350.201424,-9474.636058,148.041188,0.000000
3350.201761,-10362.883188,296.082377,1378.971896
3350.202099,-11695.253884,222.061783,153.219100
3350.202436,-10807.006753,814.226536,-2145.067394
3350.202773,-9474.636058,814.226536,-1378.971896
3350.203111,-9326.594869,-962.267725,0.000000
3350.203448,-9326.594869,-740.205942,-919.314598
3350.203785,-8438.347739,-1184.329507,0.000000
3350.204123,-8882.471304,-518.144159,2068.457845
3350.204460,-11399.171507,-444.123565,1532.190996
3350.204798,-10436.903782,370.102971,153.219100
3350.205135,-9474.636058,518.144159,689.485948
3350.205472,-10658.965565,-444.123565,1915.238745
3350.205810,-9844.739029,370.102971,1838.629195
3350.206147,-8216.285956,1332.370696,1225.752797
3350.206484,-9548.656652,962.267725,3370.820191
3350.206822,-10732.986159,1406.391290,1685.410096
3350.207159,-10658.965565,1776.494261,-995.924147
3350.207496,-10955.047942,2294.638420,229.828649
3350.207834,-10658.965565,814.226536,612.876398
3350.208171,-9992.780217,740.205942,0.000000
3350.208508,-9104.533087,666.185348,0.000000
3350.208846,-10140.821405,148.041188,1532.190996
3350.209183,-11621.233289,0.000000,459.657299
3350.209520,-11177.109724,296.082377,-1608.800546
3350.209858,-9696.697840,370.102971,-2451.505594
3350.210195,-10732.986159,-962.267725,-995.924147
3350.210533,-9844.739029,-1110.308913,-1302.362347
3350.210870,-8216.285956,-1480.411884,-1532.190996
3350.211207,-9474.636058,-2442.679609,919.314598
3350.211545,-10362.883188,-2368.659014,536.266849
3350.211882,-10436.903782,-2072.576638,-536.266849
3350.212219,-10362.883188,-1480.411884,1685.410096
3350.212557,-10584.944971,-2664.741391,3294.210641
3350.212894,-9844.739029,-1554.432478,1532.190996
3350.213231,-8290.306550,-666.185348,842.705048
3350.213569,-9844.739029,-296.082377,1838.629195
3350.213906,-10955.047942,-1258.350101,1302.362347
3350.214243,-10066.800811,518.144159,-689.485948
3350.214581,-10140.821405,962.267725,153.219100
3350.214918,-11399.171507,74.020594,1072.533697
3350.215256,-9918.759623,666.185348,-1532.190996
3350.215593,-8882.471304,1110.308913,-995.924147
3350.215930,-9104.533087,888.247130,612.876398
3350.216268,-11621.233289,962.267725,-229.828649
3350.216605,-11399.171507,1184.329507,-2374.896044
3350.216942,-10362.883188,1036.288319,-1225.752797
3350.217280,-10436.903782,-814.226536,0.000000
3350.217617,-9548.656652,-518.144159,0.000000
3350.217954,-8512.368333,370.102971,1149.143247
3350.218292,-9696.697840,-666.185348,2068.457845
3350.218629,-11251.130318,-296.082377,842.705048
3350.218966,-10140.821405,592.164754,-766.095498
3350.219304,-9844.739029,296.082377,612.876398
3350.219641,-10658.965565,-1036.288319,1378.971896
3350.219978,-9400.615463,-888.247130,536.266849
3350.220316,-8142.265362,222.061783,919.314598
3350.220653,-9474.636058,-1258.350101,2834.553343
3350.220991,-9992.780217,-1258.350101,1915.238745
3350.221328,-10288.862594,-222.061783,229.828649
3350.221665,-10288.862594,0.000000,1225.752797
3350.222003,-10584.944971,-592.164754,612.876398
3350.222340,-10140.821405,-740.205942,0.000000
3350.222677,-8956.491898,-518.144159,76.609550
3350.223015,-9844.739029,-592.164754,0.000000
3350.223352,-11325.150913,-1332.370696,0.000000
3350.223689,-10732.986159,-148.041188,-2145.067394
3350.224027,-10584.944971,-740.205942,-1608.800546
3350.224364,-10955.047942,-1924.535449,-612.876398
3350.224701,-9474.636058,-1332.370696,-1225.752797
3350.225039,-9326.594869,-1998.556043,995.924147
3350.225376,-11177.109724,-1924.535449,2451.505594
3350.225713,-11843.295072,-1184.329507,536.266849
3350.226051,-11473.192101,148.041188,-689.485948
3350.226388,-10584.944971,444.123565,-459.657299
3350.226726,-10436.903782,-888.247130,536.266849
3350.227063,-10214.842000,-74.020594,995.924147
3350.227400,-8660.409521,888.247130,1762.019645
3350.227738,-9178.553681,592.164754,2145.067394
3350.228075,-10881.027347,666.185348,1378.971896
3350.228412,-10732.986159,1480.411884,-383.047749
3350.228750,-9770.718434,1776.494261,-76.609550
3350.229087,-9104.533087,962.267725,536.266849
3350.229424,-7624.121203,592.164754,-153.219100
3350.229762,-7402.059420,1184.329507,995.924147
3350.230099,-8956.491898,888.247130,842.705048
3350.230436,-10584.944971,740.205942,-383.047749
3350.230774,-10510.924376,1776.494261,-2298.286494
3350.231111,-9770.718434,962.267725,-2145.067394
3350.231449,-9844.739029,-888.247130,-995.924147
3350.231786,-8364.327145,-962.267725,-919.314598
3350.232123,-7920.203579,-814.226536,0.000000
3350.232461,-10066.800811,-1554.432478,1378.971896
3350.232798,-10881.027347,-962.267725,459.657299
3350.233135,-11695.253884,222.061783,-612.876398
3350.233473,-11843.295072,-592.164754,536.266849
3350.233810,-10658.965565,-1036.288319,1072.533697
3350.234147,-9770.718434,-666.185348,1225.752797
3350.234485,-9474.636058,-592.164754,2298.286494
3350.234822,-9696.697840,-1036.288319,1915.238745
3350.235159,-12139.377449,-1110.308913,1532.190996
3350.235497,-11621.233289,-222.061783,-383.047749
3350.235834,-10066.800811,0.000000,-459.657299
3350.236171,-10584.944971,-962.267725,689.485948
3350.236509,-9178.553681,-592.164754,-689.485948
3350.236846,-8734.430116,-222.061783,0.000000
3350.237184,-9918.759623,-518.144159,766.095498
3350.237521,-10955.047942,-222.061783,-689.485948
3350.237858,-10955.047942,666.185348,-1378.971896
3350.238196,-10288.862594,-814.226536,-1149.143247
3350.238533,-9474.636058,-1924.535449,229.828649
3350.238870,-8734.430116,-1036.288319,-76.609550
3350.239208,-7698.141797,-888.247130,995.924147
3350.239545,-9696.697840,-1332.370696,1991.848295
3350.239882,-11103.089130,-962.267725,1149.143247
3350.240220,-10881.027347,888.247130,153.219100
3350.240557,-10807.006753,148.041188,1225.752797
3350.240894,-10732.986159,370.102971,536.266849
3350.241232,-9252.574275,518.144159,1072.533697
3350.241569,-8364.327145,1036.288319,2145.067394
3350.241906,-9178.553681,814.226536,2757.943793
3350.242244,-11621.233289,666.185348,2451.505594
3350.242581,-11473.192101,1628.453072,229.828649
3350.242919,-11029.068536,814.226536,-153.219100
3350.243256,-11177.109724,0.000000,612.876398
3350.243593,-8512.368333,296.082377,-842.705048
3350.243931,-7476.080014,-296.082377,1072.533697
3350.244268,-9770.718434,-1406.391290,1455.581446
3350.244605,-11177.109724,-1258.350101,-612.876398
3350.244943,-10362.883188,-370.102971,-1991.848295
3350.245280,-9770.718434,-1184.329507,-1685.410096
3350.245617,-9178.553681,-2146.597232,-1378.971896
3350.245955,-9252.574275,-2812.782580,-612.876398
3350.246292,-8586.388927,-2146.597232,0.000000
3350.246629,-9770.718434,-3108.864956,1532.190996
3350.246967,-11695.253884,-2738.761985,1072.533697
3350.247304,-10288.862594,-1480.411884,-919.314598
3350.247642,-10436.903782,-2146.597232,-612.876398
3350.247979,-10658.965565,-2368.659014,536.266849
3350.248316,-8956.491898,-2072.576638,0.000000
3350.248654,-8142.265362,-1036.288319,2145.067394
3350.248991,-10288.862594,0.000000,3064.381992
3350.249328,-12213.398043,740.205942,919.314598
3350.249666,-12583.501014,2368.659014,-1455.581446
3350.250003,-11029.068536,1702.473667,-1225.752797
3350.250340,-10732.986159,444.123565,153.219100
3350.250678,-9474.636058,296.082377,-306.438199
3350.251015,-7624.121203,1554.432478,-612.876398
3350.251352,-9844.739029,0.000000,766.095498
3350.251690,-11473.192101,888.247130,0.000000
3350.252027,-10362.883188,1776.494261,-1838.629195
3350.252364,-10140.821405,1036.288319,-459.657299
3350.252702,-9844.739029,592.164754,0.000000
3350.253039,-8808.450710,0.000000,-1149.143247
3350.253377,-7772.162391,222.061783,689.485948
3350.253714,-8586.388927,0.000000,2604.724693
3350.254051,-10955.047942,-148.041188,1762.019645
3350.254389,-9326.594869,1110.308913,-919.314598
3350.254726,-10140.821405,740.205942,229.828649
3350.255063,-10658.965565,-518.144159,1532.190996
3350.255401,-8956.491898,-740.205942,306.438199
3350.255738,-8660.409521,148.041188,2451.505594
3350.256075,-10214.842000,74.020594,2604.724693
3350.256413,-10658.965565,0.000000,1072.533697
3350.256750,-10436.903782,666.185348,-76.609550
3350.257087,-10288.862594,-370.102971,919.314598
3350.257425,-10955.047942,-296.082377,919.314598
3350.257762,-10436.903782,-518.144159,-612.876398
3350.258099,-9178.553681,-518.144159,-153.219100
3350.258437,-10584.944971,-1776.494261,1762.019645
3350.258774,-11695.253884,-1258.350101,383.047749
3350.259112,-11177.109724,-370.102971,-383.047749
3350.259449,-11547.212695,-1628.453072,-1378.971896
3350.259786,-10658.965565,-2442.679609,-612.876398
3350.260124,-9104.533087,-2442.679609,-1302.362347
3350.260461,-7994.224174,-2072.576638,919.314598
3350.260798,-9400.615463,-2738.761985,2221.676944
3350.261136,-11103.089130,-1776.494261,766.095498
3350.261473,-10732.986159,-148.041188,-383.047749
3350.261810,-10807.006753,-518.144159,383.047749
3350.262148,-10362.883188,-370.102971,0.000000
3350.262485,-9104.533087,-296.082377,-536.266849
3350.262822,-8438.347739,962.267725,1378.971896
3350.263160,-8956.491898,-74.020594,3064.381992
3350.263497,-11103.089130,1184.329507,2068.457845
3350.263835,-10510.924376,1924.535449,153.219100
3350.264172,-10436.903782,1332.370696,0.000000
3350.264509,-10214.842000,444.123565,0.000000
3350.264847,-8586.388927,1702.473667,-995.924147
3350.265184,-8660.409521,1110.308913,306.438199
3350.265521,-9622.677246,370.102971,0.000000
3350.265859,-11029.068536,814.226536,229.828649
3350.266196,-11029.068536,2812.782580,-2221.676944
3350.266533,-10214.842000,0.000000,-2221.676944
3350.266871,-10362.883188,-1332.370696,-2221.676944
3350.267208,-7476.080014,-1628.453072,-2221.676944
3350.267545,-6439.791695,-1776.494261,1072.533697
3350.267883,-9622.677246,-2368.659014,3370.820191
3350.268220,-11843.295072,-2664.741391,689.485948
3350.268557,-11029.068536,-1184.329507,0.000000
3350.268895,-11621.233289,-1258.350101,919.314598
3350.269232,-10288.862594,-1184.329507,1608.800546
3350.269570,-9030.512492,-1258.350101,0.000000
3350.269907,-8586.388927,-962.267725,76.609550
3350.270244,-10584.944971,-1702.473667,1915.238745
3350.270582,-12879.583391,-1184.329507,1302.362347
3350.270919,-11621.233289,740.205942,-306.438199
3350.271257,-10584.944971,-888.247130,153.219100
3350.271594,-11177.109724,-592.164754,689.485948
3350.271932,-9326.594869,-1480.411884,-1149.143247
3350.272269,-8068.244768,-962.267725,1149.143247
3350.272606,-10214.842000,-2368.659014,2528.115143
3350.272944,-11473.192101,-1110.308913,536.266849
3350.273281,-10436.903782,296.082377,-2068.457845
3350.273619,-10510.924376,444.123565,-2528.115143
3350.273956,-9992.780217,-1554.432478,-1532.190996
3350.274293,-7476.080014,-444.123565,-1915.238745
3350.274631,-7698.141797,148.041188,1072.533697
3350.274968,-10510.924376,-814.226536,2145.067394
3350.275306,-11621.233289,370.102971,1838.629195
3350.275643,-10584.944971,1036.288319,1149.143247
3350.275980,-11029.068536,0.000000,2681.334243
3350.276318,-10066.800811,1110.308913,2451.505594
3350.276655,-8956.491898,1480.411884,1225.752797
3350.276993,-8364.327145,1406.391290,1685.410096
3350.277330,-10362.883188,1776.494261,2221.676944
3350.277667,-11843.295072,2072.576638,0.000000
3350.278005,-10362.883188,3478.967927,-2451.505594
3350.278342,-10288.862594,1480.411884,-1225.752797
3350.278680,-10288.862594,888.247130,-229.828649
3350.279017,-7476.080014,592.164754,-1532.190996
3350.279355,-7698.141797,296.082377,919.314598
3350.279692,-10807.006753,-666.185348,2451.505594
3350.280029,-11769.274478,-592.164754,459.657299
3350.280367,-10658.965565,444.123565,-919.314598
3350.280704,-10214.842000,-888.247130,-689.485948
3350.281042,-9474.636058,-1850.514855,-459.657299
3350.281379,-8808.450710,-2146.597232,-919.314598
3350.281716,-9104.533087,-1406.391290,-153.219100
3350.282054,-9844.739029,-1924.535449,76.609550
3350.282391,-11251.130318,-1406.391290,-689.485948
3350.282729,-11547.212695,-1110.308913,-612.876398
3350.283066,-11029.068536,-1850.514855,229.828649
3350.283403,-10362.883188,-962.267725,1378.971896
3350.283741,-9474.636058,-1258.350101,919.314598
3350.284078,-9030.512492,-666.185348,1762.019645
3350.284416,-10881.027347,-1480.411884,3217.601092
3350.284753,-11991.336260,-74.020594,2221.676944
3350.285090,-11251.130318,1110.308913,229.828649
3350.285428,-11029.068536,814.226536,-536.266849
3350.285765,-10732.986159,592.164754,-229.828649
3350.286103,-9104.533087,518.144159,-2145.067394
3350.286440,-7698.141797,296.082377,-306.438199
3350.286778,-9252.574275,-592.164754,459.657299
3350.287115,-10584.944971,0.000000,76.609550
3350.287452,-10881.027347,1184.329507,-306.438199
3350.287790,-11029.068536,518.144159,-1225.752797
3350.288127,-9844.739029,-444.123565,-306.438199
3350.288465,-8216.285956,-962.267725,-153.219100
3350.288802,-7698.141797,-592.164754,1225.752797
3350.289139,-9696.697840,-444.123565,2221.676944
3350.289477,-11325.150913,0.000000,1225.752797
3350.289814,-10510.924376,592.164754,-612.876398
3350.290152,-10584.944971,-666.185348,0.000000
3350.290489,-9474.636058,-148.041188,1455.581446
3350.290826,-7698.141797,-666.185348,306.438199
3350.291164,-7920.203579,74.020594,2298.286494
3350.291501,-10436.903782,-370.102971,2681.334243
3350.291839,-12435.459826,-74.020594,919.314598
3350.292176,-11621.233289,1036.288319,-383.047749
3350.292514,-10881.027347,-444.123565,995.924147
3350.292851,-10140.821405,-962.267725,0.000000
3350.293188,-7476.080014,-1628.453072,-689.485948
3350.293526,-8364.327145,-1036.288319,383.047749
3350.293863,-10214.842000,-2442.679609,459.657299
3350.294201,-12435.459826,-1184.329507,-995.924147
3350.294538,-11843.295072,-296.082377,-1991.848295
3350.294875,-11621.233289,-1628.453072,-1225.752797
3350.295213,-10140.821405,-2590.720797,-1378.971896
3350.295550,-8364.327145,-3108.864956,-1072.533697
3350.295888,-6957.935855,-2368.659014,919.314598
3350.296225,-9844.739029,-2368.659014,1915.238745
3350.296562,-11621.233289,-1480.411884,0.000000
3350.296900,-11621.233289,0.000000,-689.485948
3350.297237,-11325.150913,-1110.308913,536.266849
3350.297575,-10288.862594,-666.185348,1225.752797
3350.297912,-7994.224174,518.144159,766.095498
3350.298249,-8142.265362,296.082377,2987.772442
3350.298587,-10510.924376,370.102971,3370.820191
3350.298924,-10881.027347,1776.494261,612.876398
3350.299262,-10658.965565,2960.823768,-306.438199
3350.299599,-11103.089130,1998.556043,-536.266849
3350.299937,-10140.821405,1480.411884,-1072.533697
3350.300274,-8142.265362,2738.761985,-1838.629195
3350.300611,-7179.997637,2146.597232,0.000000
3350.300949,-9548.656652,1110.308913,612.876398
3350.301286,-11399.171507,1480.411884,229.828649
3350.301624,-11251.130318,1998.556043,-842.705048
3350.301961,-10658.965565,888.247130,-1608.800546
3350.302298,-10066.800811,444.123565,-689.485948
3350.302636,-8734.430116,-814.226536,-306.438199
3350.302973,-7772.162391,-740.205942,1072.533697
3350.303311,-9770.718434,-1628.453072,2298.286494
3350.303648,-10955.047942,0.000000,612.876398
3350.303985,-11399.171507,0.000000,306.438199
3350.304323,-11769.274478,-1480.411884,919.314598
3350.304660,-10807.006753,0.000000,0.000000
3350.304998,-8882.471304,-1036.288319,306.438199
3350.305335,-7994.224174,-962.267725,1762.019645
3350.305672,-9474.636058,-1850.514855,2451.505594
3350.306010,-12139.377449,-888.247130,1532.190996
3350.306347,-11917.315666,370.102971,0.000000
3350.306685,-11843.295072,-814.226536,0.000000
3350.307022,-10658.965565,-592.164754,-306.438199
3350.307360,-8660.409521,-666.185348,-1072.533697
3350.307697,-8586.388927,-1628.453072,306.438199
3350.308034,-10214.842000,-2368.659014,536.266849
3350.308372,-10362.883188,-1258.350101,-536.266849
3350.308709,-10584.944971,-148.041188,-766.095498
3350.309047,-11473.192101,-1110.308913,306.438199
3350.309384,-11029.068536,-1480.411884,-459.657299
3350.309721,-9400.615463,-1406.391290,-536.266849
3350.310059,-8660.409521,-962.267725,2145.067394
3350.310396,-10066.800811,-1184.329507,2681.334243
3350.310734,-11103.089130,148.041188,1225.752797
3350.311071,-10658.965565,1036.288319,383.047749
3350.311408,-10732.986159,0.000000,842.705048
3350.311746,-10436.903782,1110.308913,1532.190996
3350.312083,-8660.409521,1332.370696,306.438199
3350.312421,-7994.224174,1332.370696,1838.629195
3350.312758,-9474.636058,1184.329507,2145.067394
3350.313095,-10955.047942,2368.659014,459.657299
3350.313433,-10732.986159,2368.659014,-919.314598
3350.313770,-10288.862594,2294.638420,-766.095498
3350.314108,-10510.924376,1036.288319,-689.485948
3350.314445,-8734.430116,148.041188,-1149.143247
3350.314783,-7550.100608,222.061783,0.000000
3350.315120,-9622.677246,-1110.308913,1455.581446
3350.315457,-10732.986159,-1110.308913,-842.705048
3350.315795,-9474.636058,0.000000,-2068.457845
3350.316132,-10807.006753,-1480.411884,-306.438199
3350.316470,-10584.944971,-1554.432478,-766.095498
3350.316807,-9474.636058,-1702.473667,-1378.971896
3350.317144,-9178.553681,-1850.514855,459.657299
3350.317482,-9918.759623,-1628.453072,459.657299
3350.317819,-10658.965565,-1258.350101,-842.705048
3350.318157,-11029.068536,-370.102971,-766.095498
3350.318494,-11399.171507,-2294.638420,612.876398
3350.318831,-11473.192101,-2368.659014,536.266849
3350.319169,-9844.739029,-962.267725,766.095498
3350.319506,-8512.368333,-518.144159,2451.505594
3350.319844,-10955.047942,-1258.350101,3294.210641
3350.320181,-11547.212695,296.082377,76.609550
3350.320518,-10362.883188,1480.411884,-919.314598
3350.320856,-11769.274478,444.123565,0.000000
3350.321193,-10955.047942,0.000000,-842.705048
3350.321531,-8586.388927,-148.041188,-1149.143247
3350.321868,-8216.285956,0.000000,459.657299
3350.322206,-9178.553681,-1184.329507,1149.143247
3350.322543,-9770.718434,-296.082377,-306.438199
3350.322880,-9326.594869,296.082377,-1225.752797
3350.323218,-9474.636058,-1480.411884,-383.047749
3350.323555,-10288.862594,-518.144159,-612.876398
3350.323893,-8438.347739,-444.123565,0.000000
3350.324230,-8882.471304,-74.020594,1532.190996
3350.324567,-9770.718434,296.082377,1608.800546
3350.324905,-10362.883188,1406.391290,383.047749
3350.325242,-10881.027347,2072.576638,0.000000
3350.325580,-10732.986159,1184.329507,612.876398
3350.325917,-11251.130318,1036.288319,459.657299
3350.326254,-10436.903782,1184.329507,229.828649
3350.326592,-9104.533087,444.123565,2221.676944
3350.326929,-10584.944971,1036.288319,3524.039291
3350.327267,-11029.068536,2072.576638,1378.971896
3350.327604,-10658.965565,2738.761985,0.000000
3350.327941,-12139.377449,1554.432478,76.609550
3350.328279,-10288.862594,518.144159,-1685.410096
3350.328616,-7846.182985,0.000000,-1685.410096
3350.328954,-8808.450710,-666.185348,842.705048
3350.329291,-9622.677246,-1776.494261,-76.609550
3350.329629,-9474.636058,-888.247130,-1762.019645
3350.329966,-8438.347739,-814.226536,-1915.238745
3350.330303,-9844.739029,-2368.659014,0.000000
3350.330641,-11473.192101,-2960.823768,-383.047749
3350.330978,-8956.491898,-2368.659014,-536.266849
3350.331316,-9178.553681,-3034.844362,2298.286494
3350.331653,-9844.739029,-2738.761985,2911.162892
3350.331990,-9844.739029,-1332.370696,0.000000
3350.332328,-9844.739029,-370.102971,-689.485948
3350.332665,-10955.047942,-1184.329507,919.314598
3350.333003,-11103.089130,-1406.391290,1225.752797
3350.333340,-10288.862594,-370.102971,1378.971896
3350.333677,-9622.677246,888.247130,2145.067394
3350.334015,-11917.315666,-814.226536,1915.238745
3350.334352,-11177.109724,888.247130,0.000000
3350.334690,-10066.800811,1702.473667,0.000000
3350.335027,-11473.192101,592.164754,1915.238745
3350.335365,-10436.903782,-444.123565,-766.095498
3350.335702,-9030.512492,1036.288319,-1455.581446
3350.336039,-9400.615463,518.144159,76.609550
3350.336377,-9474.636058,0.000000,689.485948
3350.336714,-11029.068536,444.123565,-689.485948
3350.337052,-9252.574275,592.164754,-2374.896044
3350.337389,-9178.553681,-592.164754,-1455.581446
3350.337726,-10066.800811,-1702.473667,-153.219100
3350.338064,-8068.244768,-814.226536,-995.924147
3350.338401,-8364.327145,-1036.288319,1225.752797
3350.338739,-10510.924376,-1554.432478,1072.533697
3350.339076,-9992.780217,-370.102971,-229.828649
3350.339413,-9844.739029,0.000000,0.000000
3350.339751,-10881.027347,-740.205942,1991.848295
3350.340088,-10584.944971,-296.082377,689.485948
3350.340426,-9178.553681,444.123565,76.609550
3350.340763,-9030.512492,0.000000,1072.533697
3350.341100,-10510.924376,-296.082377,1455.581446
3350.341438,-10732.986159,0.000000,153.219100
3350.341775,-10362.883188,814.226536,-536.266849
3350.342113,-11399.171507,0.000000,0.000000
3350.342450,-10955.047942,0.000000,0.000000
3350.342788,-9474.636058,-296.082377,0.000000
3350.343125,-9104.533087,-1628.453072,1378.971896
3350.343462,-10288.862594,-740.205942,1072.533697
3350.343800,-11103.089130,-518.144159,0.000000
3350.344137,-10436.903782,-518.144159,-1762.019645
3350.344475,-10066.800811,-2072.576638,-1378.971896
3350.344812,-9696.697840,-1554.432478,-919.314598
3350.345149,-8882.471304,-1184.329507,536.266849
3350.345487,-10066.800811,-888.247130,1838.629195
3350.345824,-11399.171507,-1332.370696,2068.457845
3350.346162,-11251.130318,370.102971,0.000000
3350.346499,-10140.821405,222.061783,0.000000
3350.346836,-10066.800811,-666.185348,1149.143247
3350.347174,-8882.471304,-296.082377,1225.752797
3350.347511,-8734.430116,1184.329507,1762.019645
3350.347849,-9622.677246,1110.308913,2221.676944
3350.348186,-10807.006753,1628.453072,1149.143247
3350.348523,-10955.047942,2442.679609,0.000000
3350.348861,-9918.759623,2664.741391,-1149.143247
3350.349198,-9696.697840,1776.494261,-153.219100
3350.349536,-9548.656652,1184.329507,-459.657299
3350.349873,-8142.265362,518.144159,-766.095498
3350.350211,-8882.471304,444.123565,0.000000
3350.350548,-10732.986159,-444.123565,0.000000
3350.350885,-11177.109724,1110.308913,-1838.629195
3350.351223,-10140.821405,444.123565,-2451.505594
3350.351560,-10510.924376,148.041188,-766.095498
3350.351898,-9474.636058,-1184.329507,-1072.533697
3350.352235,-8586.388927,-592.164754,-76.609550
3350.352572,-10066.800811,-1110.308913,1455.581446
3350.352910,-11547.212695,-1480.411884,1072.533697
3350.353247,-11103.089130,-1184.329507,-612.876398
3350.353585,-10066.800811,-296.082377,-919.314598
3350.353922,-9696.697840,-1850.514855,1378.971896
3350.354259,-10066.800811,-1406.391290,1378.971896
3350.354597,-9696.697840,-1258.350101,1532.190996
3350.354934,-10584.944971,-888.247130,2145.067394
3350.355272,-11325.150913,-962.267725,2528.115143
3350.355609,-11029.068536,296.082377,612.876398
3350.355946,-9844.739029,0.000000,0.000000
3350.356284,-10658.965565,-222.061783,459.657299
3350.356621,-9326.594869,-888.247130,-229.828649
3350.356959,-8142.265362,-888.247130,0.000000
3350.357296,-9548.656652,-592.164754,1532.190996
3350.357634,-11251.130318,-1332.370696,536.266849
3350.357971,-10955.047942,222.061783,-1762.019645
3350.358308,-9326.594869,-740.205942,-1608.800546
3350.358646,-9696.697840,-1554.432478,536.266849
3350.358983,-8956.491898,-1628.453072,-306.438199
3350.359321,-8512.368333,-888.247130,383.047749
3350.359658,-9548.656652,-814.226536,2298.286494
3350.359995,-11473.192101,-740.205942,1608.800546
3350.360333,-10955.047942,370.102971,459.657299
3350.360670,-9844.739029,0.000000,1302.362347
3350.361008,-10658.965565,0.000000,2451.505594
3350.361345,-10214.842000,74.020594,1149.143247
3350.361682,-9252.574275,518.144159,1072.533697
3350.362020,-9844.739029,296.082377,2451.505594
3350.362357,-11547.212695,-370.102971,1915.238745
3350.362695,-10362.883188,1258.350101,-383.047749
3350.363032,-8956.491898,1406.391290,-459.657299
3350.363369,-9474.636058,666.185348,0.000000
3350.363707,-9992.780217,-148.041188,-995.924147
3350.364044,-8290.306550,518.144159,-1991.848295
3350.364382,-9400.615463,-370.102971,-229.828649
3350.364719,-10807.006753,-370.102971,-229.828649
3350.365057,-10510.924376,0.000000,-1915.238745
3350.365394,-9844.739029,-592.164754,-2757.943793
3350.365731,-9770.718434,-2516.700203,-1225.752797
3350.366069,-8734.430116,-2442.679609,-536.266849
3350.366406,-7920.203579,-1406.391290,536.266849
3350.366744,-9474.636058,-1332.370696,1302.362347
3350.367081,-11621.233289,-1406.391290,1532.190996
3350.367418,-12213.398043,-592.164754,-612.876398
3350.367756,-10658.965565,-222.061783,-1149.143247
3350.368093,-10510.924376,-1036.288319,306.438199
3350.368431,-9548.656652,-1406.391290,1225.752797
3350.368768,-8068.244768,74.020594,1685.410096
3350.369105,-9178.553681,592.164754,2681.334243
3350.369443,-12657.521608,444.123565,2987.772442
3350.369780,-11843.295072,1702.473667,-383.047749
3350.370118,-10658.965565,1850.514855,-383.047749
3350.370455,-11251.130318,888.247130,1455.581446
3350.370793,-9770.718434,0.000000,-459.657299
3350.371130,-7476.080014,1332.370696,0.000000
3350.371467,-8660.409521,148.041188,689.485948
3350.371805,-10732.986159,148.041188,536.266849
3350.372142,-10658.965565,2072.576638,-1915.238745
3350.372480,-10066.800811,1110.308913,-2374.896044
3350.372817,-10214.842000,-962.267725,-1532.190996
3350.373154,-8660.409521,-2146.597232,-995.924147
3350.373492,-7254.018232,-592.164754,919.314598
3350.373829,-8438.347739,-1332.370696,2987.772442
3350.374167,-11473.192101,-1554.432478,1762.019645
3350.374504,-10807.006753,-1258.350101,76.609550
3350.374842,-9770.718434,-370.102971,1455.581446
3350.375179,-10807.006753,0.000000,2068.457845
3350.375516,-10362.883188,-222.061783,76.609550
3350.375854,-8956.491898,740.205942,459.657299
3350.376191,-9992.780217,148.041188,1915.238745
3350.376529,-11399.171507,0.000000,1838.629195
3350.376866,-11251.130318,1702.473667,0.000000
3350.377203,-10955.047942,962.267725,0.000000
3350.377541,-11325.150913,74.020594,-153.219100
3350.377878,-9844.739029,-296.082377,-995.924147
3350.378216,-8586.388927,-74.020594,919.314598
3350.378553,-9400.615463,-888.247130,2145.067394
3350.378890,-11251.130318,-888.247130,1225.752797
3350.379228,-11621.233289,222.061783,-1455.581446
3350.379565,-10288.862594,0.000000,-2528.115143
3350.379903,-9548.656652,-2368.659014,-1608.800546
3350.380240,-8808.450710,-2368.659014,-1532.190996
3350.380578,-7846.182985,-1776.494261,0.000000
3350.380915,-8734.430116,-2072.576638,1608.800546
3350.381252,-10732.986159,-1702.473667,2374.896044
3350.381590,-11325.150913,-962.267725,919.314598
3350.381927,-10510.924376,0.000000,919.314598
3350.382265,-11325.150913,-888.247130,1991.848295
3350.382602,-10214.842000,-1924.535449,1455.581446
3350.382939,-7476.080014,-148.041188,1915.238745
3350.383277,-8068.244768,-296.082377,3294.210641
3350.383614,-11103.089130,592.164754,2451.505594
3350.383952,-11695.253884,1258.350101,-612.876398
3350.384289,-10881.027347,1850.514855,-1685.410096
3350.384627,-10658.965565,1110.308913,-1225.752797
3350.384964,-10288.862594,74.020594,-306.438199
3350.385301,-8882.471304,148.041188,-536.266849
3350.385639,-8586.388927,-740.205942,153.219100
3350.385976,-10658.965565,-888.247130,919.314598
3350.386314,-10732.986159,592.164754,-919.314598
3350.386651,-10362.883188,-814.226536,-1838.629195
3350.386988,-10881.027347,-1998.556043,-536.266849
3350.387326,-9474.636058,-2442.679609,-1225.752797
3350.387663,-7254.018232,-1184.329507,0.000000
3350.388001,-8808.450710,-1776.494261,1225.752797
3350.388338,-10732.986159,-1332.370696,689.485948
3350.388676,-11769.274478,0.000000,-153.219100
3350.389013,-11695.253884,0.000000,-306.438199
3350.389350,-11547.212695,-1332.370696,689.485948
3350.389688,-9400.615463,-1554.432478,306.438199
3350.390025,-7179.997637,-592.164754,995.924147
3350.390363,-8808.450710,-740.205942,2681.334243
3350.390700,-11399.171507,-296.082377,2681.334243
3350.391037,-11991.336260,1554.432478,0.000000
3350.391375,-11621.233289,1776.494261,-995.924147
3350.391712,-11473.192101,1406.391290,-536.266849
3350.392050,-9622.677246,666.185348,-2145.067394
3350.392387,-7402.059420,888.247130,-766.095498
3350.392725,-7846.182985,-592.164754,76.609550
3350.393062,-10510.924376,370.102971,689.485948
3350.393399,-11325.150913,814.226536,-1225.752797
3350.393737,-10658.965565,1184.329507,-1838.629195
3350.394074,-10362.883188,-814.226536,-612.876398
3350.394412,-9030.512492,-1258.350101,383.047749
3350.394749,-7772.162391,0.000000,1378.971896
3350.395086,-9252.574275,-296.082377,2374.896044
3350.395424,-11251.130318,370.102971,689.485948
3350.395761,-10436.903782,1406.391290,-689.485948
3350.396099,-10807.006753,518.144159,229.828649
3350.396436,-9992.780217,1110.308913,306.438199
3350.396774,-9770.718434,74.020594,76.609550
3350.397111,-8882.471304,666.185348,1225.752797
3350.397448,-9400.615463,444.123565,995.924147
3350.397786,-10732.986159,0.000000,1378.971896
3350.398123,-10436.903782,666.185348,919.314598
3350.398461,-10288.862594,296.082377,459.657299
3350.398798,-11399.171507,-370.102971,229.828649
3350.399135,-9548.656652,-666.185348,-612.876398
3350.399473,-7698.141797,-370.102971,-612.876398
3350.399810,-9474.636058,-1480.411884,1072.533697
3350.400148,-11325.150913,-1628.453072,689.485948
3350.400485,-10362.883188,-1036.288319,-459.657299
3350.400823,-11029.068536,-1850.514855,-612.876398
3350.401160,-10288.862594,-2664.741391,-383.047749
3350.401497,-9178.553681,-3182.885551,-1072.533697
3350.401835,-8438.347739,-1776.494261,0.000000
3350.402172,-10658.965565,-2072.576638,689.485948
3350.402510,-11473.192101,-1628.453072,612.876398
3350.402847,-11103.089130,-814.226536,153.219100
3350.403184,-10584.944971,-740.205942,1608.800546
3350.403522,-11103.089130,-518.144159,1378.971896
3350.403859,-9770.718434,-1702.473667,1608.800546
3350.404197,-9252.574275,0.000000,2911.162892
3350.404534,-9474.636058,-962.267725,3370.820191
3350.404871,-11399.171507,444.123565,3447.429741
3350.405209,-11251.130318,1998.556043,612.876398
3350.405546,-11473.192101,1332.370696,-612.876398
3350.405884,-11251.130318,1406.391290,0.000000
3350.406221,-9178.553681,740.205942,-1072.533697
3350.406559,-7179.997637,-370.102971,-459.657299
3350.406896,-8290.306550,-296.082377,536.266849
3350.407233,-9474.636058,-592.164754,0.000000
3350.407571,-9770.718434,74.020594,-1532.190996
3350.407908,-9844.739029,0.000000,-919.314598
3350.408246,-9992.780217,-592.164754,-612.876398
3350.408583,-9474.636058,-1036.288319,-1225.752797
3350.408920,-8364.327145,-592.164754,0.000000
3350.409258,-9326.594869,-1776.494261,995.924147
3350.409595,-10881.027347,-1258.350101,1378.971896
3350.409933,-10288.862594,-518.144159,153.219100
3350.410270,-10066.800811,0.000000,383.047749
3350.410608,-10362.883188,-444.123565,689.485948
3350.410945,-10140.821405,-592.164754,-306.438199
3350.411282,-9474.636058,-370.102971,612.876398
3350.411620,-10140.821405,-592.164754,1915.238745
3350.411957,-11399.171507,296.082377,1991.848295
3350.412295,-11547.212695,888.247130,153.219100
3350.412632,-11547.212695,222.061783,-383.047749
3350.412969,-11029.068536,0.000000,-842.705048
3350.413307,-9104.533087,-1110.308913,-995.924147
3350.413644,-7920.203579,-444.123565,0.000000
3350.413982,-9844.739029,-1702.473667,1149.143247
3350.414319,-10510.924376,-518.144159,383.047749
3350.414657,-11325.150913,592.164754,-842.705048
3350.414994,-11399.171507,0.000000,-1225.752797
3350.415331,-10066.800811,-1036.288319,-2221.676944
3350.415669,-8660.409521,-518.144159,-1991.848295
3350.416006,-7624.121203,-518.144159,-689.485948
3350.416344,-7994.224174,-1480.411884,766.095498
3350.416681,-10955.047942,-370.102971,842.705048
3350.417018,-10362.883188,518.144159,0.000000
3350.417356,-10658.965565,592.164754,919.314598
3350.417693,-10732.986159,0.000000,2528.115143
3350.418031,-9474.636058,592.164754,1608.800546
3350.418368,-9400.615463,1702.473667,2681.334243
3350.418706,-10066.800811,592.164754,3064.381992
3350.419043,-10288.862594,592.164754,1685.410096
3350.419380,-10288.862594,1776.494261,153.219100
3350.419718,-10732.986159,1554.432478,842.705048
3350.420055,-9770.718434,2146.597232,-689.485948
3350.420393,-8512.368333,518.144159,-1225.752797
3350.420730,-9030.512492,592.164754,459.657299
3350.421067,-9918.759623,0.000000,612.876398
3350.421405,-11547.212695,-370.102971,153.219100
3350.421742,-10732.986159,0.000000,-1072.533697
3350.422080,-9992.780217,-1332.370696,-919.314598
3350.422417,-9548.656652,-1110.308913,-229.828649
3350.422755,-9326.594869,-1480.411884,153.219100
3350.423092,-8438.347739,-1998.556043,153.219100
3350.423429,-10362.883188,-1850.514855,383.047749
3350.423767,-11621.233289,-740.205942,229.828649
3350.424104,-10807.006753,-1036.288319,-536.266849
3350.424442,-10288.862594,-1850.514855,153.219100
3350.424779,-10584.944971,-1258.350101,689.485948
3350.425116,-9770.718434,-1406.391290,229.828649
3350.425454,-8142.265362,-1406.391290,995.924147
3350.425791,-9992.780217,-1850.514855,2221.676944
3350.426129,-11251.130318,-370.102971,612.876398
3350.426466,-10510.924376,740.205942,-766.095498
3350.426804,-10955.047942,222.061783,536.266849
3350.427141,-10658.965565,-740.205942,306.438199
3350.427478,-9474.636058,74.020594,-766.095498
3350.427816,-8364.327145,74.020594,-536.266849
3350.428153,-9400.615463,-1036.288319,229.828649
3350.428491,-10658.965565,-740.205942,-76.609550
3350.428828,-9696.697840,0.000000,-1838.629195
3350.429165,-9400.615463,0.000000,-612.876398
3350.429503,-9918.759623,-962.267725,0.000000
3350.429840,-9918.759623,-666.185348,-766.095498
3350.430178,-9030.512492,0.000000,153.219100
3350.430515,-10436.903782,-740.205942,2528.115143
3350.430852,-11399.171507,74.020594,1149.143247
3350.431190,-9844.739029,222.061783,0.000000
3350.431527,-10214.842000,222.061783,1685.410096
3350.431865,-10362.883188,-444.123565,1762.019645
3350.432202,-9696.697840,0.000000,995.924147
3350.432540,-9548.656652,296.082377,2451.505594
3350.432877,-10362.883188,-592.164754,2451.505594
3350.433214,-10732.986159,-296.082377,1532.190996
3350.433552,-10436.903782,962.267725,-153.219100
3350.433889,-10066.800811,-814.226536,689.485948
3350.434227,-10436.903782,-666.185348,766.095498
3350.434564,-8734.430116,-1036.288319,-612.876398
3350.434901,-7698.141797,444.123565,383.047749
3350.435239,-10658.965565,-444.123565,612.876398
3350.435576,-11843.295072,-444.123565,-1762.019645
3350.435914,-10881.027347,-444.123565,-3370.820191
3350.436251,-10658.965565,-1702.473667,-919.314598
3350.436589,-9548.656652,-2220.617826,-306.438199
3350.436926,-8438.347739,-1850.514855,-689.485948
3350.437263,-8882.471304,-1850.514855,766.095498
3350.437601,-10658.965565,-2368.659014,1762.019645
3350.437938,-10732.986159,-666.185348,-229.828649
3350.438276,-10658.965565,-222.061783,-459.657299
3350.438613,-11325.150913,0.000000,1149.143247
3350.438950,-10955.047942,0.000000,0.000000
3350.439288,-9548.656652,222.061783,-383.047749
3350.439625,-8290.306550,518.144159,1378.971896
3350.439963,-10066.800811,-222.061783,2604.724693
3350.440300,-11843.295072,1258.350101,1762.019645
3350.440638,-11399.171507,2072.576638,229.828649
3350.440975,-10881.027347,2294.638420,153.219100
3350.441312,-10214.842000,1702.473667,-383.047749
3350.441650,-8882.471304,1258.350101,-919.314598
3350.441987,-7476.080014,1036.288319,306.438199
3350.442325,-9400.615463,444.123565,383.047749
3350.442662,-10214.842000,592.164754,-1149.143247
3350.442999,-9252.574275,1850.514855,-2068.457845
3350.443337,-10140.821405,666.185348,-689.485948
3350.443674,-10066.800811,-148.041188,-1072.533697
3350.444012,-8364.327145,-148.041188,-1991.848295
3350.444349,-8364.327145,-444.123565,919.314598
3350.444687,-10140.821405,-1184.329507,1991.848295
3350.445024,-10658.965565,-740.205942,536.266849
3350.445361,-10362.883188,0.000000,383.047749
3350.445699,-10881.027347,-1480.411884,2681.334243
3350.446036,-10288.862594,-1332.370696,1762.019645
3350.446374,-9474.636058,-222.061783,1072.533697
3350.446711,-9178.553681,74.020594,766.095498
3350.447048,-11103.089130,-1258.350101,1225.752797
3350.447386,-11547.212695,74.020594,612.876398
3350.447723,-10881.027347,1110.308913,-459.657299
3350.448061,-11769.274478,296.082377,689.485948
3350.448398,-11547.212695,-814.226536,-459.657299
3350.448736,-9030.512492,-592.164754,-1072.533697
3350.449073,-8438.347739,-1480.411884,383.047749
3350.449410,-10140.821405,-2368.659014,1532.190996
3350.449748,-10140.821405,-1776.494261,-689.485948
3350.450085,-9844.739029,-1406.391290,-1838.629195
3350.450423,-10214.842000,-1850.514855,76.609550
3350.450760,-10140.821405,-2368.659014,-459.657299
3350.451097,-8290.306550,-2368.659014,-689.485948
3350.451435,-9326.594869,-2738.761985,842.705048
3350.451772,-9622.677246,-2960.823768,2068.457845
3350.452110,-9104.533087,-1258.350101,612.876398
3350.452447,-11029.068536,-740.205942,1685.410096
3350.452785,-10881.027347,-888.247130,1072.533697
3350.453122,-9918.759623,-1036.288319,-536.266849
3350.453459,-10214.842000,888.247130,229.828649
3350.453797,-8364.327145,666.185348,1608.800546
3350.454134,-10436.903782,0.000000,2757.943793
3350.454472,-11917.315666,740.205942,842.705048
3350.454809,-10510.924376,2368.659014,-383.047749
3350.455146,-10955.047942,1924.535449,536.266849
3350.455484,-10955.047942,1628.453072,612.876398
3350.455821,-9030.512492,888.247130,-919.314598
3350.456159,-8882.471304,740.205942,76.609550
3350.456496,-10362.883188,0.000000,0.000000
3350.456833,-11547.212695,888.247130,-1532.190996
3350.457171,-9844.739029,740.205942,-2528.115143
3350.457508,-9474.636058,-296.082377,-1455.581446
3350.457846,-9474.636058,-1036.288319,0.000000
3350.458183,-9252.574275,-1850.514855,919.314598
3350.458521,-8956.491898,-962.267725,1378.971896
3350.458858,-9770.718434,-1776.494261,1532.190996
3350.459195,-10955.047942,-666.185348,842.705048
3350.459533,-10658.965565,-296.082377,-689.485948
3350.459870,-10436.903782,-1554.432478,995.924147
3350.460208,-10510.924376,-1628.453072,919.314598
3350.460545,-8586.388927,-962.267725,612.876398
3350.460882,-8512.368333,-296.082377,1378.971896
3350.461220,-10584.944971,-666.185348,2374.896044
3350.461557,-10881.027347,296.082377,459.657299
3350.461895,-10140.821405,1258.350101,-1685.410096
3350.462232,-11177.109724,222.061783,-76.609550
3350.462570,-10658.965565,-222.061783,0.000000
3350.462907,-9178.553681,444.123565,-459.657299
3350.463244,-8956.491898,-74.020594,919.314598
3350.463582,-10658.965565,1110.308913,842.705048
3350.463919,-11621.233289,1184.329507,-689.485948
3350.464257,-11103.089130,518.144159,-1991.848295
3350.464594,-10140.821405,-592.164754,-1072.533697
3350.464931,-10510.924376,-962.267725,306.438199
3350.465269,-9252.574275,-222.061783,1378.971896
3350.465606,-9030.512492,0.000000,1838.629195
3350.465944,-10881.027347,592.164754,1838.629195
3350.466281,-12139.377449,1480.411884,153.219100
3350.466619,-10362.883188,1258.350101,-766.095498
3350.466956,-9696.697840,888.247130,919.314598
3350.467293,-9400.615463,592.164754,842.705048
3350.467631,-8068.244768,888.247130,0.000000
3350.467968,-9474.636058,1036.288319,919.314598
3350.468306,-9622.677246,-148.041188,612.876398
3350.468643,-9918.759623,222.061783,612.876398
3350.468980,-9696.697840,1184.329507,229.828649
3350.469318,-10066.800811,222.061783,842.705048
3350.469655,-9770.718434,-296.082377,0.000000
3350.469993,-9030.512492,-814.226536,-536.266849
3350.470330,-8438.347739,-962.267725,536.266849
3350.470668,-10288.862594,-1332.370696,1608.800546
3350.471005,-10214.842000,0.000000,-1378.971896
3350.471342,-10288.862594,-444.123565,-2451.505594
3350.471680,-11547.212695,-1628.453072,-995.924147
3350.472017,-10584.944971,-2664.741391,-1915.238745
3350.472354,-10066.800811,-1998.556043,-919.314598
3350.472692,-9770.718434,-2368.659014,1302.362347
3350.473029,-11547.212695,-2220.617826,2757.943793
3350.473366,-11843.295072,-1406.391290,842.705048
3350.473704,-10362.883188,-518.144159,76.609550
3350.474041,-11473.192101,-1850.514855,2145.067394
3350.474378,-10881.027347,-1924.535449,1378.971896
3350.474716,-8438.347739,-518.144159,995.924147
3350.475053,-8882.471304,-592.164754,2451.505594
3350.475390,-10658.965565,-962.267725,2451.505594
3350.475727,-11103.089130,296.082377,536.266849
3350.476065,-9918.759623,1110.308913,-689.485948
3350.476402,-9252.574275,962.267725,-689.485948
3350.476739,-9030.512492,-740.205942,-153.219100
3350.477077,-7772.162391,-370.102971,0.000000
3350.477414,-7328.038826,-666.185348,612.876398
3350.477751,-9770.718434,0.000000,1685.410096
3350.478089,-10510.924376,888.247130,-689.485948
3350.478426,-9992.780217,962.267725,-1378.971896
3350.478763,-9548.656652,518.144159,-76.609550
3350.479101,-9178.553681,-148.041188,0.000000
3350.479438,-9030.512492,74.020594,0.000000
3350.479775,-9548.656652,-1036.288319,1378.971896
3350.480113,-10584.944971,-740.205942,1762.019645
3350.480450,-10955.047942,370.102971,766.095498
3350.480787,-11177.109724,740.205942,229.828649
3350.481125,-10881.027347,0.000000,1378.971896
3350.481462,-10807.006753,148.041188,459.657299
3350.481799,-9622.677246,518.144159,995.924147
3350.482136,-9474.636058,74.020594,1225.752797
3350.482474,-10732.986159,74.020594,1838.629195
3350.482811,-11843.295072,888.247130,-842.705048
3350.483148,-10214.842000,1110.308913,-1685.410096
3350.483486,-10584.944971,370.102971,-842.705048
3350.483823,-10362.883188,-1184.329507,-459.657299
3350.484160,-8734.430116,-1110.308913,-1149.143247
3350.484498,-9030.512492,-1036.288319,306.438199
3350.484835,-10510.924376,-1628.453072,1608.800546
3350.485172,-10732.986159,-1184.329507,-1225.752797
3350.485510,-8956.491898,-1332.370696,-2528.115143
3350.485847,-9400.615463,-2220.617826,-689.485948
3350.486184,-9548.656652,-2368.659014,-919.314598
3350.486522,-8882.471304,-1258.350101,-1378.971896
3350.486859,-9104.533087,-740.205942,229.828649
3350.487196,-10658.965565,-962.267725,536.266849
3350.487533,-11769.274478,148.041188,-459.657299
3350.487871,-11177.109724,148.041188,0.000000
3350.488208,-10584.944971,-444.123565,1532.190996
3350.488545,-9992.780217,-1036.288319,1915.238745
3350.488883,-8586.388927,370.102971,1915.238745
3350.489220,-8438.347739,814.226536,2451.505594
3350.489557,-11843.295072,1998.556043,2987.772442
3350.489895,-12509.480420,2294.638420,-536.266849
3350.490232,-11177.109724,3108.864956,-1608.800546
3350.490569,-11325.150913,2294.638420,-153.219100
3350.490907,-10066.800811,1406.391290,-459.657299
3350.491244,-7846.182985,1110.308913,-919.314598
3350.491581,-8216.285956,0.000000,1455.581446
3350.491919,-10140.821405,-296.082377,1455.581446
3350.492256,-10658.965565,592.164754,-1149.143247
3350.492593,-9548.656652,962.267725,-1838.629195
3350.492931,-10140.821405,-888.247130,-229.828649
3350.493268,-10288.862594,-2368.659014,76.609550
3350.493605,-8068.244768,-888.247130,536.266849
3350.493942,-8808.450710,-1480.411884,3064.381992
3350.494280,-10510.924376,-1406.391290,2451.505594
3350.494617,-11251.130318,0.000000,0.000000
3350.494954,-10510.924376,0.000000,-612.876398
3350.495292,-10066.800811,-814.226536,459.657299
3350.495629,-10288.862594,-1850.514855,459.657299
3350.495966,-8882.471304,-888.247130,306.438199
3350.496304,-8808.450710,-740.205942,2068.457845
3350.496641,-11843.295072,-666.185348,3294.210641
3350.496978,-11473.192101,296.082377,612.876398
3350.497316,-11029.068536,1332.370696,153.219100
3350.497653,-11843.295072,0.000000,76.609550
3350.497990,-10066.800811,-962.267725,-1302.362347
3350.498328,-8586.388927,-888.247130,-766.095498
3350.498665,-8808.450710,-1702.473667,1149.143247
3350.499002,-10214.842000,-1332.370696,919.314598
3350.499340,-11399.171507,222.061783,-2374.896044
3350.499677,-10732.986159,518.144159,-2451.505594
3350.500014,-10066.800811,-1332.370696,-1915.238745
3350.500351,-9400.615463,-2738.761985,-689.485948
3350.500689,-7624.121203,-2146.597232,995.924147
3350.501026,-8068.244768,-1850.514855,1991.848295
3350.501363,-10807.006753,-1628.453072,1915.238745
3350.501701,-10362.883188,-592.164754,-229.828649
3350.502038,-9400.615463,0.000000,-689.485948
3350.502375,-10214.842000,0.000000,995.924147
3350.502713,-9992.780217,-1332.370696,1608.800546
3350.503050,-8512.368333,-666.185348,1455.581446
3350.503387,-9400.615463,-296.082377,3217.601092
3350.503725,-11399.171507,518.144159,2681.334243
3350.504062,-11991.336260,1258.350101,0.000000
3350.504399,-10955.047942,1628.453072,-1838.629195
3350.504737,-10436.903782,1110.308913,-612.876398
3350.505074,-10066.800811,0.000000,-766.095498
3350.505411,-8586.388927,0.000000,-1302.362347
3350.505749,-9252.574275,-1184.329507,229.828649
3350.506086,-10732.986159,-666.185348,1225.752797
3350.506423,-11325.150913,518.144159,-1072.533697
3350.506760,-10955.047942,74.020594,-1378.971896
3350.507098,-10807.006753,-1924.535449,0.000000
3350.507435,-10066.800811,-2146.597232,-689.485948
3350.507772,-8660.409521,-2072.576638,-153.219100
3350.508110,-9326.594869,-2442.679609,842.705048
3350.508447,-11177.109724,-2146.597232,1302.362347
3350.508784,-10436.903782,-2220.617826,-612.876398
3350.509122,-9548.656652,-222.061783,153.219100
3350.509459,-10510.924376,-592.164754,1915.238745
3350.509796,-10066.800811,-1406.391290,995.924147
3350.510134,-8216.285956,-444.123565,689.485948
3350.510471,-9030.512492,0.000000,2298.286494
3350.510808,-11473.192101,518.144159,2834.553343
3350.511146,-10658.965565,1332.370696,76.609550
3350.511483,-9770.718434,2590.720797,153.219100
3350.511820,-10214.842000,1332.370696,-536.266849
3350.512158,-9252.574275,1184.329507,-1072.533697
3350.512495,-8438.347739,1480.411884,-459.657299
3350.512832,-9548.656652,1110.308913,612.876398
3350.513169,-10066.800811,1036.288319,-689.485948
3350.513507,-10807.006753,2960.823768,-2374.896044
3350.513844,-10140.821405,1258.350101,-1532.190996
3350.514181,-9844.739029,814.226536,-459.657299
3350.514519,-9992.780217,-444.123565,-459.657299
3350.514856,-8734.430116,814.226536,306.438199
3350.515193,-9918.759623,-1036.288319,2528.115143
3350.515531,-11399.171507,-296.082377,2298.286494
3350.515868,-10436.903782,-296.082377,229.828649
3350.516205,-10214.842000,74.020594,1072.533697
3350.516543,-9992.780217,-518.144159,1455.581446
3350.516880,-10510.924376,-592.164754,1302.362347
3350.517217,-8660.409521,74.020594,459.657299
3350.517555,-9326.594869,-370.102971,766.095498
3350.517892,-11029.068536,148.041188,612.876398
3350.518229,-10436.903782,-148.041188,-995.924147
3350.518566,-9696.697840,222.061783,-383.047749
3350.518904,-10510.924376,0.000000,-536.266849
3350.519241,-9770.718434,-592.164754,-1762.019645
3350.519578,-8808.450710,-518.144159,-1762.019645
3350.519916,-9844.739029,-1850.514855,306.438199
3350.520253,-11473.192101,-1258.350101,536.266849
3350.520590,-11769.274478,-666.185348,-1225.752797
3350.520928,-11399.171507,-1110.308913,-842.705048
3350.521265,-10955.047942,-1998.556043,0.000000
3350.521602,-10066.800811,-2294.638420,-842.705048
3350.521940,-8290.306550,-1406.391290,229.828649
3350.522277,-8956.491898,-2072.576638,1838.629195
3350.522614,-10955.047942,-2368.659014,2145.067394
3350.522952,-11177.109724,-370.102971,76.609550
3350.523289,-11029.068536,518.144159,536.266849
3350.523626,-11177.109724,-518.144159,536.266849
3350.523964,-10436.903782,-592.164754,1149.143247
3350.524301,-8290.306550,296.082377,2068.457845
3350.524638,-7920.203579,74.020594,2911.162892
3350.524975,-9696.697840,518.144159,3217.601092
3350.525313,-10732.986159,1702.473667,919.314598
3350.525650,-10658.965565,1850.514855,0.000000
3350.525987,-10584.944971,1332.370696,-76.609550
3350.526325,-9992.780217,444.123565,-612.876398
3350.526662,-7550.100608,1258.350101,-689.485948
3350.526999,-8586.388927,-296.082377,842.705048
3350.527337,-10140.821405,0.000000,229.828649
3350.527674,-10510.924376,0.000000,-2374.896044
3350.528011,-10066.800811,148.041188,-1762.019645
3350.528349,-10658.965565,-1628.453072,-459.657299
3350.528686,-9252.574275,-2146.597232,-153.219100
3350.529023,-8290.306550,-1258.350101,383.047749
3350.529361,-10140.821405,-2072.576638,1915.238745
3350.529698,-10584.944971,-1332.370696,995.924147
3350.530035,-11177.109724,-814.226536,0.000000
3350.530373,-11621.233289,-814.226536,306.438199
3350.530710,-11251.130318,-1998.556043,842.705048
3350.531047,-10214.842000,-444.123565,0.000000
3350.531384,-9104.533087,-370.102971,306.438199
3350.531722,-9696.697840,-1332.370696,1532.190996
3350.532059,-10584.944971,-518.144159,1072.533697
3350.532396,-11177.109724,0.000000,229.828649
3350.532734,-10436.903782,740.205942,383.047749
3350.533071,-10658.965565,-518.144159,-383.047749
3350.533408,-9548.656652,444.123565,-1302.362347
3350.533746,-8290.306550,148.041188,-1378.971896
3350.534083,-9844.739029,-1258.350101,1072.533697
3350.534420,-9992.780217,-592.164754,536.266849
3350.534758,-10140.821405,1184.329507,-1378.971896
3350.535095,-10807.006753,0.000000,-1302.362347
3350.535432,-10881.027347,-740.205942,-1225.752797
3350.535770,-9622.677246,-962.267725,-153.219100
3350.536107,-8290.306550,0.000000,383.047749
3350.536444,-8364.327145,-666.185348,1532.190996
3350.536782,-10066.800811,444.123565,2068.457845
3350.537119,-10732.986159,1036.288319,306.438199
3350.537456,-10658.965565,888.247130,1149.143247
3350.537793,-11399.171507,1258.350101,995.924147
3350.538131,-10436.903782,1036.288319,612.876398
3350.538468,-8734.430116,1184.329507,1225.752797
3350.538805,-9400.615463,518.144159,2528.115143
3350.539143,-10140.821405,1184.329507,2374.896044
3350.539480,-10658.965565,1702.473667,-229.828649
3350.539817,-11325.150913,1110.308913,-76.609550
3350.540155,-10584.944971,962.267725,-919.314598
3350.540492,-8734.430116,-296.082377,-1378.971896
3350.540829,-7476.080014,740.205942,-1455.581446
3350.541167,-9030.512492,-1110.308913,919.314598
3350.541504,-11177.109724,-814.226536,-919.314598
3350.541841,-10732.986159,-592.164754,-2145.067394
3350.542179,-11103.089130,-444.123565,-842.705048
3350.542516,-10584.944971,-2516.700203,306.438199
3350.542853,-9474.636058,-2442.679609,0.000000
3350.543190,-8512.368333,-2738.761985,766.095498
3350.543528,-10066.800811,-1998.556043,1455.581446
3350.543865,-10584.944971,-2294.638420,76.609550
3350.544202,-10881.027347,-1258.350101,-536.266849
3350.544540,-10436.903782,-1036.288319,1149.143247
3350.544877,-11621.233289,-1480.411884,1762.019645
3350.545214,-10362.883188,-444.123565,1455.581446
3350.545552,-8142.265362,0.000000,995.924147
3350.545889,-9696.697840,-518.144159,3294.210641
3350.546226,-11695.253884,74.020594,2451.505594
3350.546564,-10955.047942,1258.350101,0.000000
3350.546901,-10510.924376,1480.411884,229.828649
3350.547238,-10658.965565,222.061783,76.609550
3350.547576,-9474.636058,222.061783,-919.314598
3350.547913,-8068.244768,814.226536,-306.438199
3350.548250,-9326.594869,-148.041188,306.438199
3350.548588,-10140.821405,-222.061783,76.609550
3350.548925,-10214.842000,666.185348,-1608.800546
3350.549262,-10066.800811,814.226536,-995.924147
3350.549599,-10066.800811,-740.205942,153.219100
3350.549937,-9252.574275,-740.205942,76.609550
3350.550274,-8512.368333,222.061783,0.000000
3350.550611,-10732.986159,-888.247130,1838.629195
3350.550949,-11325.150913,-814.226536,766.095498
3350.551286,-10140.821405,-1480.411884,-689.485948
3350.551623,-10140.821405,-962.267725,1685.410096
3350.551961,-10140.821405,-1406.391290,1532.190996
3350.552298,-9918.759623,-592.164754,383.047749
3350.552635,-8586.388927,0.000000,0.000000
3350.552973,-10510.924376,-370.102971,1072.533697
3350.553310,-11695.253884,-666.185348,383.047749
3350.553647,-10362.883188,518.144159,-766.095498
3350.553985,-10362.883188,0.000000,306.438199
3350.554322,-10510.924376,-888.247130,383.047749
3350.554659,-8734.430116,-740.205942,-1378.971896
3350.554997,-8734.430116,-740.205942,0.000000
3350.555334,-10881.027347,-1332.370696,689.485948
3350.555671,-11769.274478,-740.205942,-1149.143247
3350.556008,-11103.089130,-370.102971,-2298.286494
3350.556346,-9918.759623,-666.185348,-2298.286494
3350.556683,-10140.821405,-1702.473667,-1455.581446
3350.557020,-9178.553681,-1776.494261,-1608.800546
3350.557358,-8216.285956,-814.226536,229.828649
3350.557695,-9918.759623,-1554.432478,1608.800546
3350.558032,-11621.233289,-592.164754,1225.752797
3350.558370,-11251.130318,518.144159,612.876398
3350.558707,-11325.150913,74.020594,2911.162892
3350.559044,-11177.109724,222.061783,2681.334243
3350.559382,-10066.800811,1628.453072,919.314598
3350.559719,-8956.491898,1554.432478,1838.629195
3350.560056,-9918.759623,518.144159,1915.238745
3350.560394,-9992.780217,1110.308913,153.219100
3350.560731,-9844.739029,2664.741391,0.000000
3350.561068,-9548.656652,2812.782580,689.485948
3350.561406,-10214.842000,1480.411884,-76.609550
3350.561743,-9474.636058,1776.494261,-1838.629195
3350.562080,-7846.182985,1480.411884,-766.095498
3350.562417,-9918.759623,222.061783,1149.143247
3350.562755,-10955.047942,370.102971,0.000000
3350.563092,-9252.574275,370.102971,-1072.533697
3350.563429,-9474.636058,370.102971,0.000000
3350.563767,-9770.718434,-1480.411884,153.219100
3350.564104,-9770.718434,-1184.329507,-536.266849
3350.564441,-8882.471304,-1850.514855,0.000000
3350.564779,-9844.739029,-1776.494261,2068.457845
3350.565116,-10955.047942,-296.082377,383.047749
3350.565453,-10436.903782,-296.082377,-689.485948
3350.565791,-10881.027347,-296.082377,1302.362347
3350.566128,-11473.192101,-1702.473667,1072.533697
3350.566465,-9844.739029,-1184.329507,612.876398
3350.566803,-9844.739029,-814.226536,1915.238745
3350.567140,-10732.986159,-1924.535449,2528.115143
3350.567477,-11251.130318,-444.123565,1762.019645
3350.567815,-11547.212695,518.144159,76.609550
3350.568152,-10881.027347,0.000000,0.000000
3350.568489,-11029.068536,-888.247130,306.438199
3350.568826,-9474.636058,-296.082377,-1378.971896
3350.569164,-8512.368333,-592.164754,-1072.533697
3350.569501,-10140.821405,-1036.288319,0.000000
3350.569838,-10584.944971,-1184.329507,-1225.752797
3350.570176,-9178.553681,-74.020594,-3064.381992
3350.570513,-9474.636058,-518.144159,-1378.971896
3350.570850,-9696.697840,-2146.597232,-459.657299
3350.571188,-8956.491898,-1776.494261,-153.219100
3350.571525,-8512.368333,-814.226536,1225.752797
3350.571862,-10140.821405,-962.267725,2834.553343
3350.572200,-10732.986159,-444.123565,1838.629195
3350.572537,-10214.842000,-74.020594,1072.533697
3350.572874,-10066.800811,296.082377,2374.896044
3350.573212,-10066.800811,592.164754,2451.505594
3350.573549,-9178.553681,1702.473667,842.705048
3350.573886,-9548.656652,1776.494261,536.266849
3350.574223,-11103.089130,1406.391290,1072.533697
3350.574561,-11621.233289,1850.514855,0.000000
3350.574898,-10436.903782,1776.494261,-1225.752797
3350.575235,-9548.656652,1480.411884,-229.828649
3350.575573,-9918.759623,74.020594,-536.266849
3350.575910,-8882.471304,-296.082377,-229.828649
3350.576247,-8586.388927,-370.102971,612.876398
3350.576585,-11177.109724,-1036.288319,1762.019645
3350.576922,-11473.192101,-740.205942,-153.219100
3350.577259,-10955.047942,-814.226536,-766.095498
3350.577597,-10214.842000,-1554.432478,-919.314598
3350.577934,-9326.594869,-2294.638420,-919.314598
3350.578271,-8808.450710,-2146.597232,-919.314598
3350.578608,-8660.409521,-2368.659014,-612.876398
3350.578946,-9548.656652,-2516.700203,-689.485948
3350.579283,-10584.944971,-1554.432478,-919.314598
3350.579620,-10584.944971,-1184.329507,76.609550
3350.579958,-10510.924376,-1702.473667,1072.533697
3350.580295,-10955.047942,-1850.514855,1685.410096
3350.580632,-9474.636058,-962.267725,2374.896044
3350.580970,-8586.388927,0.000000,2987.772442
3350.581307,-11399.171507,74.020594,3524.039291
3350.581644,-11991.336260,592.164754,1302.362347
3350.581982,-10658.965565,1332.370696,-995.924147
3350.582319,-10807.006753,1776.494261,-76.609550
3350.582656,-10214.842000,666.185348,0.000000
3350.582993,-9104.533087,1036.288319,-1455.581446
3350.583331,-8512.368333,814.226536,-689.485948
3350.583668,-10436.903782,1036.288319,229.828649
3350.584005,-11251.130318,0.000000,-153.219100
3350.584343,-10066.800811,296.082377,-1532.190996
3350.584680,-9400.615463,1184.329507,-306.438199
3350.585017,-9622.677246,222.061783,536.266849
3350.585355,-9030.512492,-148.041188,536.266849
3350.585692,-9030.512492,0.000000,1225.752797
3350.586029,-10436.903782,592.164754,1762.019645
3350.586367,-12139.377449,444.123565,766.095498
3350.586704,-11103.089130,518.144159,-1302.362347
3350.587041,-9474.636058,-296.082377,-306.438199
3350.587378,-9178.553681,-444.123565,919.314598
3350.587716,-8290.306550,-148.041188,0.000000
3350.588053,-8068.244768,444.123565,0.000000
3350.588390,-10658.965565,296.082377,1455.581446
3350.588728,-11621.233289,592.164754,153.219100
3350.589065,-11103.089130,1258.350101,-383.047749
3350.589402,-11029.068536,444.123565,383.047749
3350.589740,-9992.780217,-1258.350101,459.657299
3350.590077,-9178.553681,-1184.329507,1149.143247
3350.590414,-8882.471304,-1554.432478,1532.190996
3350.590751,-10362.883188,-1998.556043,1302.362347
3350.591089,-12139.377449,-1036.288319,-1302.362347
3350.591426,-10658.965565,0.000000,-2834.553343
3350.591763,-9844.739029,-1406.391290,-2911.162892
3350.592101,-9474.636058,-1998.556043,-2451.505594
3350.592438,-8290.306550,-1702.473667,-1072.533697
3350.592775,-8660.409521,-1480.411884,995.924147
3350.593113,-10510.924376,-1924.535449,1838.629195
3350.593450,-12805.562797,-814.226536,2145.067394
3350.593787,-11769.274478,-518.144159,1608.800546
3350.594125,-10807.006753,-888.247130,2298.286494
3350.594462,-10584.944971,-1998.556043,3064.381992
3350.594799,-8068.244768,-296.082377,2374.896044
3350.595136,-8586.388927,222.061783,2987.772442
3350.595474,-10881.027347,370.102971,2068.457845
3350.595811,-11473.192101,1332.370696,-229.828649
3350.596148,-10510.924376,2590.720797,-1685.410096
3350.596486,-9400.615463,1776.494261,-1302.362347
3350.596823,-9474.636058,1406.391290,-612.876398
3350.597160,-7698.141797,444.123565,-995.924147
3350.597498,-7476.080014,0.000000,995.924147
3350.597835,-10362.883188,222.061783,2221.676944
3350.598172,-12065.356855,370.102971,0.000000
3350.598510,-11029.068536,814.226536,-1455.581446
3350.598847,-10510.924376,-666.185348,-1149.143247
3350.599184,-9474.636058,-2442.679609,-689.485948
3350.599521,-7031.956449,-1554.432478,-459.657299
3350.599859,-7105.977043,-1628.453072,612.876398
3350.600196,-10732.986159,-1628.453072,2374.896044
3350.600533,-12953.603985,-518.144159,-842.705048
3350.600871,-11547.212695,518.144159,-1685.410096
3350.601208,-11103.089130,-814.226536,0.000000
3350.601545,-10362.883188,-1258.350101,1072.533697
3350.601883,-8290.306550,-888.247130,612.876398
3350.602220,-8808.450710,-1110.308913,1762.019645
3350.602557,-11103.089130,-1332.370696,2298.286494
3350.602895,-11621.233289,-962.267725,0.000000
3350.603232,-11547.212695,666.185348,76.609550
3350.603569,-11325.150913,74.020594,-383.047749
3350.603906,-9992.780217,-296.082377,-1455.581446
3350.604244,-8068.244768,-1258.350101,-995.924147
3350.604581,-8512.368333,-1924.535449,612.876398
3350.604918,-9104.533087,-1480.411884,919.314598
3350.605256,-10955.047942,0.000000,229.828649
3350.605593,-11399.171507,666.185348,-1302.362347
3350.605930,-11029.068536,-518.144159,-1072.533697
3350.606268,-9696.697840,-1332.370696,153.219100
3350.606605,-8142.265362,-592.164754,-306.438199
3350.606942,-7994.224174,-444.123565,1378.971896
3350.607280,-10584.944971,-814.226536,1685.410096
3350.607617,-11177.109724,-370.102971,612.876398
3350.607954,-10140.821405,1258.350101,536.266849
3350.608291,-10510.924376,1258.350101,2068.457845
3350.608629,-10288.862594,666.185348,1302.362347
3350.608966,-9252.574275,1258.350101,612.876398
3350.609303,-8512.368333,1406.391290,1838.629195
3350.609641,-10658.965565,1702.473667,3677.258390
3350.609978,-12213.398043,1924.535449,1455.581446
3350.610315,-10955.047942,3256.906145,-1149.143247
3350.610653,-9770.718434,1554.432478,-612.876398
3350.610990,-10288.862594,222.061783,-536.266849
3350.611327,-8142.265362,-296.082377,-383.047749
3350.611665,-7402.059420,-962.267725,76.609550
3350.612002,-9474.636058,-518.144159,1225.752797
3350.612339,-12657.521608,-296.082377,0.000000
3350.612676,-10955.047942,740.205942,-2221.676944
3350.613014,-9770.718434,-1406.391290,-1302.362347
3350.613351,-10510.924376,-2442.679609,612.876398
3350.613688,-8216.285956,-2072.576638,-995.924147
3350.614026,-8142.265362,-2442.679609,229.828649
3350.614363,-10066.800811,-3182.885551,1149.143247
3350.614700,-10881.027347,-2220.617826,-306.438199
3350.615038,-11695.253884,-1258.350101,229.828649
3350.615375,-11399.171507,-1258.350101,229.828649
3350.615712,-10140.821405,-2072.576638,995.924147
3350.616050,-9326.594869,-666.185348,1072.533697
3350.616387,-8586.388927,-740.205942,2451.505594
3350.616724,-11621.233289,-1036.288319,3370.820191
3350.617061,-12583.501014,-592.164754,1225.752797
3350.617399,-10732.986159,1554.432478,-383.047749
3350.617736,-10732.986159,1036.288319,153.219100
3350.618073,-10436.903782,-222.061783,383.047749
3350.618411,-8142.265362,740.205942,-1532.190996
3350.618748,-8438.347739,148.041188,-383.047749
3350.619085,-10955.047942,222.061783,689.485948
3350.619423,-12287.418637,592.164754,-1608.800546
3350.619760,-10362.883188,1406.391290,-2374.896044
3350.620097,-9474.636058,0.000000,-459.657299
3350.620435,-8882.471304,-1702.473667,766.095498
3350.620772,-7328.038826,-444.123565,995.924147
3350.621109,-8364.327145,-296.082377,2298.286494
3350.621446,-11547.212695,-296.082377,2068.457845
3350.621784,-11547.212695,-666.185348,-153.219100
3350.622121,-9770.718434,814.226536,229.828649
3350.622458,-10066.800811,-74.020594,1991.848295
3350.622796,-9844.739029,-296.082377,766.095498
3350.623133,-8364.327145,-296.082377,-383.047749
3350.623470,-8808.450710,370.102971,459.657299
3350.623808,-10362.883188,-962.267725,1838.629195
3350.624145,-11991.336260,-296.082377,612.876398
3350.624482,-10362.883188,666.185348,-459.657299
3350.624819,-11399.171507,962.267725,306.438199
3350.625157,-10510.924376,-592.164754,-536.266849
3350.625494,-8364.327145,-1110.308913,-1991.848295
3350.625831,-9178.553681,-1924.535449,306.438199
3350.626169,-11399.171507,-2146.597232,153.219100
3350.626506,-10807.006753,-1776.494261,-1915.238745
3350.626843,-9992.780217,-888.247130,-1991.848295
3350.627181,-9696.697840,-2516.700203,-1072.533697
3350.627518,-9548.656652,-2960.823768,-383.047749
3350.627855,-8808.450710,-1406.391290,306.438199
3350.628193,-9326.594869,-1850.514855,1149.143247
3350.628530,-11621.233289,-1332.370696,1838.629195
3350.628867,-11843.295072,-1258.350101,612.876398
3350.629204,-10140.821405,-222.061783,459.657299
3350.629542,-10436.903782,-296.082377,1838.629195
3350.629879,-9992.780217,-370.102971,1685.410096
3350.630216,-8068.244768,1036.288319,229.828649
3350.630554,-8882.471304,296.082377,1838.629195
3350.630891,-11177.109724,1258.350101,1915.238745
3350.631228,-11325.150913,1554.432478,0.000000
3350.631566,-10732.986159,2368.659014,842.705048
3350.631903,-10140.821405,2220.617826,995.924147
3350.632240,-9844.739029,1850.514855,0.000000
3350.632578,-8364.327145,1480.411884,-459.657299
3350.632915,-8364.327145,1258.350101,1225.752797
3350.633252,-10510.924376,0.000000,536.266849
3350.633589,-10732.986159,1480.411884,-1685.410096
3350.633927,-10732.986159,888.247130,-1762.019645
3350.634264,-10288.862594,-444.123565,-995.924147
3350.634601,-8956.491898,-592.164754,-1455.581446
3350.634939,-7846.182985,-518.144159,-612.876398
3350.635276,-8216.285956,-1258.350101,536.266849
3350.635613,-10140.821405,-1628.453072,536.266849
3350.635951,-11695.253884,-1480.411884,-229.828649
3350.636288,-10955.047942,74.020594,612.876398
3350.636625,-11547.212695,-74.020594,1762.019645
3350.636963,-10732.986159,-592.164754,766.095498
3350.637300,-9326.594869,0.000000,229.828649
3350.637637,-9844.739029,-962.267725,2374.896044
3350.637974,-11177.109724,-1184.329507,2145.067394
3350.638312,-11103.089130,-296.082377,-383.047749
3350.638649,-10362.883188,296.082377,-689.485948
3350.638986,-10658.965565,-592.164754,-1302.362347
3350.639324,-9548.656652,-740.205942,-1838.629195
3350.639661,-8216.285956,-296.082377,-1302.362347
3350.639998,-9030.512492,-1110.308913,612.876398
