#time,accel_x,accel_y,accel_z
3039.445808,-9548.656652,222.061783,-306.438199
3039.446146,-9474.636058,0.000000,-612.876398
3039.446483,-9548.656652,222.061783,229.828649
3039.446820,-9992.780217,-518.144159,0.000000
3039.447158,-9844.739029,-296.082377,-919.314598
3039.447495,-9030.512492,0.000000,-1378.971896
3039.447832,-9400.615463,-1184.329507,-612.876398
3039.448170,-9474.636058,-1184.329507,76.609550
3039.448507,-9918.759623,-888.247130,-153.219100
3039.448845,-9696.697840,-296.082377,76.609550
3039.449182,-9622.677246,370.102971,0.000000
3039.449519,-10510.924376,-296.082377,229.828649
3039.449857,-11695.253884,0.000000,306.438199
3039.450194,-10214.842000,-740.205942,0.000000
3039.450531,-9844.739029,222.061783,919.314598
3039.450869,-9770.718434,0.000000,-459.657299
3039.451206,-10807.006753,-518.144159,0.000000
3039.451543,-10732.986159,-1554.432478,-842.705048
3039.451881,-8956.491898,-666.185348,-1378.971896
3039.452218,-9178.553681,148.041188,0.000000
3039.452555,-11103.089130,-1036.288319,-1225.752797
3039.452893,-10658.965565,-1406.391290,-1532.190996
3039.453230,-10214.842000,-1702.473667,-1378.971896
3039.453568,-9918.759623,-740.205942,-1149.143247
3039.453905,-10140.821405,-962.267725,-1072.533697
3039.454242,-10510.924376,-2516.700203,-1608.800546
3039.454580,-9400.615463,-2960.823768,-1685.410096
3039.454917,-8660.409521,-3108.864956,-459.657299
3039.455254,-9474.636058,-1406.391290,766.095498
3039.455592,-10732.986159,-2146.597232,-612.876398
3039.455929,-11251.130318,-1184.329507,-2221.676944
3039.456266,-9992.780217,-1850.514855,-1838.629195
3039.456604,-10066.800811,-1406.391290,229.828649
3039.456941,-8808.450710,-1332.370696,1225.752797
3039.457279,-10288.862594,-1036.288319,842.705048
3039.457616,-10510.924376,-888.247130,306.438199
3039.457953,-9474.636058,-296.082377,-1225.752797
3039.458291,-10288.862594,-740.205942,383.047749
3039.458628,-10881.027347,0.000000,-306.438199
3039.458965,-10510.924376,-666.185348,-2604.724693
3039.459303,-10510.924376,-592.164754,-3983.696590
3039.459640,-8882.471304,-2220.617826,-4979.620737
3039.459977,-8142.265362,-3182.885551,-3140.991542
3039.460315,-8734.430116,-3701.029710,-2604.724693
3039.460652,-8512.368333,-2738.761985,-2604.724693
3039.460989,-9326.594869,-2368.659014,-3217.601092
3039.461327,-10140.821405,-3034.844362,-2911.162892
3039.461664,-10658.965565,-2590.720797,-2834.553343
3039.462002,-10881.027347,-4367.215058,-3524.039291
3039.462339,-10658.965565,-4367.215058,-3294.210641
3039.462676,-10066.800811,-6661.853478,-3524.039291
3039.463014,-8734.430116,-7031.956449,-2451.505594
3039.463351,-7550.100608,-6809.894666,-1455.581446
3039.463688,-8808.450710,-5329.482782,-1072.533697
3039.464026,-9918.759623,-4071.132681,-1302.362347
3039.464363,-11473.192101,-3627.009116,-2681.334243
3039.464700,-10881.027347,-2294.638420,-2604.724693
3039.465038,-11547.212695,-2812.782580,-2528.115143
3039.465375,-11621.233289,-3627.009116,-1532.190996
3039.465713,-10658.965565,-4145.153275,-1532.190996
3039.466050,-9770.718434,-3552.988522,0.000000
3039.466387,-9548.656652,-3256.906145,-689.485948
3039.466725,-9696.697840,-3552.988522,-1685.410096
3039.467062,-10288.862594,-3552.988522,-1608.800546
3039.467399,-9696.697840,-3478.967927,-1762.019645
3039.467737,-9178.553681,-1332.370696,-995.924147
3039.468074,-10362.883188,370.102971,-995.924147
3039.468411,-11547.212695,-592.164754,-2451.505594
3039.468749,-11547.212695,-2146.597232,-3294.210641
3039.469086,-10436.903782,-3330.926739,-1685.410096
3039.469423,-9770.718434,-2738.761985,612.876398
3039.469761,-8586.388927,-2368.659014,229.828649
3039.470098,-8734.430116,-2368.659014,-1532.190996
3039.470436,-9474.636058,-2368.659014,-1532.190996
3039.470773,-9326.594869,-962.267725,-1149.143247
3039.471110,-9474.636058,962.267725,-306.438199
3039.471448,-9400.615463,1480.411884,-919.314598
3039.471785,-10658.965565,1258.350101,-842.705048
3039.472122,-12065.356855,814.226536,-383.047749
3039.472460,-10732.986159,814.226536,-995.924147
3039.472797,-7772.162391,-444.123565,-612.876398
3039.473134,-8586.388927,-2442.679609,1302.362347
3039.473472,-9844.739029,-1702.473667,0.000000
3039.473809,-9696.697840,-1110.308913,-2298.286494
3039.474147,-9104.533087,-1406.391290,-2757.943793
3039.474484,-9918.759623,-2812.782580,-3753.867940
3039.474821,-11399.171507,-1110.308913,-5209.449386
3039.475159,-10214.842000,-1480.411884,-6281.983084
3039.475496,-8216.285956,-2664.741391,-4213.525239
3039.475833,-8142.265362,-3256.906145,-2451.505594
3039.476171,-10066.800811,-3256.906145,-2298.286494
3039.476508,-11843.295072,-2812.782580,-2374.896044
3039.476845,-10807.006753,-4145.153275,-1838.629195
3039.477183,-10436.903782,-3552.988522,-1532.190996
3039.477520,-10510.924376,-3552.988522,0.000000
3039.477857,-11325.150913,-2590.720797,229.828649
3039.478195,-10584.944971,-2368.659014,-2221.676944
3039.478532,-11103.089130,-2220.617826,-2681.334243
3039.478870,-11399.171507,-1924.535449,-2298.286494
3039.479207,-10214.842000,-2442.679609,-2681.334243
3039.479544,-9104.533087,-1628.453072,-2298.286494
3039.479882,-8660.409521,-1850.514855,-2451.505594
3039.480219,-8882.471304,-2738.761985,-1838.629195
3039.480556,-9696.697840,-1258.350101,-1225.752797
3039.480894,-8808.450710,-1480.411884,-1149.143247
3039.481231,-9918.759623,-518.144159,0.000000
3039.481568,-10732.986159,0.000000,-766.095498
3039.481906,-11177.109724,-222.061783,-1532.190996
3039.482243,-10807.006753,-962.267725,-2681.334243
3039.482581,-9696.697840,-2886.803174,-3064.381992
3039.482918,-9474.636058,-4071.132681,-1762.019645
3039.483255,-7920.203579,-3775.050304,-2681.334243
3039.483593,-8364.327145,-3923.091493,-995.924147
3039.483930,-9474.636058,-3627.009116,-2374.896044
3039.484267,-8956.491898,-3256.906145,-1225.752797
3039.484605,-10140.821405,-1554.432478,0.000000
3039.484942,-9918.759623,74.020594,76.609550
3039.485279,-11695.253884,296.082377,536.266849
3039.485617,-11917.315666,-1110.308913,-842.705048
3039.485954,-12139.377449,-1998.556043,-919.314598
3039.486291,-10732.986159,-4145.153275,-306.438199
3039.486629,-9030.512492,-4663.297435,-1302.362347
3039.486966,-8068.244768,-6661.853478,-1455.581446
3039.487304,-8290.306550,-5995.668130,-2451.505594
3039.487641,-8808.450710,-4737.318029,-1991.848295
3039.487978,-9474.636058,-2812.782580,-2528.115143
3039.488316,-10584.944971,-1036.288319,-3753.867940
3039.488653,-11991.336260,-2072.576638,-3983.696590
3039.488990,-13027.624579,-2294.638420,-3753.867940
3039.489328,-10584.944971,-3478.967927,-4060.306139
3039.489665,-9696.697840,-5995.668130,-2221.676944
3039.490002,-8216.285956,-7254.018232,-1149.143247
3039.490340,-8364.327145,-7994.224174,-689.485948
3039.490677,-9622.677246,-6069.688724,-995.924147
3039.491015,-9326.594869,-4441.235652,-2451.505594
3039.491352,-9696.697840,-3330.926739,-3447.429741
3039.491689,-11325.150913,-2072.576638,-4749.792088
3039.492027,-11399.171507,-1406.391290,-4749.792088
3039.492364,-10140.821405,-1480.411884,-2604.724693
3039.492701,-9696.697840,-1332.370696,76.609550
3039.493039,-10140.821405,-888.247130,1455.581446
3039.493376,-10955.047942,0.000000,1532.190996
3039.493713,-11547.212695,-1258.350101,919.314598
3039.494051,-11843.295072,-1480.411884,-995.924147
3039.494388,-10584.944971,-1924.535449,-1455.581446
3039.494725,-7772.162391,-1184.329507,-1532.190996
3039.495063,-7846.182985,-740.205942,-1378.971896
3039.495400,-8956.491898,1406.391290,-2451.505594
3039.495738,-11103.089130,1998.556043,-4903.011187
3039.496075,-11843.295072,1480.411884,-5975.544884
3039.496412,-10510.924376,-74.020594,-5439.278036
3039.496750,-8956.491898,-1998.556043,-2528.115143
3039.497087,-8216.285956,-4219.173869,0.000000
3039.497424,-7031.956449,-4293.194464,842.705048
3039.497762,-7846.182985,-3627.009116,995.924147
3039.498099,-10214.842000,-2664.741391,0.000000
3039.498436,-10732.986159,-2220.617826,-2221.676944
3039.498774,-11029.068536,-1998.556043,-2221.676944
3039.499111,-10955.047942,-2294.638420,-1991.848295
3039.499449,-9548.656652,-1776.494261,-1149.143247
3039.499786,-10955.047942,-2738.761985,0.000000
3039.500123,-9770.718434,-1554.432478,-1149.143247
3039.500461,-10214.842000,-3256.906145,-1838.629195
3039.500798,-11251.130318,-3478.967927,-1455.581446
3039.501135,-10658.965565,-3552.988522,-689.485948
3039.501473,-10881.027347,-3330.926739,-306.438199
3039.501810,-10066.800811,-1554.432478,-2068.457845
3039.502147,-10066.800811,-666.185348,-3447.429741
3039.502485,-11251.130318,-1184.329507,-3677.258390
3039.502822,-11251.130318,-2738.761985,-2987.772442
3039.503159,-10436.903782,-2220.617826,-2298.286494
3039.503497,-10140.821405,-1924.535449,-2451.505594
3039.503834,-9474.636058,-1554.432478,-2221.676944
3039.504171,-9326.594869,-3552.988522,-2757.943793
3039.504509,-9252.574275,-4737.318029,-2911.162892
3039.504846,-8512.368333,-3849.070898,-766.095498
3039.505183,-8438.347739,-3478.967927,536.266849
3039.505521,-9252.574275,-1332.370696,1072.533697
3039.505858,-10584.944971,-1184.329507,0.000000
3039.506195,-11103.089130,222.061783,-995.924147
3039.506532,-10881.027347,814.226536,-1455.581446
3039.506870,-9992.780217,0.000000,229.828649
3039.507207,-9622.677246,-518.144159,306.438199
3039.507544,-8882.471304,0.000000,1838.629195
3039.507882,-10214.842000,370.102971,1608.800546
3039.508219,-9992.780217,222.061783,-612.876398
3039.508556,-11103.089130,-1258.350101,153.219100
3039.508894,-11177.109724,0.000000,-229.828649
3039.509231,-9696.697840,222.061783,-612.876398
3039.509568,-10362.883188,666.185348,0.000000
3039.509906,-10732.986159,74.020594,-2374.896044
3039.510243,-10288.862594,-1628.453072,-4366.744339
3039.510580,-8956.491898,-2442.679609,-2987.772442
3039.510918,-7402.059420,-3552.988522,0.000000
3039.511255,-9178.553681,-2812.782580,2451.505594
3039.511592,-10807.006753,-2294.638420,536.266849
3039.511930,-10807.006753,-2516.700203,-1838.629195
3039.512267,-11473.192101,-3330.926739,-612.876398
3039.512604,-9252.574275,-3627.009116,-229.828649
3039.512942,-9252.574275,-3701.029710,1838.629195
3039.513279,-10584.944971,-2368.659014,1685.410096
3039.513616,-10584.944971,-2368.659014,-919.314598
3039.513954,-11325.150913,-1850.514855,-1072.533697
3039.514291,-9548.656652,-2072.576638,459.657299
3039.514628,-10658.965565,-1998.556043,2604.724693
3039.514966,-10658.965565,518.144159,1838.629195
3039.515303,-9696.697840,222.061783,-306.438199
3039.515640,-10955.047942,-518.144159,-459.657299
3039.515978,-10288.862594,-444.123565,-766.095498
3039.516315,-10066.800811,444.123565,536.266849
3039.516652,-11843.295072,0.000000,229.828649
3039.516990,-10807.006753,-74.020594,-766.095498
3039.517327,-8882.471304,296.082377,-1915.238745
3039.517664,-9252.574275,-518.144159,-1455.581446
3039.518002,-7920.203579,-592.164754,-459.657299
3039.518339,-9030.512492,-814.226536,842.705048
3039.518676,-10214.842000,0.000000,1149.143247
3039.519014,-10214.842000,296.082377,612.876398
3039.519351,-11251.130318,888.247130,842.705048
3039.519688,-10362.883188,1406.391290,766.095498
3039.520026,-10362.883188,1110.308913,1225.752797
3039.520363,-9696.697840,1628.453072,689.485948
3039.520700,-9104.533087,666.185348,0.000000
3039.521038,-9548.656652,74.020594,842.705048
3039.521375,-9770.718434,0.000000,1685.410096
3039.521712,-11103.089130,814.226536,1455.581446
3039.522049,-11103.089130,1406.391290,1302.362347
3039.522387,-10214.842000,740.205942,612.876398
3039.522724,-10584.944971,888.247130,459.657299
3039.523061,-9622.677246,888.247130,-383.047749
3039.523399,-9104.533087,296.082377,0.000000
3039.523736,-9622.677246,0.000000,-1072.533697
3039.524073,-10362.883188,-1184.329507,-1685.410096
3039.524411,-10658.965565,-888.247130,-1378.971896
3039.524748,-8142.265362,-814.226536,-2987.772442
3039.525085,-9252.574275,-2368.659014,-1378.971896
3039.525423,-9400.615463,-2664.741391,-459.657299
3039.525760,-9844.739029,-2812.782580,76.609550
3039.526097,-10881.027347,-2368.659014,1455.581446
3039.526435,-9918.759623,-2146.597232,1455.581446
3039.526772,-11843.295072,-1554.432478,1225.752797
3039.527109,-11917.315666,-1924.535449,153.219100
3039.527447,-10066.800811,-1998.556043,306.438199
3039.527784,-9326.594869,-1702.473667,689.485948
3039.528121,-7920.203579,-1406.391290,1838.629195
3039.528459,-9844.739029,0.000000,3294.210641
3039.528796,-11177.109724,962.267725,1608.800546
3039.529133,-11251.130318,1332.370696,76.609550
3039.529471,-12583.501014,1184.329507,536.266849
3039.529808,-10807.006753,888.247130,1532.190996
3039.530145,-10066.800811,370.102971,1685.410096
3039.530483,-8586.388927,740.205942,229.828649
3039.530820,-8216.285956,-296.082377,76.609550
3039.531157,-10362.883188,-370.102971,306.438199
3039.531495,-9474.636058,0.000000,-229.828649
3039.531832,-9918.759623,666.185348,-689.485948
3039.532169,-10510.924376,962.267725,-995.924147
3039.532507,-9474.636058,-1110.308913,-842.705048
3039.532844,-9326.594869,-222.061783,0.000000
3039.533181,-8586.388927,-370.102971,0.000000
3039.533519,-9918.759623,-1036.288319,612.876398
3039.533856,-9622.677246,-74.020594,-689.485948
3039.534193,-10066.800811,-2442.679609,0.000000
3039.534531,-11399.171507,-2442.679609,766.095498
3039.534868,-9474.636058,-1850.514855,536.266849
3039.535205,-9548.656652,-592.164754,2068.457845
3039.535543,-10584.944971,-518.144159,919.314598
3039.535880,-9992.780217,0.000000,-76.609550
3039.536217,-11103.089130,888.247130,0.000000
3039.536555,-11103.089130,0.000000,-76.609550
3039.536892,-10436.903782,-1406.391290,0.000000
3039.537229,-10584.944971,-1258.350101,-689.485948
3039.537567,-9030.512492,-2294.638420,-383.047749
3039.537904,-9918.759623,-370.102971,76.609550
3039.538241,-9178.553681,-1332.370696,0.000000
3039.538578,-11473.192101,0.000000,-153.219100
3039.538916,-10881.027347,0.000000,-1991.848295
3039.539253,-10584.944971,-1184.329507,-2374.896044
3039.539590,-9548.656652,-1406.391290,0.000000
3039.539928,-9844.739029,-1110.308913,229.828649
3039.540265,-10066.800811,-1110.308913,76.609550
3039.540602,-9030.512492,370.102971,-383.047749
3039.540940,-8956.491898,0.000000,612.876398
3039.541277,-11325.150913,-666.185348,2451.505594
3039.541614,-9770.718434,666.185348,2068.457845
3039.541952,-10214.842000,296.082377,2145.067394
3039.542289,-11399.171507,1036.288319,2298.286494
3039.542626,-9474.636058,592.164754,995.924147
3039.542964,-8956.491898,1554.432478,2757.943793
3039.543301,-7994.224174,1628.453072,1838.629195
3039.543638,-9918.759623,1628.453072,2068.457845
3039.543976,-11473.192101,1998.556043,0.000000
3039.544313,-9548.656652,296.082377,-459.657299
3039.544650,-9992.780217,592.164754,536.266849
3039.544988,-9992.780217,1406.391290,306.438199
3039.545325,-9770.718434,444.123565,-306.438199
3039.545662,-8956.491898,518.144159,-1455.581446
3039.546000,-8660.409521,-962.267725,-1685.410096
3039.546337,-10214.842000,-1628.453072,0.000000
3039.546674,-9992.780217,-1850.514855,153.219100
3039.547012,-10584.944971,-2072.576638,1455.581446
3039.547349,-11621.233289,-1258.350101,689.485948
3039.547686,-11029.068536,-1332.370696,76.609550
3039.548024,-10955.047942,-1184.329507,536.266849
3039.548361,-9030.512492,-1554.432478,153.219100
3039.548698,-9104.533087,-1776.494261,1072.533697
3039.549036,-11473.192101,-592.164754,1072.533697
3039.549373,-11325.150913,-1184.329507,-995.924147
3039.549710,-11695.253884,-1036.288319,76.609550
3039.550048,-10436.903782,-962.267725,1149.143247
3039.550385,-8586.388927,0.000000,842.705048
3039.550722,-9992.780217,518.144159,1762.019645
3039.551060,-10066.800811,0.000000,1072.533697
3039.551397,-10881.027347,-888.247130,76.609550
3039.551734,-11769.274478,0.000000,0.000000
3039.552072,-8660.409521,0.000000,-1302.362347
3039.552409,-8882.471304,-74.020594,-842.705048
3039.552746,-8586.388927,0.000000,-1915.238745
3039.553084,-7402.059420,-222.061783,-2068.457845
3039.553421,-9474.636058,592.164754,536.266849
3039.553758,-10658.965565,-296.082377,459.657299
3039.554095,-11251.130318,74.020594,842.705048
3039.554433,-10584.944971,-962.267725,459.657299
3039.554770,-9622.677246,-1258.350101,1991.848295
3039.555107,-8956.491898,-370.102971,2374.896044
3039.555445,-7550.100608,0.000000,2221.676944
3039.555782,-9474.636058,444.123565,1302.362347
3039.556119,-11251.130318,666.185348,-306.438199
3039.556457,-11843.295072,1924.535449,-1072.533697
3039.556794,-11547.212695,2664.741391,-612.876398
3039.557131,-10066.800811,2294.638420,229.828649
3039.557469,-10288.862594,1184.329507,612.876398
3039.557806,-10510.924376,222.061783,-383.047749
3039.558143,-9992.780217,-1332.370696,612.876398
3039.558481,-9622.677246,-444.123565,1685.410096
3039.558818,-9400.615463,74.020594,2068.457845
3039.559155,-11251.130318,370.102971,-536.266849
3039.559493,-10436.903782,-296.082377,-2298.286494
3039.559830,-9770.718434,-2220.617826,-2374.896044
3039.560167,-9178.553681,-2368.659014,-1302.362347
3039.560505,-7994.224174,-1036.288319,-689.485948
3039.560842,-8882.471304,-1332.370696,-383.047749
3039.561179,-10955.047942,-1554.432478,-1378.971896
3039.561517,-9844.739029,-2664.741391,-995.924147
3039.561854,-10807.006753,-2368.659014,1532.190996
3039.562191,-8364.327145,-1702.473667,1762.019645
3039.562529,-9400.615463,-1776.494261,2374.896044
3039.562866,-11399.171507,-518.144159,1838.629195
3039.563203,-11325.150913,-1036.288319,919.314598
3039.563541,-10732.986159,148.041188,2451.505594
3039.563878,-9548.656652,1998.556043,2374.896044
3039.564215,-11325.150913,1776.494261,2834.553343
3039.564553,-10584.944971,1924.535449,-383.047749
3039.564890,-10066.800811,1036.288319,0.000000
3039.565227,-11399.171507,814.226536,1302.362347
3039.565565,-9548.656652,1554.432478,842.705048
3039.565902,-9030.512492,2368.659014,459.657299
3039.566239,-10214.842000,1258.350101,-459.657299
3039.566577,-11325.150913,-444.123565,-306.438199
3039.566914,-9918.759623,0.000000,1149.143247
3039.567251,-8142.265362,1480.411884,0.000000
3039.567589,-8142.265362,740.205942,-612.876398
3039.567926,-10362.883188,1332.370696,-1762.019645
3039.568263,-9992.780217,-296.082377,-2528.115143
3039.568601,-10214.842000,-2146.597232,76.609550
3039.568938,-7698.141797,-1554.432478,1991.848295
3039.569275,-8734.430116,-1110.308913,1455.581446
3039.569612,-10658.965565,-1480.411884,153.219100
3039.569950,-9770.718434,-1998.556043,-766.095498
3039.570287,-9770.718434,-888.247130,919.314598
3039.570624,-9992.780217,814.226536,1455.581446
3039.570962,-10288.862594,1332.370696,0.000000
3039.571299,-12139.377449,666.185348,-1302.362347
3039.571636,-11473.192101,-740.205942,-1455.581446
3039.571974,-10807.006753,-296.082377,306.438199
3039.572311,-9992.780217,962.267725,1455.581446
3039.572648,-10584.944971,0.000000,229.828649
3039.572986,-10807.006753,0.000000,-2145.067394
3039.573323,-9918.759623,-666.185348,-2757.943793
3039.573660,-10807.006753,-1924.535449,-459.657299
3039.573998,-7994.224174,-888.247130,-536.266849
3039.574335,-9252.574275,-740.205942,229.828649
3039.574672,-11917.315666,-222.061783,-1838.629195
3039.575010,-10955.047942,-518.144159,-2757.943793
3039.575347,-10362.883188,-1110.308913,0.000000
3039.575684,-8660.409521,-1110.308913,1532.190996
3039.576022,-8290.306550,-1036.288319,2451.505594
3039.576359,-10214.842000,296.082377,2451.505594
3039.576696,-10510.924376,-444.123565,1608.800546
3039.577034,-11251.130318,-814.226536,1838.629195
3039.577371,-9844.739029,1850.514855,1991.848295
3039.577708,-9548.656652,2368.659014,2451.505594
3039.578046,-9992.780217,2220.617826,766.095498
3039.578383,-9326.594869,1998.556043,-1532.190996
3039.578720,-10140.821405,518.144159,1149.143247
3039.579058,-8956.491898,1036.288319,2374.896044
3039.579395,-8290.306550,1554.432478,2528.115143
3039.579732,-11621.233289,1554.432478,2374.896044
3039.580070,-10510.924376,2072.576638,-383.047749
3039.580407,-10288.862594,-592.164754,-995.924147
3039.580744,-9992.780217,-444.123565,689.485948
3039.581082,-8290.306550,-592.164754,612.876398
3039.581419,-10066.800811,74.020594,536.266849
3039.581756,-10510.924376,-666.185348,-1838.629195
3039.582094,-9918.759623,-2294.638420,-2451.505594
3039.582431,-10658.965565,-888.247130,-1149.143247
3039.582768,-7994.224174,-1184.329507,-383.047749
3039.583106,-9030.512492,-1554.432478,536.266849
3039.583443,-11547.212695,-3108.864956,0.000000
3039.583780,-12065.356855,-2960.823768,0.000000
3039.584118,-10362.883188,-2294.638420,1532.190996
3039.584455,-9918.759623,-2368.659014,3370.820191
3039.584792,-10362.883188,0.000000,3294.210641
3039.585130,-11103.089130,-1036.288319,-459.657299
3039.585467,-12657.521608,-1332.370696,0.000000
3039.585804,-9696.697840,-888.247130,-842.705048
3039.586141,-8734.430116,740.205942,383.047749
3039.586479,-10288.862594,740.205942,-919.314598
3039.586816,-10658.965565,-666.185348,-1608.800546
3039.587153,-10214.842000,74.020594,-842.705048
3039.587491,-9696.697840,222.061783,612.876398
3039.587828,-10066.800811,1850.514855,2145.067394
3039.588165,-10955.047942,1998.556043,536.266849
3039.588503,-11029.068536,1110.308913,-1991.848295
3039.588840,-9030.512492,-592.164754,-2911.162892
3039.589177,-8956.491898,-592.164754,-842.705048
3039.589515,-7031.956449,814.226536,1225.752797
3039.589852,-8364.327145,1258.350101,-689.485948
3039.590189,-9918.759623,1110.308913,-1072.533697
3039.590527,-11547.212695,814.226536,0.000000
3039.590864,-9326.594869,740.205942,2451.505594
3039.591201,-9400.615463,1406.391290,4749.792088
3039.591539,-10584.944971,1480.411884,3830.477490
3039.591876,-9474.636058,1406.391290,766.095498
3039.592213,-10066.800811,0.000000,995.924147
3039.592551,-10362.883188,1036.288319,1608.800546
3039.592888,-9622.677246,1184.329507,1378.971896
3039.593225,-10732.986159,2368.659014,-229.828649
3039.593563,-10658.965565,2368.659014,-2451.505594
3039.593900,-10288.862594,518.144159,-2528.115143
3039.594237,-9992.780217,0.000000,-76.609550
3039.594575,-8364.327145,-1480.411884,612.876398
3039.594912,-9548.656652,0.000000,2068.457845
3039.595249,-11399.171507,-444.123565,-383.047749
3039.595587,-12435.459826,-1850.514855,-689.485948
3039.595924,-10436.903782,-2442.679609,-842.705048
3039.596261,-7846.182985,-2886.803174,612.876398
3039.596599,-9400.615463,-2664.741391,2451.505594
3039.596936,-9474.636058,-2516.700203,306.438199
3039.597273,-9770.718434,-2072.576638,-536.266849
3039.597611,-10955.047942,-2220.617826,-689.485948
3039.597948,-10362.883188,-1628.453072,536.266849
3039.598285,-10807.006753,-1110.308913,1991.848295
3039.598623,-9548.656652,-518.144159,1455.581446
3039.598960,-9178.553681,-814.226536,2145.067394
3039.599297,-10288.862594,0.000000,2681.334243
3039.599634,-10584.944971,0.000000,2681.334243
3039.599972,-11769.274478,1036.288319,1532.190996
3039.600309,-11621.233289,1406.391290,536.266849
3039.600646,-10881.027347,1110.308913,-306.438199
3039.600983,-9992.780217,518.144159,689.485948
3039.601320,-7772.162391,296.082377,459.657299
3039.601658,-8290.306550,1036.288319,306.438199
3039.601995,-9400.615463,2516.700203,-1378.971896
3039.602332,-10807.006753,1110.308913,-2221.676944
3039.602669,-11103.089130,0.000000,-1608.800546
3039.603007,-8882.471304,0.000000,-995.924147
3039.603344,-8364.327145,-444.123565,1302.362347
3039.603681,-8364.327145,962.267725,536.266849
3039.604018,-8956.491898,-518.144159,-919.314598
3039.604356,-11399.171507,-518.144159,-919.314598
3039.604693,-9770.718434,-222.061783,-1149.143247
3039.605030,-11843.295072,-666.185348,1225.752797
3039.605367,-11769.274478,74.020594,919.314598
3039.605705,-8586.388927,-1184.329507,-1225.752797
3039.606042,-9104.533087,-222.061783,153.219100
3039.606379,-9104.533087,-1184.329507,306.438199
3039.606716,-9622.677246,-814.226536,1532.190996
3039.607054,-11621.233289,-222.061783,459.657299
3039.607391,-11251.130318,592.164754,0.000000
3039.607728,-12435.459826,-370.102971,-229.828649
3039.608065,-9918.759623,-518.144159,-1685.410096
3039.608403,-8660.409521,-1480.411884,459.657299
3039.608740,-9770.718434,-1332.370696,0.000000
3039.609077,-9252.574275,-1184.329507,-1149.143247
3039.609414,-10288.862594,-1036.288319,-919.314598
3039.609752,-9474.636058,-1480.411884,-1072.533697
3039.610089,-9844.739029,-1776.494261,459.657299
3039.610426,-11251.130318,-962.267725,229.828649
3039.610763,-9400.615463,-740.205942,153.219100
3039.611100,-10066.800811,-962.267725,1302.362347
3039.611438,-9918.759623,-1110.308913,1685.410096
3039.611775,-9918.759623,-592.164754,1991.848295
3039.612112,-11399.171507,444.123565,2528.115143
3039.612449,-10288.862594,222.061783,459.657299
3039.612787,-9992.780217,-222.061783,2604.724693
3039.613124,-10066.800811,666.185348,3830.477490
3039.613461,-9844.739029,1332.370696,3524.039291
3039.613798,-10510.924376,2960.823768,2068.457845
3039.614136,-9474.636058,2368.659014,229.828649
3039.614473,-10214.842000,1628.453072,1149.143247
3039.614810,-10732.986159,2294.638420,612.876398
3039.615147,-9400.615463,1850.514855,0.000000
3039.615485,-9474.636058,1480.411884,-306.438199
3039.615822,-9178.553681,148.041188,-1455.581446
3039.616159,-10214.842000,-666.185348,0.000000
3039.616496,-8660.409521,-370.102971,-383.047749
3039.616834,-8290.306550,-814.226536,459.657299
3039.617171,-9030.512492,-370.102971,306.438199
3039.617508,-10214.842000,-1184.329507,-919.314598
3039.617845,-12805.562797,-1110.308913,-919.314598
3039.618183,-10510.924376,-2886.803174,-1991.848295
3039.618520,-9474.636058,-2072.576638,-459.657299
3039.618857,-9252.574275,-1332.370696,766.095498
3039.619194,-9770.718434,-2220.617826,-919.314598
3039.619532,-10658.965565,-2220.617826,0.000000
3039.619869,-10510.924376,-1554.432478,-995.924147
3039.620206,-10658.965565,-1850.514855,383.047749
3039.620543,-11621.233289,-370.102971,689.485948
3039.620880,-10881.027347,-1110.308913,0.000000
3039.621218,-11843.295072,-2146.597232,-229.828649
3039.621555,-8068.244768,-1850.514855,-689.485948
3039.621892,-7254.018232,-1776.494261,-536.266849
3039.622229,-10584.944971,0.000000,919.314598
3039.622567,-11621.233289,-740.205942,-1378.971896
3039.622904,-11399.171507,-444.123565,-612.876398
3039.623241,-11103.089130,444.123565,-1149.143247
3039.623578,-9622.677246,-222.061783,0.000000
3039.623916,-10140.821405,-222.061783,-459.657299
3039.624253,-9548.656652,-1258.350101,-919.314598
3039.624590,-10658.965565,-962.267725,1455.581446
3039.624927,-9918.759623,148.041188,2374.896044
3039.625265,-8808.450710,0.000000,1302.362347
3039.625602,-9622.677246,444.123565,-153.219100
3039.625939,-9030.512492,666.185348,-383.047749
3039.626276,-8808.450710,814.226536,689.485948
3039.626614,-9326.594869,1480.411884,1225.752797
3039.626951,-8290.306550,666.185348,2221.676944
3039.627288,-10436.903782,1406.391290,2068.457845
3039.627625,-10066.800811,1184.329507,1762.019645
3039.627963,-10288.862594,1258.350101,2757.943793
3039.628300,-10066.800811,518.144159,2757.943793
3039.628637,-8216.285956,0.000000,1072.533697
3039.628974,-9770.718434,370.102971,1225.752797
3039.629312,-9770.718434,-148.041188,-459.657299
3039.629649,-10066.800811,-296.082377,0.000000
3039.629986,-10362.883188,222.061783,-229.828649
3039.630323,-9844.739029,1406.391290,-1915.238745
3039.630660,-11547.212695,-518.144159,-1762.019645
3039.630998,-11547.212695,-2664.741391,-1225.752797
3039.631335,-9400.615463,-3701.029710,-153.219100
3039.631672,-9474.636058,-2072.576638,1302.362347
3039.632009,-9252.574275,-1924.535449,1455.581446
3039.632347,-11325.150913,-1998.556043,76.609550
3039.632684,-12509.480420,-1924.535449,-919.314598
3039.633021,-11029.068536,-2960.823768,-612.876398
3039.633358,-10807.006753,-1850.514855,1685.410096
3039.633696,-9252.574275,-1924.535449,2145.067394
3039.634033,-9548.656652,-740.205942,1302.362347
3039.634370,-10066.800811,-666.185348,612.876398
3039.634707,-10066.800811,222.061783,842.705048
3039.635045,-11843.295072,1480.411884,1532.190996
3039.635382,-10214.842000,1332.370696,-1072.533697
3039.635719,-10214.842000,1184.329507,-1072.533697
3039.636056,-9770.718434,148.041188,-306.438199
3039.636394,-8808.450710,444.123565,0.000000
3039.636731,-9622.677246,740.205942,153.219100
3039.637068,-9548.656652,296.082377,612.876398
3039.637405,-10066.800811,222.061783,-536.266849
3039.637743,-10140.821405,592.164754,-1762.019645
3039.638080,-9400.615463,370.102971,-766.095498
3039.638417,-8882.471304,740.205942,76.609550
3039.638754,-8808.450710,0.000000,0.000000
3039.639091,-9548.656652,1184.329507,-1149.143247
3039.639429,-9770.718434,-222.061783,-1532.190996
3039.639766,-9474.636058,-1554.432478,1072.533697
3039.640103,-10140.821405,-1998.556043,1762.019645
3039.640440,-9104.533087,-370.102971,1302.362347
3039.640778,-9844.739029,148.041188,2145.067394
3039.641115,-10140.821405,444.123565,766.095498
3039.641452,-10658.965565,666.185348,842.705048
3039.641789,-11917.315666,296.082377,919.314598
3039.642127,-10362.883188,1406.391290,459.657299
3039.642464,-10436.903782,0.000000,383.047749
3039.642801,-11251.130318,-444.123565,-536.266849
3039.643138,-9992.780217,-1628.453072,-1225.752797
3039.643476,-9474.636058,-1332.370696,383.047749
3039.643813,-8364.327145,-592.164754,0.000000
3039.644150,-10214.842000,-1776.494261,153.219100
3039.644487,-12213.398043,-148.041188,-1302.362347
3039.644825,-10510.924376,-1998.556043,-1608.800546
3039.645162,-11917.315666,-2368.659014,0.000000
3039.645499,-9400.615463,-2442.679609,0.000000
3039.645836,-9326.594869,-1776.494261,1149.143247
3039.646174,-9326.594869,-1480.411884,306.438199
3039.646511,-8512.368333,-3404.947333,-306.438199
3039.646848,-10288.862594,-3182.885551,1838.629195
3039.647185,-9770.718434,-1776.494261,1455.581446
3039.647523,-9474.636058,-1406.391290,2298.286494
3039.647860,-11103.089130,370.102971,1149.143247
3039.648197,-9844.739029,-518.144159,612.876398
3039.648534,-10584.944971,370.102971,2757.943793
3039.648871,-9770.718434,1924.535449,2911.162892
3039.649209,-9474.636058,1776.494261,2298.286494
3039.649546,-12065.356855,1480.411884,1072.533697
3039.649883,-9992.780217,592.164754,-383.047749
3039.650220,-9474.636058,666.185348,536.266849
3039.650558,-9474.636058,1480.411884,2145.067394
3039.650895,-9622.677246,2516.700203,1149.143247
3039.651232,-11843.295072,2368.659014,-1532.190996
3039.651569,-10807.006753,1406.391290,-3294.210641
3039.651907,-10510.924376,-814.226536,-1991.848295
3039.652244,-9770.718434,-666.185348,-766.095498
3039.652581,-7920.203579,-666.185348,0.000000
3039.652918,-8068.244768,-740.205942,-1072.533697
3039.653256,-8734.430116,-1036.288319,-1532.190996
3039.653593,-10955.047942,-2960.823768,0.000000
3039.653930,-10288.862594,-814.226536,0.000000
3039.654267,-9992.780217,-1554.432478,995.924147
3039.654605,-10214.842000,-1332.370696,0.000000
3039.654942,-8216.285956,-1554.432478,-2451.505594
3039.655279,-8882.471304,-3108.864956,-383.047749
3039.655616,-9252.574275,-2220.617826,842.705048
3039.655954,-8438.347739,-1554.432478,689.485948
3039.656291,-10584.944971,0.000000,689.485948
3039.656628,-12065.356855,-370.102971,-306.438199
3039.656965,-12435.459826,-1184.329507,536.266849
3039.657303,-11991.336260,222.061783,-153.219100
3039.657640,-9696.697840,74.020594,306.438199
3039.657977,-10584.944971,0.000000,536.266849
3039.658314,-10881.027347,-1036.288319,-1302.362347
3039.658651,-11843.295072,-1480.411884,-459.657299
3039.658989,-10066.800811,444.123565,-1532.190996
3039.659326,-9548.656652,592.164754,-689.485948
3039.659663,-11843.295072,0.000000,-229.828649
3039.660000,-9918.759623,-1110.308913,-1838.629195
3039.660338,-10732.986159,-2294.638420,1455.581446
3039.660675,-9696.697840,-1184.329507,3370.820191
3039.661012,-7550.100608,-444.123565,3217.601092
3039.661349,-10288.862594,518.144159,4136.915689
3039.661687,-10066.800811,0.000000,1225.752797
3039.662024,-9474.636058,-444.123565,536.266849
3039.662361,-8882.471304,444.123565,1838.629195
3039.662698,-6883.915261,592.164754,2681.334243
3039.663036,-8882.471304,1184.329507,2757.943793
3039.663373,-9992.780217,2664.741391,536.266849
3039.663710,-9252.574275,962.267725,-536.266849
3039.664047,-10066.800811,1332.370696,919.314598
3039.664385,-9474.636058,740.205942,1915.238745
3039.664722,-9696.697840,1406.391290,1072.533697
3039.665059,-10214.842000,592.164754,-842.705048
3039.665396,-10214.842000,-888.247130,536.266849
3039.665734,-10214.842000,148.041188,-76.609550
3039.666071,-9474.636058,740.205942,-306.438199
3039.666408,-11325.150913,666.185348,-1149.143247
3039.666745,-11325.150913,-666.185348,-3524.039291
3039.667083,-11251.130318,-2220.617826,-2068.457845
3039.667420,-10955.047942,-1702.473667,-459.657299
3039.667757,-9252.574275,-1998.556043,153.219100
3039.668094,-9844.739029,-1480.411884,459.657299
3039.668431,-10807.006753,-1628.453072,0.000000
3039.668769,-11769.274478,-3256.906145,1225.752797
3039.669106,-11695.253884,-2590.720797,1762.019645
3039.669443,-9400.615463,-1924.535449,1532.190996
3039.669780,-9918.759623,-888.247130,1225.752797
3039.670118,-9252.574275,592.164754,-306.438199
3039.670455,-9992.780217,0.000000,-1149.143247
3039.670792,-11399.171507,-1924.535449,-919.314598
3039.671129,-9326.594869,-1332.370696,306.438199
3039.671467,-9252.574275,296.082377,612.876398
3039.671804,-9178.553681,1702.473667,-383.047749
3039.672141,-9030.512492,814.226536,-459.657299
3039.672478,-11473.192101,-666.185348,-306.438199
3039.672816,-9326.594869,-666.185348,-766.095498
3039.673153,-8438.347739,370.102971,306.438199
3039.673490,-9622.677246,1258.350101,689.485948
3039.673827,-9696.697840,444.123565,-766.095498
3039.674165,-11695.253884,-444.123565,-995.924147
3039.674502,-9252.574275,444.123565,-76.609550
3039.674839,-8882.471304,518.144159,1149.143247
3039.675176,-9474.636058,1110.308913,306.438199
3039.675514,-10140.821405,0.000000,306.438199
3039.675851,-11251.130318,-666.185348,459.657299
3039.676188,-9992.780217,666.185348,1378.971896
3039.676525,-9178.553681,1110.308913,2298.286494
3039.676863,-10288.862594,888.247130,1762.019645
3039.677200,-10436.903782,-296.082377,1378.971896
3039.677537,-10658.965565,296.082377,1455.581446
3039.677874,-9104.533087,888.247130,842.705048
3039.678211,-10807.006753,962.267725,1991.848295
3039.678549,-11917.315666,1554.432478,-689.485948
3039.678886,-10140.821405,148.041188,-3370.820191
3039.679223,-10362.883188,-1554.432478,-2068.457845
3039.679560,-7402.059420,-2960.823768,-536.266849
3039.679898,-7772.162391,-2960.823768,766.095498
3039.680235,-10807.006753,-2368.659014,612.876398
3039.680572,-9252.574275,-1924.535449,-1991.848295
3039.680909,-11029.068536,-2146.597232,-459.657299
3039.681247,-11177.109724,-2442.679609,1225.752797
3039.681584,-9622.677246,-1628.453072,1838.629195
3039.681921,-10436.903782,-888.247130,1762.019645
3039.682258,-9992.780217,-1628.453072,383.047749
3039.682596,-11399.171507,-2442.679609,1608.800546
3039.682933,-11399.171507,-1702.473667,1762.019645
3039.683270,-9770.718434,-1924.535449,1762.019645
3039.683607,-10436.903782,0.000000,1991.848295
3039.683945,-9104.533087,592.164754,229.828649
3039.684282,-9844.739029,0.000000,1532.190996
3039.684619,-9696.697840,1110.308913,1302.362347
3039.684956,-10510.924376,666.185348,1302.362347
3039.685294,-12731.542202,2294.638420,1378.971896
3039.685631,-9992.780217,2516.700203,-1072.533697
3039.685968,-10066.800811,2442.679609,153.219100
3039.686305,-9992.780217,1406.391290,0.000000
3039.686643,-7772.162391,0.000000,-459.657299
3039.686980,-9252.574275,296.082377,1149.143247
3039.687317,-9770.718434,1184.329507,-229.828649
3039.687654,-10881.027347,296.082377,-1302.362347
3039.687991,-11251.130318,518.144159,-1378.971896
3039.688329,-8512.368333,-444.123565,-1532.190996
3039.688666,-8290.306550,0.000000,-536.266849
3039.689003,-7476.080014,222.061783,-612.876398
3039.689340,-9770.718434,-888.247130,-306.438199
3039.689678,-10955.047942,-1258.350101,76.609550
3039.690015,-9178.553681,-1332.370696,-306.438199
3039.690352,-10955.047942,-666.185348,2374.896044
3039.690689,-10658.965565,-296.082377,2604.724693
3039.691027,-9548.656652,-222.061783,1455.581446
3039.691364,-10584.944971,-296.082377,766.095498
3039.691701,-10510.924376,592.164754,-306.438199
3039.692038,-11547.212695,666.185348,-995.924147
3039.692376,-10362.883188,814.226536,-3447.429741
3039.692713,-9622.677246,-962.267725,-2451.505594
3039.693050,-11103.089130,-814.226536,-1072.533697
3039.693387,-8808.450710,-592.164754,153.219100
3039.693725,-9918.759623,-740.205942,2068.457845
3039.694062,-11399.171507,-814.226536,1225.752797
3039.694399,-10584.944971,-1628.453072,612.876398
3039.694736,-12065.356855,-666.185348,153.219100
3039.695074,-10510.924376,-2368.659014,153.219100
3039.695411,-9252.574275,-2664.741391,0.000000
3039.695748,-8512.368333,-666.185348,0.000000
3039.696085,-8660.409521,-962.267725,229.828649
3039.696423,-9770.718434,-148.041188,-689.485948
3039.696760,-9030.512492,-592.164754,-766.095498
3039.697097,-10510.924376,-666.185348,2068.457845
3039.697434,-9992.780217,1258.350101,2987.772442
3039.697771,-9252.574275,1036.288319,3140.991542
3039.698109,-10288.862594,1184.329507,3294.210641
3039.698446,-9844.739029,1332.370696,2604.724693
3039.698783,-11621.233289,1110.308913,2911.162892
3039.699120,-10732.986159,2072.576638,536.266849
3039.699458,-9252.574275,888.247130,842.705048
3039.699795,-10881.027347,370.102971,1378.971896
3039.700132,-9104.533087,0.000000,0.000000
3039.700470,-8882.471304,888.247130,-919.314598
3039.700807,-9178.553681,1036.288319,-995.924147
3039.701144,-9474.636058,740.205942,-1915.238745
3039.701481,-10214.842000,1184.329507,-1532.190996
3039.701819,-10807.006753,0.000000,-1378.971896
3039.702156,-10807.006753,-814.226536,-612.876398
3039.702493,-9474.636058,-666.185348,-306.438199
3039.702831,-7698.141797,-1036.288319,-536.266849
3039.703168,-10732.986159,-1480.411884,306.438199
3039.703505,-9770.718434,-2146.597232,-766.095498
3039.703843,-9992.780217,-2220.617826,0.000000
3039.704180,-9696.697840,-2220.617826,306.438199
3039.704517,-10066.800811,-1554.432478,1149.143247
3039.704855,-11251.130318,370.102971,1455.581446
3039.705192,-10436.903782,-1258.350101,536.266849
3039.705529,-10288.862594,-1628.453072,2757.943793
3039.705866,-10584.944971,-740.205942,2298.286494
3039.706204,-10140.821405,-518.144159,2068.457845
3039.706541,-11917.315666,296.082377,919.314598
3039.706878,-10288.862594,0.000000,-1302.362347
3039.707216,-9252.574275,0.000000,-1991.848295
3039.707553,-10881.027347,296.082377,-612.876398
3039.707890,-9622.677246,518.144159,-766.095498
3039.708228,-9622.677246,148.041188,-1915.238745
3039.708565,-9918.759623,1036.288319,-1608.800546
3039.708902,-10362.883188,370.102971,-1532.190996
3039.709240,-10807.006753,148.041188,-612.876398
3039.709577,-8734.430116,-740.205942,0.000000
3039.709914,-10436.903782,-666.185348,2145.067394
3039.710251,-9474.636058,0.000000,1608.800546
3039.710589,-9400.615463,-148.041188,1915.238745
3039.710926,-9696.697840,-370.102971,1762.019645
3039.711263,-10214.842000,0.000000,1302.362347
3039.711601,-9474.636058,1776.494261,459.657299
3039.711938,-9622.677246,1480.411884,0.000000
3039.712275,-10436.903782,888.247130,536.266849
3039.712613,-10436.903782,518.144159,-306.438199
3039.712950,-8438.347739,740.205942,-995.924147
3039.713287,-8956.491898,666.185348,1149.143247
3039.713625,-9918.759623,444.123565,1608.800546
3039.713962,-10214.842000,296.082377,306.438199
3039.714299,-11029.068536,0.000000,689.485948
3039.714637,-9992.780217,222.061783,153.219100
3039.714974,-11251.130318,0.000000,1225.752797
3039.715311,-11695.253884,592.164754,-459.657299
3039.715648,-10658.965565,0.000000,-1532.190996
3039.715986,-10140.821405,-1554.432478,-1762.019645
3039.716323,-8364.327145,-2812.782580,-842.705048
3039.716660,-9844.739029,-3182.885551,995.924147
3039.716998,-10288.862594,-2664.741391,1532.190996
3039.717335,-8364.327145,-962.267725,153.219100
3039.717672,-11029.068536,-1628.453072,919.314598
3039.718010,-11843.295072,-1776.494261,1762.019645
3039.718347,-10362.883188,-518.144159,2145.067394
3039.718684,-11029.068536,-814.226536,2987.772442
3039.719022,-9474.636058,-296.082377,2911.162892
3039.719359,-10955.047942,-740.205942,2681.334243
3039.719696,-10362.883188,740.205942,2298.286494
3039.720033,-8882.471304,0.000000,76.609550
3039.720371,-9474.636058,1184.329507,306.438199
3039.720708,-9548.656652,518.144159,-612.876398
3039.721045,-9622.677246,444.123565,-766.095498
3039.721383,-9400.615463,814.226536,-229.828649
3039.721720,-10510.924376,1110.308913,76.609550
3039.722057,-10584.944971,2072.576638,-1225.752797
3039.722395,-9252.574275,1406.391290,-1685.410096
3039.722732,-10214.842000,370.102971,-1302.362347
3039.723069,-9474.636058,-1258.350101,-1455.581446
3039.723407,-9474.636058,-1554.432478,0.000000
3039.723744,-9400.615463,-666.185348,76.609550
3039.724081,-9252.574275,-296.082377,-919.314598
3039.724418,-10584.944971,444.123565,-919.314598
3039.724756,-10066.800811,74.020594,-1225.752797
3039.725093,-10214.842000,-444.123565,-306.438199
3039.725430,-10658.965565,370.102971,383.047749
3039.725768,-9474.636058,1258.350101,-76.609550
3039.726105,-10955.047942,296.082377,0.000000
3039.726442,-10658.965565,-592.164754,-612.876398
3039.726780,-9178.553681,-1480.411884,306.438199
3039.727117,-9548.656652,0.000000,919.314598
3039.727454,-9104.533087,-222.061783,1685.410096
3039.727792,-11103.089130,370.102971,766.095498
3039.728129,-11621.233289,-74.020594,-995.924147
3039.728466,-10658.965565,-222.061783,-689.485948
3039.728803,-10066.800811,74.020594,-306.438199
3039.729141,-8734.430116,0.000000,-1225.752797
3039.729478,-8956.491898,-1184.329507,-689.485948
3039.729815,-9474.636058,-1554.432478,-1838.629195
3039.730153,-9474.636058,-2294.638420,-153.219100
3039.730490,-11399.171507,-1332.370696,1302.362347
3039.730827,-10362.883188,-444.123565,1225.752797
3039.731165,-11621.233289,-814.226536,1455.581446
3039.731502,-11621.233289,-888.247130,1532.190996
3039.731839,-9844.739029,-2368.659014,1455.581446
3039.732177,-10066.800811,-444.123565,2987.772442
3039.732514,-8068.244768,-1036.288319,2145.067394
3039.732851,-9548.656652,-592.164754,2451.505594
3039.733188,-11547.212695,740.205942,1149.143247
3039.733526,-10436.903782,-370.102971,153.219100
3039.733863,-10732.986159,1998.556043,1532.190996
3039.734200,-9770.718434,1628.453072,1685.410096
3039.734538,-11029.068536,1702.473667,1149.143247
3039.734875,-10510.924376,962.267725,612.876398
3039.735212,-9696.697840,-444.123565,1225.752797
3039.735550,-10436.903782,370.102971,1762.019645
3039.735887,-8438.347739,666.185348,0.000000
3039.736224,-9326.594869,888.247130,76.609550
3039.736562,-10807.006753,0.000000,-1378.971896
3039.736899,-9474.636058,-1036.288319,-2834.553343
3039.737236,-9770.718434,0.000000,-1302.362347
3039.737573,-9178.553681,0.000000,0.000000
3039.737911,-9252.574275,0.000000,-1225.752797
3039.738248,-10066.800811,0.000000,-2681.334243
3039.738585,-10066.800811,-1850.514855,-842.705048
3039.738923,-10140.821405,-1554.432478,-766.095498
3039.739260,-9548.656652,-1480.411884,306.438199
3039.739597,-9770.718434,-962.267725,1225.752797
3039.739935,-9326.594869,-518.144159,612.876398
3039.740272,-9548.656652,-740.205942,995.924147
3039.740609,-11695.253884,592.164754,1455.581446
3039.740947,-9992.780217,1036.288319,536.266849
3039.741284,-11325.150913,592.164754,-459.657299
3039.741621,-10732.986159,888.247130,-1608.800546
3039.741959,-9770.718434,-518.144159,-1532.190996
3039.742296,-10140.821405,-740.205942,766.095498
3039.742633,-8216.285956,0.000000,306.438199
3039.742970,-9696.697840,-148.041188,766.095498
3039.743308,-11917.315666,518.144159,306.438199
3039.743645,-10214.842000,-1258.350101,-995.924147
3039.743982,-11325.150913,-1258.350101,0.000000
3039.744320,-8438.347739,-296.082377,612.876398
3039.744657,-7254.018232,296.082377,919.314598
3039.744994,-10807.006753,814.226536,-306.438199
3039.745332,-9992.780217,-1184.329507,-1762.019645
3039.745669,-11325.150913,-1036.288319,-612.876398
3039.746006,-9400.615463,-518.144159,459.657299
3039.746344,-9252.574275,222.061783,2145.067394
3039.746681,-10807.006753,-222.061783,1532.190996
3039.747018,-9992.780217,-2146.597232,1225.752797
3039.747355,-9400.615463,-518.144159,1685.410096
3039.747693,-9104.533087,0.000000,2451.505594
3039.748030,-8586.388927,1036.288319,3447.429741
3039.748367,-11473.192101,1258.350101,1838.629195
3039.748705,-12361.439231,888.247130,-383.047749
3039.749042,-11399.171507,962.267725,-306.438199
3039.749379,-9992.780217,1110.308913,-459.657299
3039.749717,-7402.059420,444.123565,0.000000
3039.750054,-8734.430116,296.082377,-306.438199
3039.750391,-10214.842000,-370.102971,-689.485948
3039.750729,-10881.027347,-1628.453072,-612.876398
3039.751066,-10436.903782,-592.164754,0.000000
3039.751403,-9844.739029,-1332.370696,0.000000
3039.751740,-9918.759623,-1110.308913,76.609550
3039.752078,-9844.739029,-1258.350101,459.657299
3039.752415,-10732.986159,-2294.638420,842.705048
3039.752752,-9326.594869,-1406.391290,1302.362347
3039.753090,-9400.615463,-1702.473667,1685.410096
3039.753427,-11547.212695,-1184.329507,1455.581446
3039.753764,-10140.821405,-1554.432478,76.609550
3039.754102,-10288.862594,-2294.638420,1762.019645
3039.754439,-9178.553681,444.123565,2145.067394
3039.754776,-8660.409521,1332.370696,2068.457845
3039.755114,-11325.150913,1628.453072,153.219100
3039.755451,-10658.965565,296.082377,-1302.362347
3039.755788,-11547.212695,-962.267725,-306.438199
3039.756125,-11547.212695,296.082377,1608.800546
3039.756463,-7772.162391,74.020594,766.095498
3039.756800,-7846.182985,1184.329507,612.876398
3039.757137,-9770.718434,74.020594,-766.095498
3039.757475,-11621.233289,0.000000,-1685.410096
3039.757812,-11177.109724,-296.082377,-1532.190996
3039.758149,-9696.697840,296.082377,-995.924147
3039.758487,-8660.409521,0.000000,-1608.800546
3039.758824,-10214.842000,-1554.432478,-919.314598
3039.759161,-10288.862594,-2368.659014,-612.876398
3039.759499,-8290.306550,-2368.659014,-689.485948
3039.759836,-8808.450710,-888.247130,1072.533697
3039.760173,-10362.883188,0.000000,1225.752797
3039.760510,-11621.233289,0.000000,-153.219100
3039.760848,-12361.439231,-1258.350101,-153.219100
3039.761185,-10436.903782,-444.123565,229.828649
3039.761522,-8512.368333,814.226536,995.924147
3039.761860,-9696.697840,1184.329507,1455.581446
3039.762197,-10584.944971,444.123565,383.047749
3039.762534,-11843.295072,-370.102971,-612.876398
3039.762872,-11325.150913,666.185348,0.000000
3039.763209,-8956.491898,962.267725,0.000000
3039.763546,-8956.491898,1184.329507,919.314598
3039.763884,-9326.594869,222.061783,-689.485948
3039.764221,-10732.986159,-592.164754,-229.828649
3039.764558,-10955.047942,-222.061783,0.000000
3039.764896,-9104.533087,-740.205942,1072.533697
3039.765233,-10584.944971,296.082377,1225.752797
3039.765570,-9918.759623,148.041188,-766.095498
3039.765907,-10436.903782,-1184.329507,-612.876398
3039.766245,-9474.636058,-1554.432478,-612.876398
3039.766582,-7920.203579,-1110.308913,612.876398
3039.766919,-9474.636058,-148.041188,2298.286494
3039.767257,-10436.903782,0.000000,689.485948
3039.767594,-11029.068536,-1110.308913,689.485948
3039.767931,-11029.068536,-740.205942,2221.676944
3039.768269,-9178.553681,-592.164754,3140.991542
3039.768606,-9770.718434,370.102971,3983.696590
3039.768943,-9770.718434,592.164754,1915.238745
3039.769281,-10140.821405,222.061783,0.000000
3039.769618,-11399.171507,-1554.432478,842.705048
3039.769955,-10066.800811,-370.102971,689.485948
3039.770292,-9770.718434,518.144159,383.047749
3039.770630,-10066.800811,888.247130,-1302.362347
3039.770967,-9474.636058,74.020594,-1685.410096
3039.771304,-9770.718434,-740.205942,-1532.190996
3039.771642,-8734.430116,-444.123565,0.000000
3039.771979,-10732.986159,-1184.329507,766.095498
3039.772316,-11029.068536,-370.102971,-689.485948
3039.772654,-10584.944971,-1480.411884,-1915.238745
3039.772991,-10807.006753,-1554.432478,-842.705048
3039.773328,-8216.285956,-1924.535449,76.609550
3039.773666,-10362.883188,-1998.556043,1302.362347
3039.774003,-11103.089130,0.000000,-383.047749
3039.774340,-9622.677246,-1702.473667,-2145.067394
3039.774677,-11103.089130,-1110.308913,0.000000
3039.775015,-10214.842000,-1554.432478,0.000000
3039.775352,-10066.800811,-518.144159,842.705048
3039.775689,-8586.388927,962.267725,0.000000
3039.776027,-8882.471304,370.102971,0.000000
3039.776364,-11843.295072,0.000000,1302.362347
3039.776701,-10658.965565,148.041188,459.657299
3039.777039,-10510.924376,518.144159,1378.971896
3039.777376,-11177.109724,2590.720797,1149.143247
3039.777713,-10066.800811,1110.308913,-536.266849
3039.778051,-10362.883188,1110.308913,-1455.581446
3039.778388,-7624.121203,444.123565,-2528.115143
3039.778725,-8142.265362,74.020594,-1532.190996
3039.779062,-10436.903782,370.102971,-1685.410096
3039.779400,-10214.842000,-1184.329507,-2757.943793
3039.779737,-11473.192101,-1850.514855,-842.705048
3039.780074,-8956.491898,-1628.453072,459.657299
3039.780412,-8586.388927,-888.247130,2987.772442
3039.780749,-10881.027347,-1184.329507,4213.525239
3039.781086,-9252.574275,-666.185348,2757.943793
3039.781424,-11103.089130,-1702.473667,1838.629195
3039.781761,-11621.233289,-296.082377,1608.800546
3039.782098,-10140.821405,-74.020594,842.705048
3039.782436,-11547.212695,0.000000,229.828649
3039.782773,-8438.347739,222.061783,-1302.362347
3039.783110,-9474.636058,-222.061783,0.000000
3039.783447,-9326.594869,518.144159,919.314598
3039.783785,-9474.636058,-814.226536,1455.581446
3039.784122,-12361.439231,518.144159,1838.629195
3039.784459,-11473.192101,444.123565,536.266849
3039.784797,-11473.192101,222.061783,995.924147
3039.785134,-9030.512492,-74.020594,1225.752797
3039.785471,-9326.594869,-296.082377,1685.410096
3039.785809,-11029.068536,444.123565,229.828649
3039.786146,-10436.903782,-592.164754,-2374.896044
3039.786483,-10584.944971,-1110.308913,-2221.676944
3039.786821,-9622.677246,-1406.391290,-1991.848295
3039.787158,-8364.327145,-1554.432478,-1072.533697
3039.787495,-8956.491898,-1184.329507,153.219100
3039.787832,-9178.553681,-666.185348,-306.438199
3039.788170,-10214.842000,-1184.329507,536.266849
3039.788507,-10362.883188,-222.061783,1072.533697
3039.788844,-11177.109724,74.020594,3064.381992
3039.789182,-13101.645173,370.102971,2068.457845
3039.789519,-10140.821405,-370.102971,1225.752797
3039.789856,-8882.471304,0.000000,2068.457845
3039.790194,-8290.306550,-296.082377,2604.724693
3039.790531,-9252.574275,592.164754,2145.067394
3039.790868,-10140.821405,2072.576638,-383.047749
3039.791206,-9770.718434,2442.679609,-1302.362347
3039.791543,-11547.212695,814.226536,-1532.190996
3039.791880,-10066.800811,444.123565,-2451.505594
3039.792218,-7698.141797,592.164754,-919.314598
3039.792555,-9474.636058,-296.082377,459.657299
3039.792892,-9622.677246,148.041188,-383.047749
3039.793229,-10732.986159,-666.185348,-919.314598
3039.793567,-10510.924376,-962.267725,306.438199
3039.793904,-10214.842000,-2146.597232,459.657299
3039.794241,-11177.109724,-1702.473667,0.000000
3039.794579,-9474.636058,-1924.535449,-766.095498
3039.794916,-9992.780217,-2516.700203,-842.705048
3039.795253,-9770.718434,-888.247130,-919.314598
3039.795591,-7698.141797,-1554.432478,-1685.410096
3039.795928,-10214.842000,-1184.329507,-766.095498
3039.796265,-11769.274478,-1332.370696,459.657299
3039.796603,-11103.089130,-1110.308913,919.314598
3039.796940,-10436.903782,-1628.453072,1991.848295
3039.797277,-8882.471304,-814.226536,1838.629195
3039.797614,-10214.842000,-296.082377,2374.896044
3039.797952,-9400.615463,-370.102971,1072.533697
3039.798289,-11029.068536,0.000000,689.485948
3039.798626,-12287.418637,1110.308913,-536.266849
3039.798964,-8586.388927,666.185348,-2374.896044
3039.799301,-9474.636058,-296.082377,-1072.533697
3039.799638,-9474.636058,-444.123565,-153.219100
3039.799976,-9696.697840,-518.144159,-612.876398
3039.800313,-9474.636058,1110.308913,306.438199
3039.800650,-8882.471304,0.000000,0.000000
3039.800988,-10955.047942,0.000000,689.485948
3039.801325,-11473.192101,-444.123565,1072.533697
3039.801662,-10510.924376,-666.185348,2451.505594
3039.802000,-10732.986159,0.000000,3064.381992
3039.802337,-9474.636058,-444.123565,2145.067394
3039.802675,-9992.780217,-444.123565,1378.971896
3039.803012,-9844.739029,-444.123565,1378.971896
3039.803350,-9326.594869,296.082377,1608.800546
3039.803687,-9992.780217,1406.391290,1991.848295
3039.804025,-8734.430116,1480.411884,306.438199
3039.804362,-10066.800811,1702.473667,383.047749
3039.804700,-10658.965565,1036.288319,-383.047749
3039.805037,-9548.656652,-370.102971,76.609550
3039.805374,-9992.780217,-370.102971,1608.800546
3039.805712,-8364.327145,222.061783,842.705048
3039.806049,-9104.533087,0.000000,612.876398
3039.806387,-10362.883188,-1110.308913,-919.314598
3039.806724,-9474.636058,-3034.844362,-766.095498
3039.807062,-10140.821405,-1258.350101,76.609550
3039.807399,-9178.553681,-592.164754,-76.609550
3039.807737,-10214.842000,-888.247130,-1608.800546
3039.808074,-11251.130318,-1628.453072,-2374.896044
3039.808412,-10584.944971,-1628.453072,-1302.362347
3039.808749,-10214.842000,-296.082377,-842.705048
3039.809086,-9622.677246,0.000000,-919.314598
3039.809424,-10436.903782,-666.185348,-995.924147
3039.809761,-12065.356855,-1554.432478,0.000000
3039.810099,-11103.089130,-1850.514855,306.438199
3039.810436,-11547.212695,-518.144159,2681.334243
3039.810774,-10658.965565,740.205942,1378.971896
3039.811111,-10066.800811,296.082377,1149.143247
3039.811449,-10881.027347,740.205942,383.047749
3039.811786,-9622.677246,0.000000,-76.609550
3039.812124,-10362.883188,814.226536,1685.410096
3039.812461,-9030.512492,1924.535449,536.266849
3039.812798,-7698.141797,2368.659014,-383.047749
3039.813136,-11843.295072,1702.473667,-1302.362347
3039.813473,-10658.965565,0.000000,-1915.238745
3039.813811,-9400.615463,296.082377,153.219100
3039.814148,-8438.347739,370.102971,1149.143247
3039.814486,-8216.285956,444.123565,153.219100
3039.814823,-9030.512492,-296.082377,-383.047749
3039.815161,-9326.594869,-740.205942,-1149.143247
3039.815498,-9178.553681,-1258.350101,-459.657299
3039.815836,-8068.244768,592.164754,0.000000
3039.816173,-9252.574275,888.247130,1072.533697
3039.816510,-10807.006753,-592.164754,0.000000
3039.816848,-11103.089130,-1554.432478,766.095498
3039.817185,-11547.212695,-1554.432478,2681.334243
3039.817523,-10214.842000,-518.144159,3907.087040
3039.817860,-8956.491898,-296.082377,3294.210641
3039.818198,-10584.944971,-1332.370696,2834.553343
3039.818535,-12139.377449,-1702.473667,2757.943793
3039.818873,-11473.192101,-1258.350101,1378.971896
3039.819210,-10658.965565,-518.144159,459.657299
3039.819548,-9252.574275,888.247130,76.609550
3039.819885,-11325.150913,370.102971,-1685.410096
3039.820222,-10658.965565,-666.185348,-2298.286494
3039.820560,-9770.718434,-2146.597232,-919.314598
3039.820897,-9400.615463,-1628.453072,229.828649
3039.821235,-8808.450710,-1258.350101,-153.219100
3039.821572,-11177.109724,-1480.411884,-306.438199
3039.821910,-11029.068536,-2738.761985,-1225.752797
3039.822247,-10955.047942,-4367.215058,842.705048
3039.822585,-8734.430116,-2368.659014,919.314598
3039.822922,-8068.244768,-1036.288319,1762.019645
3039.823260,-10807.006753,148.041188,459.657299
3039.823597,-10510.924376,-962.267725,-2374.896044
3039.823934,-11991.336260,-1258.350101,-1225.752797
3039.824272,-9622.677246,-222.061783,76.609550
3039.824609,-7624.121203,666.185348,76.609550
3039.824947,-9844.739029,1258.350101,229.828649
3039.825284,-10140.821405,1258.350101,229.828649
3039.825622,-11325.150913,1998.556043,1685.410096
3039.825959,-12361.439231,3182.885551,1915.238745
3039.826297,-10732.986159,2368.659014,919.314598
3039.826634,-10658.965565,2442.679609,842.705048
3039.826972,-9548.656652,1110.308913,0.000000
3039.827309,-8660.409521,222.061783,612.876398
3039.827646,-9030.512492,1258.350101,995.924147
3039.827984,-7476.080014,1850.514855,-306.438199
3039.828321,-11621.233289,1998.556043,-2528.115143
3039.828659,-11399.171507,1702.473667,-3753.867940
3039.828996,-10140.821405,-740.205942,-2528.115143
3039.829334,-8882.471304,-1480.411884,-1302.362347
3039.829671,-5699.585753,-1332.370696,0.000000
3039.830009,-8142.265362,-1110.308913,1072.533697
3039.830346,-10584.944971,-2368.659014,536.266849
3039.830684,-10288.862594,-2886.803174,536.266849
3039.831021,-11325.150913,-2220.617826,2528.115143
3039.831358,-10732.986159,-1480.411884,2757.943793
3039.831696,-10584.944971,-222.061783,1455.581446
3039.832033,-10436.903782,148.041188,919.314598
3039.832371,-10362.883188,-962.267725,1685.410096
3039.832708,-10658.965565,-592.164754,1072.533697
3039.833046,-9918.759623,666.185348,0.000000
3039.833383,-11473.192101,740.205942,-612.876398
3039.833721,-11547.212695,296.082377,-1838.629195
3039.834058,-10732.986159,-962.267725,-306.438199
3039.834396,-10140.821405,296.082377,2068.457845
3039.834733,-9400.615463,148.041188,1991.848295
3039.835070,-11177.109724,222.061783,1455.581446
3039.835408,-10288.862594,444.123565,-919.314598
3039.835745,-10955.047942,-666.185348,-689.485948
3039.836083,-10881.027347,-1406.391290,919.314598
3039.836420,-8660.409521,-1258.350101,383.047749
3039.836758,-9030.512492,370.102971,0.000000
3039.837095,-9030.512492,1184.329507,-1225.752797
3039.837433,-9252.574275,592.164754,-919.314598
3039.837770,-10288.862594,-1110.308913,-76.609550
3039.838108,-8808.450710,-1036.288319,1532.190996
3039.838445,-9178.553681,296.082377,2757.943793
3039.838782,-9992.780217,1184.329507,1991.848295
3039.839120,-10362.883188,1036.288319,1838.629195
3039.839457,-10510.924376,0.000000,1225.752797
3039.839795,-8586.388927,148.041188,2374.896044
3039.840132,-9400.615463,1628.453072,1838.629195
3039.840470,-10214.842000,2960.823768,383.047749
3039.840807,-11029.068536,962.267725,-1072.533697
3039.841145,-11843.295072,0.000000,-1762.019645
3039.841482,-9474.636058,370.102971,-919.314598
3039.841820,-9474.636058,0.000000,0.000000
3039.842157,-9770.718434,0.000000,-1302.362347
3039.842494,-9474.636058,-1184.329507,-2834.553343
3039.842832,-10732.986159,-1850.514855,-2221.676944
3039.843169,-10140.821405,-2664.741391,-1378.971896
3039.843507,-9474.636058,-3330.926739,459.657299
3039.843844,-10436.903782,-2072.576638,689.485948
3039.844182,-10732.986159,-3108.864956,919.314598
3039.844519,-11547.212695,-1998.556043,0.000000
3039.844857,-9992.780217,-2516.700203,842.705048
3039.845194,-10584.944971,-2368.659014,1225.752797
3039.845532,-10807.006753,-1850.514855,459.657299
3039.845869,-10732.986159,-1480.411884,0.000000
3039.846206,-11769.274478,-1776.494261,-153.219100
3039.846544,-8882.471304,-1258.350101,-1225.752797
3039.846881,-8142.265362,0.000000,1225.752797
3039.847219,-9770.718434,592.164754,1685.410096
3039.847556,-9844.739029,444.123565,383.047749
3039.847894,-10955.047942,962.267725,536.266849
3039.848231,-10881.027347,1332.370696,842.705048
3039.848569,-10658.965565,888.247130,766.095498
3039.848906,-10510.924376,1036.288319,0.000000
3039.849244,-8512.368333,1184.329507,-689.485948
3039.849581,-9474.636058,-148.041188,306.438199
3039.849918,-10288.862594,592.164754,536.266849
3039.850256,-8512.368333,1184.329507,-536.266849
3039.850593,-9992.780217,2294.638420,-766.095498
3039.850931,-10066.800811,1184.329507,-1685.410096
3039.851268,-10140.821405,370.102971,-1302.362347
3039.851606,-10510.924376,666.185348,689.485948
3039.851943,-8364.327145,-1110.308913,1685.410096
3039.852281,-7994.224174,666.185348,1762.019645
3039.852618,-8364.327145,1554.432478,1072.533697
3039.852956,-10955.047942,740.205942,1455.581446
3039.853293,-12065.356855,0.000000,1685.410096
3039.853630,-9844.739029,-1036.288319,1455.581446
3039.853968,-9400.615463,74.020594,2987.772442
3039.854305,-9474.636058,-814.226536,2451.505594
3039.854643,-10732.986159,-296.082377,2757.943793
3039.854980,-10881.027347,-2368.659014,842.705048
3039.855318,-9918.759623,-1258.350101,1149.143247
3039.855655,-10436.903782,-222.061783,383.047749
3039.855993,-10066.800811,-592.164754,-995.924147
3039.856330,-10288.862594,-1850.514855,-1685.410096
3039.856668,-10584.944971,-1776.494261,-2757.943793
3039.857005,-9770.718434,-1850.514855,-1762.019645
3039.857342,-9622.677246,-1110.308913,-1991.848295
3039.857680,-11325.150913,-1924.535449,-842.705048
3039.858017,-11325.150913,-2072.576638,-1532.190996
3039.858355,-10658.965565,-2664.741391,-766.095498
3039.858692,-9252.574275,-2294.638420,2145.067394
3039.859030,-9844.739029,-1628.453072,2451.505594
3039.859367,-10140.821405,-592.164754,1532.190996
3039.859705,-11325.150913,-444.123565,1072.533697
3039.860042,-11325.150913,592.164754,842.705048
3039.860380,-9400.615463,1036.288319,766.095498
3039.860717,-10658.965565,740.205942,1378.971896
3039.861054,-9696.697840,2886.803174,-689.485948
3039.861392,-9030.512492,1628.453072,-1149.143247
3039.861729,-9326.594869,2664.741391,-459.657299
3039.862067,-7402.059420,1998.556043,-459.657299
3039.862404,-10066.800811,1332.370696,1302.362347
3039.862742,-9770.718434,2442.679609,76.609550
3039.863079,-8956.491898,1924.535449,-766.095498
3039.863417,-11177.109724,2664.741391,459.657299
3039.863754,-9992.780217,1850.514855,0.000000
3039.864092,-9474.636058,1332.370696,-383.047749
3039.864429,-9474.636058,444.123565,-306.438199
3039.864766,-7920.203579,-1184.329507,-766.095498
3039.865104,-10066.800811,-518.144159,306.438199
3039.865441,-9474.636058,-740.205942,0.000000
3039.865779,-9474.636058,-666.185348,-1149.143247
3039.866116,-9844.739029,-666.185348,-1072.533697
3039.866454,-10658.965565,-1258.350101,459.657299
3039.866791,-11547.212695,-1480.411884,1149.143247
3039.867129,-10066.800811,-1184.329507,1915.238745
3039.867466,-10584.944971,-1480.411884,2451.505594
3039.867804,-11547.212695,-1036.288319,2374.896044
3039.868141,-10140.821405,-1628.453072,1608.800546
3039.868478,-11251.130318,-2516.700203,1838.629195
3039.868816,-9474.636058,-2812.782580,2068.457845
3039.869153,-10066.800811,-2960.823768,1608.800546
3039.869491,-10881.027347,-1776.494261,995.924147
3039.869828,-9178.553681,-740.205942,-1378.971896
3039.870166,-10584.944971,-962.267725,-1455.581446
3039.870503,-10584.944971,-666.185348,-2298.286494
3039.870841,-8586.388927,-2516.700203,-1838.629195
3039.871178,-9992.780217,-1036.288319,306.438199
3039.871516,-9548.656652,-1850.514855,0.000000
3039.871853,-11029.068536,-2072.576638,-612.876398
3039.872190,-10436.903782,-518.144159,306.438199
3039.872528,-9178.553681,-1036.288319,2145.067394
3039.872865,-9844.739029,518.144159,2681.334243
3039.873203,-11621.233289,814.226536,1455.581446
3039.873540,-11621.233289,740.205942,1302.362347
3039.873878,-10362.883188,1184.329507,0.000000
3039.874215,-10362.883188,1480.411884,842.705048
3039.874553,-9474.636058,3256.906145,-536.266849
3039.874890,-7402.059420,2368.659014,-459.657299
3039.875228,-9252.574275,2516.700203,612.876398
3039.875565,-10510.924376,2294.638420,536.266849
3039.875902,-10732.986159,2220.617826,1072.533697
3039.876240,-10584.944971,1480.411884,1225.752797
3039.876577,-9474.636058,1702.473667,459.657299
3039.876915,-10288.862594,962.267725,536.266849
3039.877252,-9326.594869,814.226536,-919.314598
3039.877590,-7402.059420,-1258.350101,-766.095498
3039.877927,-8142.265362,-1184.329507,-1302.362347
3039.878265,-8734.430116,-1036.288319,-995.924147
3039.878602,-11325.150913,-1554.432478,-1225.752797
3039.878940,-10510.924376,-592.164754,-2068.457845
3039.879277,-10214.842000,-962.267725,-2681.334243
3039.879614,-10584.944971,-2368.659014,-2145.067394
3039.879952,-9104.533087,-3552.988522,-995.924147
3039.880289,-8142.265362,-5033.400406,536.266849
3039.880627,-9178.553681,-3701.029710,1991.848295
3039.880964,-9992.780217,-3775.050304,1608.800546
3039.881302,-12139.377449,-2294.638420,2298.286494
3039.881639,-12657.521608,-1184.329507,1532.190996
3039.881977,-12065.356855,444.123565,1685.410096
3039.882314,-10807.006753,740.205942,2298.286494
3039.882652,-10955.047942,0.000000,2145.067394
3039.882989,-12213.398043,444.123565,1072.533697
3039.883326,-11473.192101,444.123565,-229.828649
3039.883664,-11103.089130,222.061783,-612.876398
3039.884001,-8956.491898,740.205942,-919.314598
3039.884339,-9104.533087,740.205942,-536.266849
3039.884676,-8882.471304,1110.308913,-306.438199
3039.885014,-9326.594869,444.123565,-459.657299
3039.885351,-9844.739029,1702.473667,0.000000
3039.885689,-9474.636058,1702.473667,-383.047749
3039.886026,-9918.759623,666.185348,459.657299
3039.886364,-9696.697840,888.247130,612.876398
3039.886701,-8290.306550,-444.123565,1072.533697
3039.887038,-8586.388927,148.041188,2374.896044
3039.887376,-8068.244768,-296.082377,1838.629195
3039.887713,-8660.409521,1480.411884,1915.238745
3039.888051,-9918.759623,814.226536,76.609550
3039.888388,-10732.986159,444.123565,919.314598
3039.888726,-11177.109724,666.185348,1532.190996
3039.889063,-10288.862594,888.247130,689.485948
3039.889401,-8438.347739,1850.514855,229.828649
3039.889738,-9104.533087,1702.473667,-459.657299
3039.890076,-10362.883188,1184.329507,-536.266849
3039.890413,-11991.336260,-592.164754,-306.438199
3039.890750,-11843.295072,-518.144159,0.000000
3039.891088,-10881.027347,-1554.432478,76.609550
3039.891425,-11695.253884,-1776.494261,1149.143247
3039.891763,-10066.800811,-2368.659014,919.314598
3039.892100,-10214.842000,-2442.679609,2221.676944
3039.892438,-10140.821405,-1258.350101,306.438199
3039.892775,-9696.697840,-1628.453072,-2145.067394
3039.893113,-12805.562797,-3256.906145,-2221.676944
3039.893450,-11843.295072,-3849.070898,-2681.334243
3039.893788,-9770.718434,-3478.967927,-612.876398
3039.894125,-8142.265362,-2738.761985,383.047749
3039.894462,-7402.059420,-2294.638420,0.000000
3039.894800,-8882.471304,-1258.350101,-76.609550
3039.895137,-10881.027347,-2072.576638,-612.876398
3039.895475,-10807.006753,-2516.700203,612.876398
3039.895812,-10066.800811,-444.123565,2145.067394
3039.896150,-9992.780217,1110.308913,2145.067394
3039.896487,-11251.130318,814.226536,1838.629195
3039.896825,-9178.553681,518.144159,306.438199
3039.897162,-8956.491898,1110.308913,1149.143247
3039.897500,-10584.944971,1628.453072,1991.848295
3039.897837,-9400.615463,3182.885551,-612.876398
3039.898174,-10732.986159,2960.823768,-2068.457845
3039.898512,-10658.965565,2960.823768,-3217.601092
3039.898849,-9474.636058,1776.494261,-1915.238745
3039.899187,-10066.800811,1332.370696,-229.828649
3039.899524,-7550.100608,2886.803174,-612.876398
3039.899862,-9844.739029,2220.617826,-1532.190996
3039.900199,-11177.109724,1258.350101,-2145.067394
3039.900537,-10362.883188,-814.226536,-459.657299
3039.900874,-11103.089130,-1258.350101,2221.676944
3039.901212,-9252.574275,0.000000,2145.067394
3039.901549,-9252.574275,-370.102971,2145.067394
3039.901886,-10510.924376,-814.226536,2068.457845
3039.902224,-9770.718434,-1554.432478,1302.362347
3039.902561,-9178.553681,-740.205942,1762.019645
3039.902899,-9104.533087,0.000000,1608.800546
3039.903236,-10288.862594,-740.205942,459.657299
3039.903573,-11621.233289,-1924.535449,-229.828649
3039.903911,-8956.491898,-2516.700203,76.609550
3039.904248,-9178.553681,-2368.659014,3294.210641
3039.904585,-8956.491898,-962.267725,1455.581446
3039.904923,-9252.574275,-444.123565,612.876398
3039.905260,-11843.295072,-2664.741391,306.438199
3039.905598,-11177.109724,-3256.906145,0.000000
3039.905935,-11251.130318,-2960.823768,1608.800546
3039.906272,-9992.780217,-1924.535449,1225.752797
3039.906610,-8734.430116,-1332.370696,-383.047749
3039.906947,-10881.027347,-1332.370696,-1149.143247
3039.907284,-10732.986159,-1110.308913,-1302.362347
3039.907622,-11473.192101,-1554.432478,0.000000
3039.907959,-11251.130318,-666.185348,229.828649
3039.908296,-10510.924376,444.123565,-689.485948
3039.908634,-11177.109724,-222.061783,0.000000
3039.908971,-10510.924376,-1258.350101,1302.362347
3039.909309,-9844.739029,-962.267725,2298.286494
3039.909646,-9252.574275,2072.576638,2451.505594
3039.909983,-10362.883188,2442.679609,2068.457845
3039.910321,-11843.295072,2442.679609,383.047749
3039.910658,-10584.944971,1702.473667,-766.095498
3039.910995,-10732.986159,814.226536,536.266849
3039.911333,-8956.491898,1480.411884,766.095498
3039.911670,-7994.224174,2072.576638,0.000000
3039.912008,-8142.265362,2220.617826,-1532.190996
3039.912345,-7994.224174,666.185348,-2911.162892
3039.912682,-9770.718434,0.000000,-919.314598
3039.913020,-9178.553681,370.102971,-536.266849
3039.913357,-8438.347739,518.144159,-766.095498
3039.913694,-10732.986159,666.185348,-612.876398
3039.914032,-10807.006753,-814.226536,-1608.800546
3039.914369,-10066.800811,-2368.659014,-689.485948
3039.914707,-9770.718434,-1406.391290,0.000000
3039.915044,-7402.059420,-666.185348,0.000000
3039.915381,-9770.718434,0.000000,-536.266849
3039.915719,-10732.986159,-2146.597232,-2221.676944
3039.916056,-11325.150913,-2738.761985,-919.314598
3039.916393,-10955.047942,-1480.411884,-612.876398
3039.916731,-10955.047942,-296.082377,1149.143247
3039.917068,-11843.295072,-666.185348,1685.410096
3039.917405,-10066.800811,-1184.329507,612.876398
3039.917743,-10066.800811,-2368.659014,1838.629195
3039.918080,-10881.027347,-1406.391290,4290.134789
3039.918418,-9548.656652,740.205942,2757.943793
3039.918755,-11547.212695,444.123565,689.485948
3039.919092,-11843.295072,0.000000,-1838.629195
3039.919430,-10955.047942,-296.082377,-459.657299
3039.919767,-10140.821405,0.000000,1608.800546
3039.920104,-8734.430116,518.144159,383.047749
3039.920442,-8808.450710,518.144159,-766.095498
3039.920779,-9252.574275,-444.123565,-1302.362347
3039.921117,-9474.636058,-2738.761985,0.000000
3039.921454,-9400.615463,-1110.308913,1838.629195
3039.921791,-9252.574275,296.082377,2374.896044
3039.922129,-10066.800811,0.000000,1149.143247
3039.922466,-9770.718434,0.000000,0.000000
3039.922803,-9326.594869,-740.205942,1455.581446
3039.923141,-9770.718434,222.061783,2987.772442
3039.923478,-10214.842000,0.000000,2681.334243
3039.923816,-11251.130318,1702.473667,2451.505594
3039.924153,-9548.656652,1036.288319,842.705048
3039.924490,-10140.821405,0.000000,842.705048
3039.924828,-9918.759623,592.164754,1149.143247
3039.925165,-9178.553681,1184.329507,0.000000
3039.925502,-10955.047942,1702.473667,-689.485948
3039.925840,-11325.150913,1332.370696,-1915.238745
3039.926177,-10214.842000,0.000000,-919.314598
3039.926514,-10362.883188,-148.041188,153.219100
3039.926852,-9918.759623,296.082377,689.485948
3039.927189,-10732.986159,740.205942,-1225.752797
3039.927527,-10214.842000,-1406.391290,-2528.115143
3039.927864,-10510.924376,-2812.782580,-2604.724693
3039.928201,-9104.533087,-2664.741391,-2834.553343
3039.928539,-8068.244768,-2738.761985,-919.314598
3039.928876,-10214.842000,-2590.720797,1762.019645
3039.929213,-11103.089130,-1998.556043,536.266849
3039.929551,-10436.903782,-2960.823768,459.657299
3039.929888,-11177.109724,-2590.720797,1532.190996
3039.930226,-9400.615463,-2368.659014,1915.238745
3039.930563,-10288.862594,-1924.535449,2374.896044
3039.930900,-8808.450710,-1332.370696,76.609550
3039.931238,-8438.347739,-1036.288319,842.705048
3039.931575,-11769.274478,0.000000,1072.533697
3039.931912,-10436.903782,888.247130,-1225.752797
3039.932250,-10214.842000,1776.494261,-1072.533697
3039.932587,-9992.780217,2294.638420,-995.924147
3039.932925,-9770.718434,1110.308913,0.000000
3039.933262,-11177.109724,1110.308913,0.000000
3039.933599,-9770.718434,1258.350101,459.657299
3039.933937,-8660.409521,1776.494261,766.095498
3039.934274,-10584.944971,1702.473667,842.705048
3039.934611,-11695.253884,1184.329507,0.000000
3039.934949,-11251.130318,0.000000,-306.438199
3039.935286,-9326.594869,592.164754,-612.876398
3039.935623,-8956.491898,518.144159,229.828649
3039.935961,-9252.574275,592.164754,612.876398
3039.936298,-8364.327145,-592.164754,-306.438199
3039.936636,-9622.677246,-740.205942,229.828649
3039.936973,-9770.718434,-962.267725,766.095498
3039.937310,-9474.636058,370.102971,1532.190996
3039.937648,-11029.068536,-888.247130,2834.553343
3039.937985,-9918.759623,-296.082377,2451.505594
3039.938322,-10584.944971,0.000000,2374.896044
3039.938660,-10066.800811,0.000000,3064.381992
3039.938997,-8956.491898,74.020594,2604.724693
3039.939335,-9474.636058,740.205942,1455.581446
3039.939672,-10732.986159,0.000000,0.000000
3039.940009,-11843.295072,-814.226536,-689.485948
3039.940347,-11177.109724,-222.061783,-612.876398
3039.940684,-9030.512492,-962.267725,-459.657299
3039.941021,-9178.553681,0.000000,-766.095498
3039.941359,-9326.594869,-1110.308913,153.219100
3039.941696,-11399.171507,-962.267725,0.000000
3039.942034,-10807.006753,-1406.391290,-766.095498
3039.942371,-11843.295072,-2294.638420,459.657299
3039.942708,-11177.109724,-1554.432478,842.705048
3039.943046,-9622.677246,-1850.514855,-306.438199
3039.943383,-10732.986159,-2220.617826,306.438199
3039.943720,-10140.821405,-1998.556043,-995.924147
3039.944058,-9178.553681,-1036.288319,0.000000
3039.944395,-9178.553681,-296.082377,-76.609550
3039.944732,-9400.615463,0.000000,-536.266849
3039.945070,-11399.171507,-1110.308913,-612.876398
3039.945407,-10584.944971,0.000000,0.000000
3039.945745,-9252.574275,-222.061783,153.219100
3039.946082,-8808.450710,592.164754,1685.410096
3039.946419,-7550.100608,1258.350101,1532.190996
3039.946757,-10658.965565,1184.329507,2145.067394
3039.947094,-12435.459826,2368.659014,0.000000
3039.947431,-12805.562797,2368.659014,-2068.457845
3039.947769,-11029.068536,1036.288319,-2834.553343
3039.948106,-8512.368333,0.000000,-2451.505594
3039.948444,-9030.512492,74.020594,-1608.800546
3039.948781,-8142.265362,74.020594,-1455.581446
3039.949118,-8068.244768,0.000000,-2145.067394
3039.949456,-10658.965565,0.000000,-1225.752797
3039.949793,-10807.006753,296.082377,-995.924147
3039.950130,-11399.171507,-666.185348,689.485948
3039.950468,-11547.212695,-592.164754,1302.362347
3039.950805,-10066.800811,-1776.494261,1455.581446
3039.951143,-10436.903782,-962.267725,2451.505594
3039.951480,-9178.553681,-1554.432478,2221.676944
3039.951817,-9696.697840,-1184.329507,2221.676944
3039.952155,-10140.821405,-1258.350101,1532.190996
3039.952492,-9770.718434,-1406.391290,1455.581446
3039.952829,-9178.553681,-74.020594,766.095498
3039.953167,-8512.368333,74.020594,766.095498
3039.953504,-10140.821405,0.000000,1225.752797
3039.953841,-9252.574275,518.144159,-383.047749
3039.954179,-10066.800811,-74.020594,995.924147
3039.954516,-9696.697840,0.000000,1149.143247
3039.954854,-9178.553681,-666.185348,1762.019645
3039.955191,-11621.233289,0.000000,2451.505594
3039.955528,-11103.089130,74.020594,229.828649
3039.955866,-10584.944971,148.041188,0.000000
3039.956203,-10732.986159,-296.082377,-536.266849
3039.956540,-10140.821405,-296.082377,-689.485948
3039.956878,-9548.656652,-370.102971,-995.924147
3039.957215,-9178.553681,0.000000,-2451.505594
3039.957553,-9326.594869,-1332.370696,-459.657299
3039.957890,-11251.130318,592.164754,0.000000
3039.958227,-10140.821405,-74.020594,0.000000
3039.958565,-10881.027347,0.000000,2221.676944
3039.958902,-10436.903782,222.061783,2681.334243
3039.959239,-11029.068536,814.226536,2757.943793
3039.959577,-11029.068536,0.000000,1838.629195
3039.959914,-9474.636058,592.164754,536.266849
3039.960251,-9992.780217,-74.020594,919.314598
3039.960589,-9844.739029,0.000000,0.000000
3039.960926,-8512.368333,370.102971,0.000000
3039.961264,-9992.780217,0.000000,0.000000
3039.961601,-8882.471304,222.061783,-1915.238745
3039.961938,-9548.656652,-814.226536,-1762.019645
3039.962276,-9474.636058,814.226536,-995.924147
3039.962613,-8808.450710,0.000000,-2298.286494
3039.962950,-9548.656652,0.000000,-1608.800546
3039.963288,-9622.677246,-1332.370696,-995.924147
3039.963625,-10955.047942,-2590.720797,383.047749
3039.963963,-10584.944971,-1480.411884,536.266849
3039.964300,-10066.800811,-1036.288319,1072.533697
3039.964637,-10955.047942,-222.061783,-76.609550
3039.964975,-9844.739029,-888.247130,-1685.410096
3039.965312,-10066.800811,-1406.391290,-306.438199
3039.965649,-10140.821405,-666.185348,536.266849
3039.965987,-9992.780217,-148.041188,995.924147
3039.966324,-11251.130318,-518.144159,2145.067394
3039.966662,-10362.883188,-74.020594,2145.067394
3039.966999,-10658.965565,296.082377,1532.190996
3039.967336,-11547.212695,444.123565,2451.505594
3039.967674,-9252.574275,0.000000,1685.410096
3039.968011,-9326.594869,0.000000,1915.238745
3039.968348,-10362.883188,740.205942,995.924147
3039.968686,-9326.594869,740.205942,-153.219100
3039.969023,-9696.697840,296.082377,0.000000
3039.969360,-8734.430116,0.000000,-612.876398
3039.969698,-9252.574275,1036.288319,-536.266849
3039.970035,-9178.553681,370.102971,-612.876398
3039.970373,-9696.697840,-1110.308913,-842.705048
3039.970710,-9104.533087,-592.164754,-536.266849
3039.971047,-9252.574275,444.123565,76.609550
3039.971385,-10140.821405,74.020594,459.657299
3039.971722,-9918.759623,-1110.308913,612.876398
3039.972059,-10881.027347,-1850.514855,1225.752797
3039.972397,-10881.027347,-740.205942,2221.676944
3039.972734,-10288.862594,0.000000,2068.457845
3039.973072,-10955.047942,296.082377,2068.457845
3039.973409,-10140.821405,0.000000,0.000000
3039.973746,-10584.944971,0.000000,1225.752797
3039.974084,-10362.883188,1110.308913,1685.410096
3039.974421,-9548.656652,444.123565,842.705048
3039.974758,-11029.068536,962.267725,229.828649
3039.975096,-11843.295072,0.000000,-689.485948
3039.975433,-10066.800811,-370.102971,766.095498
3039.975771,-9844.739029,-518.144159,76.609550
3039.976108,-8660.409521,0.000000,1225.752797
3039.976445,-9252.574275,-74.020594,-536.266849
3039.976783,-9992.780217,-1406.391290,-1532.190996
3039.977120,-10955.047942,-1036.288319,-2757.943793
3039.977457,-9030.512492,-1036.288319,-2145.067394
3039.977795,-8808.450710,-592.164754,-919.314598
3039.978132,-9178.553681,-2220.617826,536.266849
3039.978469,-9474.636058,-1776.494261,0.000000
3039.978807,-10214.842000,-1850.514855,-229.828649
3039.979144,-10658.965565,-2072.576638,229.828649
3039.979482,-9400.615463,-888.247130,2068.457845
3039.979819,-10807.006753,-592.164754,2604.724693
3039.980156,-11029.068536,0.000000,306.438199
3039.980494,-10362.883188,-148.041188,-919.314598
3039.980831,-10807.006753,814.226536,1225.752797
3039.981168,-9770.718434,1554.432478,536.266849
3039.981506,-9474.636058,2072.576638,-995.924147
3039.981843,-10436.903782,1702.473667,-766.095498
3039.982181,-11325.150913,74.020594,-612.876398
3039.982518,-10658.965565,222.061783,-459.657299
3039.982855,-9474.636058,1628.453072,306.438199
3039.983193,-8882.471304,2442.679609,459.657299
3039.983530,-10732.986159,1036.288319,-459.657299
3039.983867,-12953.603985,296.082377,-919.314598
3039.984205,-11251.130318,0.000000,-689.485948
3039.984542,-8734.430116,74.020594,-383.047749
3039.984880,-8586.388927,-962.267725,689.485948
3039.985217,-9030.512492,-1924.535449,-689.485948
3039.985554,-8364.327145,-2664.741391,-459.657299
3039.985892,-8956.491898,-1776.494261,689.485948
3039.986229,-9104.533087,-740.205942,995.924147
3039.986566,-10510.924376,444.123565,842.705048
3039.986904,-11103.089130,-518.144159,536.266849
3039.987241,-9918.759623,-1702.473667,536.266849
3039.987578,-9622.677246,-1998.556043,2451.505594
3039.987916,-8808.450710,-1036.288319,4213.525239
3039.988253,-7698.141797,296.082377,3064.381992
3039.988591,-11251.130318,0.000000,2145.067394
3039.988928,-12361.439231,-222.061783,76.609550
3039.989265,-11029.068536,-962.267725,612.876398
3039.989603,-9474.636058,518.144159,2221.676944
3039.989940,-8512.368333,1110.308913,1455.581446
3039.990277,-10584.944971,1110.308913,-1072.533697
3039.990615,-9770.718434,0.000000,-2528.115143
3039.990952,-10807.006753,-1776.494261,-1072.533697
3039.991290,-10510.924376,-370.102971,0.000000
3039.991627,-8660.409521,962.267725,-229.828649
3039.991964,-11399.171507,-296.082377,76.609550
3039.992302,-11325.150913,-2220.617826,-612.876398
3039.992639,-10807.006753,-1924.535449,229.828649
3039.992976,-10584.944971,-370.102971,2451.505594
3039.993314,-9622.677246,-222.061783,2145.067394
3039.993651,-10362.883188,370.102971,919.314598
3039.993989,-10955.047942,0.000000,-919.314598
3039.994326,-10510.924376,-148.041188,-153.219100
3039.994663,-10066.800811,0.000000,153.219100
3039.995001,-8216.285956,-148.041188,-459.657299
3039.995338,-8956.491898,296.082377,-842.705048
3039.995675,-10436.903782,666.185348,-383.047749
3039.996013,-9844.739029,-222.061783,76.609550
3039.996350,-8882.471304,-888.247130,689.485948
3039.996687,-9548.656652,1258.350101,2145.067394
3039.997025,-11325.150913,814.226536,0.000000
3039.997362,-10214.842000,740.205942,-2528.115143
3039.997700,-10584.944971,-2072.576638,-1608.800546
3039.998037,-9548.656652,-962.267725,-612.876398
3039.998374,-7920.203579,888.247130,-919.314598
3039.998712,-9770.718434,0.000000,-1532.190996
3039.999049,-10362.883188,-666.185348,-2451.505594
3039.999386,-10807.006753,-1258.350101,-2298.286494
3039.999724,-11325.150913,-888.247130,-306.438199
3040.000061,-9770.718434,-740.205942,0.000000
3040.000399,-10362.883188,-1258.350101,306.438199
3040.000736,-9770.718434,-666.185348,0.000000
3040.001073,-10214.842000,-1702.473667,1915.238745
3040.001411,-11103.089130,-1258.350101,3753.867940
3040.001748,-9622.677246,-592.164754,3294.210641
3040.002085,-10214.842000,740.205942,2911.162892
3040.002423,-11473.192101,1406.391290,1915.238745
3040.002760,-11325.150913,-518.144159,1378.971896
3040.003098,-9474.636058,0.000000,383.047749
3040.003435,-7476.080014,74.020594,1072.533697
3040.003772,-7846.182985,1480.411884,919.314598
3040.004110,-8956.491898,740.205942,-612.876398
3040.004447,-10658.965565,-444.123565,-2068.457845
3040.004784,-10066.800811,0.000000,459.657299
3040.005121,-9400.615463,-666.185348,995.924147
3040.005459,-9474.636058,370.102971,1991.848295
3040.005796,-9992.780217,222.061783,306.438199
3040.006133,-9992.780217,-1258.350101,153.219100
3040.006471,-10584.944971,-1554.432478,1149.143247
3040.006808,-10066.800811,-444.123565,2298.286494
3040.007145,-10732.986159,0.000000,919.314598
3040.007483,-10066.800811,0.000000,-612.876398
3040.007820,-11473.192101,-592.164754,-1302.362347
3040.008157,-11547.212695,-1332.370696,-1608.800546
3040.008495,-8660.409521,-1184.329507,153.219100
3040.008832,-9030.512492,296.082377,1762.019645
3040.009169,-9696.697840,666.185348,612.876398
3040.009507,-12213.398043,-518.144159,0.000000
3040.009844,-12361.439231,-592.164754,766.095498
3040.010181,-9104.533087,-370.102971,1915.238745
3040.010518,-9252.574275,370.102971,2068.457845
3040.010856,-10140.821405,518.144159,153.219100
3040.011193,-10658.965565,0.000000,-1838.629195
3040.011530,-10584.944971,-888.247130,-2068.457845
3040.011868,-7772.162391,-1702.473667,-1991.848295
3040.012205,-8142.265362,0.000000,-229.828649
3040.012542,-9178.553681,814.226536,-2298.286494
3040.012880,-9548.656652,-1110.308913,-3753.867940
3040.013217,-9992.780217,-1406.391290,-2451.505594
3040.013554,-8956.491898,-1776.494261,536.266849
3040.013892,-9844.739029,-296.082377,1685.410096
3040.014229,-9622.677246,740.205942,689.485948
3040.014566,-10584.944971,666.185348,-536.266849
3040.014904,-12361.439231,-1998.556043,919.314598
3040.015241,-10140.821405,-1702.473667,2604.724693
3040.015578,-9400.615463,296.082377,2911.162892
3040.015915,-9400.615463,1036.288319,2145.067394
3040.016253,-9696.697840,592.164754,-766.095498
3040.016590,-11251.130318,1776.494261,306.438199
3040.016927,-10510.924376,666.185348,1225.752797
3040.017265,-9178.553681,1998.556043,689.485948
3040.017602,-10881.027347,1332.370696,153.219100
3040.017939,-10436.903782,2516.700203,-1685.410096
3040.018277,-11325.150913,1184.329507,-1685.410096
3040.018614,-10955.047942,-962.267725,612.876398
3040.018951,-8586.388927,-2368.659014,1225.752797
3040.019289,-9400.615463,-1480.411884,459.657299
3040.019626,-8142.265362,-148.041188,-459.657299
3040.019963,-9696.697840,-1628.453072,-689.485948
3040.020301,-11251.130318,-1850.514855,459.657299
3040.020638,-11177.109724,-1554.432478,229.828649
3040.020975,-11029.068536,444.123565,-612.876398
3040.021312,-9326.594869,-518.144159,-689.485948
3040.021650,-9696.697840,-2812.782580,153.219100
3040.021987,-9918.759623,-3701.029710,1838.629195
3040.022324,-8290.306550,-3256.906145,3064.381992
3040.022662,-7920.203579,-444.123565,2604.724693
3040.022999,-10881.027347,592.164754,1149.143247
3040.023336,-13249.686362,-222.061783,612.876398
3040.023674,-12065.356855,-370.102971,-306.438199
3040.024011,-9252.574275,0.000000,1302.362347
3040.024348,-9400.615463,592.164754,2451.505594
3040.024686,-9178.553681,1258.350101,689.485948
3040.025023,-10584.944971,518.144159,-536.266849
3040.025360,-10955.047942,0.000000,-689.485948
3040.025698,-10288.862594,0.000000,-383.047749
3040.026035,-10955.047942,1110.308913,689.485948
3040.026372,-10362.883188,1110.308913,-76.609550
3040.026709,-9696.697840,-444.123565,-2298.286494
3040.027047,-9252.574275,-888.247130,-1991.848295
3040.027384,-9030.512492,-1036.288319,306.438199
3040.027721,-10584.944971,-1924.535449,1991.848295
3040.028059,-9252.574275,222.061783,0.000000
3040.028396,-10510.924376,592.164754,-536.266849
3040.028733,-11177.109724,-74.020594,0.000000
3040.029071,-8956.491898,-222.061783,229.828649
3040.029408,-8660.409521,-1036.288319,2451.505594
3040.029745,-9326.594869,962.267725,1685.410096
3040.030083,-10955.047942,296.082377,76.609550
3040.030420,-11991.336260,0.000000,-229.828649
3040.030757,-9178.553681,0.000000,306.438199
3040.031094,-10140.821405,814.226536,766.095498
3040.031432,-10066.800811,666.185348,689.485948
3040.031769,-9400.615463,-740.205942,-689.485948
3040.032106,-10510.924376,-148.041188,842.705048
3040.032444,-10214.842000,-740.205942,76.609550
3040.032781,-10658.965565,148.041188,153.219100
3040.033118,-9696.697840,-370.102971,-612.876398
3040.033456,-9548.656652,-1110.308913,-919.314598
3040.033793,-11399.171507,0.000000,-1532.190996
3040.034130,-10066.800811,-1702.473667,-2145.067394
3040.034468,-9326.594869,-2442.679609,-1455.581446
3040.034805,-8660.409521,-2664.741391,-842.705048
3040.035142,-9400.615463,-1776.494261,612.876398
3040.035480,-10732.986159,-1554.432478,153.219100
3040.035817,-9992.780217,-1924.535449,229.828649
3040.036154,-10584.944971,-1776.494261,1225.752797
3040.036491,-10288.862594,-666.185348,1455.581446
3040.036829,-9400.615463,-296.082377,3064.381992
3040.037166,-10584.944971,296.082377,2068.457845
3040.037503,-9844.739029,-148.041188,1225.752797
3040.037841,-9474.636058,1184.329507,1225.752797
3040.038178,-9548.656652,1184.329507,1915.238745
3040.038515,-10436.903782,1110.308913,1685.410096
3040.038853,-11325.150913,1184.329507,995.924147
3040.039190,-9918.759623,2368.659014,306.438199
3040.039527,-9918.759623,1406.391290,153.219100
3040.039865,-9326.594869,2072.576638,0.000000
3040.040202,-8808.450710,518.144159,-1762.019645
3040.040539,-9918.759623,0.000000,-612.876398
3040.040877,-9178.553681,0.000000,-383.047749
3040.041214,-10140.821405,-666.185348,0.000000
3040.041551,-9844.739029,444.123565,306.438199
3040.041888,-10362.883188,-518.144159,153.219100
3040.042226,-11473.192101,0.000000,995.924147
3040.042563,-9844.739029,-296.082377,-612.876398
3040.042900,-10362.883188,-1776.494261,-383.047749
3040.043238,-9622.677246,-2220.617826,1225.752797
3040.043575,-8956.491898,-2516.700203,612.876398
3040.043912,-10584.944971,-666.185348,842.705048
3040.044250,-9696.697840,-740.205942,-383.047749
3040.044587,-9622.677246,-518.144159,306.438199
3040.044924,-10881.027347,0.000000,766.095498
3040.045262,-10214.842000,-148.041188,1302.362347
3040.045599,-10510.924376,148.041188,536.266849
3040.045936,-10066.800811,-444.123565,0.000000
3040.046274,-10362.883188,-1184.329507,229.828649
3040.046611,-9548.656652,-1036.288319,-1149.143247
3040.046948,-9844.739029,-1110.308913,-153.219100
3040.047285,-10288.862594,-1184.329507,229.828649
3040.047623,-8660.409521,-1110.308913,-1608.800546
3040.047960,-10658.965565,-1850.514855,-1225.752797
3040.048297,-9918.759623,-962.267725,-1225.752797
3040.048635,-8808.450710,-444.123565,-536.266849
3040.048972,-10881.027347,-666.185348,0.000000
3040.049309,-9992.780217,-888.247130,-919.314598
3040.049647,-10658.965565,0.000000,229.828649
3040.049984,-10140.821405,518.144159,2374.896044
3040.050321,-9474.636058,370.102971,1762.019645
3040.050659,-10436.903782,296.082377,2757.943793
3040.050996,-10881.027347,1628.453072,2221.676944
3040.051333,-10732.986159,1628.453072,995.924147
3040.051671,-10807.006753,1702.473667,1532.190996
3040.052008,-8808.450710,2294.638420,1762.019645
3040.052345,-9992.780217,1850.514855,1838.629195
3040.052682,-9548.656652,2072.576638,1762.019645
3040.053020,-10436.903782,1332.370696,919.314598
3040.053357,-9770.718434,1924.535449,459.657299
3040.053694,-8364.327145,1406.391290,-153.219100
3040.054032,-10732.986159,2072.576638,1149.143247
3040.054369,-10955.047942,296.082377,306.438199
3040.054706,-9770.718434,296.082377,0.000000
3040.055044,-9178.553681,0.000000,0.000000
3040.055381,-7772.162391,-1480.411884,-76.609550
3040.055718,-7698.141797,-1628.453072,306.438199
3040.056056,-10584.944971,-2664.741391,2374.896044
3040.056393,-10436.903782,-666.185348,1532.190996
3040.056730,-10658.965565,-666.185348,1455.581446
3040.057068,-11843.295072,222.061783,2374.896044
3040.057405,-10436.903782,148.041188,1762.019645
3040.057742,-11695.253884,0.000000,2911.162892
3040.058079,-10955.047942,0.000000,3370.820191
3040.058417,-11399.171507,444.123565,2911.162892
3040.058754,-10362.883188,518.144159,2451.505594
3040.059091,-9548.656652,222.061783,1378.971896
3040.059429,-9252.574275,592.164754,3217.601092
3040.059766,-10436.903782,2072.576638,4136.915689
3040.060103,-10955.047942,3404.947333,2757.943793
3040.060441,-11325.150913,3256.906145,1225.752797
3040.060778,-10436.903782,2516.700203,995.924147
3040.061115,-9844.739029,2294.638420,1838.629195
3040.061453,-10066.800811,1850.514855,2987.772442
3040.061790,-8956.491898,888.247130,2451.505594
3040.062127,-8586.388927,1850.514855,1225.752797
3040.062465,-9104.533087,1628.453072,1302.362347
3040.062802,-9252.574275,1628.453072,1685.410096
3040.063139,-9326.594869,592.164754,1685.410096
3040.063476,-8512.368333,666.185348,2451.505594
3040.063814,-10066.800811,2294.638420,2145.067394
3040.064151,-10362.883188,2960.823768,1762.019645
3040.064488,-9548.656652,2664.741391,1608.800546
3040.064826,-9178.553681,2146.597232,2451.505594
3040.065163,-9770.718434,2812.782580,3140.991542
3040.065500,-9992.780217,2590.720797,4290.134789
3040.065838,-10807.006753,4219.173869,3753.867940
3040.066175,-11399.171507,2664.741391,2681.334243
3040.066512,-11917.315666,2516.700203,1915.238745
3040.066850,-10807.006753,1776.494261,2374.896044
3040.067187,-10584.944971,1332.370696,2757.943793
3040.067524,-8586.388927,2146.597232,2757.943793
3040.067862,-9474.636058,2812.782580,2145.067394
3040.068199,-10066.800811,3182.885551,383.047749
3040.068536,-11695.253884,1480.411884,-383.047749
3040.068873,-11695.253884,444.123565,-612.876398
3040.069211,-9548.656652,222.061783,0.000000
3040.069548,-9252.574275,-370.102971,1838.629195
3040.069885,-9178.553681,74.020594,3217.601092
3040.070223,-9844.739029,-222.061783,2145.067394
3040.070560,-10658.965565,-962.267725,2068.457845
3040.070897,-10436.903782,-444.123565,2681.334243
3040.071235,-9918.759623,444.123565,2757.943793
3040.071572,-9696.697840,0.000000,3140.991542
3040.071909,-9400.615463,0.000000,3907.087040
3040.072247,-9548.656652,1554.432478,4213.525239
3040.072584,-10510.924376,1924.535449,3370.820191
3040.072921,-10658.965565,2368.659014,2987.772442
3040.073259,-9770.718434,3182.885551,3217.601092
3040.073596,-10140.821405,2812.782580,4136.915689
3040.073933,-10066.800811,3552.988522,2987.772442
3040.074270,-10732.986159,3256.906145,3140.991542
3040.074608,-10362.883188,4367.215058,3370.820191
3040.074945,-10362.883188,3404.947333,1762.019645
3040.075282,-9918.759623,4071.132681,1532.190996
3040.075620,-10066.800811,3256.906145,995.924147
3040.075957,-10066.800811,2294.638420,1225.752797
3040.076294,-9844.739029,1924.535449,842.705048
3040.076632,-9770.718434,2072.576638,536.266849
3040.076969,-9474.636058,962.267725,1532.190996
3040.077306,-8734.430116,2590.720797,3140.991542
3040.077644,-10288.862594,2072.576638,2604.724693
3040.077981,-9548.656652,2220.617826,2068.457845
3040.078318,-10214.842000,1184.329507,1378.971896
3040.078656,-11473.192101,1258.350101,2068.457845
3040.078993,-10807.006753,296.082377,2911.162892
3040.079330,-8734.430116,814.226536,3294.210641
3040.079667,-9844.739029,444.123565,4826.401637
3040.080005,-9326.594869,1036.288319,4213.525239
3040.080342,-10584.944971,1406.391290,3064.381992
3040.080679,-9844.739029,2220.617826,2604.724693
3040.081017,-10510.924376,3552.988522,1608.800546
3040.081354,-11769.274478,2664.741391,1302.362347
3040.081691,-12435.459826,2294.638420,689.485948
3040.082029,-10214.842000,1480.411884,766.095498
3040.082366,-9548.656652,740.205942,1608.800546
3040.082703,-9474.636058,-148.041188,1991.848295
3040.083041,-9178.553681,-592.164754,1762.019645
3040.083378,-9696.697840,740.205942,2911.162892
3040.083715,-9696.697840,1776.494261,2068.457845
3040.084053,-10584.944971,3182.885551,1991.848295
3040.084390,-11991.336260,1702.473667,2374.896044
3040.084727,-11695.253884,2294.638420,1455.581446
3040.085064,-10066.800811,1332.370696,1685.410096
3040.085402,-10140.821405,814.226536,2757.943793
3040.085739,-9030.512492,444.123565,2757.943793
3040.086076,-9474.636058,370.102971,2987.772442
3040.086414,-9326.594869,1258.350101,3447.429741
3040.086751,-8068.244768,1406.391290,3907.087040
3040.087088,-10066.800811,3849.070898,5592.497135
3040.087426,-9474.636058,5329.482782,3907.087040
3040.087763,-10510.924376,4441.235652,2681.334243
3040.088100,-11843.295072,5033.400406,1838.629195
3040.088438,-11103.089130,3627.009116,1685.410096
3040.088775,-11251.130318,3404.947333,2068.457845
3040.089112,-8734.430116,1998.556043,1455.581446
3040.089449,-8586.388927,1924.535449,1762.019645
3040.089787,-9474.636058,962.267725,842.705048
3040.090124,-8364.327145,222.061783,919.314598
3040.090461,-9030.512492,1036.288319,1455.581446
3040.090799,-8364.327145,1184.329507,459.657299
3040.091136,-9548.656652,2590.720797,2451.505594
3040.091473,-12287.418637,2516.700203,2681.334243
3040.091811,-12065.356855,2886.803174,919.314598
3040.092148,-11843.295072,1998.556043,-229.828649
3040.092485,-11399.171507,148.041188,1762.019645
3040.092823,-10066.800811,-1850.514855,3140.991542
3040.093160,-9770.718434,-1850.514855,3677.258390
3040.093497,-8290.306550,-592.164754,3217.601092
3040.093835,-8808.450710,592.164754,3677.258390
3040.094172,-10881.027347,2220.617826,2757.943793
3040.094509,-10362.883188,3701.029710,842.705048
3040.094846,-10510.924376,3701.029710,2451.505594
3040.095184,-11177.109724,3552.988522,3140.991542
3040.095521,-11917.315666,3627.009116,3140.991542
3040.095858,-11621.233289,3108.864956,2068.457845
3040.096196,-9548.656652,888.247130,2145.067394
3040.096533,-8882.471304,-296.082377,3753.867940
3040.096870,-8734.430116,444.123565,4060.306139
3040.097208,-8290.306550,1628.453072,3294.210641
3040.097545,-8142.265362,1924.535449,2145.067394
3040.097882,-8734.430116,2146.597232,1302.362347
3040.098220,-11399.171507,2590.720797,1072.533697
3040.098557,-11103.089130,2664.741391,1378.971896
3040.098894,-9548.656652,3330.926739,1838.629195
3040.099232,-9770.718434,3034.844362,2374.896044
3040.099569,-11251.130318,2368.659014,2374.896044
3040.099906,-11177.109724,444.123565,2681.334243
3040.100243,-9770.718434,-814.226536,4519.963438
3040.100581,-7402.059420,1036.288319,5362.668486
3040.100918,-9400.615463,2368.659014,5592.497135
3040.101255,-11621.233289,3701.029710,3370.820191
3040.101593,-11325.150913,2590.720797,306.438199
3040.101930,-10732.986159,2664.741391,689.485948
3040.102267,-10288.862594,3182.885551,1991.848295
3040.102605,-9474.636058,3478.967927,2528.115143
3040.102942,-10140.821405,3256.906145,1685.410096
3040.103279,-10066.800811,2146.597232,766.095498
3040.103617,-10732.986159,1036.288319,536.266849
3040.103954,-10510.924376,296.082377,1455.581446
3040.104291,-9548.656652,-370.102971,1225.752797
3040.104629,-7698.141797,-814.226536,306.438199
3040.104966,-9400.615463,-814.226536,995.924147
3040.105303,-9696.697840,0.000000,1991.848295
3040.105640,-9474.636058,666.185348,2374.896044
3040.105978,-10362.883188,2738.761985,2374.896044
3040.106315,-11251.130318,2590.720797,2298.286494
3040.106652,-11917.315666,2368.659014,2145.067394
3040.106990,-12213.398043,740.205942,2987.772442
3040.107327,-10510.924376,888.247130,3830.477490
3040.107664,-9770.718434,296.082377,4213.525239
3040.108002,-9030.512492,962.267725,4519.963438
3040.108339,-9400.615463,1924.535449,3983.696590
3040.108676,-9844.739029,2664.741391,3447.429741
3040.109014,-10066.800811,3404.947333,2451.505594
3040.109351,-10658.965565,4811.338623,1378.971896
3040.109688,-11251.130318,5625.565159,1072.533697
3040.110025,-10584.944971,4737.318029,229.828649
3040.110363,-10140.821405,3701.029710,612.876398
3040.110700,-9326.594869,2960.823768,1838.629195
3040.111037,-9474.636058,1998.556043,2604.724693
3040.111375,-9252.574275,962.267725,1455.581446
3040.111712,-8660.409521,1184.329507,995.924147
3040.112049,-8956.491898,518.144159,919.314598
3040.112387,-8956.491898,888.247130,689.485948
3040.112724,-9696.697840,1110.308913,766.095498
3040.113061,-9992.780217,1628.453072,766.095498
3040.113399,-9548.656652,1480.411884,612.876398
3040.113736,-9918.759623,1480.411884,1532.190996
3040.114073,-10436.903782,740.205942,2681.334243
3040.114410,-10510.924376,0.000000,2757.943793
3040.114748,-9844.739029,740.205942,2834.553343
3040.115085,-10436.903782,444.123565,3217.601092
3040.115422,-10955.047942,370.102971,3217.601092
3040.115760,-10288.862594,148.041188,3524.039291
3040.116097,-10881.027347,814.226536,3830.477490
3040.116434,-10362.883188,1776.494261,2834.553343
3040.116772,-10584.944971,1998.556043,2145.067394
3040.117109,-11621.233289,2664.741391,1838.629195
3040.117446,-10436.903782,1628.453072,995.924147
3040.117784,-10658.965565,1628.453072,1302.362347
3040.118121,-10436.903782,518.144159,2068.457845
3040.118458,-9104.533087,518.144159,2374.896044
3040.118795,-9474.636058,148.041188,3217.601092
3040.119133,-9474.636058,444.123565,4060.306139
3040.119470,-9474.636058,1332.370696,4060.306139
3040.119807,-11029.068536,1924.535449,4136.915689
3040.120145,-11029.068536,2072.576638,3447.429741
3040.120482,-10584.944971,2146.597232,2987.772442
3040.120819,-9400.615463,1406.391290,3524.039291
3040.121157,-8586.388927,1702.473667,4443.353888
3040.121494,-8660.409521,2664.741391,5975.544884
3040.121831,-9104.533087,3849.070898,5822.325785
3040.122169,-10066.800811,5255.462188,4903.011187
3040.122506,-11177.109724,6069.688724,3830.477490
3040.122843,-11473.192101,4737.318029,2757.943793
3040.123180,-10955.047942,4663.297435,2987.772442
3040.123518,-9992.780217,4145.153275,2911.162892
3040.123855,-9326.594869,4293.194464,3294.210641
3040.124192,-9474.636058,4663.297435,1915.238745
3040.124530,-9696.697840,3923.091493,919.314598
3040.124867,-9548.656652,4219.173869,919.314598
3040.125204,-10214.842000,3552.988522,995.924147
3040.125542,-10362.883188,3997.112087,919.314598
3040.125879,-10288.862594,3997.112087,-689.485948
3040.126216,-10140.821405,2368.659014,-2068.457845
3040.126554,-10362.883188,814.226536,-1532.190996
3040.126891,-9918.759623,-962.267725,76.609550
3040.127228,-9252.574275,-1258.350101,1225.752797
3040.127565,-7994.224174,296.082377,1302.362347
3040.127903,-8956.491898,1258.350101,1608.800546
3040.128240,-10584.944971,444.123565,1225.752797
3040.128577,-11769.274478,518.144159,2528.115143
3040.128915,-10732.986159,1924.535449,2911.162892
3040.129252,-9252.574275,3330.926739,3447.429741
3040.129589,-10288.862594,2590.720797,3677.258390
3040.129927,-13323.706956,1554.432478,3370.820191
3040.130264,-11769.274478,1110.308913,2068.457845
3040.130601,-9474.636058,888.247130,1762.019645
3040.130939,-8882.471304,814.226536,3600.648841
3040.131276,-9770.718434,962.267725,2757.943793
3040.131613,-9992.780217,1628.453072,76.609550
3040.131951,-8660.409521,1850.514855,-459.657299
3040.132288,-10214.842000,1776.494261,1608.800546
3040.132625,-9992.780217,2294.638420,2604.724693
3040.132962,-9400.615463,2072.576638,1838.629195
3040.133300,-10066.800811,2812.782580,2911.162892
3040.133637,-11695.253884,1998.556043,4290.134789
3040.133974,-11547.212695,1702.473667,3447.429741
3040.134312,-10732.986159,592.164754,4136.915689
3040.134649,-8364.327145,370.102971,3677.258390
3040.134986,-8586.388927,-1184.329507,4366.744339
3040.135324,-9622.677246,370.102971,5286.058936
3040.135661,-9030.512492,2294.638420,3524.039291
3040.135998,-9104.533087,1702.473667,2374.896044
3040.136336,-9770.718434,2886.803174,1991.848295
3040.136673,-10955.047942,3478.967927,1838.629195
3040.137010,-10658.965565,2368.659014,2528.115143
3040.137347,-9252.574275,3108.864956,2987.772442
3040.137685,-9326.594869,2516.700203,3524.039291
3040.138022,-11103.089130,2072.576638,3830.477490
3040.138359,-10881.027347,1998.556043,2374.896044
3040.138697,-9770.718434,962.267725,3677.258390
3040.139034,-10732.986159,1332.370696,3370.820191
3040.139371,-10732.986159,888.247130,1455.581446
3040.139709,-11325.150913,888.247130,459.657299
3040.140046,-9918.759623,-666.185348,-1149.143247
3040.140383,-9326.594869,0.000000,-1149.143247
3040.140721,-9770.718434,962.267725,229.828649
3040.141058,-8586.388927,1998.556043,-153.219100
3040.141395,-9400.615463,888.247130,1072.533697
3040.141732,-11251.130318,592.164754,1532.190996
3040.142070,-10066.800811,2072.576638,2451.505594
3040.142407,-11473.192101,888.247130,3677.258390
3040.142744,-10955.047942,1850.514855,3600.648841
3040.143082,-10288.862594,370.102971,2911.162892
3040.143419,-11399.171507,370.102971,3600.648841
3040.143756,-9400.615463,1554.432478,4213.525239
3040.144094,-8364.327145,2516.700203,3830.477490
3040.144431,-9326.594869,4441.235652,2757.943793
3040.144768,-9400.615463,4071.132681,1762.019645
3040.145106,-11251.130318,5699.585753,1149.143247
3040.145443,-10584.944971,4885.359217,383.047749
3040.145780,-10362.883188,4441.235652,919.314598
3040.146117,-10066.800811,3256.906145,919.314598
3040.146455,-9104.533087,2368.659014,1225.752797
3040.146792,-9326.594869,1776.494261,2451.505594
3040.147129,-8068.244768,2590.720797,2145.067394
3040.147467,-8068.244768,1406.391290,3524.039291
3040.147804,-10140.821405,2886.803174,3370.820191
3040.148141,-10955.047942,2886.803174,2298.286494
3040.148479,-11843.295072,3923.091493,2757.943793
3040.148816,-11177.109724,1924.535449,2145.067394
3040.149153,-10807.006753,2072.576638,3524.039291
3040.149491,-10140.821405,1480.411884,3524.039291
3040.149828,-9474.636058,1406.391290,3524.039291
3040.150165,-8882.471304,1036.288319,3983.696590
3040.150502,-10362.883188,1332.370696,4060.306139
3040.150840,-10140.821405,1554.432478,1991.848295
3040.151177,-9474.636058,1776.494261,2987.772442
3040.151514,-10510.924376,2220.617826,3983.696590
3040.151852,-10510.924376,1850.514855,3524.039291
3040.152189,-10807.006753,2812.782580,3217.601092
3040.152526,-9992.780217,2886.803174,3600.648841
3040.152864,-10140.821405,1554.432478,2221.676944
3040.153201,-11029.068536,666.185348,1072.533697
3040.153538,-10658.965565,-296.082377,1532.190996
3040.153876,-9770.718434,222.061783,1608.800546
3040.154213,-9400.615463,-296.082377,1225.752797
3040.154550,-9400.615463,296.082377,1378.971896
3040.154887,-8882.471304,518.144159,1915.238745
3040.155225,-9548.656652,1480.411884,2298.286494
3040.155562,-10214.842000,1554.432478,1302.362347
3040.155899,-10955.047942,1110.308913,2221.676944
3040.156237,-11029.068536,1406.391290,2451.505594
3040.156574,-9844.739029,1332.370696,2451.505594
3040.156911,-10658.965565,1554.432478,3370.820191
3040.157249,-10140.821405,1480.411884,2834.553343
3040.157586,-9992.780217,1776.494261,3140.991542
3040.157923,-9104.533087,2442.679609,2681.334243
3040.158261,-9252.574275,2960.823768,2298.286494
3040.158598,-9548.656652,2368.659014,2911.162892
3040.158935,-9548.656652,3256.906145,2987.772442
3040.159273,-10066.800811,4367.215058,2604.724693
3040.159610,-11769.274478,3849.070898,536.266849
3040.159947,-11325.150913,2368.659014,-76.609550
3040.160284,-9474.636058,740.205942,0.000000
3040.160622,-8290.306550,-370.102971,842.705048
3040.160959,-8586.388927,0.000000,1225.752797
3040.161296,-8512.368333,148.041188,842.705048
3040.161634,-9326.594869,0.000000,536.266849
3040.161971,-9770.718434,-222.061783,229.828649
3040.162308,-10066.800811,0.000000,1149.143247
3040.162646,-9918.759623,370.102971,1915.238745
3040.162983,-10658.965565,0.000000,2757.943793
3040.163320,-11843.295072,962.267725,2757.943793
3040.163658,-12435.459826,444.123565,1838.629195
3040.163995,-12361.439231,666.185348,2451.505594
3040.164332,-10807.006753,-1702.473667,2757.943793
3040.164669,-8364.327145,-814.226536,3064.381992
3040.165007,-8808.450710,0.000000,2987.772442
3040.165344,-10658.965565,148.041188,3294.210641
3040.165681,-10807.006753,592.164754,1838.629195
3040.166019,-9400.615463,1406.391290,842.705048
3040.166356,-10510.924376,3701.029710,1302.362347
3040.166693,-10066.800811,3552.988522,-306.438199
3040.167031,-11103.089130,1554.432478,0.000000
3040.167368,-9992.780217,444.123565,1149.143247
3040.167705,-8882.471304,-444.123565,1915.238745
3040.168043,-8216.285956,592.164754,3447.429741
3040.168380,-8956.491898,1332.370696,1838.629195
3040.168717,-8882.471304,888.247130,153.219100
3040.169054,-10288.862594,-222.061783,383.047749
3040.169392,-9400.615463,-148.041188,459.657299
3040.169729,-8586.388927,-222.061783,1072.533697
3040.170066,-9548.656652,444.123565,1225.752797
3040.170404,-10362.883188,1998.556043,306.438199
3040.170741,-10732.986159,1776.494261,-306.438199
3040.171078,-9844.739029,1924.535449,1225.752797
3040.171416,-10881.027347,1036.288319,2911.162892
3040.171753,-10807.006753,1110.308913,2528.115143
3040.172090,-10140.821405,1628.453072,1378.971896
3040.172428,-11399.171507,296.082377,1532.190996
3040.172765,-10584.944971,1184.329507,689.485948
3040.173102,-10214.842000,666.185348,-306.438199
3040.173439,-11103.089130,740.205942,-689.485948
3040.173777,-9474.636058,518.144159,-2528.115143
3040.174114,-9696.697840,-666.185348,-1302.362347
3040.174451,-10436.903782,-592.164754,-689.485948
3040.174789,-8586.388927,-1110.308913,-766.095498
3040.175126,-10510.924376,-888.247130,-689.485948
3040.175463,-11103.089130,-1702.473667,-2834.553343
3040.175801,-9696.697840,-1998.556043,-2528.115143
3040.176138,-8956.491898,-2812.782580,-1378.971896
3040.176475,-7994.224174,-3330.926739,76.609550
3040.176813,-9992.780217,-3775.050304,76.609550
3040.177150,-10658.965565,-3182.885551,-306.438199
3040.177487,-8734.430116,-2072.576638,0.000000
3040.177824,-9622.677246,-1924.535449,842.705048
3040.178162,-9548.656652,-1702.473667,1532.190996
3040.178499,-11251.130318,-1702.473667,1991.848295
3040.178836,-10881.027347,-592.164754,1915.238745
3040.179174,-9770.718434,0.000000,2068.457845
3040.179511,-11621.233289,1554.432478,1838.629195
3040.179848,-10658.965565,1702.473667,76.609550
3040.180186,-11029.068536,222.061783,-459.657299
3040.180523,-10288.862594,888.247130,-306.438199
3040.180860,-9622.677246,1036.288319,766.095498
3040.181198,-11177.109724,1184.329507,919.314598
3040.181535,-9474.636058,1702.473667,-1608.800546
3040.181872,-9400.615463,814.226536,-995.924147
3040.182209,-9992.780217,740.205942,-1378.971896
3040.182547,-9474.636058,0.000000,-995.924147
3040.182884,-10140.821405,-296.082377,766.095498
3040.183221,-8956.491898,-74.020594,306.438199
3040.183559,-8660.409521,-814.226536,689.485948
3040.183896,-10584.944971,0.000000,1225.752797
3040.184233,-9400.615463,-2368.659014,995.924147
3040.184571,-9622.677246,-1480.411884,1225.752797
3040.184908,-8956.491898,-1184.329507,689.485948
3040.185245,-8734.430116,-740.205942,1532.190996
3040.185583,-9030.512492,-962.267725,1072.533697
3040.185920,-8808.450710,-666.185348,766.095498
3040.186257,-10881.027347,-148.041188,1455.581446
3040.186595,-10881.027347,1110.308913,1149.143247
3040.186932,-10881.027347,0.000000,1225.752797
3040.187269,-11029.068536,0.000000,306.438199
3040.187606,-9918.759623,-814.226536,-229.828649
3040.187944,-10955.047942,-1628.453072,229.828649
3040.188281,-9844.739029,-444.123565,-153.219100
3040.188618,-9474.636058,-666.185348,-76.609550
3040.188956,-10881.027347,-962.267725,-383.047749
3040.189293,-9474.636058,-444.123565,-1838.629195
3040.189630,-11917.315666,-1924.535449,-306.438199
3040.189968,-11473.192101,-962.267725,0.000000
3040.190305,-9474.636058,-1998.556043,0.000000
3040.190642,-10288.862594,-1110.308913,1378.971896
3040.190980,-8956.491898,-814.226536,306.438199
3040.191317,-10288.862594,-1628.453072,0.000000
3040.191654,-10436.903782,-888.247130,689.485948
3040.191991,-9770.718434,-1332.370696,842.705048
3040.192329,-10066.800811,740.205942,1455.581446
3040.192666,-8808.450710,296.082377,766.095498
3040.193003,-9992.780217,592.164754,1685.410096
3040.193341,-9252.574275,1332.370696,306.438199
3040.193678,-9252.574275,1406.391290,229.828649
3040.194015,-11029.068536,1924.535449,1378.971896
3040.194353,-9918.759623,888.247130,536.266849
3040.194690,-9992.780217,1480.411884,306.438199
3040.195027,-10362.883188,1702.473667,-459.657299
3040.195365,-8438.347739,1554.432478,-842.705048
3040.195702,-10066.800811,1406.391290,-1302.362347
3040.196039,-10362.883188,814.226536,-2298.286494
3040.196376,-10362.883188,0.000000,-1915.238745
3040.196714,-10955.047942,-444.123565,-2068.457845
3040.197051,-8882.471304,-888.247130,-842.705048
3040.197388,-9918.759623,-814.226536,0.000000
3040.197726,-11029.068536,-1480.411884,-306.438199
3040.198063,-10140.821405,-1258.350101,-995.924147
3040.198400,-10362.883188,-1406.391290,536.266849
3040.198738,-10140.821405,-2072.576638,1762.019645
3040.199075,-10362.883188,-2294.638420,766.095498
3040.199412,-9622.677246,-2738.761985,306.438199
3040.199750,-9696.697840,-2442.679609,1302.362347
3040.200087,-10584.944971,-2146.597232,3677.258390
3040.200424,-9252.574275,0.000000,2451.505594
3040.200761,-10807.006753,0.000000,1378.971896
3040.201099,-10362.883188,296.082377,-689.485948
3040.201436,-10362.883188,-1110.308913,76.609550
3040.201773,-10510.924376,-444.123565,459.657299
3040.202111,-8364.327145,-444.123565,919.314598
3040.202448,-9474.636058,-666.185348,1762.019645
3040.202785,-9918.759623,-518.144159,689.485948
3040.203123,-10881.027347,-1036.288319,-229.828649
3040.203460,-10955.047942,-518.144159,0.000000
3040.203797,-9178.553681,-1110.308913,-153.219100
3040.204135,-10066.800811,0.000000,1225.752797
3040.204472,-11103.089130,518.144159,-229.828649
3040.204809,-11103.089130,-296.082377,0.000000
3040.205146,-11325.150913,592.164754,842.705048
3040.205484,-9474.636058,444.123565,306.438199
3040.205821,-10288.862594,518.144159,1915.238745
3040.206158,-9918.759623,222.061783,1685.410096
3040.206496,-10288.862594,148.041188,1685.410096
3040.206833,-11843.295072,-296.082377,1455.581446
3040.207170,-9474.636058,814.226536,842.705048
3040.207508,-8142.265362,1924.535449,1762.019645
3040.207845,-9474.636058,2294.638420,383.047749
3040.208182,-10658.965565,444.123565,-842.705048
3040.208520,-11399.171507,-814.226536,-995.924147
3040.208857,-7994.224174,-74.020594,-383.047749
3040.209194,-8808.450710,-222.061783,229.828649
3040.209531,-9696.697840,-148.041188,-612.876398
3040.209869,-8882.471304,-962.267725,-2451.505594
3040.210206,-9178.553681,-1406.391290,-2834.553343
3040.210543,-8216.285956,-1258.350101,-1378.971896
3040.210881,-10288.862594,-2738.761985,-1149.143247
3040.211218,-11695.253884,-2072.576638,-919.314598
3040.211555,-9326.594869,-2146.597232,-2451.505594
3040.211893,-10436.903782,-2146.597232,-1378.971896
3040.212230,-10288.862594,-1406.391290,766.095498
3040.212567,-10807.006753,-1776.494261,842.705048
3040.212905,-11695.253884,-666.185348,766.095498
3040.213242,-10881.027347,-1628.453072,-383.047749
3040.213579,-11843.295072,-962.267725,1532.190996
3040.213916,-11177.109724,-370.102971,2145.067394
3040.214254,-10140.821405,-370.102971,1838.629195
3040.214591,-9474.636058,2294.638420,536.266849
3040.214928,-9992.780217,1554.432478,306.438199
3040.215266,-12657.521608,222.061783,612.876398
3040.215603,-11473.192101,222.061783,459.657299
3040.215940,-8512.368333,1850.514855,1149.143247
3040.216278,-9252.574275,1702.473667,1149.143247
3040.216615,-10732.986159,0.000000,842.705048
3040.216952,-10436.903782,-444.123565,0.000000
3040.217290,-7105.977043,888.247130,0.000000
3040.217627,-7698.141797,0.000000,689.485948
3040.217964,-8956.491898,1332.370696,-229.828649
3040.218301,-9474.636058,518.144159,-2068.457845
3040.218639,-10807.006753,-370.102971,-1302.362347
3040.218976,-9030.512492,-296.082377,-229.828649
3040.219313,-8216.285956,370.102971,1532.190996
3040.219651,-8882.471304,444.123565,1455.581446
3040.219988,-9844.739029,0.000000,1302.362347
3040.220325,-11991.336260,-1110.308913,1455.581446
3040.220663,-12065.356855,-1036.288319,1915.238745
3040.221000,-10436.903782,-518.144159,2451.505594
3040.221337,-9918.759623,0.000000,2681.334243
3040.221675,-9474.636058,592.164754,1455.581446
3040.222012,-11843.295072,-1036.288319,459.657299
3040.222349,-11177.109724,-296.082377,0.000000
3040.222686,-9474.636058,-370.102971,842.705048
3040.223024,-10140.821405,518.144159,0.000000
3040.223361,-11325.150913,74.020594,-995.924147
3040.223698,-12583.501014,-1998.556043,-1685.410096
3040.224036,-10066.800811,-2368.659014,-612.876398
3040.224373,-8734.430116,-2516.700203,536.266849
3040.224710,-8512.368333,-1628.453072,1149.143247
3040.225048,-8734.430116,-2442.679609,-383.047749
3040.225385,-10807.006753,-2294.638420,-153.219100
3040.225722,-10807.006753,-2220.617826,-995.924147
3040.226060,-9326.594869,-2072.576638,383.047749
3040.226397,-9770.718434,-222.061783,306.438199
3040.226734,-8512.368333,0.000000,-2145.067394
3040.227071,-9474.636058,-888.247130,-1532.190996
3040.227409,-10140.821405,-2368.659014,1225.752797
3040.227746,-8882.471304,-666.185348,2681.334243
3040.228083,-11103.089130,1110.308913,2911.162892
3040.228421,-10584.944971,1406.391290,919.314598
3040.228758,-11251.130318,370.102971,459.657299
3040.229095,-10807.006753,740.205942,612.876398
3040.229433,-8808.450710,1702.473667,2911.162892
3040.229770,-9770.718434,3108.864956,2451.505594
3040.230107,-10658.965565,2368.659014,-766.095498
3040.230444,-12139.377449,1628.453072,-3370.820191
3040.230782,-10881.027347,1628.453072,-4290.134789
3040.231119,-8660.409521,814.226536,-2298.286494
3040.231456,-9030.512492,-296.082377,-1532.190996
3040.231794,-7031.956449,296.082377,-2911.162892
3040.232131,-9326.594869,-1554.432478,-1991.848295
3040.232468,-11251.130318,-592.164754,153.219100
3040.232806,-9918.759623,-1406.391290,536.266849
3040.233143,-12139.377449,-1258.350101,1915.238745
3040.233480,-9770.718434,-518.144159,0.000000
3040.233818,-9474.636058,-1850.514855,0.000000
3040.234155,-10510.924376,-2294.638420,1378.971896
3040.234492,-6883.915261,-3627.009116,1149.143247
3040.234829,-9622.677246,-1924.535449,2374.896044
3040.235167,-10214.842000,-370.102971,842.705048
3040.235504,-10510.924376,-1776.494261,-459.657299
3040.235841,-11325.150913,-1554.432478,-306.438199
3040.236179,-8216.285956,-1332.370696,1991.848295
3040.236516,-8734.430116,0.000000,2987.772442
3040.236853,-9918.759623,962.267725,1991.848295
3040.237191,-12213.398043,1184.329507,459.657299
3040.237528,-13323.706956,148.041188,306.438199
3040.237865,-11621.233289,-518.144159,919.314598
3040.238203,-11399.171507,-888.247130,2528.115143
3040.238540,-9252.574275,0.000000,1378.971896
3040.238877,-7920.203579,370.102971,229.828649
3040.239214,-11399.171507,-222.061783,536.266849
3040.239552,-11325.150913,-296.082377,0.000000
3040.239889,-11325.150913,-74.020594,153.219100
3040.240226,-9992.780217,1110.308913,0.000000
3040.240564,-8808.450710,592.164754,-306.438199
3040.240901,-10881.027347,592.164754,536.266849
3040.241238,-9548.656652,-444.123565,1225.752797
3040.241576,-9474.636058,-444.123565,2374.896044
3040.241913,-9178.553681,740.205942,3140.991542
3040.242250,-8660.409521,1036.288319,1838.629195
3040.242588,-10658.965565,370.102971,1302.362347
3040.242925,-9474.636058,0.000000,1915.238745
3040.243262,-9992.780217,-592.164754,1455.581446
3040.243599,-9474.636058,1110.308913,0.000000
3040.243937,-8734.430116,666.185348,-2451.505594
3040.244274,-9918.759623,-518.144159,-2298.286494
3040.244611,-7698.141797,-370.102971,-3524.039291
3040.244949,-9252.574275,-1110.308913,-2221.676944
3040.245286,-10214.842000,-518.144159,-1762.019645
3040.245623,-8882.471304,-1036.288319,-1991.848295
3040.245961,-11769.274478,-888.247130,-1991.848295
3040.246298,-11177.109724,-1258.350101,-1532.190996
3040.246635,-10732.986159,-2220.617826,-306.438199
3040.246973,-12213.398043,-1924.535449,612.876398
3040.247310,-10288.862594,-1998.556043,-536.266849
3040.247647,-11547.212695,-2664.741391,-689.485948
3040.247984,-11029.068536,-1998.556043,383.047749
3040.248322,-9992.780217,-1776.494261,459.657299
3040.248659,-10807.006753,-296.082377,306.438199
3040.248996,-9474.636058,-370.102971,-689.485948
3040.249334,-10955.047942,-888.247130,-459.657299
3040.249671,-10955.047942,-222.061783,612.876398
3040.250008,-10288.862594,-370.102971,1225.752797
3040.250346,-9178.553681,444.123565,2451.505594
3040.250683,-9474.636058,148.041188,2987.772442
3040.251020,-10732.986159,444.123565,229.828649
3040.251358,-9474.636058,444.123565,0.000000
3040.251695,-9696.697840,-444.123565,2068.457845
3040.252032,-10214.842000,814.226536,1685.410096
3040.252369,-8882.471304,1628.453072,-306.438199
3040.252707,-9474.636058,1184.329507,-766.095498
3040.253044,-8068.244768,740.205942,-689.485948
3040.253381,-8808.450710,0.000000,306.438199
3040.253719,-9992.780217,1776.494261,1455.581446
3040.254056,-7698.141797,74.020594,383.047749
3040.254393,-11843.295072,-222.061783,1608.800546
3040.254731,-10436.903782,740.205942,1762.019645
3040.255068,-9474.636058,-1480.411884,1991.848295
3040.255405,-11177.109724,740.205942,4749.792088
3040.255743,-9622.677246,0.000000,2604.724693
3040.256080,-11621.233289,444.123565,2145.067394
3040.256417,-10510.924376,518.144159,306.438199
3040.256754,-10066.800811,-1184.329507,1838.629195
3040.257092,-11177.109724,296.082377,1149.143247
3040.257429,-8364.327145,74.020594,-1225.752797
3040.257766,-10584.944971,148.041188,-459.657299
3040.258104,-9992.780217,-740.205942,-1608.800546
3040.258441,-9326.594869,-2516.700203,612.876398
3040.258778,-11325.150913,-1776.494261,1685.410096
3040.259116,-9474.636058,-888.247130,306.438199
3040.259453,-10732.986159,-962.267725,-306.438199
3040.259790,-11769.274478,-1924.535449,-1378.971896
3040.260128,-8734.430116,-2738.761985,-1762.019645
3040.260465,-9992.780217,-2146.597232,-306.438199
3040.260802,-8438.347739,-1480.411884,-689.485948
3040.261139,-9844.739029,-1480.411884,-1225.752797
3040.261477,-11695.253884,-370.102971,-1225.752797
3040.261814,-9400.615463,-666.185348,-2221.676944
3040.262151,-10362.883188,0.000000,-766.095498
3040.262489,-9844.739029,-296.082377,766.095498
3040.262826,-9992.780217,-592.164754,1225.752797
3040.263163,-9770.718434,1776.494261,1915.238745
3040.263501,-10214.842000,1332.370696,2374.896044
3040.263838,-13101.645173,1110.308913,2298.286494
3040.264175,-11547.212695,1554.432478,1685.410096
3040.264513,-9992.780217,1776.494261,76.609550
3040.264850,-9178.553681,3404.947333,306.438199
3040.265187,-9252.574275,2442.679609,-536.266849
3040.265524,-10658.965565,1850.514855,-2068.457845
3040.265862,-9252.574275,1258.350101,-2757.943793
3040.266199,-8068.244768,1184.329507,-1838.629195
3040.266536,-9474.636058,1480.411884,-459.657299
3040.266874,-9474.636058,-888.247130,0.000000
3040.267211,-9844.739029,74.020594,-459.657299
3040.267548,-7846.182985,-74.020594,-1302.362347
3040.267886,-8882.471304,-1258.350101,0.000000
3040.268223,-10807.006753,-1480.411884,0.000000
3040.268560,-10288.862594,-2072.576638,383.047749
3040.268897,-9918.759623,-1628.453072,306.438199
3040.269235,-9326.594869,-2072.576638,612.876398
3040.269572,-10658.965565,-1850.514855,1991.848295
3040.269909,-11103.089130,-518.144159,919.314598
3040.270247,-9474.636058,-1258.350101,383.047749
3040.270584,-11769.274478,-666.185348,1455.581446
