#time,accel_x,accel_y,accel_z
2840.460355,-9400.615463,-3182.885551,-459.657299
2840.460691,-10214.842000,-1036.288319,-76.609550
2840.461028,-10807.006753,0.000000,-995.924147
2840.461365,-11251.130318,666.185348,-1225.752797
2840.461702,-11399.171507,518.144159,-995.924147
2840.462039,-10436.903782,296.082377,-153.219100
2840.462376,-9474.636058,518.144159,0.000000
2840.462713,-8734.430116,0.000000,0.000000
2840.463050,-9400.615463,-1110.308913,-459.657299
2840.463387,-8438.347739,-592.164754,-612.876398
2840.463724,-8734.430116,0.000000,-612.876398
2840.464061,-9400.615463,370.102971,-1149.143247
2840.464398,-9326.594869,518.144159,-2374.896044
2840.464735,-10881.027347,1480.411884,-2604.724693
2840.465072,-11547.212695,666.185348,-2911.162892
2840.465408,-9992.780217,0.000000,-2681.334243
2840.465745,-9992.780217,-1036.288319,-2221.676944
2840.466082,-9474.636058,-1480.411884,-2374.896044
2840.466419,-9622.677246,-2294.638420,-2374.896044
2840.466756,-9844.739029,-3256.906145,-2221.676944
2840.467093,-9474.636058,-3775.050304,-1915.238745
2840.467430,-10214.842000,-2960.823768,-995.924147
2840.467767,-11103.089130,-1628.453072,-689.485948
2840.468104,-11177.109724,-962.267725,-1225.752797
2840.468441,-10807.006753,-962.267725,-2298.286494
2840.468778,-10510.924376,-1776.494261,-1608.800546
2840.469115,-9844.739029,-1554.432478,-1838.629195
2840.469452,-10066.800811,-2886.803174,-1915.238745
2840.469789,-9548.656652,-2590.720797,-2451.505594
2840.470125,-9696.697840,-4219.173869,-2451.505594
2840.470462,-10066.800811,-4293.194464,-2834.553343
2840.470799,-9474.636058,-4811.338623,-2987.772442
2840.471136,-9178.553681,-4515.256246,-2528.115143
2840.471473,-8512.368333,-3997.112087,-2451.505594
2840.471810,-9548.656652,-2960.823768,-919.314598
2840.472147,-9844.739029,-2590.720797,-919.314598
2840.472484,-9918.759623,-2294.638420,-919.314598
2840.472821,-11547.212695,-2294.638420,229.828649
2840.473158,-11547.212695,-2294.638420,-689.485948
2840.473495,-11843.295072,-3330.926739,-689.485948
2840.473832,-10214.842000,-4663.297435,-459.657299
2840.474169,-9474.636058,-4589.276840,0.000000
2840.474505,-9400.615463,-3849.070898,459.657299
2840.474842,-9548.656652,-2664.741391,0.000000
2840.475179,-8660.409521,-444.123565,-153.219100
2840.475516,-9474.636058,518.144159,0.000000
2840.475853,-10584.944971,1184.329507,919.314598
2840.476190,-11917.315666,2072.576638,536.266849
2840.476527,-11325.150913,1554.432478,612.876398
2840.476864,-10140.821405,222.061783,536.266849
2840.477201,-7994.224174,-1480.411884,2681.334243
2840.477538,-9178.553681,-2146.597232,3524.039291
2840.477875,-9918.759623,-1776.494261,842.705048
2840.478212,-9696.697840,-2368.659014,-1991.848295
2840.478549,-8216.285956,-2886.803174,-2374.896044
2840.478886,-7920.203579,-2886.803174,-1225.752797
2840.479222,-8068.244768,-888.247130,-536.266849
2840.479559,-9474.636058,814.226536,-1608.800546
2840.479896,-10658.965565,740.205942,-2298.286494
2840.480233,-11769.274478,-962.267725,-1072.533697
2840.480570,-11325.150913,-1850.514855,1608.800546
2840.480907,-10510.924376,-3108.864956,2911.162892
2840.481244,-10214.842000,-2738.761985,4596.572988
2840.481581,-10732.986159,-1776.494261,3370.820191
2840.481918,-11547.212695,-370.102971,1072.533697
2840.482255,-11325.150913,518.144159,-2374.896044
2840.482592,-10066.800811,0.000000,-2451.505594
2840.482929,-11029.068536,888.247130,-1225.752797
2840.483266,-10214.842000,2516.700203,-1302.362347
2840.483602,-10732.986159,2886.803174,-995.924147
2840.483939,-9844.739029,2886.803174,-1225.752797
2840.484276,-10436.903782,666.185348,76.609550
2840.484613,-10214.842000,148.041188,1685.410096
2840.484950,-9548.656652,444.123565,1838.629195
2840.485287,-9770.718434,1036.288319,2757.943793
2840.485624,-11177.109724,1110.308913,1149.143247
2840.485961,-9548.656652,1036.288319,-1685.410096
2840.486298,-9030.512492,962.267725,-3064.381992
2840.486635,-8660.409521,-444.123565,-1762.019645
2840.486972,-7772.162391,1110.308913,0.000000
2840.487309,-7920.203579,1628.453072,536.266849
2840.487646,-9474.636058,2590.720797,153.219100
2840.487983,-10510.924376,1998.556043,-1072.533697
2840.488319,-11251.130318,666.185348,229.828649
2840.488657,-9992.780217,222.061783,2681.334243
2840.488994,-8364.327145,444.123565,5132.839837
2840.489331,-9548.656652,1628.453072,6052.154434
2840.489668,-11473.192101,2072.576638,3294.210641
2840.490005,-11991.336260,2072.576638,229.828649
2840.490343,-11843.295072,1480.411884,-2145.067394
2840.490680,-10510.924376,222.061783,-1762.019645
2840.491017,-9252.574275,592.164754,-1072.533697
2840.491354,-8364.327145,74.020594,-536.266849
2840.491692,-9326.594869,296.082377,-919.314598
2840.492029,-10140.821405,-888.247130,-1838.629195
2840.492366,-11695.253884,-1480.411884,-153.219100
2840.492703,-10955.047942,-3182.885551,459.657299
2840.493040,-9844.739029,-1702.473667,1532.190996
2840.493378,-10288.862594,-2368.659014,1762.019645
2840.493715,-10732.986159,-2664.741391,-536.266849
2840.494052,-10288.862594,-4293.194464,-2451.505594
2840.494389,-9696.697840,-4589.276840,-2298.286494
2840.494726,-8364.327145,-4589.276840,-689.485948
2840.495064,-7846.182985,-3330.926739,0.000000
2840.495401,-9474.636058,-2886.803174,689.485948
2840.495738,-10288.862594,-2146.597232,0.000000
2840.496075,-10881.027347,-2442.679609,306.438199
2840.496412,-11029.068536,-1702.473667,2374.896044
2840.496750,-9992.780217,-666.185348,3370.820191
2840.497087,-10214.842000,296.082377,4903.011187
2840.497424,-11325.150913,444.123565,3677.258390
2840.497761,-12065.356855,592.164754,919.314598
2840.498098,-11621.233289,0.000000,-1991.848295
2840.498436,-9844.739029,-1258.350101,-2451.505594
2840.498773,-7846.182985,-1036.288319,-995.924147
2840.499110,-7920.203579,-666.185348,459.657299
2840.499447,-9252.574275,444.123565,-383.047749
2840.499784,-9770.718434,666.185348,-2528.115143
2840.500122,-10807.006753,1036.288319,-2451.505594
2840.500459,-10510.924376,740.205942,-766.095498
2840.500796,-9844.739029,222.061783,1378.971896
2840.501133,-9178.553681,518.144159,2221.676944
2840.501470,-10214.842000,-962.267725,689.485948
2840.501808,-11251.130318,-1406.391290,536.266849
2840.502145,-10066.800811,-3330.926739,-842.705048
2840.502482,-8660.409521,-3034.844362,766.095498
2840.502819,-7550.100608,-3108.864956,1838.629195
2840.503156,-8808.450710,222.061783,1608.800546
2840.503494,-10881.027347,1036.288319,229.828649
2840.503831,-11103.089130,1110.308913,-1685.410096
2840.504168,-10807.006753,888.247130,-842.705048
2840.504505,-10436.903782,666.185348,1072.533697
2840.504842,-9400.615463,1184.329507,2221.676944
2840.505180,-10584.944971,444.123565,2451.505594
2840.505517,-12139.377449,-148.041188,1302.362347
2840.505854,-11399.171507,-1110.308913,-1455.581446
2840.506191,-10288.862594,-1924.535449,-2451.505594
2840.506528,-9252.574275,-2146.597232,-1991.848295
2840.506866,-9104.533087,-888.247130,-1225.752797
2840.507203,-9696.697840,222.061783,-1225.752797
2840.507540,-9622.677246,962.267725,-3064.381992
2840.507877,-10436.903782,444.123565,-2221.676944
2840.508214,-11621.233289,296.082377,-229.828649
2840.508552,-11029.068536,370.102971,1608.800546
2840.508889,-10362.883188,814.226536,4213.525239
2840.509226,-10584.944971,0.000000,3600.648841
2840.509563,-11621.233289,-888.247130,2528.115143
2840.509900,-10658.965565,-1702.473667,612.876398
2840.510238,-8586.388927,-1258.350101,1608.800546
2840.510575,-7179.997637,74.020594,2451.505594
2840.510912,-7772.162391,2072.576638,2451.505594
2840.511249,-9474.636058,3627.009116,1302.362347
2840.511587,-10732.986159,3552.988522,-383.047749
2840.511924,-11251.130318,3552.988522,0.000000
2840.512261,-10510.924376,2812.782580,1149.143247
2840.512598,-9400.615463,1998.556043,3217.601092
2840.512935,-8734.430116,1628.453072,3677.258390
2840.513273,-10807.006753,0.000000,2068.457845
2840.513610,-11325.150913,0.000000,-689.485948
2840.513947,-10584.944971,-1702.473667,-2987.772442
2840.514284,-9252.574275,-2738.761985,-1991.848295
2840.514621,-8216.285956,-2294.638420,-1915.238745
2840.514959,-8734.430116,-518.144159,-2221.676944
2840.515296,-10066.800811,222.061783,-2604.724693
2840.515633,-10140.821405,0.000000,-2681.334243
2840.515970,-11769.274478,-1036.288319,-995.924147
2840.516307,-11695.253884,-1628.453072,919.314598
2840.516645,-10732.986159,-2368.659014,2604.724693
2840.516982,-10732.986159,-3182.885551,3447.429741
2840.517319,-11177.109724,-3478.967927,1991.848295
2840.517656,-10214.842000,-4071.132681,0.000000
2840.517993,-9474.636058,-4293.194464,-459.657299
2840.518331,-8512.368333,-3108.864956,536.266849
2840.518668,-8438.347739,-1184.329507,153.219100
2840.519005,-10584.944971,1184.329507,-229.828649
2840.519342,-10955.047942,814.226536,-2221.676944
2840.519679,-11029.068536,-222.061783,-1838.629195
2840.520017,-10436.903782,-962.267725,919.314598
2840.520354,-9104.533087,-1776.494261,2451.505594
2840.520691,-9474.636058,-1184.329507,4136.915689
2840.521028,-10807.006753,-1628.453072,2298.286494
2840.521365,-11251.130318,-2220.617826,-1149.143247
2840.521703,-10288.862594,-2590.720797,-2374.896044
2840.522040,-8808.450710,-2812.782580,-1225.752797
2840.522377,-7846.182985,-1628.453072,-383.047749
2840.522714,-8068.244768,-296.082377,-612.876398
2840.523051,-9770.718434,1850.514855,-1302.362347
2840.523389,-10362.883188,962.267725,-995.924147
2840.523726,-11621.233289,370.102971,0.000000
2840.524063,-10807.006753,592.164754,2757.943793
2840.524400,-10288.862594,0.000000,4979.620737
2840.524737,-9918.759623,1036.288319,4749.792088
2840.525075,-11177.109724,444.123565,2834.553343
2840.525412,-11251.130318,148.041188,76.609550
2840.525749,-10510.924376,-1036.288319,-995.924147
2840.526086,-9030.512492,0.000000,536.266849
2840.526423,-7772.162391,1184.329507,383.047749
2840.526761,-8660.409521,2220.617826,-612.876398
2840.527098,-9622.677246,1480.411884,-2604.724693
2840.527435,-10584.944971,666.185348,-2757.943793
2840.527772,-10881.027347,0.000000,-459.657299
2840.528109,-10140.821405,-1184.329507,1378.971896
2840.528447,-8956.491898,-962.267725,1838.629195
2840.528784,-9548.656652,-1850.514855,1455.581446
2840.529121,-11103.089130,-2220.617826,-612.876398
2840.529458,-10881.027347,-3108.864956,-2068.457845
2840.529796,-9844.739029,-2886.803174,-1685.410096
2840.530133,-9252.574275,-2442.679609,-76.609550
2840.530470,-8512.368333,-962.267725,0.000000
2840.530807,-10214.842000,518.144159,0.000000
2840.531144,-11103.089130,370.102971,0.000000
2840.531482,-10732.986159,0.000000,0.000000
2840.531819,-11325.150913,518.144159,1991.848295
2840.532156,-11103.089130,444.123565,3294.210641
2840.532493,-10362.883188,740.205942,3753.867940
2840.532830,-10955.047942,518.144159,2528.115143
2840.533168,-11103.089130,1110.308913,0.000000
2840.533505,-10436.903782,0.000000,-1838.629195
2840.533842,-9252.574275,-592.164754,0.000000
2840.534179,-7476.080014,1258.350101,536.266849
2840.534516,-7994.224174,1924.535449,842.705048
2840.534854,-10140.821405,2886.803174,-995.924147
2840.535191,-10732.986159,1554.432478,-2604.724693
2840.535528,-10881.027347,592.164754,-1608.800546
2840.535865,-9252.574275,148.041188,153.219100
2840.536202,-7772.162391,-74.020594,2834.553343
2840.536540,-8290.306550,0.000000,3140.991542
2840.536877,-10510.924376,-444.123565,1378.971896
2840.537214,-11177.109724,-370.102971,-1302.362347
2840.537551,-10436.903782,-1924.535449,-1302.362347
2840.537888,-9474.636058,-1184.329507,612.876398
2840.538226,-8808.450710,-740.205942,995.924147
2840.538563,-9326.594869,740.205942,919.314598
2840.538900,-10214.842000,1628.453072,-306.438199
2840.539237,-10658.965565,592.164754,-1072.533697
2840.539574,-11325.150913,444.123565,76.609550
2840.539912,-11251.130318,148.041188,1762.019645
2840.540249,-10066.800811,518.144159,2221.676944
2840.540586,-10881.027347,370.102971,1685.410096
2840.540923,-11695.253884,-740.205942,-842.705048
2840.541260,-10658.965565,-2368.659014,-2681.334243
2840.541598,-9400.615463,-2516.700203,-1378.971896
2840.541935,-7994.224174,-1924.535449,0.000000
2840.542272,-8512.368333,-1110.308913,-229.828649
2840.542609,-9844.739029,74.020594,-842.705048
2840.542946,-10807.006753,-962.267725,-2451.505594
2840.543284,-10436.903782,-1628.453072,-1915.238745
2840.543621,-9918.759623,-2072.576638,919.314598
2840.543958,-9178.553681,-2368.659014,4060.306139
2840.544295,-9030.512492,-1702.473667,3677.258390
2840.544632,-10510.924376,-1258.350101,2145.067394
2840.544970,-11695.253884,-1554.432478,229.828649
2840.545307,-10881.027347,-1554.432478,-536.266849
2840.545644,-9104.533087,-1998.556043,612.876398
2840.545981,-8068.244768,-370.102971,1455.581446
2840.546318,-9178.553681,814.226536,1915.238745
2840.546656,-10362.883188,2072.576638,1072.533697
2840.546993,-11177.109724,2072.576638,-766.095498
2840.547330,-11325.150913,2146.597232,-766.095498
2840.547667,-11325.150913,1850.514855,1455.581446
2840.548004,-9770.718434,1184.329507,2221.676944
2840.548342,-9326.594869,1480.411884,2145.067394
2840.548679,-10066.800811,222.061783,229.828649
2840.549016,-10807.006753,0.000000,-2604.724693
2840.549353,-10066.800811,-1850.514855,-2757.943793
2840.549691,-8956.491898,-1258.350101,-995.924147
2840.550028,-7476.080014,-1258.350101,229.828649
2840.550365,-9178.553681,444.123565,-536.266849
2840.550702,-10066.800811,74.020594,-1608.800546
2840.551039,-11103.089130,-740.205942,-1915.238745
2840.551377,-10288.862594,-1036.288319,0.000000
2840.551714,-9622.677246,-814.226536,2681.334243
2840.552051,-9696.697840,-814.226536,3983.696590
2840.552388,-10510.924376,-666.185348,2987.772442
2840.552725,-11695.253884,-962.267725,766.095498
2840.553063,-11547.212695,-666.185348,-1455.581446
2840.553400,-9548.656652,-1554.432478,-1225.752797
2840.553737,-8808.450710,-814.226536,76.609550
2840.554074,-8956.491898,444.123565,459.657299
2840.554411,-10436.903782,2072.576638,0.000000
2840.554749,-11029.068536,1850.514855,-1915.238745
2840.555086,-10732.986159,1332.370696,-1915.238745
2840.555423,-11177.109724,222.061783,459.657299
2840.555760,-9844.739029,74.020594,1991.848295
2840.556097,-9770.718434,740.205942,2451.505594
2840.556435,-11177.109724,444.123565,1225.752797
2840.556772,-10955.047942,-740.205942,-1991.848295
2840.557109,-9844.739029,-2294.638420,-2987.772442
2840.557446,-8290.306550,-2220.617826,-306.438199
2840.557783,-7328.038826,-888.247130,1455.581446
2840.558121,-8734.430116,814.226536,1608.800546
2840.558458,-9844.739029,1776.494261,-76.609550
2840.558795,-11251.130318,666.185348,-995.924147
2840.559132,-11769.274478,1036.288319,1455.581446
2840.559469,-10140.821405,666.185348,3753.867940
2840.559807,-8660.409521,666.185348,5132.839837
2840.560144,-9474.636058,814.226536,4673.182538
2840.560481,-10807.006753,1776.494261,2298.286494
2840.560818,-11917.315666,370.102971,-689.485948
2840.561155,-10140.821405,-592.164754,-1378.971896
2840.561493,-8734.430116,0.000000,-459.657299
2840.561830,-8734.430116,666.185348,536.266849
2840.562167,-9474.636058,1628.453072,-1225.752797
2840.562504,-9474.636058,1184.329507,-2374.896044
2840.562841,-10584.944971,296.082377,-2451.505594
2840.563179,-11251.130318,148.041188,-1302.362347
2840.563516,-11251.130318,-1184.329507,842.705048
2840.563853,-9622.677246,-1258.350101,1149.143247
2840.564190,-10214.842000,-1850.514855,612.876398
2840.564527,-11325.150913,-2886.803174,-689.485948
2840.564865,-10362.883188,-3775.050304,-2451.505594
2840.565202,-9030.512492,-3923.091493,-1072.533697
2840.565539,-8586.388927,-2738.761985,0.000000
2840.565876,-8364.327145,-1110.308913,0.000000
2840.566213,-10658.965565,0.000000,229.828649
2840.566551,-11547.212695,-370.102971,-383.047749
2840.566888,-11325.150913,-666.185348,0.000000
2840.567225,-10214.842000,-592.164754,2221.676944
2840.567562,-9400.615463,-370.102971,4749.792088
2840.567899,-9844.739029,0.000000,5286.058936
2840.568237,-11769.274478,0.000000,3217.601092
2840.568574,-11695.253884,518.144159,-1072.533697
2840.568911,-10732.986159,222.061783,-2681.334243
2840.569248,-8734.430116,0.000000,-1225.752797
2840.569586,-7698.141797,-296.082377,0.000000
2840.569923,-7920.203579,1332.370696,766.095498
2840.570260,-9474.636058,1628.453072,-1455.581446
2840.570597,-10955.047942,1702.473667,-2221.676944
2840.570934,-11399.171507,296.082377,-1378.971896
2840.571272,-10066.800811,-666.185348,1072.533697
2840.571609,-8956.491898,74.020594,2681.334243
2840.571946,-8734.430116,-592.164754,2834.553343
2840.572283,-10807.006753,-518.144159,1149.143247
2840.572620,-10732.986159,-1850.514855,-1225.752797
2840.572958,-9770.718434,-1554.432478,-1455.581446
2840.573295,-8586.388927,-1480.411884,919.314598
2840.573632,-9178.553681,296.082377,2374.896044
2840.573969,-9696.697840,1332.370696,766.095498
2840.574306,-10436.903782,1554.432478,-383.047749
2840.574644,-11399.171507,666.185348,-612.876398
2840.574981,-10881.027347,0.000000,842.705048
2840.575318,-9548.656652,-814.226536,3447.429741
2840.575655,-9548.656652,444.123565,3753.867940
2840.575992,-10510.924376,222.061783,2374.896044
2840.576330,-11843.295072,296.082377,-1225.752797
2840.576667,-10881.027347,-666.185348,-3447.429741
2840.577004,-9474.636058,-1628.453072,-2451.505594
2840.577341,-8734.430116,-1036.288319,-306.438199
2840.577678,-8808.450710,-370.102971,-1378.971896
2840.578016,-9622.677246,592.164754,-2145.067394
2840.578353,-10732.986159,-518.144159,-2757.943793
2840.578690,-10584.944971,-1036.288319,-1608.800546
2840.579027,-10288.862594,-1110.308913,842.705048
2840.579364,-9770.718434,-666.185348,2374.896044
2840.579702,-9918.759623,-222.061783,2604.724693
2840.580039,-11843.295072,-666.185348,1532.190996
2840.580376,-11251.130318,-888.247130,-153.219100
2840.580713,-9992.780217,-1628.453072,-459.657299
2840.581050,-8882.471304,-888.247130,1149.143247
2840.581388,-7846.182985,370.102971,2451.505594
2840.581725,-9474.636058,2368.659014,2451.505594
2840.582062,-10436.903782,2516.700203,612.876398
2840.582399,-11547.212695,2220.617826,-995.924147
2840.582736,-10807.006753,1036.288319,689.485948
2840.583074,-9030.512492,1406.391290,2298.286494
2840.583411,-8882.471304,1258.350101,3907.087040
2840.583748,-8956.491898,1480.411884,2374.896044
2840.584085,-10214.842000,888.247130,0.000000
2840.584422,-11473.192101,0.000000,-2068.457845
2840.584760,-9770.718434,-1036.288319,-2221.676944
2840.585097,-8808.450710,-1702.473667,-766.095498
2840.585434,-8512.368333,-1406.391290,0.000000
2840.585771,-9030.512492,-370.102971,-536.266849
2840.586108,-9844.739029,0.000000,-1302.362347
2840.586446,-11177.109724,-1036.288319,-1532.190996
2840.586783,-11103.089130,-1480.411884,0.000000
2840.587120,-10658.965565,-1776.494261,2374.896044
2840.587458,-9918.759623,-814.226536,2834.553343
2840.587795,-11177.109724,-740.205942,2298.286494
2840.588132,-11843.295072,-1998.556043,229.828649
2840.588469,-10658.965565,-2368.659014,-1225.752797
2840.588807,-9400.615463,-1998.556043,76.609550
2840.589144,-8734.430116,-1184.329507,1378.971896
2840.589481,-9474.636058,296.082377,842.705048
2840.589818,-10732.986159,1184.329507,-612.876398
2840.590156,-11103.089130,814.226536,-2221.676944
2840.590493,-10807.006753,-296.082377,-1532.190996
2840.590830,-9622.677246,-962.267725,766.095498
2840.591167,-8438.347739,-518.144159,2757.943793
2840.591505,-8882.471304,-444.123565,2451.505594
2840.591842,-10658.965565,444.123565,153.219100
2840.592179,-11769.274478,-592.164754,-2757.943793
2840.592516,-9844.739029,-2146.597232,-2604.724693
2840.592854,-8586.388927,-1776.494261,-306.438199
2840.593191,-8068.244768,-1184.329507,2145.067394
2840.593528,-8956.491898,444.123565,612.876398
2840.593865,-10288.862594,592.164754,-689.485948
2840.594203,-11251.130318,592.164754,-383.047749
2840.594540,-11473.192101,888.247130,612.876398
2840.594877,-10807.006753,370.102971,2451.505594
2840.595214,-9992.780217,1184.329507,3983.696590
2840.595552,-10066.800811,1554.432478,3140.991542
2840.595889,-10807.006753,1036.288319,1149.143247
2840.596226,-11621.233289,74.020594,-612.876398
2840.596564,-9622.677246,-370.102971,-766.095498
2840.596901,-8660.409521,-296.082377,766.095498
2840.597238,-8808.450710,1036.288319,766.095498
2840.597575,-9918.759623,1406.391290,-689.485948
2840.597913,-10140.821405,740.205942,-2068.457845
2840.598250,-10510.924376,-666.185348,-2221.676944
2840.598587,-9030.512492,-888.247130,229.828649
2840.598924,-9104.533087,-518.144159,2298.286494
2840.599262,-8882.471304,-666.185348,1915.238745
2840.599599,-10288.862594,-1184.329507,536.266849
2840.599936,-11547.212695,-1776.494261,-766.095498
2840.600273,-11103.089130,-2516.700203,-2068.457845
2840.600611,-9400.615463,-2516.700203,-766.095498
2840.600948,-8660.409521,-2146.597232,689.485948
2840.601285,-9030.512492,-962.267725,383.047749
2840.601622,-10288.862594,0.000000,-536.266849
2840.601960,-11325.150913,740.205942,-306.438199
2840.602297,-11917.315666,0.000000,153.219100
2840.602634,-10658.965565,518.144159,1455.581446
2840.602971,-10362.883188,1554.432478,2834.553343
2840.603309,-10510.924376,1110.308913,3907.087040
2840.603646,-11547.212695,1258.350101,1608.800546
2840.603983,-10955.047942,0.000000,-995.924147
2840.604320,-10584.944971,0.000000,-1762.019645
2840.604658,-8512.368333,0.000000,-229.828649
2840.604995,-8290.306550,222.061783,1149.143247
2840.605332,-8660.409521,1406.391290,383.047749
2840.605670,-9548.656652,1110.308913,-1838.629195
2840.606007,-10362.883188,814.226536,-2681.334243
2840.606344,-9992.780217,0.000000,-1149.143247
2840.606681,-8438.347739,-222.061783,2145.067394
2840.607019,-8142.265362,-518.144159,3294.210641
2840.607356,-8882.471304,0.000000,2987.772442
2840.607693,-10955.047942,-370.102971,766.095498
2840.608030,-11251.130318,-1554.432478,-1149.143247
2840.608368,-9474.636058,-1628.453072,-229.828649
2840.608705,-8808.450710,-1776.494261,1225.752797
2840.609042,-8956.491898,-148.041188,1532.190996
2840.609379,-10214.842000,444.123565,0.000000
2840.609717,-11251.130318,1406.391290,-1455.581446
2840.610054,-11103.089130,296.082377,-842.705048
2840.610391,-10807.006753,0.000000,-306.438199
2840.610728,-10732.986159,0.000000,1838.629195
2840.611066,-10510.924376,0.000000,2451.505594
2840.611403,-10658.965565,0.000000,612.876398
2840.611740,-11695.253884,-888.247130,-1455.581446
2840.612077,-10881.027347,-2516.700203,-2145.067394
2840.612415,-8956.491898,-2664.741391,-1302.362347
2840.612752,-8290.306550,-2368.659014,76.609550
2840.613089,-9178.553681,-74.020594,-1072.533697
2840.613426,-9992.780217,-888.247130,-3064.381992
2840.613764,-10732.986159,-1702.473667,-2681.334243
2840.614101,-9918.759623,-1998.556043,-1532.190996
2840.614438,-9252.574275,-2368.659014,1991.848295
2840.614776,-8734.430116,-1406.391290,3370.820191
2840.615113,-9696.697840,-1332.370696,3370.820191
2840.615450,-11917.315666,-1480.411884,2451.505594
2840.615787,-11769.274478,-1184.329507,76.609550
2840.616125,-10362.883188,-1480.411884,-612.876398
2840.616462,-9104.533087,-1110.308913,1149.143247
2840.616799,-8882.471304,-74.020594,2221.676944
2840.617136,-8956.491898,1258.350101,766.095498
2840.617474,-10288.862594,2146.597232,-459.657299
2840.617811,-10881.027347,2220.617826,-919.314598
2840.618148,-11251.130318,814.226536,-766.095498
2840.618485,-10436.903782,1702.473667,1455.581446
2840.618823,-9474.636058,1850.514855,1991.848295
2840.619160,-9622.677246,1184.329507,1455.581446
2840.619497,-10955.047942,518.144159,-842.705048
2840.619834,-10732.986159,-888.247130,-2298.286494
2840.620172,-9178.553681,-888.247130,-1762.019645
2840.620509,-8142.265362,-1258.350101,-689.485948
2840.620846,-9030.512492,-296.082377,0.000000
2840.621183,-9770.718434,222.061783,-459.657299
2840.621521,-10732.986159,0.000000,-1762.019645
2840.621858,-10807.006753,-740.205942,-995.924147
2840.622195,-9474.636058,-1998.556043,842.705048
2840.622532,-9104.533087,-1332.370696,4060.306139
2840.622870,-9844.739029,-1332.370696,4596.572988
2840.623207,-10584.944971,-222.061783,3064.381992
2840.623544,-12435.459826,-962.267725,459.657299
2840.623882,-11399.171507,-1850.514855,-229.828649
2840.624219,-9104.533087,-1702.473667,0.000000
2840.624556,-8586.388927,-888.247130,1225.752797
2840.624893,-9844.739029,74.020594,842.705048
2840.625231,-10214.842000,1258.350101,-1532.190996
2840.625568,-10881.027347,1110.308913,-2911.162892
2840.625905,-10807.006753,296.082377,-2451.505594
2840.626242,-10140.821405,0.000000,306.438199
2840.626580,-9992.780217,0.000000,1991.848295
2840.626917,-9844.739029,0.000000,1378.971896
2840.627254,-10732.986159,-444.123565,-612.876398
2840.627591,-10955.047942,-1554.432478,-2528.115143
2840.627929,-9696.697840,-2294.638420,-2451.505594
2840.628266,-7994.224174,-2146.597232,0.000000
2840.628603,-8290.306550,-962.267725,1762.019645
2840.628940,-9474.636058,888.247130,-306.438199
2840.629278,-10658.965565,518.144159,-1762.019645
2840.629615,-11177.109724,148.041188,-1225.752797
2840.629952,-10362.883188,-1036.288319,1455.581446
2840.630289,-9178.553681,222.061783,3294.210641
2840.630627,-8956.491898,1258.350101,4596.572988
2840.630964,-10288.862594,888.247130,3294.210641
2840.631301,-11769.274478,814.226536,1302.362347
2840.631638,-11251.130318,222.061783,-842.705048
2840.631976,-9844.739029,-296.082377,-306.438199
2840.632313,-8734.430116,-148.041188,0.000000
2840.632650,-9104.533087,814.226536,1072.533697
2840.632988,-9770.718434,1480.411884,-1838.629195
2840.633325,-10066.800811,370.102971,-2604.724693
2840.633662,-11029.068536,-222.061783,-2451.505594
2840.633999,-9918.759623,-888.247130,-1608.800546
2840.634337,-9918.759623,-444.123565,689.485948
2840.634674,-10807.006753,-814.226536,1149.143247
2840.635011,-10732.986159,-1258.350101,0.000000
2840.635348,-11473.192101,-3256.906145,-1149.143247
2840.635686,-10807.006753,-3404.947333,-766.095498
2840.636023,-8808.450710,-3478.967927,-383.047749
2840.636360,-9030.512492,-2294.638420,1072.533697
2840.636697,-9400.615463,-1332.370696,459.657299
2840.637035,-10140.821405,-888.247130,-612.876398
2840.637372,-11177.109724,-74.020594,-229.828649
2840.637709,-10584.944971,-1184.329507,229.828649
2840.638046,-9474.636058,-518.144159,3370.820191
2840.638384,-9030.512492,0.000000,4673.182538
2840.638721,-9918.759623,444.123565,4060.306139
2840.639058,-12139.377449,962.267725,1991.848295
2840.639395,-11843.295072,-148.041188,-995.924147
2840.639733,-10214.842000,-148.041188,-1072.533697
2840.640070,-8364.327145,-1258.350101,459.657299
2840.640407,-7772.162391,296.082377,1608.800546
2840.640744,-9326.594869,222.061783,383.047749
2840.641082,-9918.759623,1184.329507,-1991.848295
2840.641419,-10510.924376,1406.391290,-2987.772442
2840.641756,-10955.047942,370.102971,-536.266849
2840.642094,-9770.718434,0.000000,1608.800546
2840.642431,-9252.574275,0.000000,2834.553343
2840.642768,-10140.821405,-296.082377,2298.286494
2840.643105,-10807.006753,518.144159,-153.219100
2840.643443,-11029.068536,-2146.597232,-306.438199
2840.643780,-9252.574275,-1554.432478,153.219100
2840.644117,-8438.347739,-1258.350101,1378.971896
2840.644454,-9474.636058,740.205942,2374.896044
2840.644792,-10214.842000,1406.391290,-995.924147
2840.645129,-10732.986159,814.226536,-1455.581446
2840.645466,-11103.089130,74.020594,-919.314598
2840.645803,-9104.533087,-222.061783,689.485948
2840.646141,-9030.512492,518.144159,2757.943793
2840.646478,-9696.697840,0.000000,2834.553343
2840.646815,-11029.068536,740.205942,536.266849
2840.647152,-12065.356855,-1036.288319,-1915.238745
2840.647490,-11103.089130,-1480.411884,-2757.943793
2840.647827,-9030.512492,-2220.617826,-1915.238745
2840.648164,-8512.368333,-1776.494261,-766.095498
2840.648501,-8660.409521,-370.102971,-1225.752797
2840.648839,-9770.718434,-148.041188,-3064.381992
2840.649176,-10510.924376,-296.082377,-2834.553343
2840.649513,-11103.089130,-1184.329507,-1532.190996
2840.649850,-10584.944971,-740.205942,1225.752797
2840.650188,-10362.883188,-592.164754,2681.334243
2840.650525,-10658.965565,-518.144159,2681.334243
2840.650862,-11325.150913,-1184.329507,1455.581446
2840.651200,-11473.192101,-1702.473667,536.266849
2840.651537,-9918.759623,-1332.370696,459.657299
2840.651874,-8512.368333,-962.267725,1915.238745
2840.652211,-9178.553681,1184.329507,2451.505594
2840.652549,-9770.718434,1184.329507,1378.971896
2840.652886,-10436.903782,2220.617826,-383.047749
2840.653223,-10510.924376,1480.411884,-76.609550
2840.653560,-10510.924376,666.185348,1532.190996
2840.653898,-8808.450710,1406.391290,2834.553343
2840.654235,-8660.409521,1554.432478,2987.772442
2840.654572,-10066.800811,1036.288319,2374.896044
2840.654909,-11251.130318,222.061783,-612.876398
2840.655247,-10288.862594,-1554.432478,-1302.362347
2840.655584,-8808.450710,-1480.411884,-1532.190996
2840.655921,-7105.977043,-2368.659014,153.219100
2840.656258,-9030.512492,-296.082377,612.876398
2840.656596,-9474.636058,0.000000,-1149.143247
2840.656933,-10362.883188,222.061783,-2757.943793
2840.657270,-11251.130318,-296.082377,-1532.190996
2840.657607,-10807.006753,-1406.391290,536.266849
2840.657945,-10436.903782,-740.205942,2757.943793
2840.658282,-10362.883188,-1554.432478,2834.553343
2840.658619,-10955.047942,-740.205942,1991.848295
2840.658956,-11917.315666,-2146.597232,229.828649
2840.659294,-10955.047942,-2738.761985,0.000000
2840.659631,-9104.533087,-2368.659014,153.219100
2840.659968,-8808.450710,-518.144159,1225.752797
2840.660306,-9844.739029,666.185348,0.000000
2840.660643,-10658.965565,666.185348,-2221.676944
2840.660980,-10658.965565,740.205942,-2451.505594
2840.661317,-9844.739029,-592.164754,-1225.752797
2840.661655,-9474.636058,-592.164754,1532.190996
2840.661992,-9400.615463,-444.123565,2911.162892
2840.662329,-10214.842000,-222.061783,2374.896044
2840.662666,-11103.089130,-962.267725,0.000000
2840.663004,-10955.047942,-1110.308913,-2068.457845
2840.663341,-9696.697840,-2664.741391,-842.705048
2840.663678,-8734.430116,-1554.432478,459.657299
2840.664015,-8142.265362,-444.123565,766.095498
2840.664353,-9622.677246,962.267725,0.000000
2840.664690,-9696.697840,1332.370696,-1762.019645
2840.665027,-11029.068536,962.267725,-919.314598
2840.665364,-11325.150913,370.102971,1762.019645
2840.665702,-10362.883188,1924.535449,3217.601092
2840.666039,-10214.842000,1628.453072,3907.087040
2840.666376,-10658.965565,888.247130,2681.334243
2840.666713,-11029.068536,222.061783,919.314598
2840.667051,-10732.986159,-740.205942,-76.609550
2840.667388,-9104.533087,222.061783,0.000000
2840.667725,-8068.244768,148.041188,76.609550
2840.668062,-9400.615463,1702.473667,0.000000
2840.668400,-9770.718434,1258.350101,-2221.676944
2840.668737,-10140.821405,888.247130,-2681.334243
2840.669074,-10214.842000,0.000000,-1915.238745
2840.669412,-9252.574275,-666.185348,-229.828649
2840.669749,-9104.533087,-518.144159,1762.019645
2840.670086,-9548.656652,-1480.411884,2374.896044
2840.670423,-10807.006753,-2072.576638,1225.752797
2840.670761,-11843.295072,-2886.803174,-1072.533697
2840.671098,-10955.047942,-3404.947333,-842.705048
2840.671435,-8882.471304,-3256.906145,-229.828649
2840.671772,-8290.306550,-2146.597232,842.705048
2840.672110,-9474.636058,-962.267725,536.266849
2840.672447,-10510.924376,74.020594,-689.485948
2840.672784,-11325.150913,666.185348,-306.438199
2840.673121,-11769.274478,74.020594,842.705048
2840.673459,-11251.130318,222.061783,2298.286494
2840.673796,-9844.739029,0.000000,3600.648841
2840.674133,-10584.944971,296.082377,3753.867940
2840.674470,-11547.212695,0.000000,1762.019645
2840.674808,-11103.089130,-592.164754,-612.876398
2840.675145,-9918.759623,-1036.288319,-1225.752797
2840.675482,-8512.368333,-444.123565,-612.876398
2840.675819,-8364.327145,888.247130,-306.438199
2840.676157,-9548.656652,2146.597232,-1532.190996
2840.676494,-9474.636058,1406.391290,-2911.162892
2840.676831,-10214.842000,444.123565,-2451.505594
2840.677168,-10066.800811,-296.082377,-229.828649
2840.677506,-8882.471304,-148.041188,2221.676944
2840.677843,-9474.636058,-296.082377,3753.867940
2840.678180,-10066.800811,-370.102971,2298.286494
2840.678518,-10807.006753,-814.226536,229.828649
2840.678855,-10732.986159,-1776.494261,-229.828649
2840.679192,-9252.574275,-2442.679609,0.000000
2840.679529,-8290.306550,-1110.308913,1608.800546
2840.679867,-9178.553681,888.247130,1608.800546
2840.680204,-10510.924376,1776.494261,-459.657299
2840.680541,-10658.965565,1850.514855,-1762.019645
2840.680878,-11029.068536,666.185348,-995.924147
2840.681216,-10732.986159,0.000000,995.924147
2840.681553,-9548.656652,74.020594,2604.724693
2840.681890,-10584.944971,296.082377,2911.162892
2840.682227,-11547.212695,-592.164754,842.705048
2840.682565,-11399.171507,-1702.473667,-1072.533697
2840.682902,-10807.006753,-1480.411884,-1608.800546
2840.683239,-9030.512492,-2146.597232,-383.047749
2840.683576,-8512.368333,-1554.432478,-919.314598
2840.683914,-9252.574275,-518.144159,-1991.848295
2840.684251,-9992.780217,-740.205942,-2911.162892
2840.684588,-10584.944971,-888.247130,-2604.724693
2840.684925,-10510.924376,-2368.659014,-536.266849
2840.685263,-9326.594869,-1776.494261,1991.848295
2840.685600,-9400.615463,-1480.411884,3447.429741
2840.685937,-9918.759623,-1776.494261,2911.162892
2840.686274,-11547.212695,-1184.329507,1915.238745
2840.686612,-11547.212695,-1850.514855,536.266849
2840.686949,-9622.677246,-1776.494261,459.657299
2840.687286,-7772.162391,-444.123565,1838.629195
2840.687622,-8512.368333,1184.329507,1762.019645
2840.687960,-9622.677246,2294.638420,842.705048
2840.688297,-9844.739029,3108.864956,-995.924147
2840.688634,-10807.006753,2664.741391,-842.705048
2840.688972,-11399.171507,2294.638420,383.047749
2840.689309,-10288.862594,1924.535449,1532.190996
2840.689647,-9770.718434,2146.597232,2374.896044
2840.689984,-10214.842000,592.164754,1455.581446
2840.690321,-11103.089130,74.020594,-995.924147
2840.690659,-9844.739029,-814.226536,-1685.410096
2840.690996,-8808.450710,-1332.370696,-919.314598
2840.691334,-7994.224174,-444.123565,-919.314598
2840.691671,-9104.533087,666.185348,-766.095498
2840.692008,-10584.944971,888.247130,-1378.971896
2840.692346,-10436.903782,0.000000,-2374.896044
2840.692683,-10066.800811,-1036.288319,-919.314598
2840.693021,-9252.574275,-1036.288319,1302.362347
2840.693358,-9474.636058,-1628.453072,3907.087040
2840.693695,-10214.842000,-1110.308913,4443.353888
2840.694033,-11103.089130,-370.102971,1915.238745
2840.694370,-11695.253884,-1628.453072,536.266849
2840.694708,-10584.944971,-2072.576638,383.047749
2840.695045,-8734.430116,-1702.473667,459.657299
2840.695382,-8290.306550,-740.205942,1532.190996
2840.695720,-9548.656652,1406.391290,76.609550
2840.696057,-10807.006753,1850.514855,-2298.286494
2840.696395,-11325.150913,888.247130,-1991.848295
2840.696732,-11177.109724,0.000000,-766.095498
2840.697069,-9918.759623,-296.082377,919.314598
2840.697407,-10140.821405,-370.102971,2528.115143
2840.697744,-10732.986159,-518.144159,1378.971896
2840.698082,-11695.253884,-1258.350101,-1072.533697
2840.698419,-11177.109724,-2220.617826,-2068.457845
2840.698756,-9326.594869,-2664.741391,-1302.362347
2840.699094,-8586.388927,-1628.453072,612.876398
2840.699431,-8808.450710,222.061783,536.266849
2840.699769,-9844.739029,814.226536,-612.876398
2840.700106,-10288.862594,1110.308913,-1302.362347
2840.700443,-10732.986159,0.000000,0.000000
2840.700781,-10362.883188,-518.144159,2681.334243
2840.701118,-9178.553681,0.000000,4136.915689
2840.701456,-9178.553681,1110.308913,4826.401637
2840.701793,-10510.924376,666.185348,2757.943793
2840.702130,-10881.027347,-74.020594,842.705048
2840.702468,-9770.718434,-222.061783,0.000000
2840.702805,-8882.471304,-518.144159,229.828649
2840.703143,-8512.368333,1406.391290,153.219100
2840.703480,-9400.615463,1554.432478,-612.876398
2840.703817,-10140.821405,1998.556043,-2068.457845
2840.704155,-9696.697840,962.267725,-3217.601092
2840.704492,-10510.924376,74.020594,-1532.190996
2840.704830,-10658.965565,-592.164754,459.657299
2840.705167,-9844.739029,-740.205942,1149.143247
2840.705504,-9992.780217,-1924.535449,1608.800546
2840.705842,-11325.150913,-1850.514855,76.609550
2840.706179,-11399.171507,-2664.741391,-919.314598
2840.706516,-10436.903782,-3182.885551,-919.314598
2840.706854,-8808.450710,-2442.679609,229.828649
2840.707191,-8808.450710,-1036.288319,153.219100
2840.707529,-10214.842000,0.000000,0.000000
2840.707866,-10881.027347,0.000000,-1149.143247
2840.708203,-10955.047942,-1036.288319,-229.828649
2840.708541,-10658.965565,-740.205942,1455.581446
2840.708878,-9104.533087,-222.061783,2604.724693
2840.709216,-9104.533087,0.000000,3983.696590
2840.709553,-10955.047942,222.061783,3294.210641
2840.709890,-11769.274478,-148.041188,306.438199
2840.710228,-11103.089130,-518.144159,-1302.362347
2840.710565,-9252.574275,-592.164754,-1149.143247
2840.710903,-7698.141797,-296.082377,0.000000
2840.711240,-7994.224174,888.247130,383.047749
2840.711577,-9252.574275,2146.597232,-1072.533697
2840.711915,-10510.924376,1776.494261,-1991.848295
2840.712252,-11177.109724,1258.350101,-2451.505594
2840.712590,-10436.903782,0.000000,0.000000
2840.712927,-9992.780217,370.102971,2298.286494
2840.713264,-9178.553681,0.000000,3140.991542
2840.713602,-10658.965565,0.000000,2068.457845
2840.713939,-10658.965565,-962.267725,0.000000
2840.714277,-9844.739029,-1110.308913,-612.876398
2840.714614,-9400.615463,-962.267725,842.705048
2840.714951,-8586.388927,814.226536,766.095498
2840.715289,-9770.718434,1332.370696,766.095498
2840.715626,-11103.089130,2220.617826,76.609550
2840.715964,-10066.800811,1184.329507,-1225.752797
2840.716301,-10732.986159,518.144159,612.876398
2840.716638,-9474.636058,0.000000,2451.505594
2840.716976,-8956.491898,0.000000,3677.258390
2840.717313,-10362.883188,666.185348,3907.087040
2840.717651,-11547.212695,-962.267725,306.438199
2840.717988,-11103.089130,-1332.370696,-1302.362347
2840.718325,-9474.636058,-2368.659014,-2145.067394
2840.718663,-8142.265362,-1850.514855,-1225.752797
2840.719000,-8512.368333,-518.144159,-1225.752797
2840.719338,-9622.677246,-370.102971,-1915.238745
2840.719675,-10288.862594,-370.102971,-2834.553343
2840.720012,-11177.109724,-1110.308913,-2221.676944
2840.720350,-10955.047942,-962.267725,-459.657299
2840.720687,-10066.800811,-2220.617826,1762.019645
2840.721025,-9918.759623,-1554.432478,2757.943793
2840.721362,-10436.903782,-1554.432478,2298.286494
2840.721699,-11917.315666,-1702.473667,1378.971896
2840.722037,-11399.171507,-2072.576638,76.609550
2840.722374,-9548.656652,-1406.391290,306.438199
2840.722712,-8808.450710,-740.205942,1838.629195
2840.723049,-8808.450710,2072.576638,1149.143247
2840.723386,-9918.759623,1998.556043,0.000000
2840.723724,-10436.903782,2072.576638,-1378.971896
2840.724061,-10140.821405,1036.288319,-1149.143247
2840.724398,-10362.883188,1110.308913,1608.800546
2840.724736,-8882.471304,814.226536,2451.505594
2840.725073,-8956.491898,444.123565,2528.115143
2840.725411,-10362.883188,-370.102971,1149.143247
2840.725748,-10288.862594,-888.247130,-1378.971896
2840.726085,-9696.697840,-1258.350101,-1991.848295
2840.726423,-8364.327145,-1998.556043,-995.924147
2840.726760,-7920.203579,-518.144159,-383.047749
2840.727098,-9474.636058,0.000000,-766.095498
2840.727435,-10362.883188,1406.391290,-1915.238745
2840.727772,-10584.944971,148.041188,-2451.505594
2840.728110,-10807.006753,-1110.308913,-689.485948
2840.728447,-10066.800811,-1332.370696,1762.019645
2840.728785,-9770.718434,-1702.473667,3064.381992
2840.729122,-10881.027347,-740.205942,3217.601092
2840.729459,-11843.295072,-1554.432478,1149.143247
2840.729797,-11547.212695,-1036.288319,-459.657299
2840.730134,-10436.903782,-1998.556043,-536.266849
2840.730472,-9030.512492,-814.226536,76.609550
2840.730809,-8734.430116,296.082377,0.000000
2840.731146,-10066.800811,1406.391290,-842.705048
2840.731484,-10807.006753,1406.391290,-2604.724693
2840.731821,-10881.027347,148.041188,-2145.067394
2840.732159,-10214.842000,-518.144159,229.828649
2840.732496,-9474.636058,-1480.411884,1991.848295
2840.732833,-9104.533087,-1036.288319,2528.115143
2840.733171,-9992.780217,-592.164754,1225.752797
2840.733508,-11695.253884,-1776.494261,-919.314598
2840.733846,-9992.780217,-3182.885551,-2145.067394
2840.734183,-8808.450710,-2442.679609,-612.876398
2840.734520,-8290.306550,-1406.391290,1608.800546
2840.734858,-9104.533087,222.061783,306.438199
2840.735195,-9770.718434,814.226536,-153.219100
2840.735533,-10732.986159,1036.288319,-995.924147
2840.735870,-10881.027347,296.082377,612.876398
2840.736207,-11103.089130,1110.308913,3140.991542
2840.736545,-10214.842000,1184.329507,4060.306139
2840.736882,-10510.924376,1776.494261,4673.182538
2840.737220,-11177.109724,1110.308913,2681.334243
2840.737557,-10732.986159,74.020594,153.219100
2840.737894,-9548.656652,222.061783,0.000000
2840.738232,-9104.533087,74.020594,229.828649
2840.738569,-8808.450710,2368.659014,536.266849
2840.738907,-10066.800811,2072.576638,-1225.752797
2840.739244,-10732.986159,2368.659014,-2681.334243
2840.739581,-10436.903782,74.020594,-2911.162892
2840.739919,-10140.821405,-1036.288319,-766.095498
2840.740256,-8586.388927,-1480.411884,842.705048
2840.740594,-8586.388927,-1850.514855,1838.629195
2840.740931,-9918.759623,-1554.432478,1608.800546
2840.741268,-11029.068536,-2664.741391,-383.047749
2840.741606,-11029.068536,-2516.700203,-1838.629195
2840.741943,-9252.574275,-3108.864956,-1455.581446
2840.742280,-9030.512492,-2072.576638,76.609550
2840.742618,-8364.327145,-2072.576638,383.047749
2840.742955,-10066.800811,222.061783,-153.219100
2840.743293,-10510.924376,74.020594,-383.047749
2840.743630,-11843.295072,0.000000,-919.314598
2840.743967,-11251.130318,-592.164754,766.095498
2840.744305,-10584.944971,-370.102971,2604.724693
2840.744642,-9992.780217,74.020594,3524.039291
2840.744980,-10955.047942,-370.102971,1838.629195
2840.745317,-11843.295072,-370.102971,153.219100
2840.745654,-10881.027347,-592.164754,-1072.533697
2840.745992,-9474.636058,-740.205942,-612.876398
2840.746329,-9030.512492,296.082377,229.828649
2840.746667,-8882.471304,888.247130,-229.828649
2840.747004,-10140.821405,1110.308913,-1532.190996
2840.747341,-10436.903782,888.247130,-2298.286494
2840.747679,-10436.903782,-370.102971,-1532.190996
2840.748016,-9474.636058,-814.226536,1608.800546
2840.748354,-8734.430116,-1184.329507,2528.115143
2840.748691,-9178.553681,-222.061783,3370.820191
2840.749028,-10510.924376,-296.082377,1762.019645
2840.749366,-11029.068536,-1480.411884,-229.828649
2840.749703,-9696.697840,-1332.370696,0.000000
2840.750041,-8438.347739,-1480.411884,995.924147
2840.750378,-8216.285956,296.082377,1838.629195
2840.750715,-9696.697840,1332.370696,689.485948
2840.751053,-11103.089130,1850.514855,-536.266849
2840.751390,-10881.027347,1480.411884,-1378.971896
2840.751728,-10881.027347,444.123565,76.609550
2840.752065,-9918.759623,74.020594,1302.362347
2840.752402,-9696.697840,-148.041188,2528.115143
2840.752740,-10214.842000,222.061783,995.924147
2840.753077,-11399.171507,-370.102971,-536.266849
2840.753415,-11103.089130,-1110.308913,-2298.286494
2840.753752,-10066.800811,-2146.597232,-1838.629195
2840.754089,-9178.553681,-1332.370696,-995.924147
2840.754427,-8586.388927,0.000000,-1302.362347
2840.754764,-9992.780217,222.061783,-2298.286494
2840.755102,-10658.965565,-962.267725,-2681.334243
2840.755439,-10732.986159,-1702.473667,-2068.457845
2840.755776,-9992.780217,-1702.473667,0.000000
2840.756114,-9548.656652,-1924.535449,1991.848295
2840.756451,-9178.553681,-1258.350101,2298.286494
2840.756789,-10658.965565,-1850.514855,1378.971896
2840.757126,-11325.150913,-1850.514855,306.438199
2840.757463,-10510.924376,-1776.494261,383.047749
2840.757801,-9400.615463,-1628.453072,1532.190996
2840.758138,-8734.430116,-444.123565,2451.505594
2840.758476,-9030.512492,1184.329507,1991.848295
2840.758813,-10362.883188,2146.597232,766.095498
2840.759150,-10807.006753,1776.494261,-766.095498
2840.759488,-11177.109724,1480.411884,-383.047749
2840.759825,-10066.800811,1628.453072,1455.581446
2840.760163,-9770.718434,1406.391290,1991.848295
2840.760500,-9474.636058,1332.370696,1838.629195
2840.760837,-10658.965565,148.041188,306.438199
2840.761175,-10732.986159,-592.164754,-919.314598
2840.761512,-9030.512492,-1110.308913,-1302.362347
2840.761849,-9030.512492,-518.144159,229.828649
2840.762187,-9178.553681,0.000000,536.266849
2840.762524,-9770.718434,444.123565,-306.438199
2840.762862,-11251.130318,1110.308913,-1149.143247
2840.763199,-10881.027347,370.102971,-1608.800546
2840.763536,-10066.800811,-1184.329507,0.000000
2840.763874,-9326.594869,-1554.432478,2374.896044
2840.764211,-9252.574275,-666.185348,3600.648841
2840.764549,-10362.883188,0.000000,2757.943793
2840.764886,-12213.398043,-1332.370696,766.095498
2840.765223,-11177.109724,-888.247130,-766.095498
2840.765561,-9548.656652,-2072.576638,-229.828649
2840.765898,-8364.327145,-1110.308913,1072.533697
2840.766236,-8882.471304,444.123565,919.314598
2840.766573,-10288.862594,888.247130,-459.657299
2840.766910,-10955.047942,1332.370696,-2068.457845
2840.767248,-10955.047942,0.000000,-1608.800546
2840.767585,-10362.883188,-444.123565,0.000000
2840.767923,-9844.739029,-814.226536,1608.800546
2840.768260,-9770.718434,-444.123565,1072.533697
2840.768597,-10436.903782,-962.267725,-612.876398
2840.768935,-11473.192101,-1702.473667,-2145.067394
2840.769272,-9770.718434,-2812.782580,-2451.505594
2840.769610,-9178.553681,-2368.659014,-612.876398
2840.769947,-8438.347739,-1480.411884,1149.143247
2840.770284,-9252.574275,0.000000,153.219100
2840.770622,-10584.944971,666.185348,-1149.143247
2840.770959,-11251.130318,-296.082377,-459.657299
2840.771297,-10881.027347,-592.164754,536.266849
2840.771634,-9770.718434,0.000000,2757.943793
2840.771971,-9770.718434,888.247130,4519.963438
2840.772309,-9918.759623,592.164754,3524.039291
2840.772646,-10658.965565,444.123565,1302.362347
2840.772984,-10881.027347,74.020594,0.000000
2840.773321,-9326.594869,-444.123565,-153.219100
2840.773658,-8586.388927,0.000000,153.219100
2840.773996,-8364.327145,592.164754,153.219100
2840.774333,-9548.656652,1554.432478,-612.876398
2840.774671,-10807.006753,1776.494261,-842.705048
2840.775008,-10658.965565,296.082377,-2681.334243
2840.775345,-9548.656652,-592.164754,-536.266849
2840.775683,-9548.656652,-666.185348,612.876398
2840.776020,-9474.636058,-1480.411884,1608.800546
2840.776358,-10436.903782,-1258.350101,1532.190996
2840.776695,-11325.150913,-2738.761985,-229.828649
2840.777032,-10881.027347,-2664.741391,-1378.971896
2840.777370,-9622.677246,-2368.659014,-536.266849
2840.777707,-8956.491898,-1924.535449,919.314598
2840.778045,-9474.636058,-814.226536,689.485948
2840.778382,-10955.047942,222.061783,0.000000
2840.778719,-11251.130318,370.102971,-1378.971896
2840.779057,-11547.212695,-296.082377,-383.047749
2840.779394,-10584.944971,-740.205942,1225.752797
2840.779731,-9474.636058,-518.144159,3217.601092
2840.780069,-9252.574275,74.020594,3524.039291
2840.780406,-11029.068536,0.000000,1685.410096
2840.780744,-11917.315666,0.000000,-612.876398
2840.781081,-10436.903782,-814.226536,-1762.019645
2840.781418,-9030.512492,-370.102971,-536.266849
2840.781756,-8290.306550,222.061783,842.705048
2840.782093,-8734.430116,592.164754,0.000000
2840.782431,-10288.862594,1628.453072,-1302.362347
2840.782768,-10436.903782,592.164754,-2221.676944
2840.783105,-10066.800811,222.061783,-1378.971896
2840.783443,-10066.800811,-518.144159,842.705048
2840.783780,-9548.656652,0.000000,2987.772442
2840.784118,-9474.636058,296.082377,2374.896044
2840.784455,-10510.924376,0.000000,919.314598
2840.784792,-10807.006753,-814.226536,0.000000
2840.785130,-9548.656652,-1110.308913,153.219100
2840.785467,-8586.388927,-592.164754,1762.019645
2840.785805,-9178.553681,1332.370696,1455.581446
2840.786142,-10362.883188,2146.597232,306.438199
2840.786479,-11621.233289,2146.597232,-842.705048
2840.786817,-11103.089130,814.226536,-1838.629195
2840.787154,-10140.821405,0.000000,0.000000
2840.787492,-9326.594869,222.061783,2145.067394
2840.787829,-9400.615463,74.020594,1991.848295
2840.788166,-10214.842000,0.000000,1072.533697
2840.788504,-11325.150913,-740.205942,-689.485948
2840.788841,-10881.027347,-1332.370696,-2451.505594
2840.789179,-9770.718434,-2146.597232,-1149.143247
2840.789516,-8660.409521,-1332.370696,-153.219100
2840.789854,-8660.409521,-962.267725,-1072.533697
2840.790191,-10214.842000,-1036.288319,-1762.019645
2840.790529,-10362.883188,-962.267725,-2681.334243
2840.790866,-10510.924376,-2220.617826,-1302.362347
2840.791203,-9918.759623,-2590.720797,383.047749
2840.791541,-9474.636058,-1406.391290,2145.067394
2840.791878,-10066.800811,-1258.350101,2604.724693
2840.792216,-11325.150913,-1184.329507,1838.629195
2840.792553,-11769.274478,-2072.576638,689.485948
2840.792891,-10807.006753,-1554.432478,995.924147
2840.793228,-8882.471304,-962.267725,1915.238745
2840.793566,-9400.615463,222.061783,3140.991542
2840.793903,-9474.636058,1184.329507,2298.286494
2840.794241,-10214.842000,2442.679609,229.828649
2840.794578,-11399.171507,1480.411884,-459.657299
2840.794916,-10584.944971,1332.370696,-536.266849
2840.795253,-9474.636058,1110.308913,1455.581446
2840.795591,-9104.533087,1554.432478,2451.505594
2840.795928,-9104.533087,1480.411884,1225.752797
2840.796265,-11103.089130,1406.391290,0.000000
2840.796603,-10881.027347,-666.185348,-1991.848295
2840.796940,-9252.574275,-814.226536,-1378.971896
2840.797278,-8068.244768,-1110.308913,0.000000
2840.797615,-8290.306550,-888.247130,306.438199
2840.797953,-9326.594869,370.102971,0.000000
2840.798290,-10362.883188,74.020594,-1991.848295
2840.798628,-10584.944971,-296.082377,-1838.629195
2840.798965,-9992.780217,-518.144159,-612.876398
2840.799303,-9474.636058,-1258.350101,1608.800546
2840.799640,-9992.780217,-370.102971,2834.553343
2840.799978,-10362.883188,-962.267725,1685.410096
2840.800315,-11325.150913,-518.144159,0.000000
2840.800652,-10658.965565,-2294.638420,-612.876398
2840.800990,-9474.636058,-1850.514855,76.609550
2840.801327,-8586.388927,-962.267725,995.924147
2840.801665,-9548.656652,518.144159,612.876398
2840.802002,-10288.862594,888.247130,-1302.362347
2840.802340,-11843.295072,888.247130,-3064.381992
2840.802677,-10955.047942,-888.247130,-1915.238745
2840.803015,-9696.697840,-148.041188,-766.095498
2840.803352,-9844.739029,-740.205942,2374.896044
2840.803690,-9770.718434,-74.020594,1455.581446
2840.804027,-10584.944971,-1110.308913,-383.047749
2840.804365,-11843.295072,-1924.535449,-1225.752797
2840.804702,-10510.924376,-2146.597232,-1608.800546
2840.805039,-8956.491898,-2368.659014,229.828649
2840.805377,-8586.388927,-1776.494261,1455.581446
2840.805714,-9474.636058,0.000000,766.095498
2840.806052,-9992.780217,592.164754,0.000000
2840.806389,-10732.986159,222.061783,0.000000
2840.806727,-10362.883188,370.102971,1072.533697
2840.807064,-10214.842000,296.082377,3064.381992
2840.807402,-10066.800811,2072.576638,4213.525239
2840.807739,-10214.842000,1332.370696,2604.724693
2840.808077,-11103.089130,1110.308913,1455.581446
2840.808414,-10436.903782,148.041188,76.609550
2840.808752,-9178.553681,-296.082377,995.924147
2840.809089,-8364.327145,1184.329507,1685.410096
2840.809426,-8882.471304,814.226536,919.314598
2840.809764,-9992.780217,2590.720797,-383.047749
2840.810101,-11251.130318,1184.329507,-2145.067394
2840.810439,-10807.006753,962.267725,-2604.724693
2840.810776,-8956.491898,-74.020594,-1302.362347
2840.811114,-9326.594869,-222.061783,383.047749
2840.811451,-9770.718434,-592.164754,1762.019645
2840.811789,-10436.903782,-1110.308913,1149.143247
2840.812126,-11621.233289,-1258.350101,0.000000
2840.812464,-11177.109724,-2886.803174,-766.095498
2840.812801,-9770.718434,-3034.844362,0.000000
2840.813139,-8512.368333,-2146.597232,1225.752797
2840.813476,-9770.718434,-1406.391290,2221.676944
2840.813813,-9844.739029,-962.267725,306.438199
2840.814151,-10510.924376,-148.041188,-842.705048
2840.814488,-11325.150913,-518.144159,306.438199
2840.814826,-10658.965565,-370.102971,1149.143247
2840.815163,-9918.759623,-518.144159,2834.553343
2840.815501,-10362.883188,74.020594,2681.334243
2840.815838,-10510.924376,-370.102971,1302.362347
2840.816176,-11399.171507,-740.205942,0.000000
2840.816513,-10066.800811,-1480.411884,-1225.752797
2840.816851,-8734.430116,-962.267725,0.000000
2840.817188,-8808.450710,0.000000,689.485948
2840.817526,-9400.615463,1406.391290,-612.876398
2840.817863,-10658.965565,1258.350101,-2298.286494
2840.818201,-11029.068536,222.061783,-2834.553343
2840.818538,-9844.739029,0.000000,-1225.752797
2840.818875,-9104.533087,-370.102971,1302.362347
2840.819213,-9548.656652,740.205942,3294.210641
2840.819550,-10214.842000,296.082377,1685.410096
2840.819888,-11399.171507,0.000000,229.828649
2840.820225,-10732.986159,-814.226536,0.000000
2840.820563,-9252.574275,-888.247130,689.485948
2840.820900,-8586.388927,-518.144159,1685.410096
2840.821238,-8882.471304,444.123565,2145.067394
2840.821575,-9770.718434,2368.659014,0.000000
2840.821913,-10658.965565,2072.576638,-1378.971896
2840.822250,-11325.150913,1702.473667,-536.266849
2840.822588,-9548.656652,0.000000,0.000000
2840.822925,-9104.533087,888.247130,1685.410096
2840.823262,-9548.656652,740.205942,2528.115143
2840.823600,-10658.965565,0.000000,536.266849
2840.823937,-10955.047942,-1332.370696,-919.314598
2840.824275,-10584.944971,-2072.576638,-1762.019645
2840.824612,-9252.574275,-1702.473667,-689.485948
2840.824950,-8808.450710,-962.267725,-229.828649
2840.825287,-9622.677246,-666.185348,-766.095498
2840.825625,-10436.903782,-296.082377,-2221.676944
2840.825962,-10881.027347,-1332.370696,-2757.943793
2840.826300,-10732.986159,-1702.473667,-1149.143247
2840.826637,-9474.636058,-2146.597232,1455.581446
2840.826975,-9844.739029,-1480.411884,3064.381992
2840.827312,-10288.862594,-962.267725,2681.334243
2840.827649,-11695.253884,-1258.350101,2145.067394
2840.827987,-11769.274478,-1702.473667,842.705048
2840.828324,-10658.965565,-1998.556043,306.438199
2840.828662,-9104.533087,-666.185348,1532.190996
2840.828999,-8660.409521,0.000000,1532.190996
2840.829337,-9326.594869,740.205942,1302.362347
2840.829674,-9992.780217,1332.370696,-689.485948
2840.830012,-10288.862594,1702.473667,-919.314598
2840.830349,-10436.903782,1110.308913,-536.266849
2840.830687,-9400.615463,962.267725,1302.362347
2840.831024,-9030.512492,1406.391290,2298.286494
2840.831362,-9474.636058,888.247130,1608.800546
2840.831699,-10732.986159,370.102971,153.219100
2840.832036,-10732.986159,-666.185348,-1302.362347
2840.832374,-8734.430116,-1554.432478,-766.095498
2840.832711,-7624.121203,-962.267725,536.266849
2840.833049,-8808.450710,0.000000,689.485948
2840.833386,-9770.718434,1406.391290,-459.657299
2840.833724,-11325.150913,296.082377,-2451.505594
2840.834061,-11251.130318,74.020594,-1838.629195
2840.834399,-9844.739029,-740.205942,153.219100
2840.834736,-9696.697840,-222.061783,2834.553343
2840.835074,-10214.842000,-148.041188,3600.648841
2840.835411,-11325.150913,-296.082377,1608.800546
2840.835749,-11621.233289,-444.123565,-153.219100
2840.836086,-11251.130318,-1702.473667,-842.705048
2840.836423,-9622.677246,-1110.308913,0.000000
2840.836761,-8808.450710,-740.205942,842.705048
2840.837098,-9252.574275,148.041188,0.000000
2840.837436,-9844.739029,1184.329507,-1915.238745
2840.837773,-10807.006753,148.041188,-2604.724693
2840.838111,-10140.821405,-518.144159,-1838.629195
2840.838448,-9474.636058,-814.226536,229.828649
2840.838786,-9474.636058,-222.061783,2068.457845
2840.839123,-10140.821405,-592.164754,383.047749
2840.839461,-10955.047942,-1110.308913,-766.095498
2840.839798,-11029.068536,-2516.700203,-1225.752797
2840.840136,-9696.697840,-3775.050304,0.000000
2840.840473,-8068.244768,-1998.556043,1149.143247
2840.840811,-8586.388927,-1184.329507,1685.410096
2840.841148,-9844.739029,518.144159,842.705048
2840.841485,-10658.965565,592.164754,-536.266849
2840.841823,-11325.150913,888.247130,0.000000
2840.842160,-11177.109724,222.061783,1838.629195
2840.842498,-9622.677246,518.144159,3294.210641
2840.842835,-9844.739029,1184.329507,4673.182538
2840.843173,-10732.986159,2368.659014,3217.601092
2840.843510,-11547.212695,1110.308913,1455.581446
2840.843848,-11177.109724,370.102971,-229.828649
2840.844185,-9104.533087,0.000000,0.000000
2840.844523,-8364.327145,592.164754,1072.533697
2840.844860,-9326.594869,814.226536,0.000000
2840.845198,-9548.656652,2220.617826,-2221.676944
2840.845535,-10362.883188,814.226536,-3140.991542
2840.845872,-10140.821405,740.205942,-2298.286494
2840.846210,-9548.656652,0.000000,-1072.533697
2840.846547,-9474.636058,-370.102971,766.095498
2840.846885,-9770.718434,-740.205942,1455.581446
2840.847222,-10584.944971,-1776.494261,229.828649
2840.847560,-11029.068536,-2294.638420,-689.485948
2840.847897,-10658.965565,-3256.906145,-612.876398
2840.848235,-8956.491898,-3034.844362,153.219100
2840.848572,-8364.327145,-1776.494261,919.314598
2840.848910,-9918.759623,-296.082377,459.657299
2840.849247,-10732.986159,296.082377,-612.876398
2840.849585,-11695.253884,222.061783,-1302.362347
2840.849922,-10732.986159,-222.061783,153.219100
2840.850259,-10140.821405,-444.123565,2068.457845
2840.850597,-9770.718434,814.226536,3907.087040
2840.850934,-10658.965565,148.041188,3294.210641
2840.851272,-11621.233289,0.000000,1225.752797
2840.851609,-11325.150913,-740.205942,-995.924147
2840.851947,-10436.903782,-740.205942,-995.924147
2840.852284,-8808.450710,-962.267725,-76.609550
2840.852622,-8364.327145,-444.123565,0.000000
2840.852959,-9474.636058,1184.329507,-919.314598
2840.853297,-9400.615463,666.185348,-2604.724693
2840.853634,-10362.883188,0.000000,-2451.505594
2840.853972,-10140.821405,-740.205942,-536.266849
2840.854309,-9474.636058,-148.041188,1838.629195
2840.854646,-9992.780217,444.123565,3217.601092
2840.854984,-10658.965565,0.000000,1685.410096
2840.855321,-10658.965565,-1184.329507,383.047749
2840.855659,-10214.842000,-1850.514855,536.266849
2840.855996,-8290.306550,-2072.576638,1225.752797
2840.856334,-8068.244768,0.000000,2068.457845
2840.856671,-9030.512492,518.144159,1149.143247
2840.857009,-10510.924376,2442.679609,-766.095498
2840.857346,-11325.150913,2220.617826,-2145.067394
2840.857684,-11325.150913,1184.329507,-919.314598
2840.858021,-10362.883188,518.144159,1149.143247
2840.858359,-9474.636058,666.185348,2374.896044
2840.858696,-9400.615463,296.082377,2451.505594
2840.859033,-11029.068536,-444.123565,995.924147
2840.859371,-11843.295072,-1036.288319,-383.047749
2840.859708,-11177.109724,-2146.597232,-1378.971896
2840.860046,-9178.553681,-1702.473667,-1225.752797
2840.860383,-9030.512492,-1184.329507,-995.924147
2840.860721,-9770.718434,-666.185348,-2068.457845
2840.861058,-9474.636058,-592.164754,-2757.943793
2840.861396,-9992.780217,-1110.308913,-2681.334243
2840.861733,-10140.821405,-1480.411884,-612.876398
2840.862071,-9696.697840,-2220.617826,1532.190996
2840.862408,-10066.800811,-814.226536,2451.505594
2840.862746,-10584.944971,-1776.494261,2681.334243
2840.863083,-11399.171507,-1628.453072,1378.971896
2840.863420,-10732.986159,-2442.679609,766.095498
2840.863758,-10140.821405,-2146.597232,1608.800546
2840.864095,-8216.285956,-1184.329507,2298.286494
2840.864433,-8364.327145,962.267725,2145.067394
2840.864770,-9474.636058,2368.659014,919.314598
2840.865108,-10732.986159,2368.659014,-1072.533697
2840.865445,-10732.986159,1702.473667,-1378.971896
2840.865783,-10362.883188,1702.473667,383.047749
2840.866120,-9400.615463,1702.473667,2374.896044
2840.866458,-9548.656652,1110.308913,2987.772442
2840.866795,-10807.006753,740.205942,1838.629195
2840.867133,-11399.171507,-148.041188,-536.266849
2840.867470,-10436.903782,-74.020594,-1532.190996
2840.867808,-8660.409521,-1332.370696,-1455.581446
2840.868145,-8290.306550,-740.205942,-306.438199
2840.868482,-9326.594869,0.000000,0.000000
2840.868820,-9918.759623,1184.329507,-1915.238745
2840.869157,-10732.986159,1406.391290,-1991.848295
2840.869495,-10732.986159,222.061783,-1072.533697
2840.869832,-10214.842000,-444.123565,612.876398
2840.870170,-10066.800811,-296.082377,2834.553343
2840.870507,-9548.656652,-296.082377,2834.553343
2840.870845,-11103.089130,-1258.350101,1455.581446
2840.871182,-11325.150913,-1702.473667,76.609550
2840.871520,-9696.697840,-2368.659014,153.219100
2840.871857,-8660.409521,-1998.556043,1225.752797
2840.872195,-8438.347739,-740.205942,1225.752797
2840.872532,-9474.636058,740.205942,0.000000
2840.872869,-11029.068536,962.267725,-1455.581446
2840.873207,-10436.903782,962.267725,-2834.553343
2840.873544,-10881.027347,-296.082377,-766.095498
2840.873882,-9696.697840,-888.247130,1149.143247
2840.874219,-9178.553681,-444.123565,2068.457845
2840.874557,-10955.047942,-1110.308913,1915.238745
2840.874894,-11103.089130,-1554.432478,-1072.533697
2840.875232,-10955.047942,-2960.823768,-1455.581446
2840.875569,-10362.883188,-3108.864956,-306.438199
2840.875907,-8364.327145,-1850.514855,-229.828649
2840.876244,-9474.636058,-518.144159,306.438199
2840.876582,-10140.821405,-74.020594,-689.485948
2840.876919,-10066.800811,296.082377,-689.485948
2840.877256,-10658.965565,444.123565,919.314598
2840.877594,-10436.903782,0.000000,2145.067394
2840.877931,-10362.883188,962.267725,3677.258390
2840.878269,-10732.986159,888.247130,3907.087040
2840.878606,-10732.986159,1332.370696,2528.115143
2840.878944,-10955.047942,0.000000,612.876398
2840.879281,-10140.821405,-1036.288319,0.000000
2840.879619,-8290.306550,-814.226536,306.438199
2840.879956,-7328.038826,148.041188,1455.581446
2840.880294,-8438.347739,2072.576638,-383.047749
2840.880631,-10362.883188,2072.576638,-1608.800546
2840.880969,-10881.027347,1776.494261,-2451.505594
2840.881306,-10288.862594,222.061783,-2145.067394
2840.881643,-9844.739029,0.000000,76.609550
2840.881981,-8734.430116,-666.185348,1991.848295
2840.882318,-9770.718434,-1480.411884,2298.286494
2840.882656,-10807.006753,-2442.679609,919.314598
2840.882993,-11325.150913,-1924.535449,-1532.190996
2840.883331,-10584.944971,-2960.823768,-842.705048
2840.883668,-9548.656652,-2146.597232,-1225.752797
2840.884006,-9030.512492,-2146.597232,76.609550
2840.884343,-9918.759623,-518.144159,-306.438199
2840.884681,-10066.800811,370.102971,-1149.143247
2840.885018,-10955.047942,222.061783,-1302.362347
2840.885356,-11399.171507,-148.041188,229.828649
2840.885693,-10362.883188,-148.041188,1838.629195
2840.886030,-10362.883188,0.000000,2987.772442
2840.886368,-11473.192101,0.000000,2834.553343
2840.886705,-11029.068536,-814.226536,229.828649
2840.887043,-10436.903782,-1850.514855,-1225.752797
2840.887380,-9104.533087,-1332.370696,-766.095498
2840.887718,-7402.059420,-1332.370696,76.609550
2840.888055,-8660.409521,0.000000,612.876398
2840.888393,-9622.677246,1406.391290,-1149.143247
2840.888730,-10140.821405,1036.288319,-2528.115143
2840.889068,-10732.986159,370.102971,-1685.410096
2840.889405,-9992.780217,-888.247130,536.266849
2840.889743,-9252.574275,0.000000,3140.991542
2840.890080,-9622.677246,-370.102971,3677.258390
2840.890417,-10807.006753,0.000000,2374.896044
2840.890755,-11251.130318,-740.205942,459.657299
2840.891092,-10807.006753,-888.247130,306.438199
2840.891430,-8956.491898,-1184.329507,689.485948
2840.891767,-8290.306550,296.082377,1302.362347
2840.892104,-9622.677246,2294.638420,1455.581446
2840.892442,-10510.924376,2664.741391,-76.609550
2840.892779,-10658.965565,2072.576638,-1378.971896
2840.893116,-10732.986159,2072.576638,-689.485948
2840.893454,-10955.047942,1110.308913,1762.019645
2840.893791,-10066.800811,518.144159,2221.676944
2840.894129,-9548.656652,74.020594,1608.800546
2840.894466,-10807.006753,-1184.329507,459.657299
2840.894803,-10436.903782,-2368.659014,-1455.581446
2840.895141,-8956.491898,-3034.844362,-1685.410096
2840.895478,-8512.368333,-2516.700203,-766.095498
2840.895816,-8068.244768,-962.267725,-995.924147
2840.896153,-9696.697840,-74.020594,-1685.410096
2840.896490,-10584.944971,-370.102971,-2834.553343
2840.896828,-10955.047942,-1332.370696,-2451.505594
2840.897165,-10510.924376,-2368.659014,-306.438199
2840.897502,-9548.656652,-2294.638420,2221.676944
2840.897840,-9770.718434,-1850.514855,3217.601092
2840.898177,-11177.109724,-2516.700203,3600.648841
2840.898515,-11695.253884,-1702.473667,1072.533697
2840.898852,-11621.233289,-1628.453072,0.000000
2840.899189,-10214.842000,-1036.288319,306.438199
2840.899527,-8956.491898,-740.205942,229.828649
2840.899864,-9178.553681,814.226536,689.485948
2840.900202,-10140.821405,1258.350101,-153.219100
2840.900539,-10436.903782,2294.638420,-1149.143247
2840.900876,-11103.089130,1702.473667,-1302.362347
2840.901214,-10658.965565,1036.288319,536.266849
2840.901551,-9992.780217,1184.329507,1532.190996
2840.901888,-9918.759623,1036.288319,2374.896044
2840.902226,-10658.965565,740.205942,842.705048
2840.902563,-10584.944971,-1480.411884,-1149.143247
2840.902901,-9474.636058,-1998.556043,-1302.362347
2840.903238,-7624.121203,-1554.432478,-153.219100
2840.903575,-7698.141797,-888.247130,919.314598
2840.903913,-8734.430116,740.205942,229.828649
2840.904250,-10510.924376,1480.411884,-995.924147
2840.904587,-11103.089130,1332.370696,-1685.410096
2840.904925,-10732.986159,-370.102971,-1225.752797
2840.905262,-9844.739029,-962.267725,2068.457845
2840.905600,-9326.594869,-444.123565,4213.525239
2840.905937,-9844.739029,-370.102971,3830.477490
2840.906274,-11695.253884,-370.102971,1685.410096
2840.906612,-10955.047942,-1332.370696,-76.609550
2840.906949,-10288.862594,-1480.411884,-612.876398
2840.907287,-9400.615463,-1036.288319,-383.047749
2840.907624,-9104.533087,370.102971,0.000000
2840.907961,-10288.862594,1110.308913,-612.876398
2840.908299,-10584.944971,1184.329507,-2451.505594
2840.908636,-10140.821405,592.164754,-2374.896044
2840.908973,-10362.883188,-518.144159,-383.047749
2840.909311,-10658.965565,-1036.288319,1532.190996
2840.909648,-9992.780217,-1184.329507,1302.362347
2840.909986,-10732.986159,-1184.329507,306.438199
2840.910323,-10807.006753,-2368.659014,-1302.362347
2840.910660,-10214.842000,-3256.906145,-1685.410096
2840.910998,-8808.450710,-3404.947333,-459.657299
2840.911335,-7624.121203,-2072.576638,229.828649
2840.911673,-8734.430116,148.041188,1302.362347
2840.912010,-10066.800811,592.164754,153.219100
2840.912347,-10955.047942,370.102971,-536.266849
2840.912685,-10881.027347,0.000000,459.657299
2840.913022,-10288.862594,0.000000,3370.820191
2840.913359,-9992.780217,888.247130,4673.182538
2840.913697,-9992.780217,666.185348,3983.696590
2840.914034,-11177.109724,888.247130,3294.210641
2840.914372,-11103.089130,370.102971,459.657299
2840.914709,-9770.718434,148.041188,-842.705048
2840.915046,-9030.512492,296.082377,-689.485948
2840.915384,-8364.327145,888.247130,-306.438199
2840.915721,-9178.553681,2072.576638,-1225.752797
2840.916059,-10140.821405,1924.535449,-2221.676944
2840.916396,-10362.883188,2072.576638,-2681.334243
2840.916733,-11251.130318,518.144159,-1915.238745
2840.917071,-10214.842000,74.020594,229.828649
2840.917408,-9104.533087,-518.144159,1225.752797
2840.917745,-10288.862594,-1332.370696,1455.581446
2840.918083,-10807.006753,-2368.659014,0.000000
2840.918420,-10436.903782,-3478.967927,-1149.143247
2840.918758,-9326.594869,-3330.926739,-842.705048
2840.919095,-8216.285956,-3034.844362,0.000000
2840.919432,-8586.388927,-814.226536,689.485948
2840.919770,-10066.800811,148.041188,-383.047749
2840.920107,-11325.150913,222.061783,-612.876398
2840.920445,-11251.130318,74.020594,-306.438199
2840.920782,-10732.986159,-1110.308913,1532.190996
2840.921119,-9770.718434,-962.267725,3217.601092
2840.921457,-9474.636058,-1184.329507,3600.648841
2840.921794,-10955.047942,74.020594,2834.553343
2840.922131,-11769.274478,-962.267725,383.047749
2840.922469,-10807.006753,-666.185348,-2221.676944
2840.922806,-9474.636058,-1258.350101,-1685.410096
2840.923144,-8660.409521,-296.082377,-1072.533697
2840.923481,-9178.553681,296.082377,-1072.533697
2840.923818,-9474.636058,888.247130,-1991.848295
2840.924156,-9548.656652,592.164754,-2681.334243
2840.924493,-10658.965565,148.041188,-1532.190996
2840.924831,-10807.006753,-296.082377,1225.752797
2840.925168,-10140.821405,592.164754,2681.334243
2840.925505,-10584.944971,-518.144159,3294.210641
2840.925843,-10881.027347,-518.144159,1302.362347
2840.926180,-10510.924376,-1036.288319,-153.219100
2840.926517,-9252.574275,-1924.535449,842.705048
2840.926855,-8068.244768,-1110.308913,1302.362347
2840.927192,-8068.244768,370.102971,1455.581446
2840.927530,-9548.656652,3034.844362,766.095498
2840.927867,-11177.109724,2590.720797,-766.095498
2840.928204,-11251.130318,2294.638420,-1072.533697
2840.928542,-10510.924376,666.185348,383.047749
2840.928879,-9770.718434,1110.308913,2298.286494
2840.929217,-9326.594869,666.185348,2987.772442
2840.929554,-10140.821405,0.000000,2145.067394
2840.929891,-11029.068536,-444.123565,153.219100
2840.930229,-10436.903782,-2072.576638,-1608.800546
2840.930566,-9474.636058,-740.205942,-1838.629195
2840.930903,-9104.533087,-1850.514855,-1455.581446
2840.931241,-9400.615463,-592.164754,-1608.800546
2840.931578,-9548.656652,-296.082377,-2834.553343
2840.931916,-10732.986159,-296.082377,-2451.505594
2840.932253,-10584.944971,-1184.329507,-1838.629195
2840.932590,-10584.944971,-2146.597232,0.000000
2840.932928,-10436.903782,-1776.494261,2374.896044
2840.933265,-9844.739029,-1628.453072,2528.115143
2840.933603,-11473.192101,-1924.535449,2604.724693
2840.933940,-12139.377449,-2664.741391,459.657299
2840.934277,-10140.821405,-2442.679609,229.828649
2840.934615,-9030.512492,-1554.432478,1685.410096
2840.934952,-8142.265362,-370.102971,1838.629195
2840.935289,-8882.471304,1184.329507,1225.752797
2840.935627,-10732.986159,2220.617826,689.485948
2840.935964,-10584.944971,1628.453072,-919.314598
2840.936302,-10955.047942,1702.473667,0.000000
2840.936639,-9992.780217,444.123565,1378.971896
2840.936976,-8956.491898,814.226536,2528.115143
2840.937314,-9400.615463,370.102971,2681.334243
2840.937651,-10436.903782,296.082377,689.485948
2840.937989,-10658.965565,-296.082377,-1685.410096
2840.938326,-9696.697840,-666.185348,-2221.676944
2840.938663,-8290.306550,-814.226536,-1302.362347
2840.939001,-8660.409521,0.000000,0.000000
2840.939338,-9548.656652,1554.432478,-306.438199
2840.939675,-10140.821405,1258.350101,-1532.190996
2840.940013,-10362.883188,1332.370696,-1378.971896
2840.940350,-11177.109724,0.000000,-76.609550
2840.940688,-10510.924376,222.061783,2374.896044
2840.941025,-9992.780217,0.000000,2681.334243
2840.941362,-10807.006753,0.000000,1991.848295
2840.941700,-11029.068536,-814.226536,459.657299
2840.942037,-10362.883188,-1776.494261,-459.657299
2840.942375,-9104.533087,-1776.494261,229.828649
2840.942712,-8068.244768,-1480.411884,1762.019645
2840.943049,-8882.471304,1110.308913,536.266849
2840.943387,-10066.800811,1702.473667,-1072.533697
2840.943724,-11621.233289,1628.453072,-2298.286494
2840.944061,-10658.965565,-444.123565,-2068.457845
2840.944399,-9770.718434,-1406.391290,76.609550
2840.944736,-9178.553681,-1036.288319,2068.457845
2840.945074,-9400.615463,-1258.350101,1762.019645
2840.945411,-10584.944971,-1480.411884,689.485948
2840.945748,-11621.233289,-2368.659014,-1378.971896
2840.946086,-10066.800811,-2664.741391,-1608.800546
2840.946423,-9474.636058,-2368.659014,-229.828649
2840.946761,-9326.594869,-1554.432478,76.609550
2840.947098,-9548.656652,-222.061783,383.047749
2840.947435,-10362.883188,888.247130,-306.438199
2840.947773,-10584.944971,0.000000,-153.219100
2840.948110,-10584.944971,-148.041188,1149.143247
2840.948447,-11103.089130,148.041188,2834.553343
2840.948785,-10066.800811,1110.308913,3217.601092
2840.949122,-10807.006753,1406.391290,2757.943793
2840.949460,-11103.089130,1036.288319,1608.800546
2840.949797,-10584.944971,-148.041188,-766.095498
2840.950134,-9252.574275,-370.102971,-229.828649
2840.950472,-7550.100608,222.061783,76.609550
2840.950809,-8142.265362,1184.329507,76.609550
2840.951147,-9178.553681,2072.576638,-766.095498
2840.951484,-9844.739029,2072.576638,-2298.286494
2840.951821,-11251.130318,1258.350101,-1915.238745
2840.952159,-10288.862594,-74.020594,-766.095498
2840.952496,-9030.512492,-222.061783,766.095498
2840.952833,-8882.471304,-1702.473667,2298.286494
2840.953171,-9770.718434,-666.185348,1072.533697
2840.953508,-11251.130318,-2072.576638,76.609550
2840.953846,-11029.068536,-2590.720797,-1455.581446
2840.954183,-9622.677246,-1628.453072,-842.705048
2840.954520,-9474.636058,-2368.659014,0.000000
2840.954858,-9474.636058,-296.082377,383.047749
2840.955195,-10584.944971,0.000000,-306.438199
2840.955533,-11399.171507,296.082377,-383.047749
2840.955870,-10658.965565,-74.020594,-995.924147
2840.956207,-10881.027347,-444.123565,919.314598
2840.956545,-10807.006753,-74.020594,2757.943793
2840.956882,-10510.924376,-74.020594,2528.115143
2840.957219,-11251.130318,-370.102971,1455.581446
2840.957557,-11473.192101,-962.267725,-995.924147
2840.957894,-9622.677246,-1702.473667,-1532.190996
2840.958232,-8586.388927,-2368.659014,-766.095498
2840.958569,-7550.100608,-814.226536,0.000000
2840.958906,-8808.450710,888.247130,-153.219100
2840.959244,-10436.903782,962.267725,-1225.752797
2840.959581,-10732.986159,222.061783,-2451.505594
2840.959919,-10362.883188,-1036.288319,-995.924147
2840.960256,-9400.615463,-1110.308913,1378.971896
2840.960593,-8956.491898,-814.226536,3830.477490
2840.960931,-9918.759623,-296.082377,3294.210641
2840.961268,-10807.006753,-296.082377,1685.410096
2840.961605,-11473.192101,-740.205942,0.000000
2840.961943,-9844.739029,-888.247130,612.876398
2840.962280,-9104.533087,0.000000,1378.971896
2840.962618,-8956.491898,222.061783,1991.848295
2840.962955,-10140.821405,2516.700203,919.314598
2840.963292,-10510.924376,2664.741391,-153.219100
2840.963630,-11547.212695,2368.659014,-689.485948
2840.963967,-10881.027347,1036.288319,306.438199
2840.964305,-10584.944971,1554.432478,1915.238745
2840.964642,-9844.739029,740.205942,2145.067394
2840.964979,-10362.883188,0.000000,612.876398
2840.965317,-10732.986159,-1036.288319,-536.266849
2840.965654,-10066.800811,-2368.659014,-1838.629195
2840.965991,-7698.141797,-2442.679609,-1225.752797
2840.966329,-8290.306550,-1554.432478,0.000000
2840.966666,-8512.368333,-296.082377,-459.657299
2840.967004,-10066.800811,-592.164754,-1915.238745
2840.967341,-11251.130318,-370.102971,-2298.286494
2840.967678,-10807.006753,-1702.473667,-1915.238745
2840.968016,-9770.718434,-2072.576638,536.266849
2840.968353,-9178.553681,-2146.597232,2145.067394
2840.968691,-9474.636058,-2072.576638,3600.648841
2840.969028,-11177.109724,-1184.329507,2681.334243
2840.969365,-12139.377449,-1924.535449,842.705048
2840.969703,-11177.109724,-1480.411884,-306.438199
2840.970040,-9622.677246,-1480.411884,919.314598
2840.970377,-9252.574275,296.082377,1685.410096
2840.970715,-9326.594869,1406.391290,689.485948
2840.971052,-10807.006753,1998.556043,-612.876398
2840.971390,-10140.821405,1110.308913,-1225.752797
2840.971727,-10436.903782,962.267725,-995.924147
2840.972064,-10510.924376,1036.288319,689.485948
2840.972402,-10658.965565,1110.308913,1378.971896
2840.972739,-10214.842000,592.164754,766.095498
2840.973077,-10214.842000,0.000000,-1149.143247
2840.973414,-10288.862594,-1110.308913,-1455.581446
2840.973751,-8882.471304,-1702.473667,-1532.190996
2840.974089,-7550.100608,-1258.350101,229.828649
2840.974426,-8364.327145,-592.164754,536.266849
2840.974763,-9622.677246,1258.350101,229.828649
2840.975101,-10955.047942,1184.329507,-1302.362347
2840.975438,-11103.089130,666.185348,-1608.800546
2840.975776,-9622.677246,-740.205942,306.438199
2840.976113,-8882.471304,-666.185348,2757.943793
2840.976450,-9548.656652,0.000000,4213.525239
2840.976788,-10807.006753,0.000000,2374.896044
2840.977125,-11843.295072,-518.144159,995.924147
2840.977463,-11103.089130,-148.041188,-459.657299
2840.977800,-9474.636058,-740.205942,536.266849
2840.978137,-9030.512492,-888.247130,1149.143247
2840.978475,-9548.656652,592.164754,153.219100
2840.978812,-10584.944971,1332.370696,-1149.143247
2840.979149,-11251.130318,1628.453072,-2374.896044
2840.979487,-10955.047942,0.000000,-2068.457845
2840.979824,-10288.862594,-592.164754,0.000000
2840.980162,-9992.780217,-1258.350101,1378.971896
2840.980499,-10066.800811,-444.123565,1072.533697
2840.980836,-10807.006753,-1332.370696,-995.924147
2840.981174,-11177.109724,-2590.720797,-1532.190996
2840.981511,-9696.697840,-3478.967927,-1455.581446
2840.981849,-8734.430116,-2368.659014,306.438199
2840.982186,-8512.368333,-1332.370696,1302.362347
2840.982523,-9474.636058,-370.102971,689.485948
2840.982861,-10140.821405,0.000000,153.219100
2840.983198,-10362.883188,74.020594,229.828649
2840.983535,-10732.986159,-518.144159,2221.676944
2840.983873,-9622.677246,148.041188,3524.039291
2840.984210,-9770.718434,740.205942,4366.744339
2840.984548,-10436.903782,1184.329507,3753.867940
2840.984885,-11103.089130,740.205942,1378.971896
2840.985222,-10807.006753,148.041188,0.000000
2840.985560,-9400.615463,148.041188,-229.828649
2840.985897,-8438.347739,666.185348,459.657299
2840.986235,-8956.491898,1258.350101,0.000000
2840.986572,-9548.656652,2146.597232,-1225.752797
2840.986909,-10436.903782,2072.576638,-2528.115143
2840.987247,-11029.068536,518.144159,-2374.896044
2840.987584,-9918.759623,296.082377,-1225.752797
2840.987921,-9992.780217,0.000000,536.266849
2840.988259,-9918.759623,-1184.329507,1302.362347
2840.988596,-10362.883188,-1110.308913,306.438199
2840.988934,-11103.089130,-2368.659014,-995.924147
2840.989271,-10436.903782,-2516.700203,-1378.971896
2840.989608,-8734.430116,-2886.803174,-689.485948
2840.989946,-8586.388927,-2220.617826,919.314598
2840.990283,-9104.533087,-518.144159,153.219100
2840.990621,-10658.965565,592.164754,76.609550
2840.990958,-11621.233289,222.061783,-1072.533697
2840.991295,-11029.068536,-592.164754,-383.047749
2840.991633,-9474.636058,-740.205942,1455.581446
2840.991970,-9400.615463,-148.041188,3907.087040
2840.992307,-9992.780217,0.000000,3217.601092
2840.992644,-10807.006753,-74.020594,842.705048
2840.992982,-11473.192101,-518.144159,-612.876398
2840.993319,-10362.883188,-888.247130,-1302.362347
2840.993656,-8734.430116,-1110.308913,-919.314598
2840.993994,-8808.450710,-444.123565,0.000000
2840.994331,-9548.656652,222.061783,-995.924147
2840.994668,-10288.862594,814.226536,-2145.067394
2840.995006,-10807.006753,296.082377,-2528.115143
2840.995343,-10362.883188,-444.123565,-612.876398
2840.995680,-10066.800811,-296.082377,1149.143247
2840.996017,-10140.821405,-222.061783,2451.505594
2840.996355,-10732.986159,370.102971,1991.848295
2840.996692,-10955.047942,-740.205942,842.705048
2840.997029,-11029.068536,-1628.453072,689.485948
2840.997367,-9104.533087,-1554.432478,995.924147
2840.997704,-8142.265362,-518.144159,2221.676944
2840.998041,-8734.430116,888.247130,2221.676944
2840.998378,-9844.739029,2072.576638,459.657299
2840.998716,-10732.986159,2516.700203,-1225.752797
2840.999053,-10436.903782,1036.288319,-766.095498
2840.999390,-9548.656652,740.205942,995.924147
2840.999728,-9252.574275,592.164754,2374.896044
2841.000065,-9400.615463,666.185348,2834.553343
2841.000402,-10066.800811,370.102971,1149.143247
2841.000740,-11029.068536,-1110.308913,-612.876398
2841.001077,-10584.944971,-1480.411884,-1225.752797
2841.001414,-8882.471304,-2442.679609,-1302.362347
2841.001751,-8438.347739,-962.267725,0.000000
2841.002089,-9548.656652,-962.267725,-612.876398
2841.002426,-10510.924376,148.041188,-2298.286494
2841.002763,-11029.068536,-740.205942,-2451.505594
2841.003101,-11399.171507,-592.164754,-1532.190996
2841.003438,-10584.944971,-1184.329507,689.485948
2841.003775,-10584.944971,-592.164754,1838.629195
2841.004113,-10955.047942,-888.247130,2145.067394
2841.004450,-11769.274478,-1406.391290,919.314598
2841.004787,-11621.233289,-2220.617826,306.438199
2841.005124,-10066.800811,-1776.494261,76.609550
2841.005462,-8438.347739,-1702.473667,1915.238745
2841.005799,-8512.368333,518.144159,1532.190996
2841.006136,-9548.656652,1702.473667,306.438199
2841.006474,-10955.047942,2072.576638,-612.876398
2841.006811,-10732.986159,592.164754,-1302.362347
2841.007148,-9696.697840,-148.041188,0.000000
2841.007485,-8808.450710,888.247130,1991.848295
2841.007823,-9030.512492,962.267725,2911.162892
2841.008160,-9548.656652,888.247130,1378.971896
2841.008497,-10658.965565,-222.061783,-383.047749
2841.008835,-10510.924376,-740.205942,-1378.971896
2841.009172,-8956.491898,-1554.432478,-1225.752797
2841.009509,-8660.409521,-962.267725,229.828649
2841.009847,-8660.409521,-222.061783,229.828649
2841.010184,-9622.677246,370.102971,-229.828649
2841.010521,-10140.821405,1776.494261,-1532.190996
2841.010858,-11103.089130,222.061783,-1302.362347
2841.011196,-11103.089130,0.000000,919.314598
2841.011533,-10140.821405,-296.082377,2068.457845
2841.011870,-10881.027347,592.164754,3677.258390
2841.012208,-11325.150913,-370.102971,1762.019645
2841.012545,-11029.068536,-1332.370696,-306.438199
2841.012882,-10584.944971,-2146.597232,0.000000
2841.013220,-8364.327145,-1406.391290,229.828649
2841.013557,-8364.327145,-740.205942,995.924147
2841.013894,-9770.718434,-148.041188,0.000000
2841.014231,-10214.842000,962.267725,-2298.286494
2841.014569,-11029.068536,296.082377,-2221.676944
2841.014906,-10362.883188,-1036.288319,-995.924147
2841.015243,-8734.430116,-1850.514855,536.266849
2841.015581,-9252.574275,-1850.514855,2604.724693
2841.015918,-9548.656652,-1702.473667,1532.190996
2841.016255,-11251.130318,-2072.576638,-383.047749
2841.016593,-11621.233289,-2590.720797,-1149.143247
2841.016930,-9844.739029,-3256.906145,-1685.410096
2841.017267,-9030.512492,-2220.617826,229.828649
2841.017604,-9030.512492,-1184.329507,1149.143247
2841.017942,-9622.677246,-74.020594,383.047749
2841.018279,-10955.047942,518.144159,-536.266849
2841.018616,-10732.986159,0.000000,76.609550
2841.018954,-10955.047942,444.123565,1455.581446
2841.019291,-11177.109724,1258.350101,2757.943793
2841.019628,-10955.047942,1998.556043,3677.258390
2841.019965,-11029.068536,1702.473667,2145.067394
2841.020303,-11177.109724,148.041188,612.876398
2841.020640,-10288.862594,222.061783,153.219100
2841.020977,-8882.471304,-296.082377,-306.438199
2841.021315,-7846.182985,666.185348,995.924147
2841.021652,-8438.347739,1406.391290,76.609550
2841.021989,-9474.636058,1702.473667,-1378.971896
2841.022327,-10362.883188,1998.556043,-2757.943793
2841.022664,-10658.965565,74.020594,-1532.190996
2841.023001,-9178.553681,-74.020594,0.000000
2841.023338,-8512.368333,-370.102971,1149.143247
2841.023676,-9622.677246,0.000000,2528.115143
2841.024013,-10362.883188,-1776.494261,1149.143247
2841.024350,-10658.965565,-2146.597232,-612.876398
2841.024688,-10584.944971,-2516.700203,0.000000
2841.025025,-9030.512492,-2368.659014,0.000000
2841.025362,-8882.471304,-1776.494261,842.705048
2841.025700,-10362.883188,-666.185348,459.657299
2841.026037,-10584.944971,740.205942,-306.438199
2841.026374,-11325.150913,740.205942,-1685.410096
2841.026711,-11621.233289,0.000000,-689.485948
2841.027049,-10510.924376,0.000000,459.657299
2841.027386,-10288.862594,0.000000,2298.286494
2841.027723,-11029.068536,444.123565,2145.067394
2841.028061,-11621.233289,-296.082377,229.828649
2841.028398,-11621.233289,-1184.329507,-842.705048
2841.028735,-9844.739029,-2368.659014,-1302.362347
2841.029072,-8290.306550,-1480.411884,76.609550
2841.029410,-8734.430116,-296.082377,153.219100
2841.029747,-9474.636058,666.185348,-1532.190996
2841.030084,-10436.903782,0.000000,-2374.896044
2841.030422,-10214.842000,-296.082377,-2374.896044
2841.030759,-9548.656652,-1184.329507,229.828649
2841.031096,-9030.512492,-888.247130,2604.724693
2841.031434,-8882.471304,-222.061783,4136.915689
2841.031771,-10807.006753,0.000000,3217.601092
2841.032108,-11325.150913,-148.041188,1149.143247
2841.032445,-10658.965565,-888.247130,229.828649
2841.032783,-9252.574275,-1776.494261,1302.362347
2841.033120,-7772.162391,74.020594,1762.019645
2841.033457,-8808.450710,1184.329507,1991.848295
2841.033795,-9992.780217,2220.617826,153.219100
2841.034132,-9844.739029,2220.617826,-1378.971896
2841.034469,-11177.109724,1702.473667,0.000000
2841.034807,-10658.965565,2368.659014,536.266849
2841.035144,-10214.842000,1406.391290,1378.971896
2841.035481,-10584.944971,1184.329507,2374.896044
2841.035818,-10436.903782,0.000000,0.000000
2841.036156,-10732.986159,-1776.494261,-1072.533697
2841.036493,-9918.759623,-2664.741391,-1532.190996
2841.036830,-7772.162391,-3108.864956,-1072.533697
2841.037168,-8216.285956,-1850.514855,-536.266849
2841.037505,-9474.636058,-814.226536,-1455.581446
2841.037842,-10288.862594,-592.164754,-2681.334243
2841.038180,-10881.027347,-1554.432478,-3064.381992
2841.038517,-10658.965565,-2220.617826,-995.924147
2841.038854,-9252.574275,-2220.617826,1149.143247
2841.039191,-9696.697840,-1776.494261,2911.162892
2841.039529,-10214.842000,-2072.576638,3217.601092
2841.039866,-11473.192101,-2516.700203,1302.362347
2841.040203,-11769.274478,-2294.638420,306.438199
2841.040541,-10214.842000,-2072.576638,76.609550
2841.040878,-8882.471304,-1480.411884,1149.143247
2841.041215,-9104.533087,-296.082377,1685.410096
2841.041552,-9548.656652,666.185348,459.657299
2841.041890,-10584.944971,2072.576638,-459.657299
2841.042227,-11029.068536,1776.494261,-1225.752797
2841.042564,-10807.006753,740.205942,0.000000
2841.042902,-10510.924376,1628.453072,1455.581446
2841.043239,-10066.800811,1776.494261,2374.896044
2841.043576,-11547.212695,1110.308913,1149.143247
2841.043914,-10955.047942,-444.123565,-995.924147
2841.044251,-9770.718434,-962.267725,-1762.019645
2841.044588,-8364.327145,-1850.514855,-306.438199
2841.044925,-7328.038826,-1110.308913,689.485948
2841.045263,-8734.430116,814.226536,689.485948
2841.045600,-10362.883188,1554.432478,-612.876398
2841.045937,-10362.883188,1110.308913,-1608.800546
2841.046275,-10214.842000,296.082377,0.000000
2841.046612,-9030.512492,222.061783,1991.848295
2841.046949,-9252.574275,0.000000,3907.087040
2841.047287,-10288.862594,740.205942,4213.525239
2841.047624,-10881.027347,148.041188,1762.019645
2841.047961,-11325.150913,-592.164754,536.266849
2841.048298,-9918.759623,-1702.473667,0.000000
2841.048636,-8216.285956,-1924.535449,306.438199
2841.048973,-8216.285956,-296.082377,459.657299
2841.049310,-9770.718434,444.123565,0.000000
2841.049648,-10436.903782,1850.514855,-2451.505594
2841.049985,-10955.047942,592.164754,-2298.286494
2841.050322,-11103.089130,0.000000,-1532.190996
2841.050659,-10436.903782,-148.041188,153.219100
2841.050997,-10807.006753,-518.144159,1149.143247
2841.051334,-11103.089130,-1258.350101,383.047749
2841.051671,-10881.027347,-2664.741391,-1072.533697
2841.052009,-10732.986159,-3552.988522,-1762.019645
2841.052346,-10066.800811,-3182.885551,-766.095498
2841.052683,-8364.327145,-2590.720797,0.000000
2841.053021,-8660.409521,-666.185348,0.000000
2841.053358,-9844.739029,296.082377,-383.047749
2841.053695,-10955.047942,666.185348,-1072.533697
2841.054032,-10807.006753,0.000000,0.000000
2841.054370,-9992.780217,-296.082377,1685.410096
2841.054707,-9474.636058,888.247130,4290.134789
2841.055044,-9770.718434,1332.370696,4673.182538
2841.055382,-11399.171507,518.144159,3600.648841
2841.055719,-10955.047942,0.000000,1225.752797
2841.056056,-9622.677246,-74.020594,-459.657299
2841.056394,-8734.430116,0.000000,76.609550
2841.056731,-7920.203579,666.185348,229.828649
2841.057068,-8586.388927,1184.329507,0.000000
2841.057405,-9326.594869,2590.720797,-2145.067394
2841.057743,-10066.800811,2442.679609,-2528.115143
2841.058080,-11103.089130,1184.329507,-1072.533697
2841.058417,-10214.842000,444.123565,-153.219100
2841.058755,-9770.718434,0.000000,1685.410096
2841.059092,-10732.986159,0.000000,2757.943793
2841.059429,-11103.089130,-1628.453072,766.095498
2841.059767,-11325.150913,-2220.617826,-383.047749
2841.060104,-10288.862594,-2960.823768,153.219100
2841.060441,-8364.327145,-2664.741391,153.219100
2841.060778,-8882.471304,-1184.329507,612.876398
2841.061116,-10066.800811,0.000000,383.047749
2841.061453,-10807.006753,74.020594,-1149.143247
2841.061790,-11325.150913,148.041188,-1072.533697
2841.062128,-10732.986159,-592.164754,919.314598
2841.062465,-9992.780217,-518.144159,2298.286494
2841.062802,-9548.656652,-1406.391290,3983.696590
2841.063139,-10214.842000,-666.185348,3064.381992
2841.063477,-11695.253884,-1406.391290,1225.752797
2841.063814,-11251.130318,-1628.453072,-1378.971896
2841.064151,-9030.512492,-2294.638420,-995.924147
2841.064489,-8216.285956,-1480.411884,-459.657299
2841.064826,-8438.347739,-370.102971,-766.095498
2841.065163,-9548.656652,740.205942,-1685.410096
2841.065501,-9918.759623,592.164754,-2451.505594
2841.065838,-10214.842000,0.000000,-1608.800546
2841.066175,-10658.965565,-592.164754,0.000000
2841.066512,-10140.821405,0.000000,1991.848295
2841.066850,-10436.903782,592.164754,2911.162892
2841.067187,-11325.150913,-888.247130,1532.190996
2841.067524,-10955.047942,-888.247130,459.657299
2841.067862,-9918.759623,-1480.411884,766.095498
2841.068199,-8956.491898,-888.247130,1225.752797
2841.068536,-7920.203579,814.226536,1225.752797
2841.068874,-9104.533087,2664.741391,766.095498
2841.069211,-10066.800811,3256.906145,-995.924147
2841.069548,-10807.006753,3034.844362,-1838.629195
2841.069885,-10436.903782,1628.453072,-612.876398
2841.070223,-9474.636058,1406.391290,919.314598
2841.070560,-9030.512492,1554.432478,2681.334243
2841.070897,-9622.677246,1110.308913,2681.334243
2841.071235,-10584.944971,-444.123565,612.876398
2841.071572,-10807.006753,-1406.391290,-1072.533697
2841.071909,-9474.636058,-1924.535449,-1302.362347
2841.072246,-8364.327145,-2072.576638,-766.095498
2841.072584,-7994.224174,-1406.391290,-612.876398
2841.072921,-9474.636058,-888.247130,-536.266849
2841.073258,-10214.842000,0.000000,-2145.067394
2841.073596,-10955.047942,-222.061783,-1991.848295
2841.073933,-11547.212695,-962.267725,-919.314598
2841.074270,-11103.089130,-1258.350101,1225.752797
2841.074608,-10436.903782,-1480.411884,2451.505594
2841.074945,-11251.130318,-1850.514855,2604.724693
2841.075282,-11695.253884,-2220.617826,1072.533697
2841.075619,-11251.130318,-2442.679609,0.000000
2841.075957,-9992.780217,-2368.659014,612.876398
2841.076294,-8660.409521,-666.185348,1149.143247
2841.076631,-9474.636058,592.164754,1149.143247
2841.076969,-10955.047942,1850.514855,0.000000
2841.077306,-10658.965565,1554.432478,-1608.800546
2841.077643,-10362.883188,1184.329507,-995.924147
2841.077981,-9770.718434,148.041188,689.485948
2841.078318,-9252.574275,0.000000,2834.553343
2841.078655,-9548.656652,222.061783,3064.381992
2841.078992,-10658.965565,-444.123565,1685.410096
2841.079330,-10658.965565,-222.061783,-383.047749
2841.079667,-9844.739029,-1628.453072,-1685.410096
2841.080004,-8290.306550,-2146.597232,0.000000
2841.080342,-7402.059420,-1258.350101,0.000000
2841.080679,-8586.388927,296.082377,153.219100
2841.081016,-9918.759623,1628.453072,-1149.143247
2841.081354,-10510.924376,1184.329507,-1991.848295
2841.081691,-10881.027347,888.247130,-459.657299
2841.082028,-10436.903782,222.061783,2068.457845
2841.082365,-9992.780217,888.247130,3294.210641
2841.082703,-10955.047942,222.061783,3064.381992
2841.083040,-12139.377449,296.082377,1149.143247
2841.083377,-10955.047942,-962.267725,-536.266849
2841.083715,-10288.862594,-1332.370696,-229.828649
2841.084052,-8660.409521,-1332.370696,459.657299
2841.084389,-8808.450710,444.123565,-306.438199
2841.084726,-9992.780217,1110.308913,-842.705048
2841.085064,-11103.089130,1036.288319,-2987.772442
2841.085401,-10732.986159,-296.082377,-2221.676944
2841.085738,-10510.924376,-1184.329507,-612.876398
2841.086076,-9400.615463,-1406.391290,1302.362347
2841.086413,-9548.656652,-1110.308913,2145.067394
2841.086750,-10732.986159,-1702.473667,1149.143247
2841.087088,-11177.109724,-3330.926739,-612.876398
2841.087425,-10214.842000,-3404.947333,-1532.190996
2841.087762,-8956.491898,-3849.070898,-842.705048
2841.088099,-8438.347739,-2294.638420,0.000000
2841.088437,-8808.450710,-1480.411884,0.000000
2841.088774,-9474.636058,0.000000,0.000000
2841.089111,-10436.903782,592.164754,-459.657299
2841.089449,-11177.109724,592.164754,766.095498
2841.089786,-10955.047942,370.102971,2221.676944
2841.090123,-10584.944971,814.226536,4060.306139
2841.090461,-10807.006753,1776.494261,3907.087040
2841.090798,-11621.233289,1036.288319,2987.772442
2841.091135,-11769.274478,148.041188,1149.143247
2841.091473,-9030.512492,-518.144159,-919.314598
2841.091810,-8512.368333,148.041188,383.047749
2841.092147,-8142.265362,1258.350101,76.609550
2841.092484,-9178.553681,2220.617826,-1455.581446
2841.092822,-10288.862594,2442.679609,-2604.724693
2841.093159,-10140.821405,2072.576638,-3217.601092
2841.093496,-10288.862594,1184.329507,-1302.362347
2841.093834,-9474.636058,370.102971,766.095498
2841.094171,-8586.388927,0.000000,1685.410096
2841.094508,-10140.821405,-1480.411884,2528.115143
2841.094846,-11251.130318,-1332.370696,995.924147
2841.095183,-10436.903782,-1702.473667,-1149.143247
2841.095520,-9400.615463,-2368.659014,-306.438199
2841.095858,-8586.388927,-2368.659014,76.609550
2841.096195,-8142.265362,-1110.308913,459.657299
2841.096532,-10066.800811,444.123565,383.047749
2841.096869,-10584.944971,1332.370696,-1149.143247
2841.097207,-11325.150913,370.102971,-1225.752797
2841.097544,-11251.130318,518.144159,229.828649
2841.097881,-10807.006753,0.000000,1991.848295
2841.098219,-10955.047942,-296.082377,3064.381992
2841.098556,-10807.006753,-592.164754,1685.410096
2841.098893,-11251.130318,-1036.288319,0.000000
2841.099231,-10807.006753,-1924.535449,-995.924147
2841.099568,-9326.594869,-1702.473667,-383.047749
2841.099905,-8364.327145,-1110.308913,-766.095498
2841.100243,-9400.615463,148.041188,-612.876398
2841.100580,-10214.842000,1776.494261,-2145.067394
2841.100917,-10510.924376,0.000000,-3447.429741
2841.101254,-10510.924376,-888.247130,-1302.362347
2841.101592,-9474.636058,-1406.391290,1225.752797
2841.101929,-9474.636058,-592.164754,3753.867940
2841.102266,-9918.759623,-592.164754,3907.087040
2841.102604,-11325.150913,-1036.288319,2834.553343
2841.102941,-11473.192101,-1554.432478,842.705048
2841.103278,-9474.636058,-1406.391290,689.485948
2841.103616,-7994.224174,-1110.308913,1455.581446
2841.103953,-8438.347739,-148.041188,2451.505594
2841.104290,-9104.533087,2072.576638,995.924147
2841.104628,-9918.759623,2886.803174,153.219100
2841.104965,-10658.965565,2738.761985,-1302.362347
2841.105302,-10732.986159,2442.679609,-153.219100
2841.105639,-10955.047942,1184.329507,1762.019645
2841.105977,-9696.697840,1776.494261,2604.724693
2841.106314,-10510.924376,296.082377,2068.457845
2841.106651,-11103.089130,-666.185348,0.000000
2841.106989,-10658.965565,-1776.494261,-1608.800546
2841.107326,-9622.677246,-2368.659014,-1532.190996
2841.107663,-8142.265362,-2146.597232,-1072.533697
2841.108001,-8586.388927,-740.205942,-995.924147
2841.108338,-10362.883188,0.000000,-1608.800546
2841.108675,-10807.006753,-370.102971,-3524.039291
2841.109013,-10658.965565,-518.144159,-2604.724693
2841.109350,-10732.986159,-1258.350101,-536.266849
2841.109687,-10140.821405,-1406.391290,1838.629195
2841.110024,-9548.656652,-2220.617826,3370.820191
2841.110362,-10807.006753,-2516.700203,2451.505594
2841.110699,-11177.109724,-2368.659014,1302.362347
2841.111036,-10732.986159,-2516.700203,0.000000
2841.111374,-9178.553681,-1998.556043,536.266849
2841.111711,-8512.368333,-1406.391290,1838.629195
2841.112048,-8956.491898,666.185348,1149.143247
2841.112386,-9992.780217,2220.617826,-306.438199
2841.112723,-10881.027347,1480.411884,-1225.752797
2841.113060,-10658.965565,1332.370696,-1072.533697
2841.113398,-9844.739029,296.082377,536.266849
2841.113735,-10066.800811,1036.288319,1915.238745
2841.114072,-10066.800811,740.205942,1762.019645
2841.114410,-11029.068536,-666.185348,536.266849
2841.114747,-10362.883188,-666.185348,-1225.752797
2841.115084,-9178.553681,-2072.576638,-1685.410096
2841.115421,-8216.285956,-1702.473667,459.657299
2841.115759,-8290.306550,-296.082377,306.438199
2841.116096,-9548.656652,1110.308913,0.000000
2841.116433,-11251.130318,2294.638420,-1608.800546
2841.116771,-11103.089130,814.226536,-1915.238745
2841.117108,-10881.027347,0.000000,153.219100
2841.117445,-9622.677246,0.000000,3524.039291
2841.117783,-8882.471304,518.144159,4136.915689
2841.118120,-10658.965565,148.041188,3447.429741
2841.118457,-11769.274478,0.000000,995.924147
2841.118795,-10658.965565,-1184.329507,-612.876398
2841.119132,-9548.656652,-1702.473667,153.219100
2841.119469,-8290.306550,-888.247130,919.314598
2841.119806,-8586.388927,74.020594,383.047749
2841.120144,-9326.594869,1332.370696,-919.314598
2841.120481,-9992.780217,1480.411884,-2528.115143
2841.120818,-10658.965565,222.061783,-2221.676944
2841.121156,-11103.089130,-518.144159,-766.095498
2841.121493,-10288.862594,-1036.288319,612.876398
2841.121830,-10288.862594,-1036.288319,1838.629195
2841.122168,-10362.883188,-1998.556043,0.000000
2841.122505,-10881.027347,-2960.823768,-1302.362347
2841.122842,-10140.821405,-3330.926739,-1455.581446
2841.123180,-8660.409521,-2812.782580,-229.828649
2841.123517,-9252.574275,-1480.411884,459.657299
2841.123854,-9696.697840,0.000000,153.219100
2841.124191,-10658.965565,666.185348,-1225.752797
2841.124529,-11399.171507,296.082377,-459.657299
2841.124866,-10510.924376,-222.061783,612.876398
2841.125203,-10066.800811,0.000000,2911.162892
2841.125541,-9992.780217,296.082377,4136.915689
2841.125878,-9770.718434,296.082377,3524.039291
2841.126215,-11399.171507,296.082377,2221.676944
2841.126553,-11029.068536,74.020594,-383.047749
2841.126890,-9104.533087,-518.144159,-536.266849
2841.127227,-8142.265362,-444.123565,76.609550
2841.127565,-7994.224174,444.123565,0.000000
2841.127902,-8734.430116,2294.638420,-919.314598
2841.128239,-9844.739029,2294.638420,-2451.505594
2841.128576,-10436.903782,1258.350101,-2528.115143
2841.128914,-10584.944971,518.144159,-1378.971896
2841.129251,-9844.739029,-518.144159,1225.752797
2841.129588,-9474.636058,148.041188,2451.505594
2841.129926,-10362.883188,-1184.329507,2221.676944
2841.130263,-11547.212695,-1702.473667,306.438199
2841.130600,-10510.924376,-2294.638420,-842.705048
2841.130938,-9474.636058,-2146.597232,0.000000
2841.131275,-8512.368333,-1924.535449,1149.143247
2841.131612,-9030.512492,-518.144159,76.609550
2841.131950,-10510.924376,1258.350101,-229.828649
2841.132287,-11547.212695,1184.329507,-383.047749
2841.132624,-11621.233289,0.000000,-689.485948
2841.132961,-10732.986159,-148.041188,459.657299
2841.133299,-10066.800811,-74.020594,3294.210641
2841.133636,-9918.759623,-296.082377,3294.210641
2841.133973,-10807.006753,-666.185348,1378.971896
2841.134311,-11399.171507,-1036.288319,153.219100
2841.134648,-10288.862594,-1628.453072,-919.314598
2841.134985,-8586.388927,-1628.453072,-1149.143247
2841.135323,-8438.347739,-1184.329507,0.000000
2841.135660,-9252.574275,0.000000,-1072.533697
2841.135997,-9104.533087,0.000000,-2068.457845
2841.136335,-10214.842000,148.041188,-2604.724693
2841.136672,-9770.718434,-740.205942,-1685.410096
2841.137009,-10214.842000,-962.267725,1225.752797
2841.137346,-10140.821405,-592.164754,2298.286494
2841.137684,-10214.842000,-296.082377,1991.848295
2841.138021,-11473.192101,-592.164754,1838.629195
2841.138358,-11029.068536,-1258.350101,229.828649
2841.138696,-9252.574275,-1258.350101,689.485948
2841.139033,-8438.347739,-148.041188,2068.457845
2841.139370,-8956.491898,1184.329507,2145.067394
2841.139708,-10658.965565,2960.823768,459.657299
2841.140045,-11177.109724,2590.720797,-766.095498
2841.140382,-11103.089130,2146.597232,-1838.629195
2841.140720,-9992.780217,888.247130,0.000000
2841.141057,-9326.594869,1184.329507,2221.676944
2841.141394,-9178.553681,592.164754,2604.724693
2841.141732,-10214.842000,296.082377,1608.800546
2841.142069,-11029.068536,-74.020594,-306.438199
2841.142406,-11251.130318,-888.247130,-2298.286494
2841.142743,-9178.553681,-2368.659014,-1838.629195
2841.143081,-8068.244768,-1702.473667,-536.266849
2841.143418,-8364.327145,-1702.473667,0.000000
2841.143755,-9474.636058,-296.082377,-1378.971896
2841.144093,-11029.068536,-666.185348,-1991.848295
2841.144430,-11325.150913,-518.144159,-1991.848295
2841.144767,-10362.883188,-1850.514855,-459.657299
2841.145105,-10436.903782,-1036.288319,2145.067394
2841.145442,-10436.903782,-1258.350101,2374.896044
2841.145779,-11103.089130,-1554.432478,1532.190996
2841.146117,-11251.130318,-2220.617826,0.000000
2841.146454,-10288.862594,-1850.514855,0.000000
2841.146791,-9030.512492,-1258.350101,842.705048
2841.147128,-8956.491898,-518.144159,1455.581446
2841.147466,-9400.615463,1702.473667,1149.143247
2841.147803,-10807.006753,1998.556043,-1225.752797
2841.148140,-11325.150913,1554.432478,-1532.190996
2841.148478,-9992.780217,0.000000,-766.095498
2841.148815,-9400.615463,74.020594,1762.019645
2841.149152,-9178.553681,592.164754,2604.724693
2841.149490,-10066.800811,666.185348,1838.629195
2841.149827,-11325.150913,296.082377,0.000000
2841.150164,-10732.986159,-1036.288319,-1991.848295
2841.150502,-9178.553681,-1850.514855,-1455.581446
2841.150839,-7846.182985,-1924.535449,76.609550
2841.151176,-7920.203579,-666.185348,1225.752797
2841.151513,-9548.656652,222.061783,-459.657299
2841.151851,-10362.883188,1258.350101,-1072.533697
2841.152188,-10362.883188,370.102971,-1149.143247
2841.152525,-10288.862594,74.020594,766.095498
2841.152863,-9918.759623,296.082377,3294.210641
2841.153200,-9770.718434,148.041188,4060.306139
2841.153537,-10584.944971,370.102971,2757.943793
2841.153875,-11695.253884,148.041188,919.314598
2841.154212,-11103.089130,-1332.370696,-536.266849
2841.154549,-8956.491898,-1924.535449,229.828649
2841.154887,-8290.306550,-592.164754,995.924147
2841.155224,-9252.574275,666.185348,76.609550
2841.155561,-10436.903782,1406.391290,-1838.629195
2841.155898,-10955.047942,370.102971,-3064.381992
2841.156236,-10807.006753,0.000000,-2451.505594
2841.156573,-9844.739029,-1184.329507,-306.438199
2841.156910,-9770.718434,-444.123565,1915.238745
2841.157248,-9622.677246,-1110.308913,842.705048
2841.157585,-11177.109724,-1480.411884,536.266849
2841.157922,-11399.171507,-2664.741391,-1225.752797
2841.158260,-10510.924376,-2442.679609,-1915.238745
2841.158597,-9252.574275,-2516.700203,-383.047749
2841.158934,-8660.409521,-1998.556043,919.314598
2841.159272,-8956.491898,-444.123565,0.000000
2841.159609,-10066.800811,370.102971,-459.657299
2841.159946,-10955.047942,666.185348,76.609550
2841.160283,-10658.965565,-148.041188,383.047749
2841.160621,-10140.821405,1110.308913,2604.724693
2841.160958,-9992.780217,1554.432478,3753.867940
2841.161295,-10658.965565,962.267725,2451.505594
2841.161633,-11547.212695,888.247130,1378.971896
2841.161970,-10955.047942,-222.061783,459.657299
2841.162307,-9178.553681,148.041188,76.609550
2841.162645,-7920.203579,148.041188,689.485948
2841.162982,-8882.471304,2072.576638,689.485948
2841.163319,-9918.759623,1998.556043,-1149.143247
2841.163657,-10955.047942,2072.576638,-2528.115143
2841.163994,-10807.006753,1036.288319,-2757.943793
2841.164331,-9622.677246,0.000000,-1378.971896
2841.164668,-8438.347739,-222.061783,1838.629195
2841.165006,-9400.615463,0.000000,2068.457845
2841.165343,-10510.924376,-444.123565,2374.896044
2841.165680,-12213.398043,-1110.308913,229.828649
2841.166018,-10807.006753,-2664.741391,-1072.533697
2841.166355,-9474.636058,-2516.700203,76.609550
2841.166692,-8586.388927,-2146.597232,1149.143247
2841.167030,-9030.512492,-518.144159,1455.581446
2841.167367,-10066.800811,222.061783,0.000000
2841.167704,-10732.986159,0.000000,-919.314598
2841.168042,-10732.986159,222.061783,-1378.971896
2841.168379,-10510.924376,-296.082377,612.876398
2841.168716,-10584.944971,-296.082377,2298.286494
2841.169054,-10362.883188,-222.061783,2221.676944
2841.169391,-11251.130318,-592.164754,842.705048
2841.169728,-11103.089130,-1554.432478,-995.924147
2841.170065,-9844.739029,-3108.864956,-995.924147
2841.170403,-8586.388927,-2368.659014,-612.876398
2841.170740,-8586.388927,-1036.288319,153.219100
2841.171077,-10214.842000,296.082377,-1225.752797
2841.171415,-10584.944971,0.000000,-3447.429741
2841.171752,-10732.986159,-592.164754,-3064.381992
2841.172089,-9696.697840,-1924.535449,-995.924147
2841.172427,-8956.491898,-740.205942,1608.800546
2841.172764,-9696.697840,-740.205942,3677.258390
2841.173101,-10510.924376,74.020594,2604.724693
2841.173439,-11473.192101,-888.247130,1762.019645
2841.173776,-11843.295072,-1258.350101,842.705048
2841.174113,-9178.553681,-814.226536,1072.533697
2841.174450,-8882.471304,-962.267725,2528.115143
2841.174788,-9030.512492,740.205942,2451.505594
2841.175125,-9252.574275,2442.679609,689.485948
2841.175462,-10732.986159,2590.720797,-76.609550
2841.175800,-10658.965565,2072.576638,-1149.143247
2841.176137,-10214.842000,1924.535449,0.000000
2841.176474,-9770.718434,1924.535449,1532.190996
2841.176812,-9622.677246,1258.350101,1838.629195
2841.177149,-10510.924376,222.061783,1072.533697
2841.177486,-11251.130318,-518.144159,-459.657299
2841.177824,-10066.800811,-1776.494261,-1455.581446
2841.178161,-8734.430116,-1702.473667,-766.095498
2841.178498,-7994.224174,-1554.432478,-153.219100
2841.178835,-9252.574275,-740.205942,-842.705048
2841.179173,-10362.883188,0.000000,-2451.505594
2841.179510,-11029.068536,-296.082377,-2681.334243
2841.179847,-10955.047942,-740.205942,-1915.238745
2841.180185,-9992.780217,-1776.494261,1149.143247
2841.180522,-9622.677246,-1332.370696,2604.724693
2841.180859,-10288.862594,-1036.288319,2451.505594
2841.181197,-11399.171507,-814.226536,2298.286494
2841.181534,-11769.274478,-1850.514855,-383.047749
2841.181871,-10732.986159,-1850.514855,0.000000
2841.182209,-9104.533087,-1332.370696,612.876398
2841.182546,-8956.491898,-592.164754,1915.238745
2841.182883,-9918.759623,370.102971,536.266849
2841.183220,-9622.677246,1332.370696,-842.705048
2841.183558,-10510.924376,1036.288319,-1072.533697
2841.183895,-10214.842000,222.061783,-383.047749
2841.184232,-9252.574275,518.144159,689.485948
2841.184570,-10066.800811,888.247130,2298.286494
2841.184907,-10955.047942,666.185348,1149.143247
2841.185244,-11029.068536,370.102971,-383.047749
2841.185582,-10732.986159,-1702.473667,-1532.190996
2841.185919,-8068.244768,-2072.576638,-383.047749
2841.186256,-7624.121203,-1554.432478,1378.971896
2841.186594,-8956.491898,592.164754,1378.971896
2841.186931,-9992.780217,1628.453072,306.438199
2841.187268,-11399.171507,1554.432478,-1838.629195
2841.187605,-10732.986159,222.061783,-766.095498
2841.187943,-9400.615463,0.000000,1838.629195
2841.188280,-9252.574275,1036.288319,4290.134789
2841.188617,-9844.739029,740.205942,3907.087040
2841.188955,-11177.109724,1036.288319,2374.896044
2841.189292,-12065.356855,296.082377,459.657299
2841.189629,-11103.089130,-666.185348,-383.047749
2841.189967,-9178.553681,-1258.350101,0.000000
2841.190304,-8068.244768,-1110.308913,153.219100
2841.190641,-8438.347739,444.123565,76.609550
2841.190979,-9178.553681,518.144159,-1838.629195
2841.191316,-10362.883188,518.144159,-2681.334243
2841.191653,-10436.903782,-1184.329507,-2604.724693
2841.191991,-10214.842000,-592.164754,-919.314598
2841.192328,-10288.862594,-296.082377,689.485948
2841.192666,-10288.862594,-1924.535449,995.924147
2841.193003,-11029.068536,-2220.617826,-229.828649
2841.193340,-10732.986159,-3923.091493,-612.876398
2841.193678,-9918.759623,-3478.967927,-536.266849
2841.194015,-8956.491898,-2886.803174,0.000000
2841.194352,-9252.574275,-1924.535449,1072.533697
2841.194690,-10288.862594,-296.082377,0.000000
2841.195027,-10807.006753,-370.102971,-1685.410096
2841.195365,-11103.089130,-296.082377,-612.876398
2841.195702,-10362.883188,-518.144159,842.705048
2841.196039,-9178.553681,0.000000,2528.115143
2841.196377,-9992.780217,1184.329507,4060.306139
2841.196714,-11103.089130,1480.411884,3217.601092
2841.197051,-12065.356855,1036.288319,1685.410096
2841.197389,-11621.233289,0.000000,-306.438199
2841.197726,-8956.491898,0.000000,-536.266849
2841.198064,-7846.182985,74.020594,153.219100
2841.198401,-8438.347739,962.267725,459.657299
2841.198738,-8882.471304,1332.370696,-1532.190996
2841.199076,-9770.718434,1924.535449,-2298.286494
2841.199413,-9992.780217,666.185348,-2221.676944
2841.199750,-9548.656652,74.020594,-842.705048
2841.200088,-9474.636058,592.164754,1838.629195
2841.200425,-9918.759623,0.000000,2068.457845
2841.200762,-10881.027347,-222.061783,1532.190996
2841.201100,-11547.212695,-962.267725,76.609550
2841.201437,-10214.842000,-2442.679609,0.000000
2841.201775,-8956.491898,-2368.659014,919.314598
2841.202112,-8438.347739,-1258.350101,1608.800546
2841.202449,-9474.636058,296.082377,842.705048
2841.202787,-10732.986159,444.123565,-1072.533697
2841.203124,-10955.047942,370.102971,-1608.800546
2841.203461,-10807.006753,0.000000,-842.705048
2841.203799,-9622.677246,0.000000,1762.019645
2841.204136,-10066.800811,740.205942,2911.162892
2841.204474,-10881.027347,0.000000,2451.505594
2841.204811,-11695.253884,-148.041188,153.219100
2841.205148,-11547.212695,-1110.308913,-766.095498
2841.205486,-10362.883188,-2146.597232,-995.924147
2841.205823,-8808.450710,-1776.494261,-842.705048
2841.206160,-8734.430116,-1258.350101,0.000000
2841.206498,-8956.491898,0.000000,-1838.629195
2841.206835,-9770.718434,-296.082377,-2681.334243
2841.207172,-10214.842000,-740.205942,-2374.896044
2841.207510,-9918.759623,-962.267725,-229.828649
2841.207847,-9844.739029,-222.061783,2068.457845
2841.208185,-10066.800811,222.061783,2451.505594
2841.208522,-10955.047942,0.000000,2374.896044
2841.208859,-11843.295072,-592.164754,1685.410096
2841.209197,-10807.006753,-2294.638420,1762.019645
2841.209534,-8512.368333,-888.247130,1915.238745
2841.209871,-7994.224174,0.000000,2451.505594
2841.210209,-9252.574275,1332.370696,2068.457845
2841.210546,-9326.594869,2516.700203,-612.876398
2841.210884,-10807.006753,2664.741391,-2145.067394
2841.211221,-10732.986159,2220.617826,-1225.752797
2841.211558,-9400.615463,1332.370696,0.000000
2841.211896,-9326.594869,1998.556043,2451.505594
2841.212233,-9622.677246,1776.494261,2757.943793
2841.212570,-11029.068536,740.205942,1378.971896
2841.212908,-11991.336260,-740.205942,-612.876398
2841.213245,-10881.027347,-1480.411884,-1685.410096
2841.213582,-9030.512492,-2368.659014,-1302.362347
2841.213920,-8216.285956,-2072.576638,-536.266849
2841.214257,-8808.450710,-1036.288319,-76.609550
2841.214595,-9770.718434,-888.247130,-1915.238745
2841.214932,-10288.862594,-666.185348,-2987.772442
2841.215269,-10362.883188,-1184.329507,-1838.629195
2841.215607,-10362.883188,-962.267725,383.047749
2841.215944,-10436.903782,-1628.453072,2221.676944
2841.216281,-10955.047942,-1258.350101,2757.943793
2841.216619,-10955.047942,-1702.473667,2068.457845
2841.216956,-11399.171507,-2294.638420,995.924147
2841.217294,-10288.862594,-2738.761985,766.095498
2841.217631,-8438.347739,-2146.597232,1455.581446
2841.217968,-9178.553681,-296.082377,1915.238745
2841.218306,-10214.842000,1332.370696,-383.047749
2841.218643,-10807.006753,740.205942,-2221.676944
2841.218980,-10881.027347,666.185348,-2451.505594
2841.219318,-9474.636058,0.000000,-995.924147
2841.219655,-9548.656652,962.267725,1455.581446
2841.219993,-9844.739029,592.164754,2451.505594
2841.220330,-10955.047942,148.041188,1149.143247
2841.220667,-11399.171507,0.000000,-306.438199
2841.221005,-10881.027347,-1258.350101,-766.095498
2841.221342,-9252.574275,-2294.638420,0.000000
2841.221679,-7994.224174,-1406.391290,919.314598
2841.222017,-8586.388927,0.000000,1149.143247
2841.222354,-9548.656652,1332.370696,-612.876398
2841.222691,-9918.759623,1110.308913,-1915.238745
2841.223029,-10362.883188,962.267725,-612.876398
2841.223366,-9622.677246,370.102971,1225.752797
2841.223704,-9548.656652,1850.514855,3294.210641
2841.224041,-10658.965565,1332.370696,3524.039291
2841.224378,-10732.986159,888.247130,2298.286494
2841.224716,-11547.212695,-592.164754,919.314598
2841.225053,-10436.903782,-1110.308913,383.047749
2841.225390,-8216.285956,-592.164754,995.924147
2841.225728,-8290.306550,0.000000,919.314598
2841.226065,-9030.512492,592.164754,-536.266849
2841.226403,-9548.656652,666.185348,-2681.334243
2841.226740,-10066.800811,222.061783,-3217.601092
2841.227077,-10584.944971,-888.247130,-2451.505594
2841.227415,-9770.718434,-296.082377,229.828649
2841.227752,-9770.718434,-666.185348,1149.143247
2841.228089,-10362.883188,-1036.288319,1149.143247
2841.228427,-11843.295072,-1776.494261,229.828649
2841.228764,-11769.274478,-3330.926739,-766.095498
2841.229101,-10214.842000,-3552.988522,-612.876398
2841.229439,-9104.533087,-2886.803174,306.438199
2841.229776,-9400.615463,-1702.473667,459.657299
2841.230114,-9548.656652,-444.123565,-612.876398
2841.230451,-10288.862594,-370.102971,-1225.752797
2841.230788,-10288.862594,444.123565,-229.828649
2841.231126,-10362.883188,370.102971,1149.143247
2841.231463,-10066.800811,1480.411884,2528.115143
2841.231800,-10436.903782,1332.370696,4060.306139
2841.232138,-10510.924376,1184.329507,2604.724693
2841.232475,-11547.212695,592.164754,1149.143247
2841.232813,-10436.903782,-296.082377,1072.533697
2841.233150,-8586.388927,-370.102971,842.705048
2841.233487,-7105.977043,74.020594,995.924147
2841.233825,-8438.347739,1628.453072,383.047749
2841.234162,-10066.800811,2516.700203,-1762.019645
2841.234499,-10510.924376,2072.576638,-3140.991542
2841.234837,-10288.862594,1258.350101,-2221.676944
2841.235174,-8956.491898,518.144159,-306.438199
2841.235512,-8512.368333,888.247130,2145.067394
2841.235849,-10288.862594,0.000000,2451.505594
2841.236186,-10955.047942,-148.041188,1532.190996
2841.236524,-11991.336260,-1184.329507,229.828649
2841.236861,-10658.965565,-1850.514855,229.828649
2841.237198,-9178.553681,-2368.659014,383.047749
2841.237536,-8586.388927,-1406.391290,1149.143247
2841.237873,-9474.636058,-296.082377,306.438199
2841.238210,-9918.759623,592.164754,-1378.971896
2841.238548,-10436.903782,148.041188,-1838.629195
2841.238885,-10510.924376,-222.061783,-1149.143247
2841.239223,-10214.842000,222.061783,842.705048
2841.239560,-10584.944971,518.144159,2145.067394
2841.239897,-11029.068536,0.000000,1532.190996
2841.240235,-11473.192101,-1850.514855,306.438199
2841.240572,-11103.089130,-2590.720797,-689.485948
2841.240909,-9474.636058,-3478.967927,-689.485948
2841.241247,-8290.306550,-2516.700203,76.609550
2841.241584,-8512.368333,-1184.329507,-995.924147
2841.241922,-10066.800811,-518.144159,-2451.505594
2841.242259,-10214.842000,-296.082377,-3370.820191
2841.242596,-10140.821405,-1184.329507,-2757.943793
2841.242934,-10140.821405,-1036.288319,76.609550
2841.243271,-9252.574275,-814.226536,2221.676944
2841.243608,-9918.759623,-444.123565,3447.429741
2841.243946,-11843.295072,-444.123565,2757.943793
2841.244283,-12065.356855,-370.102971,2145.067394
2841.244620,-11399.171507,-1184.329507,1991.848295
2841.244958,-9178.553681,-962.267725,1455.581446
2841.245295,-8068.244768,-444.123565,2374.896044
2841.245633,-9326.594869,1406.391290,1915.238745
2841.245970,-9252.574275,2220.617826,-383.047749
2841.246307,-10288.862594,3256.906145,-1608.800546
2841.246645,-10066.800811,3182.885551,-1302.362347
2841.246982,-9696.697840,2368.659014,0.000000
2841.247319,-9844.739029,2442.679609,2221.676944
2841.247657,-9696.697840,962.267725,2528.115143
2841.247994,-10584.944971,962.267725,1225.752797
2841.248332,-11251.130318,-814.226536,-153.219100
2841.248669,-9770.718434,-1776.494261,-383.047749
2841.249006,-7920.203579,-1850.514855,0.000000
2841.249344,-7846.182985,-1628.453072,306.438199
2841.249681,-9400.615463,-296.082377,-766.095498
2841.250018,-10140.821405,-296.082377,-2451.505594
2841.250356,-10881.027347,0.000000,-3217.601092
2841.250693,-10214.842000,-1184.329507,-1072.533697
2841.251030,-9992.780217,-518.144159,1378.971896
2841.251368,-10214.842000,-1258.350101,2834.553343
2841.251705,-11769.274478,-814.226536,3294.210641
2841.252043,-12139.377449,-1998.556043,1685.410096
2841.252380,-11621.233289,-1924.535449,0.000000
2841.252717,-10214.842000,-2294.638420,383.047749
2841.253055,-9252.574275,-1628.453072,383.047749
2841.253392,-9104.533087,-1184.329507,766.095498
2841.253729,-9992.780217,1184.329507,-1685.410096
2841.254067,-9548.656652,1628.453072,-2451.505594
2841.254404,-10214.842000,814.226536,-2528.115143
2841.254742,-9770.718434,0.000000,-766.095498
2841.255079,-9474.636058,74.020594,459.657299
2841.255416,-10584.944971,592.164754,2374.896044
2841.255754,-11547.212695,148.041188,995.924147
2841.256091,-11103.089130,-1258.350101,-383.047749
2841.256428,-9918.759623,-2886.803174,0.000000
2841.256766,-7550.100608,-2368.659014,383.047749
2841.257103,-7476.080014,-1258.350101,1608.800546
2841.257441,-8882.471304,888.247130,1072.533697
2841.257778,-10140.821405,1258.350101,-1225.752797
2841.258115,-11251.130318,1258.350101,-1532.190996
2841.258453,-10584.944971,888.247130,-306.438199
2841.258790,-9548.656652,592.164754,2681.334243
2841.259127,-9622.677246,1110.308913,4673.182538
2841.259465,-10436.903782,592.164754,4749.792088
2841.259802,-11547.212695,1332.370696,2451.505594
2841.260139,-12065.356855,-962.267725,1378.971896
2841.260477,-10807.006753,-666.185348,306.438199
2841.260814,-8586.388927,-1110.308913,-76.609550
2841.261152,-8660.409521,0.000000,306.438199
2841.261489,-9030.512492,888.247130,-1455.581446
2841.261826,-9326.594869,518.144159,-3217.601092
2841.262164,-9918.759623,296.082377,-3677.258390
2841.262501,-10732.986159,-518.144159,-2068.457845
2841.262838,-10732.986159,-666.185348,-153.219100
2841.263176,-10510.924376,-592.164754,842.705048
2841.263513,-11177.109724,-1850.514855,1455.581446
2841.263851,-11103.089130,-3552.988522,0.000000
2841.264188,-10436.903782,-3923.091493,-842.705048
2841.264525,-9474.636058,-4441.235652,229.828649
2841.264863,-8290.306550,-3108.864956,612.876398
2841.265200,-8586.388927,-962.267725,153.219100
2841.265537,-10584.944971,74.020594,-919.314598
2841.265875,-10807.006753,740.205942,-1608.800546
2841.266212,-11103.089130,74.020594,-1072.533697
2841.266549,-9992.780217,148.041188,1225.752797
2841.266887,-9326.594869,1110.308913,2911.162892
2841.267224,-10658.965565,1110.308913,4519.963438
2841.267562,-11473.192101,518.144159,3064.381992
2841.267899,-11399.171507,444.123565,459.657299
2841.268236,-10584.944971,-518.144159,-229.828649
2841.268574,-8660.409521,-296.082377,-153.219100
2841.268911,-7846.182985,592.164754,229.828649
2841.269248,-8586.388927,1702.473667,-842.705048
2841.269586,-9474.636058,2590.720797,-2987.772442
2841.269923,-10214.842000,2664.741391,-3294.210641
2841.270261,-10066.800811,888.247130,-1838.629195
2841.270598,-9696.697840,370.102971,536.266849
2841.270935,-9622.677246,740.205942,2298.286494
2841.271273,-10140.821405,296.082377,3294.210641
2841.271610,-11103.089130,-592.164754,1532.190996
2841.271947,-11177.109724,-2220.617826,995.924147
2841.272285,-9844.739029,-2368.659014,689.485948
2841.272622,-8142.265362,-2516.700203,1225.752797
2841.272959,-8364.327145,74.020594,1149.143247
2841.273297,-9474.636058,814.226536,229.828649
2841.273634,-10807.006753,1184.329507,-1532.190996
2841.273972,-10584.944971,666.185348,-1455.581446
2841.274309,-10584.944971,370.102971,612.876398
2841.274646,-10066.800811,592.164754,2757.943793
2841.274984,-10510.924376,-518.144159,2834.553343
2841.275321,-11103.089130,-740.205942,3217.601092
2841.275658,-11547.212695,-1258.350101,306.438199
2841.275996,-10881.027347,-2368.659014,-459.657299
2841.276333,-9992.780217,-2738.761985,-1302.362347
2841.276671,-8512.368333,-2072.576638,-919.314598
2841.277008,-9474.636058,-592.164754,-1072.533697
2841.277345,-10066.800811,-148.041188,-2834.553343
2841.277683,-9548.656652,0.000000,-3600.648841
2841.278020,-10140.821405,-740.205942,-2221.676944
2841.278357,-10658.965565,-592.164754,0.000000
2841.278695,-10140.821405,-666.185348,1838.629195
2841.279032,-10955.047942,-518.144159,2757.943793
2841.279370,-11843.295072,-1110.308913,2604.724693
2841.279707,-11399.171507,-1776.494261,1532.190996
2841.280044,-9770.718434,-1628.453072,1915.238745
2841.280382,-7994.224174,-1776.494261,2068.457845
2841.280719,-7402.059420,0.000000,2374.896044
2841.281056,-8586.388927,2220.617826,1225.752797
2841.281394,-10658.965565,2738.761985,-689.485948
2841.281731,-11103.089130,3108.864956,-2221.676944
2841.282068,-10436.903782,2146.597232,-1378.971896
