#time,accel_x,accel_y,accel_z
3090.291876,-10658.965565,-1554.432478,1762.019645
3090.292214,-11103.089130,-814.226536,995.924147
3090.292552,-10510.924376,-962.267725,766.095498
3090.292890,-10288.862594,-1332.370696,1378.971896
3090.293228,-10807.006753,-1332.370696,1991.848295
3090.293566,-9918.759623,148.041188,1455.581446
3090.293904,-9696.697840,0.000000,1149.143247
3090.294242,-10362.883188,518.144159,1302.362347
3090.294580,-10362.883188,148.041188,459.657299
3090.294918,-10658.965565,1406.391290,0.000000
3090.295256,-9326.594869,814.226536,76.609550
3090.295594,-9400.615463,814.226536,-919.314598
3090.295932,-9474.636058,518.144159,-995.924147
3090.296270,-9918.759623,-962.267725,-1608.800546
3090.296608,-9030.512492,-296.082377,-1378.971896
3090.296946,-8734.430116,-592.164754,-1915.238745
3090.297284,-9474.636058,-370.102971,-1762.019645
3090.297622,-9770.718434,-1184.329507,-1762.019645
3090.297960,-9474.636058,-1554.432478,-1378.971896
3090.298298,-9326.594869,-962.267725,-1072.533697
3090.298636,-9770.718434,-1480.411884,-919.314598
3090.298974,-11103.089130,-1110.308913,-153.219100
3090.299312,-10140.821405,-1776.494261,-1838.629195
3090.299650,-9474.636058,-1998.556043,0.000000
3090.299988,-9622.677246,-1480.411884,1302.362347
3090.300326,-10288.862594,-1332.370696,0.000000
3090.300664,-11103.089130,-666.185348,-1072.533697
3090.301002,-11399.171507,-1184.329507,-2451.505594
3090.301340,-9918.759623,-2220.617826,-1915.238745
3090.301678,-9918.759623,-1702.473667,-459.657299
3090.302015,-9918.759623,-1998.556043,-459.657299
3090.302353,-10584.944971,-1480.411884,-2145.067394
3090.302691,-10807.006753,-1850.514855,-2681.334243
3090.303029,-9770.718434,-2886.803174,-1915.238745
3090.303367,-10362.883188,-2664.741391,-1685.410096
3090.303705,-10732.986159,-2516.700203,-1838.629195
3090.304043,-10807.006753,-2960.823768,-4673.182538
3090.304381,-10362.883188,-3478.967927,-5362.668486
3090.304719,-8956.491898,-4737.318029,-5056.230287
3090.305057,-8216.285956,-5329.482782,-2987.772442
3090.305395,-8216.285956,-3627.009116,-1455.581446
3090.305733,-9178.553681,-3256.906145,-1685.410096
3090.306071,-10658.965565,-1924.535449,-995.924147
3090.306409,-10584.944971,-1554.432478,-1532.190996
3090.306747,-11103.089130,-1480.411884,-842.705048
3090.307085,-11547.212695,-1924.535449,-1302.362347
3090.307423,-10362.883188,-3256.906145,-1072.533697
3090.307761,-9696.697840,-2590.720797,-306.438199
3090.308099,-8882.471304,-3330.926739,-306.438199
3090.308437,-7772.162391,-1480.411884,76.609550
3090.308775,-9474.636058,-1406.391290,-842.705048
3090.309113,-10658.965565,0.000000,-842.705048
3090.309451,-10881.027347,592.164754,-3677.258390
3090.309789,-10807.006753,-74.020594,-4673.182538
3090.310127,-10214.842000,-2220.617826,-2987.772442
3090.310465,-10066.800811,-2886.803174,-2374.896044
3090.310803,-9474.636058,-2960.823768,-995.924147
3090.311141,-9326.594869,-2664.741391,-1225.752797
3090.311479,-9400.615463,-3923.091493,-2068.457845
3090.311817,-9622.677246,-4811.338623,-2068.457845
3090.312155,-9400.615463,-4737.318029,-1608.800546
3090.312493,-9400.615463,-3849.070898,0.000000
3090.312831,-9696.697840,-2072.576638,383.047749
3090.313169,-10658.965565,-1258.350101,-1762.019645
3090.313506,-11769.274478,-2294.638420,-2451.505594
3090.313844,-11843.295072,-3701.029710,-1685.410096
3090.314182,-10288.862594,-4071.132681,-689.485948
3090.314520,-10066.800811,-3849.070898,612.876398
3090.314858,-8956.491898,-2960.823768,-919.314598
3090.315196,-9474.636058,-3775.050304,-1991.848295
3090.315534,-10584.944971,-3404.947333,-1608.800546
3090.315872,-9770.718434,-1554.432478,-1915.238745
3090.316210,-9770.718434,0.000000,-3064.381992
3090.316548,-10362.883188,518.144159,-2528.115143
3090.316886,-11917.315666,-592.164754,-2451.505594
3090.317224,-11917.315666,-592.164754,-2834.553343
3090.317562,-9252.574275,-1554.432478,-2757.943793
3090.317900,-7846.182985,-2738.761985,-383.047749
3090.318238,-9622.677246,-3404.947333,459.657299
3090.318576,-10214.842000,-2146.597232,-1915.238745
3090.318914,-9400.615463,-2220.617826,-3217.601092
3090.319252,-8734.430116,-2738.761985,-2911.162892
3090.319590,-10288.862594,-1776.494261,-2145.067394
3090.319928,-11325.150913,-1184.329507,-3447.429741
3090.320266,-9104.533087,-1110.308913,-3064.381992
3090.320604,-8142.265362,-1036.288319,-1072.533697
3090.320942,-9696.697840,-666.185348,-612.876398
3090.321280,-10658.965565,-518.144159,-1762.019645
3090.321618,-11399.171507,-888.247130,-766.095498
3090.321956,-9400.615463,-1702.473667,-689.485948
3090.322294,-9030.512492,-888.247130,76.609550
3090.322632,-10584.944971,-296.082377,1532.190996
3090.322970,-11177.109724,0.000000,-919.314598
3090.323308,-11251.130318,222.061783,-2987.772442
3090.323646,-11473.192101,-592.164754,-4443.353888
3090.323984,-11103.089130,-2294.638420,-4443.353888
3090.324322,-9696.697840,-3108.864956,-3600.648841
3090.324659,-7772.162391,-4219.173869,-3447.429741
3090.324997,-7698.141797,-3923.091493,-3140.991542
3090.325335,-9696.697840,-4737.318029,-2757.943793
3090.325673,-9696.697840,-4219.173869,-2757.943793
3090.326011,-9400.615463,-4663.297435,-919.314598
3090.326349,-10436.903782,-3849.070898,153.219100
3090.326687,-10881.027347,-2812.782580,-919.314598
3090.327025,-11769.274478,-3404.947333,-1225.752797
3090.327363,-10658.965565,-4589.276840,-2528.115143
3090.327701,-10066.800811,-5403.503377,-3524.039291
3090.328039,-9770.718434,-5181.441594,-2451.505594
3090.328377,-7994.224174,-3997.112087,-2757.943793
3090.328715,-9844.739029,-5477.523971,-1378.971896
3090.329053,-9326.594869,-3849.070898,-2451.505594
3090.329391,-9548.656652,-2664.741391,76.609550
3090.329729,-11621.233289,0.000000,2145.067394
3090.330067,-11177.109724,740.205942,536.266849
3090.330405,-13471.748144,814.226536,-76.609550
3090.330743,-12213.398043,0.000000,-1915.238745
3090.331081,-11325.150913,-1850.514855,-1608.800546
3090.331419,-9326.594869,-3256.906145,-1762.019645
3090.331757,-8512.368333,-4515.256246,-1838.629195
3090.332095,-7698.141797,-4515.256246,-1915.238745
3090.332433,-8438.347739,-3775.050304,-2451.505594
3090.332771,-8734.430116,-1850.514855,-2757.943793
3090.333109,-9918.759623,-962.267725,-3217.601092
3090.333447,-10436.903782,-592.164754,-3140.991542
3090.333785,-11325.150913,222.061783,-2911.162892
3090.334123,-11399.171507,-1036.288319,-3600.648841
3090.334461,-8956.491898,-2664.741391,-2374.896044
3090.334799,-8216.285956,-4885.359217,0.000000
3090.335137,-8290.306550,-5033.400406,1455.581446
3090.335475,-9474.636058,-4663.297435,1455.581446
3090.335813,-9474.636058,-3775.050304,-1072.533697
3090.336150,-9622.677246,-2886.803174,-1991.848295
3090.336488,-11251.130318,-1628.453072,-2604.724693
3090.336826,-11325.150913,-666.185348,-4366.744339
3090.337164,-11029.068536,-814.226536,-3294.210641
3090.337502,-10436.903782,-1258.350101,-2298.286494
3090.337840,-10658.965565,-1406.391290,-2221.676944
3090.338178,-10658.965565,-2368.659014,-2298.286494
3090.338516,-10658.965565,-2368.659014,-1072.533697
3090.338854,-11251.130318,-4737.318029,-1455.581446
3090.339192,-10658.965565,-4515.256246,-2757.943793
3090.339530,-9474.636058,-4515.256246,-4060.306139
3090.339868,-9474.636058,-3552.988522,-2911.162892
3090.340206,-8660.409521,-2886.803174,-3677.258390
3090.340544,-9474.636058,-2294.638420,-3907.087040
3090.340882,-10955.047942,-666.185348,-3600.648841
3090.341220,-10510.924376,-1406.391290,-3140.991542
3090.341558,-11399.171507,-2738.761985,-2221.676944
3090.341896,-9252.574275,-3997.112087,-1302.362347
3090.342234,-8808.450710,-4515.256246,1532.190996
3090.342572,-8142.265362,-3997.112087,2451.505594
3090.342910,-8364.327145,-2812.782580,1838.629195
3090.343248,-10436.903782,-666.185348,995.924147
3090.343586,-11399.171507,0.000000,-919.314598
3090.343924,-10732.986159,148.041188,-1762.019645
3090.344262,-11251.130318,74.020594,-1838.629195
3090.344600,-10807.006753,74.020594,-1225.752797
3090.344938,-9104.533087,-74.020594,-2451.505594
3090.345276,-8734.430116,-740.205942,-2221.676944
3090.345614,-9326.594869,-1998.556043,-2068.457845
3090.345952,-9696.697840,-2590.720797,-1991.848295
3090.346290,-11473.192101,-2368.659014,-1149.143247
3090.346628,-10955.047942,-1998.556043,-1762.019645
3090.346965,-10510.924376,-1332.370696,-3217.601092
3090.347302,-10362.883188,-1850.514855,-3294.210641
3090.347640,-9770.718434,-2072.576638,-3830.477490
3090.347977,-8734.430116,-2738.761985,-3064.381992
3090.348315,-9992.780217,-3775.050304,-2451.505594
3090.348652,-9844.739029,-4293.194464,-1532.190996
3090.348990,-10362.883188,-3923.091493,-1225.752797
3090.349327,-10955.047942,-4515.256246,0.000000
3090.349664,-10362.883188,-3997.112087,-766.095498
3090.350002,-9548.656652,-4145.153275,0.000000
3090.350339,-9474.636058,-3627.009116,-153.219100
3090.350677,-9178.553681,-3256.906145,-306.438199
3090.351014,-11547.212695,-2516.700203,-1302.362347
3090.351352,-10807.006753,-2442.679609,-4366.744339
3090.351689,-10066.800811,-1924.535449,-4749.792088
3090.352026,-9696.697840,-1628.453072,-2528.115143
3090.352364,-9474.636058,-1776.494261,-1378.971896
3090.352701,-9992.780217,-1480.411884,-1685.410096
3090.353039,-10732.986159,-2146.597232,-2834.553343
3090.353376,-10732.986159,-3034.844362,-3370.820191
3090.353713,-10510.924376,-4885.359217,-3753.867940
3090.354051,-9030.512492,-3627.009116,-1991.848295
3090.354388,-8586.388927,-3108.864956,-919.314598
3090.354726,-8956.491898,-2516.700203,-1072.533697
3090.355063,-9696.697840,-2368.659014,-1915.238745
3090.355401,-10658.965565,-1924.535449,-1991.848295
3090.355738,-10140.821405,-1110.308913,-1762.019645
3090.356075,-9918.759623,-888.247130,0.000000
3090.356413,-9918.759623,-962.267725,0.000000
3090.356750,-10288.862594,-2664.741391,0.000000
3090.357088,-10362.883188,-2368.659014,1072.533697
3090.357425,-9548.656652,-2146.597232,2068.457845
3090.357763,-9844.739029,-888.247130,2145.067394
3090.358100,-9844.739029,1110.308913,-1378.971896
3090.358437,-10881.027347,296.082377,-3217.601092
3090.358775,-11399.171507,-740.205942,-4519.963438
3090.359112,-9696.697840,-1998.556043,-3830.477490
3090.359450,-8586.388927,-2146.597232,-766.095498
3090.359787,-8216.285956,-2072.576638,-612.876398
3090.360125,-9622.677246,-3034.844362,-536.266849
3090.360462,-11103.089130,-3404.947333,-689.485948
3090.360799,-10881.027347,-3404.947333,-919.314598
3090.361137,-10658.965565,-3330.926739,-995.924147
3090.361474,-9696.697840,-3404.947333,-2145.067394
3090.361812,-10510.924376,-4589.276840,-1532.190996
3090.362149,-9252.574275,-2960.823768,-2681.334243
3090.362487,-7105.977043,-2294.638420,-2757.943793
3090.362824,-9622.677246,-1998.556043,-612.876398
3090.363161,-12509.480420,-1554.432478,-1378.971896
3090.363499,-12435.459826,-2516.700203,-1762.019645
3090.363836,-11621.233289,-2368.659014,383.047749
3090.364174,-10214.842000,-1480.411884,2145.067394
3090.364511,-10658.965565,-1184.329507,306.438199
3090.364849,-10140.821405,-1628.453072,-766.095498
3090.365186,-9474.636058,-1480.411884,-919.314598
3090.365523,-10140.821405,-1332.370696,-459.657299
3090.365861,-9548.656652,1258.350101,0.000000
3090.366198,-11547.212695,1406.391290,-766.095498
3090.366536,-10955.047942,2072.576638,-2757.943793
3090.366873,-8956.491898,1406.391290,-3983.696590
3090.367210,-9030.512492,1110.308913,-536.266849
3090.367548,-8660.409521,-1184.329507,1072.533697
3090.367885,-9696.697840,-2368.659014,0.000000
3090.368223,-9918.759623,-1258.350101,-995.924147
3090.368560,-9104.533087,-1258.350101,-1225.752797
3090.368898,-8068.244768,-1628.453072,306.438199
3090.369235,-6957.935855,-1110.308913,1685.410096
3090.369572,-9030.512492,0.000000,1762.019645
3090.369910,-12213.398043,962.267725,1455.581446
3090.370247,-12583.501014,296.082377,-689.485948
3090.370585,-10436.903782,222.061783,-536.266849
3090.370922,-10214.842000,-1036.288319,2298.286494
3090.371260,-10066.800811,-1258.350101,4136.915689
3090.371597,-10955.047942,-222.061783,3524.039291
3090.371934,-9770.718434,-444.123565,1838.629195
3090.372272,-11399.171507,-1628.453072,1378.971896
3090.372609,-11177.109724,-1702.473667,995.924147
3090.372947,-10510.924376,-74.020594,689.485948
3090.373284,-8734.430116,962.267725,0.000000
3090.373622,-9622.677246,222.061783,536.266849
3090.373959,-11251.130318,0.000000,0.000000
3090.374296,-10732.986159,-1332.370696,-1378.971896
3090.374634,-10732.986159,-1480.411884,689.485948
3090.374971,-10288.862594,-1406.391290,1149.143247
3090.375309,-8808.450710,-2294.638420,-229.828649
3090.375646,-8364.327145,-2960.823768,-612.876398
3090.375984,-7846.182985,-1924.535449,306.438199
3090.376321,-9030.512492,-2368.659014,-459.657299
3090.376658,-10510.924376,-1258.350101,-1455.581446
3090.376996,-10436.903782,0.000000,-1378.971896
3090.377333,-11621.233289,666.185348,919.314598
3090.377671,-11769.274478,518.144159,383.047749
3090.378008,-9178.553681,-370.102971,689.485948
3090.378346,-8882.471304,962.267725,2068.457845
3090.378683,-9030.512492,148.041188,2528.115143
3090.379020,-11251.130318,-370.102971,2221.676944
3090.379358,-10807.006753,518.144159,1149.143247
3090.379695,-10510.924376,2294.638420,689.485948
3090.380033,-12065.356855,2368.659014,0.000000
3090.380370,-10732.986159,1924.535449,-2528.115143
3090.380708,-9104.533087,962.267725,-2681.334243
3090.381045,-8660.409521,1258.350101,-2834.553343
3090.381382,-9252.574275,1036.288319,-1685.410096
3090.381720,-10510.924376,592.164754,-1225.752797
3090.382057,-9622.677246,-2146.597232,-1532.190996
3090.382395,-8882.471304,-1480.411884,229.828649
3090.382732,-9770.718434,-1776.494261,3370.820191
3090.383069,-9844.739029,-1776.494261,1991.848295
3090.383407,-10436.903782,-1776.494261,766.095498
3090.383744,-12213.398043,-1628.453072,-612.876398
3090.384082,-9474.636058,-1924.535449,-2068.457845
3090.384419,-9252.574275,-2960.823768,-919.314598
3090.384757,-7920.203579,-2368.659014,1302.362347
3090.385094,-8808.450710,-814.226536,1149.143247
3090.385431,-9770.718434,148.041188,995.924147
3090.385769,-12213.398043,-370.102971,536.266849
3090.386106,-12287.418637,-1850.514855,689.485948
3090.386444,-10955.047942,-888.247130,1685.410096
3090.386781,-8734.430116,148.041188,2911.162892
3090.387119,-9252.574275,0.000000,1608.800546
3090.387456,-11177.109724,-1628.453072,76.609550
3090.387793,-12583.501014,-814.226536,-383.047749
3090.388131,-10807.006753,-962.267725,-306.438199
3090.388468,-8438.347739,0.000000,229.828649
3090.388806,-9400.615463,-370.102971,612.876398
3090.389143,-10658.965565,-74.020594,-383.047749
3090.389481,-11399.171507,148.041188,-689.485948
3090.389818,-11473.192101,-518.144159,-1149.143247
3090.390155,-9844.739029,-1332.370696,-229.828649
3090.390493,-9104.533087,-962.267725,1455.581446
3090.390830,-9400.615463,-592.164754,2757.943793
3090.391168,-8660.409521,1406.391290,1378.971896
3090.391505,-9252.574275,74.020594,-229.828649
3090.391843,-11547.212695,-296.082377,536.266849
3090.392180,-10732.986159,-740.205942,842.705048
3090.392517,-10214.842000,148.041188,2374.896044
3090.392855,-8068.244768,1776.494261,2604.724693
3090.393192,-8586.388927,1554.432478,2145.067394
3090.393530,-10362.883188,1036.288319,459.657299
3090.393867,-10362.883188,814.226536,-2451.505594
3090.394205,-9178.553681,592.164754,-1915.238745
3090.394542,-8660.409521,1258.350101,-383.047749
3090.394879,-8660.409521,370.102971,-1149.143247
3090.395217,-9770.718434,666.185348,-1455.581446
3090.395554,-10066.800811,0.000000,-1685.410096
3090.395892,-10214.842000,-74.020594,-1532.190996
3090.396229,-10436.903782,-1924.535449,0.000000
3090.396566,-11103.089130,-2590.720797,1378.971896
3090.396904,-11547.212695,-2072.576638,383.047749
3090.397241,-10584.944971,-740.205942,-383.047749
3090.397579,-9770.718434,-1332.370696,-1225.752797
3090.397916,-9474.636058,-1850.514855,-1455.581446
3090.398254,-11473.192101,-1628.453072,-1838.629195
3090.398591,-11029.068536,74.020594,-1532.190996
3090.398928,-11473.192101,-1110.308913,0.000000
3090.399266,-10214.842000,-1776.494261,1072.533697
3090.399603,-10955.047942,-518.144159,2987.772442
3090.399941,-10807.006753,1184.329507,2681.334243
3090.400278,-11029.068536,0.000000,2145.067394
3090.400616,-10288.862594,-888.247130,1149.143247
3090.400953,-9992.780217,-518.144159,919.314598
3090.401290,-9696.697840,148.041188,1532.190996
3090.401628,-8660.409521,518.144159,306.438199
3090.401965,-8586.388927,222.061783,-459.657299
3090.402303,-10584.944971,222.061783,-536.266849
3090.402640,-10436.903782,370.102971,1149.143247
3090.402978,-8882.471304,2590.720797,689.485948
3090.403315,-8882.471304,1258.350101,229.828649
3090.403652,-9400.615463,222.061783,-383.047749
3090.403990,-8882.471304,-1850.514855,536.266849
3090.404327,-9326.594869,-962.267725,2681.334243
3090.404665,-7698.141797,222.061783,2298.286494
3090.405002,-9252.574275,1036.288319,1455.581446
3090.405340,-12139.377449,814.226536,1149.143247
3090.405677,-11769.274478,1036.288319,-306.438199
3090.406014,-9548.656652,1554.432478,306.438199
3090.406352,-9918.759623,222.061783,1838.629195
3090.406689,-11177.109724,-148.041188,2298.286494
3090.407027,-11103.089130,296.082377,0.000000
3090.407364,-9770.718434,74.020594,-229.828649
3090.407702,-9844.739029,-148.041188,1532.190996
3090.408039,-9770.718434,-592.164754,1455.581446
3090.408376,-10807.006753,0.000000,0.000000
3090.408714,-11399.171507,0.000000,-1072.533697
3090.409051,-10658.965565,-518.144159,-1915.238745
3090.409389,-11325.150913,-1924.535449,-1378.971896
3090.409726,-10510.924376,-3330.926739,-1762.019645
3090.410064,-7105.977043,-2368.659014,-1532.190996
3090.410401,-7179.997637,-2072.576638,-612.876398
3090.410738,-8586.388927,-1850.514855,-1225.752797
3090.411076,-11103.089130,-2664.741391,-1838.629195
3090.411413,-12139.377449,-1332.370696,-1378.971896
3090.411751,-10955.047942,-1332.370696,-1685.410096
3090.412088,-10066.800811,-1332.370696,153.219100
3090.412425,-9474.636058,-1702.473667,306.438199
3090.412763,-8586.388927,-1628.453072,766.095498
3090.413100,-8512.368333,-222.061783,1532.190996
3090.413438,-10658.965565,0.000000,1149.143247
3090.413775,-11695.253884,74.020594,1225.752797
3090.414113,-11991.336260,2072.576638,1608.800546
3090.414450,-10510.924376,2738.761985,1991.848295
3090.414787,-10362.883188,3330.926739,1915.238745
3090.415125,-9770.718434,2146.597232,689.485948
3090.415462,-11177.109724,888.247130,1685.410096
3090.415800,-10658.965565,888.247130,-612.876398
3090.416137,-7772.162391,1258.350101,-229.828649
3090.416475,-8956.491898,888.247130,689.485948
3090.416812,-8364.327145,222.061783,-842.705048
3090.417149,-9104.533087,1184.329507,-1225.752797
3090.417487,-9030.512492,1406.391290,-612.876398
3090.417824,-9030.512492,1110.308913,306.438199
3090.418162,-10510.924376,-1036.288319,459.657299
3090.418499,-12583.501014,-888.247130,1532.190996
3090.418837,-9992.780217,-1406.391290,995.924147
3090.419174,-7402.059420,-1628.453072,995.924147
3090.419511,-6587.832884,-2368.659014,2757.943793
3090.419849,-9918.759623,-2738.761985,2834.553343
3090.420186,-12287.418637,-888.247130,1762.019645
3090.420524,-11547.212695,666.185348,-612.876398
3090.420861,-11177.109724,518.144159,0.000000
3090.421199,-11029.068536,0.000000,919.314598
3090.421536,-10881.027347,-740.205942,689.485948
3090.421873,-9474.636058,814.226536,0.000000
3090.422211,-9104.533087,0.000000,842.705048
3090.422548,-11695.253884,-814.226536,995.924147
3090.422886,-11917.315666,-2072.576638,-459.657299
3090.423223,-11547.212695,-1850.514855,-689.485948
3090.423561,-7920.203579,0.000000,-995.924147
3090.423898,-8956.491898,-1184.329507,-383.047749
3090.424235,-10881.027347,-1628.453072,-612.876398
3090.424573,-9326.594869,-888.247130,-2451.505594
3090.424910,-8512.368333,962.267725,-1838.629195
3090.425248,-7402.059420,0.000000,-995.924147
3090.425585,-10214.842000,-1258.350101,229.828649
3090.425922,-11769.274478,0.000000,-1225.752797
3090.426260,-9474.636058,-148.041188,-1838.629195
3090.426597,-7624.121203,0.000000,0.000000
3090.426935,-8364.327145,-444.123565,2221.676944
3090.427272,-10214.842000,0.000000,2681.334243
3090.427610,-10140.821405,888.247130,383.047749
3090.427947,-9474.636058,2368.659014,2145.067394
3090.428284,-11621.233289,2368.659014,4290.134789
3090.428622,-13323.706956,1850.514855,1991.848295
3090.428959,-11325.150913,2738.761985,383.047749
3090.429297,-9400.615463,2812.782580,0.000000
3090.429634,-7846.182985,2294.638420,-153.219100
3090.429972,-9918.759623,370.102971,229.828649
3090.430309,-11251.130318,0.000000,-2068.457845
3090.430646,-10510.924376,-1332.370696,-2374.896044
3090.430984,-10288.862594,222.061783,-766.095498
3090.431321,-8586.388927,814.226536,-689.485948
3090.431659,-9178.553681,222.061783,0.000000
3090.431996,-9696.697840,-814.226536,0.000000
3090.432334,-9844.739029,-1184.329507,-1072.533697
3090.432671,-10658.965565,-1258.350101,766.095498
3090.433008,-11177.109724,-2738.761985,1072.533697
3090.433346,-10140.821405,-2368.659014,766.095498
3090.433683,-8734.430116,-2368.659014,459.657299
3090.434021,-6661.853478,-1998.556043,1225.752797
3090.434358,-9770.718434,-2146.597232,1915.238745
3090.434696,-11843.295072,-1924.535449,306.438199
3090.435033,-11769.274478,-666.185348,-919.314598
3090.435370,-10658.965565,0.000000,-229.828649
3090.435708,-8808.450710,-444.123565,1991.848295
3090.436045,-9326.594869,222.061783,2987.772442
3090.436383,-10066.800811,0.000000,1685.410096
3090.436720,-9844.739029,222.061783,1149.143247
3090.437058,-12213.398043,740.205942,1072.533697
3090.437395,-11251.130318,-1110.308913,0.000000
3090.437732,-10436.903782,-1480.411884,-1225.752797
3090.438070,-8216.285956,0.000000,-766.095498
3090.438407,-5995.668130,444.123565,-612.876398
3090.438745,-9400.615463,0.000000,0.000000
3090.439082,-12213.398043,74.020594,-689.485948
3090.439419,-12287.418637,74.020594,-689.485948
3090.439757,-10658.965565,1332.370696,689.485948
3090.440094,-10214.842000,1998.556043,2911.162892
3090.440432,-10362.883188,1554.432478,536.266849
3090.440769,-9770.718434,1332.370696,-536.266849
3090.441107,-9178.553681,-888.247130,612.876398
3090.441444,-9474.636058,0.000000,2374.896044
3090.441781,-10288.862594,444.123565,2145.067394
3090.442119,-11325.150913,1184.329507,1838.629195
3090.442456,-10658.965565,1480.411884,-153.219100
3090.442794,-9326.594869,962.267725,-306.438199
3090.443131,-8956.491898,1184.329507,0.000000
3090.443469,-8586.388927,518.144159,1149.143247
3090.443806,-9104.533087,0.000000,612.876398
3090.444143,-9252.574275,-296.082377,-1378.971896
3090.444481,-9770.718434,222.061783,-766.095498
3090.444818,-9400.615463,-962.267725,536.266849
3090.445156,-10881.027347,0.000000,-766.095498
3090.445493,-9770.718434,0.000000,-2987.772442
3090.445831,-9474.636058,-1850.514855,-2681.334243
3090.446168,-9770.718434,-1924.535449,-459.657299
3090.446506,-9104.533087,-1184.329507,0.000000
3090.446843,-10066.800811,-296.082377,153.219100
3090.447181,-11103.089130,-1110.308913,1378.971896
3090.447518,-14285.974681,-1258.350101,0.000000
3090.447856,-10807.006753,-1554.432478,0.000000
3090.448193,-11177.109724,-1776.494261,1378.971896
3090.448531,-9770.718434,222.061783,3064.381992
3090.448868,-10362.883188,592.164754,0.000000
3090.449206,-10955.047942,-962.267725,-612.876398
3090.449543,-10955.047942,-370.102971,766.095498
3090.449881,-9844.739029,222.061783,3524.039291
3090.450218,-8882.471304,1110.308913,2451.505594
3090.450556,-11029.068536,962.267725,2374.896044
3090.450893,-11621.233289,592.164754,1302.362347
3090.451231,-9030.512492,888.247130,-1532.190996
3090.451568,-10436.903782,666.185348,1225.752797
3090.451906,-10140.821405,1554.432478,-536.266849
3090.452243,-7105.977043,888.247130,-2068.457845
3090.452581,-7254.018232,-296.082377,-2298.286494
3090.452918,-7254.018232,-592.164754,-995.924147
3090.453256,-8734.430116,740.205942,306.438199
3090.453593,-11103.089130,962.267725,459.657299
3090.453931,-11473.192101,1480.411884,-1532.190996
3090.454268,-10881.027347,-296.082377,-1225.752797
3090.454606,-9696.697840,-1480.411884,1072.533697
3090.454943,-8364.327145,-1776.494261,2298.286494
3090.455281,-9178.553681,-2516.700203,3217.601092
3090.455618,-9474.636058,-814.226536,2068.457845
3090.455956,-11103.089130,222.061783,1072.533697
3090.456293,-11325.150913,740.205942,229.828649
3090.456631,-9622.677246,0.000000,-153.219100
3090.456968,-11473.192101,370.102971,689.485948
3090.457306,-11029.068536,1406.391290,-536.266849
3090.457643,-10732.986159,1036.288319,-1991.848295
3090.457981,-9918.759623,-592.164754,-1915.238745
3090.458318,-9400.615463,-1184.329507,-995.924147
3090.458656,-10658.965565,-2368.659014,229.828649
3090.458993,-10066.800811,-1702.473667,459.657299
3090.459331,-10066.800811,-2442.679609,459.657299
3090.459668,-10214.842000,-1628.453072,76.609550
3090.460006,-9918.759623,-2664.741391,0.000000
3090.460343,-11621.233289,-2294.638420,1685.410096
3090.460681,-10362.883188,-1628.453072,842.705048
3090.461018,-9326.594869,-1850.514855,612.876398
3090.461356,-10436.903782,-1924.535449,1378.971896
3090.461693,-11251.130318,-2368.659014,1915.238745
3090.462031,-9252.574275,-1406.391290,536.266849
3090.462368,-8364.327145,-444.123565,919.314598
3090.462706,-9252.574275,74.020594,1762.019645
3090.463043,-10584.944971,222.061783,919.314598
3090.463381,-10658.965565,1406.391290,459.657299
3090.463718,-9770.718434,1184.329507,0.000000
3090.464056,-9474.636058,1480.411884,1072.533697
3090.464393,-10140.821405,2516.700203,1149.143247
3090.464731,-10955.047942,2294.638420,459.657299
3090.465068,-9844.739029,3404.947333,-1532.190996
3090.465406,-9844.739029,888.247130,-383.047749
3090.465743,-10436.903782,-888.247130,0.000000
3090.466081,-9918.759623,-2146.597232,-306.438199
3090.466418,-8660.409521,-740.205942,-766.095498
3090.466756,-7772.162391,0.000000,-1225.752797
3090.467093,-9178.553681,-1480.411884,-1378.971896
3090.467431,-11769.274478,-1036.288319,-76.609550
3090.467768,-9622.677246,0.000000,-2451.505594
3090.468106,-8882.471304,-740.205942,-1532.190996
3090.468443,-9548.656652,-1258.350101,0.000000
3090.468781,-11177.109724,-2442.679609,612.876398
3090.469118,-11103.089130,-666.185348,229.828649
3090.469456,-9918.759623,-962.267725,536.266849
3090.469793,-10955.047942,-1554.432478,2604.724693
3090.470131,-11843.295072,-1258.350101,3677.258390
3090.470468,-12065.356855,0.000000,2604.724693
3090.470806,-10584.944971,1480.411884,1072.533697
3090.471143,-10140.821405,1332.370696,-229.828649
3090.471481,-11325.150913,0.000000,-612.876398
3090.471818,-11991.336260,666.185348,0.000000
3090.472156,-8290.306550,1998.556043,-995.924147
3090.472493,-7476.080014,1036.288319,995.924147
3090.472831,-9326.594869,296.082377,2298.286494
3090.473168,-11843.295072,1036.288319,612.876398
3090.473506,-12435.459826,740.205942,-766.095498
3090.473843,-8956.491898,-666.185348,-1915.238745
3090.474181,-7328.038826,-1850.514855,536.266849
3090.474518,-8290.306550,-2812.782580,2911.162892
3090.474856,-8290.306550,-1406.391290,2145.067394
3090.475193,-7402.059420,1258.350101,-229.828649
3090.475531,-8734.430116,1110.308913,-153.219100
3090.475868,-10881.027347,-962.267725,536.266849
3090.476206,-12805.562797,-1184.329507,1915.238745
3090.476543,-10510.924376,74.020594,2068.457845
3090.476881,-7624.121203,444.123565,536.266849
3090.477218,-10362.883188,-370.102971,2757.943793
3090.477556,-11695.253884,74.020594,1378.971896
3090.477893,-11547.212695,148.041188,-1072.533697
3090.478231,-10362.883188,444.123565,-1455.581446
3090.478568,-9770.718434,1258.350101,-229.828649
3090.478906,-12805.562797,0.000000,383.047749
3090.479243,-11695.253884,-666.185348,-1991.848295
3090.479581,-9474.636058,0.000000,-2068.457845
3090.479918,-7920.203579,148.041188,-766.095498
3090.480256,-10881.027347,-1924.535449,766.095498
3090.480593,-13323.706956,-2664.741391,76.609550
3090.480931,-9770.718434,-2146.597232,-3524.039291
3090.481268,-7328.038826,-2146.597232,-2298.286494
3090.481606,-8290.306550,-2960.823768,-842.705048
3090.481943,-10288.862594,-3034.844362,153.219100
3090.482281,-10584.944971,-1702.473667,-995.924147
3090.482618,-9474.636058,-1480.411884,-1608.800546
3090.482956,-9104.533087,-666.185348,919.314598
3090.483293,-10955.047942,-518.144159,2987.772442
3090.483631,-11547.212695,-1258.350101,2145.067394
3090.483968,-9992.780217,-1332.370696,842.705048
3090.484306,-8586.388927,-1332.370696,2145.067394
3090.484643,-8882.471304,-962.267725,4290.134789
3090.484981,-10881.027347,814.226536,2681.334243
3090.485318,-9844.739029,2368.659014,-995.924147
3090.485656,-9474.636058,2886.803174,-2834.553343
3090.485993,-11251.130318,2664.741391,-689.485948
3090.486331,-12213.398043,740.205942,459.657299
3090.486668,-10436.903782,666.185348,459.657299
3090.487006,-8216.285956,1406.391290,383.047749
3090.487343,-8364.327145,0.000000,1149.143247
3090.487681,-9548.656652,-1184.329507,2834.553343
3090.488018,-11251.130318,-222.061783,2068.457845
3090.488356,-11325.150913,0.000000,0.000000
3090.488693,-9992.780217,-370.102971,-1302.362347
3090.489031,-10436.903782,-1480.411884,612.876398
3090.489368,-10214.842000,-1406.391290,1149.143247
3090.489706,-7846.182985,-222.061783,-306.438199
3090.490043,-7328.038826,0.000000,-689.485948
3090.490381,-9104.533087,-1258.350101,229.828649
3090.490718,-12657.521608,-2368.659014,1915.238745
3090.491056,-12213.398043,-1480.411884,689.485948
3090.491393,-9326.594869,-592.164754,766.095498
3090.491731,-8586.388927,0.000000,1685.410096
3090.492068,-10436.903782,-1332.370696,1991.848295
3090.492406,-11325.150913,-1702.473667,1072.533697
3090.492743,-8882.471304,-222.061783,-1302.362347
3090.493081,-8808.450710,0.000000,-612.876398
3090.493418,-10881.027347,-814.226536,459.657299
3090.493756,-11177.109724,-444.123565,-1608.800546
3090.494093,-10436.903782,0.000000,-1685.410096
3090.494431,-9548.656652,0.000000,-1685.410096
3090.494768,-8734.430116,-1036.288319,-383.047749
3090.495106,-10658.965565,-1258.350101,229.828649
3090.495443,-10436.903782,-814.226536,-306.438199
3090.495781,-9474.636058,-444.123565,-2528.115143
3090.496118,-10955.047942,-962.267725,-842.705048
3090.496456,-11547.212695,-1036.288319,0.000000
3090.496793,-10510.924376,-666.185348,-612.876398
3090.497131,-8290.306550,74.020594,-1072.533697
3090.497468,-6883.915261,-1258.350101,1149.143247
3090.497806,-9548.656652,0.000000,3217.601092
3090.498143,-11177.109724,-592.164754,2528.115143
3090.498481,-11843.295072,888.247130,1225.752797
3090.498818,-10658.965565,1702.473667,612.876398
3090.499155,-10288.862594,2590.720797,766.095498
3090.499493,-10288.862594,1776.494261,2145.067394
3090.499830,-9918.759623,1776.494261,766.095498
3090.500168,-9252.574275,1924.535449,-766.095498
3090.500505,-9992.780217,2072.576638,-2145.067394
3090.500843,-10881.027347,0.000000,-383.047749
3090.501180,-11843.295072,-1110.308913,0.000000
3090.501518,-9030.512492,-74.020594,-1532.190996
3090.501855,-7772.162391,370.102971,0.000000
3090.502193,-8808.450710,-740.205942,1685.410096
3090.502530,-9548.656652,-2368.659014,1225.752797
3090.502868,-10066.800811,-1110.308913,306.438199
3090.503205,-11029.068536,-2072.576638,689.485948
3090.503543,-11029.068536,-2368.659014,1302.362347
3090.503880,-9770.718434,-3182.885551,383.047749
3090.504218,-8586.388927,-2664.741391,536.266849
3090.504555,-7402.059420,-1776.494261,1072.533697
3090.504893,-9770.718434,-962.267725,1225.752797
3090.505230,-11029.068536,-2072.576638,76.609550
3090.505568,-12583.501014,-2220.617826,229.828649
3090.505905,-10881.027347,592.164754,536.266849
3090.506243,-10510.924376,-518.144159,536.266849
3090.506580,-10881.027347,-1406.391290,2145.067394
3090.506918,-9622.677246,-1702.473667,766.095498
3090.507255,-10066.800811,-74.020594,995.924147
3090.507593,-10362.883188,518.144159,842.705048
3090.507930,-10732.986159,74.020594,0.000000
3090.508268,-12583.501014,0.000000,-306.438199
3090.508605,-11325.150913,1036.288319,-2681.334243
3090.508943,-10732.986159,0.000000,-2834.553343
3090.509280,-8512.368333,-666.185348,-2068.457845
3090.509618,-7328.038826,-1702.473667,-919.314598
3090.509955,-10362.883188,-740.205942,0.000000
3090.510293,-9474.636058,370.102971,-1302.362347
3090.510630,-10140.821405,148.041188,-306.438199
3090.510968,-10955.047942,-296.082377,612.876398
3090.511305,-8956.491898,-518.144159,766.095498
3090.511643,-9548.656652,222.061783,2528.115143
3090.511980,-10214.842000,592.164754,2451.505594
3090.512318,-9696.697840,1628.453072,306.438199
3090.512655,-10658.965565,0.000000,229.828649
3090.512993,-9992.780217,74.020594,842.705048
3090.513330,-8808.450710,222.061783,383.047749
3090.513668,-9622.677246,740.205942,1838.629195
3090.514005,-9622.677246,1554.432478,766.095498
3090.514343,-10658.965565,2072.576638,-1225.752797
3090.514680,-10807.006753,1184.329507,-2221.676944
3090.515018,-9844.739029,-1332.370696,-1225.752797
3090.515355,-9622.677246,-1924.535449,1225.752797
3090.515693,-9622.677246,-2146.597232,1838.629195
3090.516030,-9918.759623,-1258.350101,1685.410096
3090.516368,-10214.842000,-814.226536,76.609550
3090.516705,-11103.089130,-1184.329507,-766.095498
3090.517043,-11325.150913,-2368.659014,-1302.362347
3090.517380,-9696.697840,-2442.679609,-1149.143247
3090.517718,-9178.553681,-370.102971,306.438199
3090.518055,-9400.615463,-1554.432478,842.705048
3090.518393,-10584.944971,-814.226536,306.438199
3090.518730,-10362.883188,-1628.453072,0.000000
3090.519068,-10732.986159,-1110.308913,995.924147
3090.519405,-10362.883188,-888.247130,2911.162892
3090.519743,-10362.883188,-1110.308913,4060.306139
3090.520080,-12287.418637,-518.144159,4290.134789
3090.520418,-10214.842000,148.041188,1915.238745
3090.520755,-9918.759623,0.000000,1072.533697
3090.521093,-10584.944971,814.226536,995.924147
3090.521430,-8438.347739,1258.350101,-383.047749
3090.521768,-8660.409521,2294.638420,-766.095498
3090.522105,-10658.965565,2146.597232,-1991.848295
3090.522443,-10214.842000,1110.308913,-2451.505594
3090.522780,-10140.821405,148.041188,-2451.505594
3090.523118,-8956.491898,-370.102971,-1378.971896
3090.523455,-7920.203579,-74.020594,459.657299
3090.523793,-9548.656652,0.000000,1532.190996
3090.524130,-9622.677246,-962.267725,-306.438199
3090.524468,-10732.986159,-1110.308913,306.438199
3090.524805,-9918.759623,-592.164754,459.657299
3090.525143,-9474.636058,0.000000,-383.047749
3090.525480,-10362.883188,-888.247130,76.609550
3090.525818,-9770.718434,-222.061783,-1149.143247
3090.526155,-8142.265362,-962.267725,-1838.629195
3090.526493,-9918.759623,-1184.329507,76.609550
3090.526830,-10807.006753,-1184.329507,1608.800546
3090.527168,-11177.109724,-740.205942,1532.190996
3090.527505,-11695.253884,-740.205942,1455.581446
3090.527843,-11325.150913,0.000000,1455.581446
3090.528180,-10510.924376,-370.102971,459.657299
3090.528518,-8660.409521,0.000000,-1225.752797
3090.528855,-9178.553681,-1924.535449,-229.828649
3090.529193,-11843.295072,-1702.473667,153.219100
3090.529530,-11769.274478,-1406.391290,-383.047749
3090.529868,-9770.718434,-444.123565,-919.314598
3090.530205,-9548.656652,0.000000,0.000000
3090.530543,-11029.068536,-444.123565,0.000000
3090.530880,-11325.150913,-1998.556043,229.828649
3090.531218,-9696.697840,-1702.473667,1149.143247
3090.531555,-8216.285956,-1258.350101,1455.581446
3090.531893,-9844.739029,0.000000,2068.457845
3090.532230,-11843.295072,-444.123565,1532.190996
3090.532568,-11177.109724,-1110.308913,995.924147
3090.532905,-8364.327145,1036.288319,612.876398
3090.533243,-7920.203579,888.247130,2681.334243
3090.533580,-10436.903782,1702.473667,4136.915689
3090.533918,-11769.274478,1110.308913,842.705048
3090.534255,-10510.924376,1850.514855,-1302.362347
3090.534593,-8068.244768,2146.597232,842.705048
3090.534930,-8216.285956,1924.535449,2834.553343
3090.535268,-9474.636058,2146.597232,2374.896044
3090.535605,-9252.574275,2442.679609,919.314598
3090.535943,-10732.986159,3182.885551,0.000000
3090.536280,-10510.924376,2220.617826,-995.924147
3090.536618,-10584.944971,1110.308913,-1225.752797
3090.536955,-10362.883188,0.000000,-1608.800546
3090.537293,-9326.594869,-148.041188,-2374.896044
3090.537630,-8438.347739,-962.267725,-2374.896044
3090.537968,-8438.347739,-1998.556043,-1762.019645
3090.538305,-9548.656652,-2738.761985,-1225.752797
3090.538643,-8808.450710,-2220.617826,-2145.067394
3090.538980,-9918.759623,-1554.432478,-229.828649
3090.539318,-11769.274478,-962.267725,1455.581446
3090.539655,-13101.645173,-740.205942,1072.533697
3090.539993,-12139.377449,-1110.308913,-459.657299
3090.540330,-10066.800811,-1258.350101,-1149.143247
3090.540668,-9548.656652,-2368.659014,612.876398
3090.541005,-9918.759623,-2738.761985,1608.800546
3090.541343,-10288.862594,-1924.535449,1225.752797
3090.541680,-10066.800811,-962.267725,-1225.752797
3090.542018,-11547.212695,-1554.432478,-612.876398
3090.542355,-11177.109724,0.000000,-612.876398
3090.542693,-9178.553681,444.123565,-766.095498
3090.543030,-9104.533087,740.205942,459.657299
3090.543368,-10066.800811,-222.061783,229.828649
3090.543705,-11325.150913,-814.226536,459.657299
3090.544043,-11325.150913,-592.164754,459.657299
3090.544380,-9326.594869,296.082377,612.876398
3090.544718,-8660.409521,444.123565,766.095498
3090.545055,-9252.574275,-814.226536,2068.457845
3090.545393,-10066.800811,-888.247130,2757.943793
3090.545730,-10732.986159,370.102971,689.485948
3090.546068,-8882.471304,1628.453072,-459.657299
3090.546405,-8660.409521,0.000000,459.657299
3090.546742,-9992.780217,-1036.288319,1378.971896
3090.547080,-7994.224174,370.102971,1608.800546
3090.547417,-7994.224174,2368.659014,2068.457845
3090.547755,-8512.368333,2960.823768,1762.019645
3090.548092,-11843.295072,888.247130,2068.457845
3090.548430,-13175.665768,1110.308913,1685.410096
3090.548767,-11325.150913,1184.329507,1072.533697
3090.549104,-9252.574275,2590.720797,1838.629195
3090.549442,-8734.430116,814.226536,1762.019645
3090.549779,-10881.027347,-1406.391290,536.266849
3090.550117,-9252.574275,-518.144159,-2528.115143
3090.550454,-8586.388927,0.000000,-2911.162892
3090.550791,-9992.780217,-370.102971,-1072.533697
3090.551129,-11473.192101,-1258.350101,-2451.505594
3090.551466,-10584.944971,-1480.411884,-2987.772442
3090.551804,-9548.656652,-962.267725,-2374.896044
3090.552141,-7846.182985,-2072.576638,0.000000
3090.552479,-10732.986159,-3775.050304,3064.381992
3090.552816,-13101.645173,-3849.070898,2145.067394
3090.553153,-11325.150913,-2738.761985,76.609550
3090.553491,-9104.533087,-1850.514855,-919.314598
3090.553828,-8438.347739,-3627.009116,1149.143247
3090.554166,-10807.006753,-2960.823768,2451.505594
3090.554503,-11029.068536,-1406.391290,-2068.457845
3090.554840,-9400.615463,0.000000,-2145.067394
3090.555178,-8512.368333,-444.123565,0.000000
3090.555515,-10510.924376,-444.123565,2757.943793
3090.555853,-10436.903782,1850.514855,919.314598
3090.556190,-10140.821405,3256.906145,-919.314598
3090.556528,-10140.821405,2146.597232,-612.876398
3090.556865,-11325.150913,0.000000,383.047749
3090.557202,-10881.027347,370.102971,766.095498
3090.557540,-8734.430116,1036.288319,306.438199
3090.557877,-8068.244768,1776.494261,919.314598
3090.558215,-10214.842000,666.185348,2298.286494
3090.558552,-12287.418637,962.267725,766.095498
3090.558890,-10807.006753,1406.391290,-1991.848295
3090.559227,-8882.471304,666.185348,-1608.800546
3090.559564,-8586.388927,0.000000,-536.266849
3090.559902,-9474.636058,-1332.370696,1149.143247
3090.560239,-9548.656652,-296.082377,919.314598
3090.560577,-7179.997637,-444.123565,-536.266849
3090.560914,-8290.306550,-444.123565,1991.848295
3090.561251,-11843.295072,-1258.350101,4213.525239
3090.561589,-12879.583391,-148.041188,2374.896044
3090.561926,-11695.253884,1480.411884,536.266849
3090.562264,-9252.574275,888.247130,-76.609550
3090.562601,-9252.574275,-1036.288319,2145.067394
3090.562939,-9400.615463,-1628.453072,2757.943793
3090.563276,-10214.842000,592.164754,842.705048
3090.563613,-10362.883188,1406.391290,-1225.752797
3090.563951,-11103.089130,814.226536,-842.705048
3090.564288,-12139.377449,-1184.329507,76.609550
3090.564626,-11843.295072,-666.185348,-383.047749
3090.564963,-8586.388927,-444.123565,-1608.800546
3090.565300,-7846.182985,-1628.453072,-919.314598
3090.565638,-10362.883188,-2294.638420,1455.581446
3090.565975,-11029.068536,-2442.679609,-306.438199
3090.566313,-10140.821405,-2072.576638,-1378.971896
3090.566650,-8364.327145,-1184.329507,383.047749
3090.566988,-9918.759623,0.000000,689.485948
3090.567325,-10658.965565,0.000000,-766.095498
3090.567662,-10510.924376,-592.164754,-1455.581446
3090.568000,-9252.574275,74.020594,-383.047749
3090.568337,-10362.883188,-740.205942,1838.629195
3090.568675,-11621.233289,0.000000,3064.381992
3090.569012,-9918.759623,518.144159,1072.533697
3090.569349,-8956.491898,814.226536,1149.143247
3090.569687,-8808.450710,1184.329507,2221.676944
3090.570024,-10732.986159,592.164754,2604.724693
3090.570362,-11621.233289,2812.782580,383.047749
3090.570699,-10288.862594,2960.823768,-3140.991542
3090.571037,-11547.212695,1702.473667,-1302.362347
3090.571374,-9992.780217,1924.535449,-766.095498
3090.571711,-8808.450710,1702.473667,-1225.752797
3090.572049,-8956.491898,1332.370696,-1915.238745
3090.572386,-8290.306550,444.123565,-1302.362347
3090.572724,-11325.150913,-814.226536,-153.219100
3090.573061,-11103.089130,-1628.453072,76.609550
3090.573399,-9548.656652,-1332.370696,459.657299
3090.573736,-8882.471304,-370.102971,229.828649
3090.574073,-9770.718434,-1110.308913,229.828649
3090.574411,-9992.780217,-1554.432478,383.047749
3090.574748,-11325.150913,-1850.514855,459.657299
3090.575086,-11251.130318,-592.164754,459.657299
3090.575423,-8438.347739,0.000000,1072.533697
3090.575760,-10066.800811,-888.247130,2604.724693
3090.576098,-11177.109724,-1036.288319,1991.848295
3090.576435,-11325.150913,-1036.288319,383.047749
3090.576773,-10732.986159,0.000000,306.438199
3090.577110,-9400.615463,-1850.514855,1455.581446
3090.577448,-9844.739029,-1776.494261,2221.676944
3090.577785,-10140.821405,-296.082377,1149.143247
3090.578122,-7994.224174,222.061783,0.000000
3090.578460,-9326.594869,148.041188,0.000000
3090.578797,-11695.253884,-1110.308913,306.438199
3090.579135,-12139.377449,0.000000,-842.705048
3090.579472,-10140.821405,296.082377,-2145.067394
3090.579809,-8808.450710,-148.041188,-229.828649
3090.580147,-9030.512492,-1184.329507,612.876398
3090.580484,-10288.862594,-1332.370696,229.828649
3090.580822,-10732.986159,-666.185348,-153.219100
3090.581159,-8956.491898,-1110.308913,-1378.971896
3090.581497,-9104.533087,-962.267725,612.876398
3090.581834,-10288.862594,-74.020594,1302.362347
3090.582171,-9696.697840,0.000000,459.657299
3090.582509,-9104.533087,666.185348,1225.752797
3090.582846,-8956.491898,1036.288319,2221.676944
3090.583184,-10584.944971,1406.391290,2451.505594
3090.583521,-11843.295072,1184.329507,1915.238745
3090.583859,-11103.089130,1628.453072,-306.438199
3090.584196,-10066.800811,592.164754,-766.095498
3090.584533,-9770.718434,296.082377,-306.438199
3090.584871,-8364.327145,-518.144159,0.000000
3090.585208,-8438.347739,-444.123565,-1149.143247
3090.585546,-8956.491898,-370.102971,-1455.581446
3090.585883,-10584.944971,0.000000,-766.095498
3090.586220,-10658.965565,592.164754,-689.485948
3090.586558,-10658.965565,222.061783,-1149.143247
3090.586895,-10658.965565,814.226536,-1378.971896
3090.587233,-10362.883188,-1406.391290,-689.485948
3090.587570,-10510.924376,-2368.659014,-229.828649
3090.587908,-10214.842000,-2516.700203,-612.876398
3090.588245,-10288.862594,-2220.617826,-459.657299
3090.588582,-8660.409521,-2072.576638,-459.657299
3090.588920,-8512.368333,-2516.700203,0.000000
3090.589257,-9326.594869,-2146.597232,1915.238745
3090.589595,-10732.986159,-592.164754,1991.848295
3090.589932,-12139.377449,-1258.350101,2681.334243
3090.590269,-12361.439231,444.123565,3140.991542
3090.590607,-11029.068536,592.164754,2451.505594
3090.590944,-10658.965565,444.123565,2451.505594
3090.591282,-8956.491898,296.082377,2145.067394
3090.591619,-9326.594869,296.082377,1991.848295
3090.591957,-10732.986159,0.000000,919.314598
3090.592294,-9696.697840,-148.041188,-689.485948
3090.592631,-9326.594869,1480.411884,-383.047749
3090.592969,-9104.533087,1554.432478,459.657299
3090.593306,-10362.883188,2146.597232,76.609550
3090.593644,-10436.903782,2738.761985,-842.705048
3090.593981,-9474.636058,1480.411884,-1072.533697
3090.594318,-10288.862594,444.123565,1149.143247
3090.594656,-10807.006753,0.000000,1149.143247
3090.594993,-9400.615463,592.164754,0.000000
3090.595331,-9696.697840,-1850.514855,-459.657299
3090.595668,-8364.327145,-1998.556043,612.876398
3090.596006,-7994.224174,-518.144159,459.657299
3090.596343,-9178.553681,-518.144159,-1072.533697
3090.596680,-9326.594869,-296.082377,-1072.533697
3090.597018,-9548.656652,148.041188,-919.314598
3090.597355,-10732.986159,1184.329507,612.876398
3090.597693,-11251.130318,518.144159,0.000000
3090.598030,-10288.862594,0.000000,-612.876398
3090.598368,-10955.047942,-740.205942,-76.609550
3090.598705,-10214.842000,-1702.473667,612.876398
3090.599042,-9474.636058,-444.123565,0.000000
3090.599380,-9252.574275,-666.185348,-689.485948
3090.599717,-10732.986159,-962.267725,-1455.581446
3090.600055,-11843.295072,-1258.350101,-1915.238745
3090.600392,-10510.924376,-666.185348,-1685.410096
3090.600729,-9474.636058,-666.185348,-995.924147
3090.601067,-9696.697840,-1184.329507,-383.047749
3090.601404,-10732.986159,-1628.453072,76.609550
3090.601742,-11177.109724,-1258.350101,76.609550
3090.602079,-11251.130318,-1924.535449,689.485948
3090.602417,-9992.780217,-2590.720797,842.705048
3090.602754,-9696.697840,-2738.761985,2145.067394
3090.603091,-10362.883188,-1924.535449,2528.115143
3090.603429,-8586.388927,-1110.308913,2221.676944
3090.603766,-9474.636058,296.082377,2987.772442
3090.604104,-9918.759623,518.144159,2068.457845
3090.604441,-11695.253884,1406.391290,2528.115143
3090.604778,-11251.130318,2072.576638,1685.410096
3090.605116,-9400.615463,1924.535449,689.485948
3090.605453,-10066.800811,518.144159,1838.629195
3090.605791,-8956.491898,0.000000,1225.752797
3090.606128,-7846.182985,0.000000,1072.533697
3090.606466,-8734.430116,1110.308913,1838.629195
3090.606803,-10140.821405,1628.453072,766.095498
3090.607140,-10214.842000,1036.288319,-536.266849
3090.607478,-11547.212695,1998.556043,0.000000
3090.607815,-10732.986159,2368.659014,-1838.629195
3090.608153,-10807.006753,1110.308913,-3294.210641
3090.608490,-8586.388927,-1110.308913,-2528.115143
3090.608828,-8586.388927,-2886.803174,-919.314598
3090.609165,-8882.471304,-1998.556043,0.000000
3090.609502,-7846.182985,-2294.638420,76.609550
3090.609840,-9474.636058,-666.185348,459.657299
3090.610177,-12731.542202,-370.102971,-919.314598
3090.610515,-12583.501014,-592.164754,-2145.067394
3090.610852,-10214.842000,0.000000,-1149.143247
3090.611189,-9770.718434,-1554.432478,612.876398
3090.611527,-8882.471304,-1850.514855,1225.752797
3090.611864,-10362.883188,-740.205942,1378.971896
3090.612202,-10658.965565,-740.205942,306.438199
3090.612539,-9326.594869,-1850.514855,-842.705048
3090.612877,-10362.883188,-888.247130,842.705048
3090.613214,-11399.171507,296.082377,919.314598
3090.613551,-9770.718434,1184.329507,-1378.971896
3090.613889,-9622.677246,0.000000,-1685.410096
3090.614226,-9696.697840,-962.267725,-153.219100
3090.614564,-9622.677246,-888.247130,229.828649
3090.614901,-10066.800811,296.082377,76.609550
3090.615238,-9474.636058,1036.288319,-842.705048
3090.615576,-9474.636058,-740.205942,-1225.752797
3090.615913,-10732.986159,-1406.391290,842.705048
3090.616251,-10510.924376,-814.226536,2911.162892
3090.616588,-9992.780217,444.123565,2528.115143
3090.616926,-9548.656652,-296.082377,1302.362347
3090.617263,-10362.883188,-1480.411884,1991.848295
3090.617600,-10214.842000,-962.267725,2681.334243
3090.617938,-8512.368333,0.000000,2145.067394
3090.618275,-9178.553681,666.185348,2068.457845
3090.618613,-7846.182985,1998.556043,229.828649
3090.618950,-11177.109724,296.082377,536.266849
3090.619287,-12065.356855,1110.308913,229.828649
3090.619625,-9104.533087,2146.597232,-842.705048
3090.619962,-9474.636058,592.164754,0.000000
3090.620300,-11029.068536,0.000000,2221.676944
3090.620637,-10658.965565,-592.164754,1838.629195
3090.620975,-10362.883188,-296.082377,995.924147
3090.621312,-10066.800811,-1332.370696,153.219100
3090.621649,-9918.759623,-444.123565,-383.047749
3090.621987,-12065.356855,-1332.370696,-842.705048
3090.622324,-9696.697840,-1480.411884,-2068.457845
3090.622662,-8216.285956,-1702.473667,-2374.896044
3090.622999,-9178.553681,-814.226536,-995.924147
3090.623337,-10658.965565,-1258.350101,-1072.533697
3090.623674,-10955.047942,-1406.391290,-2068.457845
3090.624011,-10584.944971,-740.205942,-1378.971896
3090.624349,-9696.697840,-1776.494261,-919.314598
3090.624686,-11473.192101,-3330.926739,2451.505594
3090.625024,-11103.089130,-1850.514855,2911.162892
3090.625361,-7994.224174,-814.226536,612.876398
3090.625698,-8808.450710,0.000000,2068.457845
3090.626036,-10658.965565,74.020594,2911.162892
3090.626373,-11917.315666,740.205942,1915.238745
3090.626711,-10732.986159,814.226536,-1302.362347
3090.627048,-8512.368333,1406.391290,-1532.190996
3090.627386,-9400.615463,222.061783,-766.095498
3090.627723,-10658.965565,518.144159,-1072.533697
3090.628060,-8364.327145,296.082377,-2681.334243
3090.628398,-7179.997637,1110.308913,-1685.410096
3090.628735,-8290.306550,444.123565,-459.657299
3090.629073,-11103.089130,74.020594,306.438199
3090.629410,-11399.171507,-444.123565,0.000000
3090.629747,-9992.780217,888.247130,0.000000
3090.630085,-9844.739029,444.123565,0.000000
3090.630422,-9918.759623,666.185348,306.438199
3090.630760,-11103.089130,-1480.411884,1991.848295
3090.631097,-10732.986159,-1702.473667,766.095498
3090.631435,-8142.265362,-1332.370696,-919.314598
3090.631772,-9622.677246,-666.185348,1915.238745
3090.632109,-10066.800811,-1184.329507,2451.505594
3090.632447,-10436.903782,-888.247130,1685.410096
3090.632784,-11103.089130,148.041188,1225.752797
3090.633122,-10436.903782,148.041188,1302.362347
3090.633459,-11621.233289,148.041188,2451.505594
3090.633797,-10584.944971,0.000000,766.095498
3090.634134,-9400.615463,-592.164754,383.047749
3090.634471,-8586.388927,0.000000,-459.657299
3090.634809,-10140.821405,-2664.741391,383.047749
3090.635146,-11399.171507,-1628.453072,1225.752797
3090.635484,-9622.677246,-2220.617826,-536.266849
3090.635821,-9030.512492,222.061783,-689.485948
3090.636158,-9474.636058,-592.164754,0.000000
3090.636496,-11029.068536,-814.226536,919.314598
3090.636833,-10214.842000,-1258.350101,-612.876398
3090.637171,-10436.903782,-1332.370696,-1608.800546
3090.637508,-9622.677246,-1258.350101,-1072.533697
3090.637846,-10066.800811,-1776.494261,-459.657299
3090.638183,-9474.636058,-1924.535449,995.924147
3090.638520,-8290.306550,666.185348,1762.019645
3090.638858,-9696.697840,1406.391290,2298.286494
3090.639195,-12805.562797,1258.350101,1149.143247
3090.639533,-13027.624579,74.020594,229.828649
3090.639870,-10955.047942,592.164754,1225.752797
3090.640207,-7994.224174,370.102971,995.924147
3090.640545,-8068.244768,-370.102971,1455.581446
3090.640882,-9104.533087,1036.288319,1532.190996
3090.641220,-10436.903782,1406.391290,-1378.971896
3090.641557,-9326.594869,2590.720797,-2757.943793
3090.641895,-9844.739029,1110.308913,-1991.848295
3090.642232,-10732.986159,518.144159,-1685.410096
3090.642569,-10066.800811,-518.144159,-1225.752797
3090.642907,-9474.636058,592.164754,-766.095498
3090.643244,-8364.327145,148.041188,-229.828649
3090.643582,-11029.068536,-1184.329507,-459.657299
3090.643919,-9622.677246,-2812.782580,-306.438199
3090.644256,-9252.574275,-2664.741391,766.095498
3090.644594,-9844.739029,-814.226536,459.657299
3090.644931,-10732.986159,-1480.411884,-306.438199
3090.645269,-11991.336260,-1924.535449,766.095498
3090.645606,-10436.903782,-2294.638420,-306.438199
3090.645944,-7994.224174,-1406.391290,-229.828649
3090.646281,-8586.388927,-370.102971,1915.238745
3090.646618,-10436.903782,-1554.432478,2451.505594
3090.646956,-11399.171507,-962.267725,1072.533697
3090.647293,-10066.800811,740.205942,-383.047749
3090.647630,-10807.006753,74.020594,1302.362347
3090.647968,-13101.645173,-1850.514855,2604.724693
3090.648305,-10140.821405,-1480.411884,919.314598
3090.648642,-7772.162391,222.061783,1302.362347
3090.648980,-8660.409521,-296.082377,2528.115143
3090.649317,-10436.903782,-592.164754,1532.190996
3090.649654,-12435.459826,-74.020594,-459.657299
3090.649991,-11621.233289,-148.041188,-1915.238745
3090.650329,-6587.832884,-74.020594,-3140.991542
3090.650666,-7476.080014,-1258.350101,-612.876398
3090.651003,-8290.306550,148.041188,-536.266849
3090.651341,-9326.594869,-666.185348,-1608.800546
3090.651678,-11695.253884,-1184.329507,0.000000
3090.652015,-10955.047942,-962.267725,689.485948
3090.652352,-11103.089130,-1406.391290,3370.820191
3090.652690,-11547.212695,-666.185348,4979.620737
3090.653027,-9992.780217,296.082377,2681.334243
3090.653364,-9474.636058,814.226536,995.924147
3090.653702,-9844.739029,-592.164754,995.924147
3090.654039,-9770.718434,-518.144159,919.314598
3090.654376,-10881.027347,814.226536,536.266849
3090.654713,-9400.615463,2738.761985,-1225.752797
3090.655051,-10732.986159,2886.803174,-2451.505594
3090.655388,-12287.418637,2146.597232,-2298.286494
3090.655725,-9696.697840,1702.473667,-2451.505594
3090.656063,-8956.491898,-518.144159,-919.314598
3090.656400,-9178.553681,-296.082377,536.266849
3090.656737,-9326.594869,-2146.597232,0.000000
3090.657074,-10955.047942,-1406.391290,1455.581446
3090.657412,-10807.006753,-888.247130,-919.314598
3090.657749,-9030.512492,-370.102971,-2298.286494
3090.658086,-9474.636058,-1850.514855,-1225.752797
3090.658424,-10807.006753,-962.267725,-1915.238745
3090.658761,-9326.594869,-1332.370696,-2221.676944
3090.659098,-8438.347739,0.000000,-2298.286494
3090.659435,-8660.409521,-1554.432478,-306.438199
3090.659773,-10732.986159,-2738.761985,536.266849
3090.660110,-10288.862594,-1850.514855,1378.971896
3090.660447,-8956.491898,-666.185348,2604.724693
3090.660785,-10214.842000,-296.082377,2987.772442
3090.661122,-10658.965565,222.061783,2068.457845
3090.661459,-11695.253884,74.020594,2604.724693
3090.661797,-11399.171507,592.164754,2374.896044
3090.662134,-9918.759623,1480.411884,1378.971896
3090.662471,-10288.862594,1850.514855,2374.896044
3090.662808,-9474.636058,1850.514855,459.657299
3090.663146,-10436.903782,370.102971,76.609550
3090.663483,-10362.883188,592.164754,-306.438199
3090.663820,-11029.068536,222.061783,689.485948
3090.664158,-10066.800811,444.123565,229.828649
3090.664495,-9326.594869,0.000000,919.314598
3090.664832,-9474.636058,0.000000,689.485948
3090.665169,-9548.656652,962.267725,153.219100
3090.665507,-10066.800811,0.000000,0.000000
3090.665844,-10288.862594,740.205942,-229.828649
3090.666181,-10658.965565,-740.205942,229.828649
3090.666519,-10807.006753,-666.185348,919.314598
3090.666856,-8660.409521,-666.185348,1072.533697
3090.667193,-7846.182985,-740.205942,1685.410096
3090.667530,-9696.697840,-1184.329507,2145.067394
3090.667868,-10362.883188,-962.267725,383.047749
3090.668205,-9918.759623,888.247130,229.828649
3090.668542,-10510.924376,222.061783,76.609550
3090.668880,-9104.533087,518.144159,-459.657299
3090.669217,-10214.842000,592.164754,-842.705048
3090.669554,-10436.903782,0.000000,-306.438199
3090.669891,-9474.636058,370.102971,0.000000
3090.670229,-11547.212695,592.164754,-842.705048
3090.670566,-10732.986159,148.041188,-995.924147
3090.670903,-10732.986159,-1258.350101,-1762.019645
3090.671241,-10288.862594,-1850.514855,-1225.752797
3090.671578,-8512.368333,-2072.576638,-1608.800546
3090.671915,-8438.347739,-1850.514855,76.609550
3090.672252,-10362.883188,-1554.432478,919.314598
3090.672590,-11103.089130,-444.123565,-1532.190996
3090.672927,-10140.821405,-222.061783,-1838.629195
3090.673264,-10807.006753,-666.185348,229.828649
3090.673602,-11843.295072,-1850.514855,1072.533697
3090.673939,-10955.047942,-1554.432478,1455.581446
3090.674276,-8734.430116,-1628.453072,2604.724693
3090.674613,-8512.368333,-1036.288319,1991.848295
3090.674951,-9178.553681,-148.041188,2298.286494
3090.675288,-10510.924376,-370.102971,2757.943793
3090.675625,-10066.800811,0.000000,1225.752797
3090.675963,-9474.636058,740.205942,383.047749
3090.676300,-10732.986159,888.247130,1225.752797
3090.676637,-10732.986159,74.020594,2145.067394
3090.676974,-8808.450710,962.267725,0.000000
3090.677312,-7698.141797,1406.391290,0.000000
3090.677649,-9030.512492,814.226536,383.047749
3090.677986,-10881.027347,-370.102971,76.609550
3090.678324,-12213.398043,-222.061783,-995.924147
3090.678661,-10066.800811,740.205942,-1149.143247
3090.678998,-9474.636058,0.000000,-995.924147
3090.679335,-10140.821405,-1850.514855,0.000000
3090.679673,-9474.636058,-1554.432478,229.828649
3090.680010,-8216.285956,-592.164754,0.000000
3090.680347,-9992.780217,-1702.473667,0.000000
3090.680685,-11399.171507,-1406.391290,-229.828649
3090.681022,-12065.356855,0.000000,536.266849
3090.681359,-9474.636058,666.185348,-459.657299
3090.681696,-8216.285956,592.164754,-689.485948
3090.682034,-11325.150913,-74.020594,766.095498
3090.682371,-11991.336260,-888.247130,1378.971896
3090.682708,-10584.944971,-1258.350101,1302.362347
3090.683046,-9844.739029,-444.123565,919.314598
3090.683383,-8956.491898,-592.164754,1225.752797
3090.683720,-11029.068536,-1258.350101,1838.629195
3090.684058,-10955.047942,-148.041188,1302.362347
3090.684395,-9252.574275,-370.102971,0.000000
3090.684732,-9548.656652,74.020594,-383.047749
3090.685069,-9844.739029,0.000000,-1685.410096
3090.685407,-10288.862594,-222.061783,-1838.629195
3090.685744,-8882.471304,740.205942,-2987.772442
3090.686081,-8660.409521,0.000000,-2145.067394
3090.686419,-10066.800811,-222.061783,-842.705048
3090.686756,-10362.883188,-740.205942,-459.657299
3090.687093,-10732.986159,518.144159,536.266849
3090.687430,-9326.594869,1184.329507,1149.143247
3090.687768,-9326.594869,888.247130,1532.190996
3090.688105,-12435.459826,-592.164754,3907.087040
3090.688442,-12139.377449,0.000000,2451.505594
3090.688780,-9622.677246,1332.370696,1532.190996
3090.689117,-9474.636058,1702.473667,1608.800546
3090.689454,-9030.512492,1554.432478,1302.362347
3090.689791,-11695.253884,740.205942,1685.410096
3090.690129,-9918.759623,1554.432478,-536.266849
3090.690466,-7846.182985,1406.391290,-1608.800546
3090.690803,-10066.800811,888.247130,1072.533697
3090.691141,-10807.006753,518.144159,0.000000
3090.691478,-9474.636058,0.000000,-1762.019645
3090.691815,-8808.450710,0.000000,0.000000
3090.692152,-9400.615463,-814.226536,1225.752797
3090.692490,-10288.862594,74.020594,229.828649
3090.692827,-10214.842000,-74.020594,-1072.533697
3090.693164,-10362.883188,-1702.473667,-1378.971896
3090.693502,-9770.718434,-2664.741391,-842.705048
3090.693839,-10140.821405,-2294.638420,919.314598
3090.694176,-9474.636058,-2294.638420,1225.752797
3090.694513,-8882.471304,-2664.741391,689.485948
3090.694851,-10881.027347,-1776.494261,229.828649
3090.695188,-11843.295072,-1628.453072,0.000000
3090.695525,-11325.150913,-1850.514855,1991.848295
3090.695863,-10807.006753,-666.185348,1915.238745
3090.696200,-9474.636058,296.082377,995.924147
3090.696537,-9696.697840,74.020594,1762.019645
3090.696874,-10436.903782,-740.205942,1149.143247
3090.697212,-9696.697840,-296.082377,1149.143247
3090.697549,-10214.842000,1332.370696,612.876398
3090.697886,-10955.047942,2220.617826,1149.143247
3090.698224,-11991.336260,0.000000,536.266849
3090.698561,-9844.739029,592.164754,-612.876398
3090.698898,-9030.512492,592.164754,-689.485948
3090.699235,-8216.285956,1184.329507,-306.438199
3090.699573,-8808.450710,814.226536,-612.876398
3090.699910,-10214.842000,-814.226536,-2298.286494
3090.700247,-10066.800811,-740.205942,-2681.334243
3090.700585,-7920.203579,518.144159,-766.095498
3090.700922,-8364.327145,74.020594,1685.410096
3090.701259,-10066.800811,888.247130,919.314598
3090.701596,-11621.233289,1406.391290,-995.924147
3090.701934,-11251.130318,1406.391290,-919.314598
3090.702271,-10140.821405,-592.164754,229.828649
3090.702608,-10436.903782,-2442.679609,2451.505594
3090.702946,-9178.553681,-1036.288319,3447.429741
3090.703283,-8290.306550,444.123565,2757.943793
3090.703620,-9400.615463,1406.391290,1685.410096
3090.703957,-11251.130318,1258.350101,-689.485948
3090.704295,-11103.089130,814.226536,-1991.848295
3090.704632,-11103.089130,518.144159,-1378.971896
3090.704969,-10436.903782,740.205942,-459.657299
3090.705307,-9770.718434,0.000000,306.438199
3090.705644,-11177.109724,-444.123565,1762.019645
3090.705981,-9844.739029,-222.061783,0.000000
3090.706319,-9326.594869,-74.020594,-995.924147
3090.706656,-9844.739029,-1258.350101,-766.095498
3090.706993,-11621.233289,-2368.659014,-995.924147
3090.707330,-11621.233289,-2368.659014,-306.438199
3090.707668,-9548.656652,-1924.535449,-689.485948
3090.708005,-9178.553681,-1998.556043,1455.581446
3090.708342,-9326.594869,-2220.617826,1762.019645
3090.708680,-8660.409521,-3034.844362,2451.505594
3090.709017,-9474.636058,-814.226536,1072.533697
3090.709354,-8882.471304,-222.061783,0.000000
3090.709691,-11769.274478,-1184.329507,1225.752797
3090.710029,-13249.686362,-1258.350101,766.095498
3090.710366,-10510.924376,-740.205942,-612.876398
3090.710703,-7476.080014,592.164754,1302.362347
3090.711041,-7550.100608,370.102971,4213.525239
3090.711378,-10881.027347,222.061783,3907.087040
3090.711715,-12731.542202,518.144159,-306.438199
3090.712052,-10807.006753,1036.288319,-1302.362347
3090.712390,-10658.965565,1924.535449,76.609550
3090.712727,-10807.006753,1110.308913,766.095498
3090.713064,-9474.636058,1628.453072,-1149.143247
3090.713402,-9474.636058,1480.411884,-2145.067394
3090.713739,-9548.656652,148.041188,-1915.238745
3090.714076,-9252.574275,-740.205942,-1838.629195
3090.714413,-9844.739029,-740.205942,-612.876398
3090.714751,-10807.006753,-1258.350101,689.485948
3090.715088,-11103.089130,-962.267725,0.000000
3090.715425,-9474.636058,-962.267725,0.000000
3090.715763,-8586.388927,-2442.679609,842.705048
3090.716100,-8290.306550,-2294.638420,1915.238745
3090.716437,-9104.533087,-814.226536,1302.362347
3090.716774,-10658.965565,296.082377,995.924147
3090.717112,-11547.212695,666.185348,229.828649
3090.717449,-11843.295072,518.144159,-689.485948
3090.717786,-10214.842000,74.020594,-1455.581446
3090.718124,-8660.409521,296.082377,-612.876398
3090.718461,-8956.491898,296.082377,1455.581446
3090.718798,-9696.697840,148.041188,2145.067394
3090.719135,-11473.192101,1998.556043,1378.971896
3090.719473,-12435.459826,2072.576638,-306.438199
3090.719810,-12657.521608,0.000000,0.000000
3090.720147,-11473.192101,-962.267725,153.219100
3090.720485,-9474.636058,222.061783,229.828649
3090.720822,-8142.265362,518.144159,0.000000
3090.721159,-7920.203579,0.000000,-536.266849
3090.721496,-10658.965565,-962.267725,-229.828649
3090.721834,-11325.150913,-740.205942,-1455.581446
3090.722171,-11103.089130,-444.123565,-383.047749
3090.722508,-9474.636058,-370.102971,536.266849
3090.722846,-9252.574275,-1110.308913,1608.800546
3090.723183,-9252.574275,-1554.432478,1532.190996
3090.723520,-8068.244768,-444.123565,2145.067394
3090.723857,-8882.471304,-148.041188,2604.724693
3090.724195,-11399.171507,296.082377,2834.553343
3090.724532,-12213.398043,74.020594,919.314598
3090.724869,-10288.862594,-814.226536,-536.266849
3090.725207,-9104.533087,0.000000,689.485948
3090.725544,-8216.285956,222.061783,1378.971896
3090.725881,-8216.285956,0.000000,842.705048
3090.726218,-10955.047942,148.041188,1378.971896
3090.726556,-11695.253884,1406.391290,-689.485948
3090.726893,-11103.089130,592.164754,-2528.115143
3090.727230,-12213.398043,-222.061783,-306.438199
3090.727568,-10807.006753,-370.102971,-1072.533697
3090.727905,-8956.491898,0.000000,-2528.115143
3090.728242,-7920.203579,-1554.432478,0.000000
3090.728580,-10288.862594,-962.267725,0.000000
3090.728917,-11325.150913,-1924.535449,-2145.067394
3090.729254,-12213.398043,-1850.514855,-2145.067394
3090.729591,-10436.903782,-1258.350101,0.000000
3090.729929,-9622.677246,-1258.350101,1608.800546
3090.730266,-9548.656652,-1184.329507,842.705048
3090.730603,-9252.574275,-592.164754,76.609550
3090.730941,-10807.006753,-740.205942,1302.362347
3090.731278,-9770.718434,-1406.391290,536.266849
3090.731615,-9622.677246,-1332.370696,1072.533697
3090.731952,-9622.677246,-962.267725,2604.724693
3090.732290,-9696.697840,222.061783,2451.505594
3090.732627,-9622.677246,0.000000,612.876398
3090.732964,-9474.636058,1036.288319,-383.047749
3090.733302,-9178.553681,1554.432478,766.095498
3090.733639,-10288.862594,888.247130,229.828649
3090.733976,-10362.883188,296.082377,306.438199
3090.734313,-10658.965565,370.102971,1378.971896
3090.734651,-10436.903782,0.000000,1608.800546
3090.734988,-10362.883188,592.164754,-536.266849
3090.735325,-9104.533087,-296.082377,-1149.143247
3090.735663,-8438.347739,0.000000,-459.657299
3090.736000,-9252.574275,74.020594,-306.438199
3090.736337,-11103.089130,-370.102971,-383.047749
3090.736674,-11769.274478,-1998.556043,612.876398
3090.737012,-10658.965565,-1184.329507,459.657299
3090.737349,-10214.842000,148.041188,1455.581446
3090.737686,-9992.780217,-296.082377,1532.190996
3090.738024,-9622.677246,-444.123565,1072.533697
3090.738361,-10510.924376,-592.164754,612.876398
3090.738698,-10584.944971,-1110.308913,612.876398
3090.739035,-9770.718434,-666.185348,919.314598
3090.739373,-9844.739029,-1184.329507,536.266849
3090.739710,-8438.347739,0.000000,-153.219100
3090.740047,-8364.327145,74.020594,-229.828649
3090.740385,-9252.574275,1036.288319,-306.438199
3090.740722,-10288.862594,666.185348,-1378.971896
3090.741059,-12435.459826,222.061783,-1608.800546
3090.741396,-11325.150913,-370.102971,-1225.752797
3090.741734,-10066.800811,-814.226536,-995.924147
3090.742071,-8956.491898,-1110.308913,76.609550
3090.742408,-8364.327145,-1110.308913,-153.219100
3090.742746,-9178.553681,-1480.411884,-383.047749
3090.743083,-10881.027347,-2146.597232,0.000000
3090.743420,-12065.356855,0.000000,-383.047749
3090.743757,-11621.233289,0.000000,-689.485948
3090.744095,-11251.130318,-444.123565,-919.314598
3090.744432,-9548.656652,-962.267725,0.000000
3090.744769,-9696.697840,-888.247130,1762.019645
3090.745107,-9400.615463,-296.082377,2451.505594
3090.745444,-9622.677246,1036.288319,2451.505594
3090.745781,-11399.171507,814.226536,2528.115143
3090.746118,-12065.356855,1480.411884,1455.581446
3090.746456,-10584.944971,1184.329507,0.000000
3090.746793,-8882.471304,74.020594,919.314598
3090.747130,-8290.306550,0.000000,1455.581446
3090.747468,-9622.677246,-222.061783,919.314598
3090.747805,-10066.800811,0.000000,536.266849
3090.748142,-8660.409521,-518.144159,1072.533697
3090.748480,-8734.430116,888.247130,2068.457845
3090.748817,-11843.295072,1924.535449,2068.457845
3090.749154,-11917.315666,1924.535449,-1072.533697
3090.749492,-9918.759623,-740.205942,-3294.210641
3090.749829,-10807.006753,-1998.556043,-1608.800546
3090.750167,-8364.327145,-1998.556043,0.000000
3090.750504,-7476.080014,-1628.453072,1685.410096
3090.750842,-9030.512492,-1258.350101,1378.971896
3090.751179,-10066.800811,-2368.659014,-766.095498
3090.751516,-11917.315666,-1924.535449,612.876398
3090.751854,-12731.542202,-740.205942,1072.533697
3090.752191,-9918.759623,222.061783,1149.143247
3090.752529,-9030.512492,-296.082377,689.485948
3090.752866,-9474.636058,444.123565,1762.019645
3090.753204,-11103.089130,148.041188,842.705048
3090.753541,-11103.089130,222.061783,0.000000
3090.753878,-10288.862594,74.020594,-383.047749
3090.754216,-10658.965565,-370.102971,-1762.019645
3090.754553,-9622.677246,-814.226536,-1762.019645
3090.754891,-8290.306550,-1702.473667,-1838.629195
3090.755228,-7550.100608,148.041188,-459.657299
3090.755566,-8438.347739,-740.205942,0.000000
3090.755903,-11325.150913,0.000000,153.219100
3090.756240,-11473.192101,74.020594,-383.047749
3090.756578,-11177.109724,148.041188,-842.705048
3090.756915,-10140.821405,-814.226536,76.609550
3090.757253,-11399.171507,-2738.761985,1378.971896
3090.757590,-10510.924376,-962.267725,306.438199
3090.757928,-7328.038826,-222.061783,-2145.067394
3090.758265,-8216.285956,-962.267725,0.000000
3090.758602,-9474.636058,-1110.308913,842.705048
3090.758940,-11843.295072,-74.020594,689.485948
3090.759277,-10658.965565,2220.617826,229.828649
3090.759615,-10362.883188,2368.659014,-766.095498
3090.759952,-10732.986159,1332.370696,1532.190996
3090.760290,-10732.986159,1258.350101,1915.238745
3090.760627,-10732.986159,0.000000,2451.505594
3090.760964,-9548.656652,222.061783,2528.115143
3090.761302,-8290.306550,-1184.329507,1532.190996
3090.761639,-9992.780217,-592.164754,2145.067394
3090.761977,-11399.171507,-222.061783,1455.581446
3090.762314,-8068.244768,1332.370696,-1378.971896
3090.762652,-8216.285956,962.267725,-2145.067394
3090.762989,-9918.759623,-1184.329507,-1302.362347
3090.763327,-10955.047942,0.000000,-306.438199
3090.763664,-9844.739029,-814.226536,-1608.800546
3090.764001,-9548.656652,-1480.411884,-1149.143247
3090.764339,-9104.533087,-1850.514855,459.657299
3090.764676,-12361.439231,-2072.576638,2451.505594
3090.765014,-10436.903782,-2220.617826,0.000000
3090.765351,-9178.553681,-2516.700203,612.876398
3090.765689,-10066.800811,-1850.514855,2145.067394
3090.766026,-10658.965565,-2146.597232,1991.848295
3090.766363,-11991.336260,-592.164754,1838.629195
3090.766701,-10214.842000,518.144159,0.000000
3090.767038,-9548.656652,740.205942,-229.828649
3090.767376,-10066.800811,592.164754,842.705048
3090.767713,-11029.068536,740.205942,1838.629195
3090.768051,-11177.109724,0.000000,2145.067394
3090.768388,-9918.759623,1702.473667,-1302.362347
3090.768725,-8882.471304,666.185348,-766.095498
3090.769063,-11029.068536,370.102971,995.924147
3090.769400,-10066.800811,-1184.329507,-1072.533697
3090.769738,-7772.162391,-592.164754,-995.924147
3090.770075,-9178.553681,222.061783,-919.314598
3090.770413,-9252.574275,370.102971,-995.924147
3090.770750,-10066.800811,444.123565,-1838.629195
3090.771087,-9400.615463,814.226536,-1915.238745
3090.771425,-7994.224174,-814.226536,-1762.019645
3090.771762,-11103.089130,-962.267725,306.438199
3090.772100,-11251.130318,148.041188,1149.143247
3090.772437,-10584.944971,-740.205942,76.609550
3090.772775,-9400.615463,-1036.288319,-229.828649
3090.773112,-8068.244768,-2294.638420,306.438199
3090.773449,-9770.718434,-740.205942,2681.334243
3090.773787,-10732.986159,-592.164754,1302.362347
3090.774124,-10658.965565,0.000000,-229.828649
3090.774462,-10881.027347,1184.329507,536.266849
3090.774799,-12287.418637,-222.061783,919.314598
3090.775137,-11103.089130,2368.659014,1532.190996
3090.775474,-9474.636058,2442.679609,0.000000
3090.775811,-10214.842000,740.205942,-766.095498
3090.776149,-11325.150913,-1036.288319,-229.828649
3090.776486,-10658.965565,-1998.556043,383.047749
3090.776824,-9548.656652,-1406.391290,0.000000
3090.777161,-7772.162391,-1184.329507,-383.047749
3090.777499,-10436.903782,-148.041188,153.219100
3090.777836,-11843.295072,-1850.514855,-1072.533697
3090.778173,-9252.574275,-2516.700203,-1225.752797
3090.778511,-7402.059420,-1702.473667,229.828649
3090.778848,-9918.759623,-2812.782580,3217.601092
3090.779186,-9770.718434,-2812.782580,2451.505594
3090.779523,-9326.594869,-1332.370696,1225.752797
3090.779861,-8660.409521,-592.164754,2528.115143
3090.780198,-9474.636058,74.020594,2221.676944
3090.780535,-11399.171507,518.144159,2374.896044
3090.780873,-12731.542202,-370.102971,1991.848295
3090.781210,-10436.903782,1110.308913,0.000000
3090.781548,-7772.162391,1998.556043,842.705048
3090.781885,-9548.656652,1850.514855,2298.286494
3090.782223,-10362.883188,518.144159,1378.971896
3090.782560,-10732.986159,444.123565,-1378.971896
3090.782897,-10288.862594,2590.720797,-1762.019645
3090.783235,-9400.615463,1480.411884,-383.047749
3090.783572,-11473.192101,296.082377,536.266849
3090.783910,-10140.821405,518.144159,-2221.676944
3090.784247,-9474.636058,814.226536,-1915.238745
3090.784585,-9548.656652,814.226536,-766.095498
3090.784922,-9696.697840,-962.267725,-919.314598
3090.785259,-10288.862594,-888.247130,-2374.896044
3090.785597,-8956.491898,-2368.659014,-2604.724693
3090.785934,-7772.162391,-1554.432478,-2374.896044
3090.786272,-9178.553681,-1406.391290,-919.314598
3090.786609,-10584.944971,-2516.700203,0.000000
3090.786947,-10436.903782,-1850.514855,-383.047749
3090.787284,-9696.697840,-2072.576638,0.000000
3090.787621,-10658.965565,-1480.411884,1915.238745
3090.787959,-10658.965565,-1924.535449,2374.896044
3090.788296,-10066.800811,-1924.535449,1685.410096
3090.788634,-9548.656652,-888.247130,2068.457845
3090.788971,-9474.636058,814.226536,76.609550
3090.789309,-12361.439231,0.000000,1455.581446
3090.789646,-12879.583391,-296.082377,0.000000
3090.789983,-10584.944971,0.000000,-1225.752797
3090.790321,-8364.327145,666.185348,-1302.362347
3090.790658,-8808.450710,0.000000,612.876398
3090.790996,-11621.233289,-370.102971,1991.848295
3090.791333,-11769.274478,444.123565,-1532.190996
3090.791671,-10362.883188,-370.102971,-2681.334243
3090.792008,-9844.739029,-1110.308913,306.438199
3090.792345,-9770.718434,-1850.514855,3600.648841
3090.792683,-9178.553681,-962.267725,2757.943793
3090.793020,-8808.450710,370.102971,1762.019645
3090.793358,-10214.842000,814.226536,1685.410096
3090.793695,-12435.459826,370.102971,689.485948
3090.794033,-11695.253884,222.061783,459.657299
3090.794370,-9548.656652,-666.185348,1838.629195
3090.794707,-6587.832884,-296.082377,1532.190996
3090.795045,-7772.162391,222.061783,1762.019645
3090.795382,-9474.636058,0.000000,1532.190996
3090.795720,-9918.759623,296.082377,1302.362347
3090.796057,-10510.924376,444.123565,0.000000
3090.796395,-10288.862594,1258.350101,842.705048
3090.796732,-9548.656652,888.247130,1991.848295
3090.797069,-10732.986159,2146.597232,1378.971896
3090.797407,-8512.368333,1258.350101,-1455.581446
3090.797744,-9770.718434,0.000000,-1608.800546
3090.798082,-12065.356855,-888.247130,-229.828649
3090.798419,-11251.130318,-962.267725,-1072.533697
3090.798757,-9400.615463,370.102971,-1991.848295
3090.799094,-8956.491898,148.041188,-1302.362347
3090.799431,-11029.068536,-1036.288319,-919.314598
3090.799769,-11029.068536,-1776.494261,-3447.429741
3090.800106,-9548.656652,-1480.411884,-2145.067394
3090.800444,-9474.636058,-666.185348,-229.828649
3090.800781,-10807.006753,-1110.308913,-612.876398
3090.801119,-11621.233289,-888.247130,0.000000
3090.801456,-11325.150913,-1702.473667,229.828649
3090.801793,-9992.780217,-1480.411884,1302.362347
3090.802131,-9030.512492,-1258.350101,2451.505594
3090.802468,-9178.553681,-814.226536,3677.258390
3090.802806,-9474.636058,-444.123565,3064.381992
3090.803143,-9104.533087,666.185348,689.485948
3090.803481,-11029.068536,3034.844362,689.485948
3090.803818,-11547.212695,1924.535449,-459.657299
3090.804155,-10955.047942,-148.041188,-766.095498
3090.804493,-8290.306550,1554.432478,-229.828649
3090.804830,-6587.832884,2368.659014,-1072.533697
3090.805168,-9252.574275,1628.453072,383.047749
3090.805505,-11251.130318,-296.082377,612.876398
3090.805843,-10362.883188,1184.329507,-536.266849
3090.806180,-11029.068536,592.164754,1225.752797
3090.806517,-10807.006753,592.164754,3217.601092
3090.806855,-9178.553681,1258.350101,2834.553343
3090.807192,-9992.780217,444.123565,2681.334243
3090.807530,-10214.842000,962.267725,1685.410096
3090.807867,-9474.636058,1480.411884,1608.800546
3090.808205,-11399.171507,1332.370696,2681.334243
3090.808542,-11029.068536,370.102971,76.609550
3090.808879,-11991.336260,-740.205942,1225.752797
3090.809217,-7698.141797,-1036.288319,2451.505594
3090.809554,-5847.626942,-740.205942,3677.258390
3090.809892,-9030.512492,444.123565,4290.134789
3090.810229,-10510.924376,1258.350101,1991.848295
3090.810567,-10140.821405,1702.473667,1608.800546
3090.810904,-12361.439231,962.267725,2298.286494
3090.811241,-11769.274478,2664.741391,1991.848295
3090.811579,-9474.636058,1850.514855,1072.533697
3090.811916,-10140.821405,296.082377,919.314598
3090.812254,-9844.739029,296.082377,383.047749
3090.812591,-9252.574275,444.123565,-383.047749
3090.812929,-9178.553681,-518.144159,383.047749
3090.813266,-10807.006753,-740.205942,536.266849
3090.813603,-10066.800811,1036.288319,-766.095498
3090.813941,-9770.718434,518.144159,0.000000
3090.814278,-10140.821405,814.226536,2987.772442
3090.814616,-10066.800811,1628.453072,3064.381992
3090.814953,-11843.295072,2072.576638,3217.601092
3090.815291,-12139.377449,1776.494261,5056.230287
3090.815628,-12065.356855,888.247130,4136.915689
3090.815965,-11103.089130,2664.741391,3753.867940
3090.816303,-9474.636058,1110.308913,3140.991542
3090.816640,-9326.594869,148.041188,3064.381992
3090.816978,-6809.894666,2294.638420,3600.648841
3090.817315,-7698.141797,2812.782580,2987.772442
3090.817653,-10288.862594,5181.441594,1302.362347
3090.817990,-10436.903782,4959.379811,-1072.533697
3090.818327,-10955.047942,4663.297435,-612.876398
3090.818665,-10732.986159,3627.009116,1302.362347
3090.819002,-10362.883188,2738.761985,3294.210641
3090.819340,-8216.285956,3404.947333,3294.210641
3090.819677,-8438.347739,1628.453072,3983.696590
3090.820015,-11177.109724,222.061783,3677.258390
3090.820352,-10955.047942,0.000000,2068.457845
3090.820689,-9252.574275,592.164754,2757.943793
3090.821027,-10436.903782,2072.576638,3370.820191
3090.821364,-9844.739029,1776.494261,1608.800546
3090.821702,-10584.944971,2738.761985,306.438199
3090.822039,-10362.883188,1998.556043,229.828649
3090.822377,-9474.636058,1776.494261,2374.896044
3090.822714,-11473.192101,1184.329507,4136.915689
3090.823051,-10955.047942,1406.391290,3447.429741
3090.823389,-11547.212695,1480.411884,4979.620737
3090.823726,-11917.315666,740.205942,4366.744339
3090.824064,-10362.883188,74.020594,4060.306139
3090.824401,-9622.677246,592.164754,4749.792088
3090.824739,-9326.594869,1998.556043,4903.011187
3090.825076,-9474.636058,2812.782580,2298.286494
3090.825413,-11325.150913,2442.679609,1915.238745
3090.825751,-11547.212695,2072.576638,459.657299
3090.826088,-10436.903782,1406.391290,612.876398
3090.826426,-8808.450710,1924.535449,1302.362347
3090.826763,-8586.388927,1702.473667,995.924147
3090.827101,-9918.759623,1776.494261,1378.971896
3090.827438,-9844.739029,1258.350101,-842.705048
3090.827775,-8808.450710,888.247130,689.485948
3090.828113,-9030.512492,0.000000,2987.772442
3090.828450,-8660.409521,1776.494261,3907.087040
3090.828788,-10658.965565,2886.803174,3983.696590
3090.829125,-12509.480420,2738.761985,2528.115143
3090.829463,-10881.027347,1998.556043,1532.190996
3090.829800,-10955.047942,1924.535449,2911.162892
3090.830137,-9178.553681,2294.638420,4519.963438
3090.830475,-8290.306550,2886.803174,4136.915689
3090.830812,-10140.821405,2812.782580,3064.381992
3090.831150,-9992.780217,3997.112087,459.657299
3090.831487,-9992.780217,2516.700203,1225.752797
3090.831825,-9992.780217,2960.823768,2145.067394
3090.832162,-9770.718434,3182.885551,1762.019645
3090.832499,-10658.965565,2886.803174,2145.067394
3090.832837,-10214.842000,3404.947333,2374.896044
3090.833174,-9548.656652,2146.597232,1302.362347
3090.833512,-11029.068536,2072.576638,1455.581446
3090.833849,-10510.924376,518.144159,1072.533697
3090.834187,-9622.677246,-592.164754,1225.752797
3090.834524,-9474.636058,-1110.308913,1608.800546
3090.834861,-9400.615463,-814.226536,2298.286494
3090.835199,-9178.553681,148.041188,2068.457845
3090.835536,-9474.636058,444.123565,1302.362347
3090.835874,-9770.718434,1480.411884,689.485948
3090.836211,-11177.109724,1110.308913,1532.190996
3090.836549,-11843.295072,1184.329507,2987.772442
3090.836886,-10881.027347,0.000000,2757.943793
3090.837223,-10658.965565,148.041188,4749.792088
3090.837561,-10066.800811,888.247130,5362.668486
3090.837898,-10510.924376,1406.391290,4673.182538
3090.838236,-9474.636058,1998.556043,4290.134789
3090.838573,-9326.594869,2590.720797,4060.306139
3090.838911,-11251.130318,2590.720797,3753.867940
3090.839248,-11621.233289,4071.132681,2298.286494
3090.839585,-11325.150913,4219.173869,1225.752797
3090.839923,-9918.759623,3849.070898,2068.457845
3090.840260,-9400.615463,3478.967927,2221.676944
3090.840598,-9770.718434,4145.153275,2221.676944
3090.840935,-9252.574275,3182.885551,1302.362347
3090.841273,-9770.718434,2368.659014,919.314598
3090.841610,-10140.821405,962.267725,1455.581446
3090.841947,-9844.739029,-296.082377,2374.896044
3090.842285,-8364.327145,1184.329507,3370.820191
3090.842622,-7698.141797,444.123565,3600.648841
3090.842960,-8068.244768,2664.741391,4136.915689
3090.843297,-10288.862594,2812.782580,3140.991542
3090.843635,-10584.944971,4589.276840,2374.896044
3090.843972,-11843.295072,3775.050304,1762.019645
3090.844309,-12213.398043,2590.720797,1608.800546
3090.844647,-11917.315666,2294.638420,1455.581446
3090.844984,-10066.800811,888.247130,1838.629195
3090.845322,-8216.285956,518.144159,2374.896044
3090.845659,-7624.121203,-592.164754,2987.772442
3090.845997,-8808.450710,444.123565,3294.210641
3090.846334,-10436.903782,2368.659014,3217.601092
3090.846671,-11029.068536,4293.194464,1532.190996
3090.847009,-11769.274478,4589.276840,919.314598
3090.847346,-12879.583391,2664.741391,612.876398
3090.847683,-12435.459826,1776.494261,459.657299
3090.848021,-9622.677246,-296.082377,842.705048
3090.848358,-8808.450710,-888.247130,2298.286494
3090.848695,-8512.368333,-1924.535449,1991.848295
3090.849033,-8956.491898,-1924.535449,1302.362347
3090.849370,-9474.636058,-444.123565,229.828649
3090.849708,-8734.430116,-222.061783,1149.143247
3090.850045,-9770.718434,2368.659014,3830.477490
3090.850382,-9474.636058,3775.050304,3064.381992
3090.850720,-11325.150913,2738.761985,3140.991542
3090.851057,-12509.480420,2886.803174,2757.943793
3090.851394,-12139.377449,1628.453072,3524.039291
3090.851732,-11399.171507,2886.803174,3983.696590
3090.852069,-9400.615463,2294.638420,4213.525239
3090.852406,-9474.636058,1850.514855,4749.792088
3090.852744,-8512.368333,1480.411884,2681.334243
3090.853081,-7624.121203,1998.556043,3140.991542
3090.853418,-8660.409521,3997.112087,2834.553343
3090.853756,-8956.491898,4959.379811,2068.457845
3090.854093,-10955.047942,5921.647536,1915.238745
3090.854431,-12509.480420,5995.668130,1915.238745
3090.854768,-12583.501014,5403.503377,0.000000
3090.855105,-12139.377449,3330.926739,-383.047749
3090.855443,-10288.862594,-148.041188,1455.581446
3090.855780,-8290.306550,-2220.617826,1991.848295
3090.856117,-7254.018232,-2664.741391,3064.381992
3090.856455,-6661.853478,-1480.411884,3217.601092
3090.856792,-8290.306550,-740.205942,2221.676944
3090.857129,-10732.986159,1924.535449,1378.971896
3090.857467,-11103.089130,2368.659014,766.095498
3090.857804,-10732.986159,3478.967927,1532.190996
3090.858142,-11547.212695,2220.617826,4060.306139
3090.858479,-12879.583391,2368.659014,3294.210641
3090.858816,-11473.192101,1406.391290,3064.381992
3090.859154,-10140.821405,-888.247130,2834.553343
3090.859491,-9178.553681,-2146.597232,4213.525239
3090.859828,-8882.471304,-1406.391290,4673.182538
3090.860166,-8660.409521,518.144159,4366.744339
3090.860503,-8882.471304,2886.803174,1608.800546
3090.860840,-10510.924376,3256.906145,689.485948
3090.861178,-11769.274478,4219.173869,0.000000
3090.861515,-11473.192101,3404.947333,383.047749
3090.861852,-10881.027347,4663.297435,2068.457845
3090.862190,-10658.965565,3775.050304,1685.410096
3090.862527,-12065.356855,962.267725,995.924147
3090.862865,-10955.047942,-740.205942,689.485948
3090.863202,-7920.203579,-1184.329507,2221.676944
3090.863539,-7105.977043,592.164754,4290.134789
3090.863877,-8290.306550,1406.391290,4290.134789
3090.864214,-10288.862594,2960.823768,2374.896044
3090.864551,-10584.944971,3256.906145,153.219100
3090.864889,-11103.089130,3775.050304,995.924147
3090.865226,-10658.965565,4959.379811,2987.772442
3090.865563,-10288.862594,4737.318029,4290.134789
3090.865901,-10140.821405,4959.379811,3983.696590
3090.866238,-11029.068536,3256.906145,3217.601092
3090.866576,-10881.027347,2368.659014,3524.039291
3090.866913,-9030.512492,1480.411884,3753.867940
3090.867250,-7846.182985,1480.411884,3524.039291
3090.867588,-8290.306550,1776.494261,2451.505594
3090.867925,-9252.574275,1924.535449,1225.752797
3090.868262,-9992.780217,3404.947333,1838.629195
3090.868600,-9030.512492,4441.235652,766.095498
3090.868937,-9918.759623,4811.338623,1302.362347
3090.869274,-11621.233289,3404.947333,766.095498
3090.869612,-11843.295072,2220.617826,1072.533697
3090.869949,-11621.233289,-370.102971,3064.381992
3090.870286,-10066.800811,-1924.535449,2911.162892
3090.870624,-8660.409521,-1998.556043,3907.087040
3090.870961,-9474.636058,-2072.576638,3370.820191
3090.871299,-9326.594869,-888.247130,2374.896044
3090.871636,-9918.759623,74.020594,1149.143247
3090.871973,-10658.965565,1110.308913,1915.238745
3090.872311,-11399.171507,3034.844362,1608.800546
3090.872648,-11843.295072,2812.782580,2145.067394
3090.872985,-11547.212695,2886.803174,2374.896044
3090.873323,-11029.068536,2146.597232,2757.943793
3090.873660,-10881.027347,1184.329507,4366.744339
3090.873997,-9918.759623,888.247130,3983.696590
3090.874335,-9030.512492,148.041188,2987.772442
3090.874672,-9474.636058,1628.453072,1915.238745
3090.875010,-9770.718434,1776.494261,612.876398
3090.875347,-9548.656652,2146.597232,-383.047749
3090.875684,-9252.574275,2220.617826,-1149.143247
3090.876022,-8586.388927,3034.844362,-766.095498
3090.876359,-9030.512492,2590.720797,-612.876398
3090.876696,-9992.780217,2664.741391,0.000000
3090.877034,-9696.697840,1702.473667,536.266849
3090.877371,-9178.553681,74.020594,1072.533697
3090.877708,-9252.574275,888.247130,2757.943793
3090.878046,-8808.450710,0.000000,3907.087040
3090.878383,-10140.821405,74.020594,3600.648841
3090.878720,-9844.739029,0.000000,3064.381992
3090.879058,-10658.965565,1776.494261,3370.820191
3090.879395,-10436.903782,2072.576638,2911.162892
3090.879733,-11251.130318,2812.782580,2145.067394
3090.880070,-11399.171507,2886.803174,2451.505594
3090.880407,-10510.924376,2442.679609,1532.190996
3090.880745,-10436.903782,1332.370696,2757.943793
3090.881082,-10288.862594,1110.308913,3600.648841
3090.881419,-8956.491898,814.226536,3907.087040
3090.881757,-9844.739029,1554.432478,4826.401637
3090.882094,-10140.821405,1628.453072,3907.087040
3090.882431,-10732.986159,2368.659014,4060.306139
3090.882769,-11843.295072,2220.617826,3217.601092
3090.883106,-10807.006753,1924.535449,1915.238745
3090.883444,-10362.883188,1332.370696,1685.410096
3090.883781,-9770.718434,148.041188,2451.505594
3090.884118,-8290.306550,74.020594,2757.943793
3090.884456,-8290.306550,74.020594,4060.306139
3090.884793,-8808.450710,2072.576638,4443.353888
3090.885130,-9770.718434,3330.926739,3064.381992
3090.885468,-11473.192101,3552.988522,3294.210641
3090.885805,-11029.068536,2960.823768,2298.286494
3090.886142,-10732.986159,2294.638420,2911.162892
3090.886480,-9844.739029,3256.906145,4749.792088
3090.886817,-9770.718434,3997.112087,4903.011187
3090.887154,-10214.842000,4663.297435,4290.134789
3090.887492,-9770.718434,4293.194464,2987.772442
3090.887829,-10214.842000,4737.318029,3294.210641
3090.888167,-10658.965565,3997.112087,3370.820191
3090.888504,-9474.636058,6661.853478,3140.991542
3090.888841,-10140.821405,6365.771101,1378.971896
3090.889179,-11029.068536,5403.503377,-689.485948
3090.889516,-10066.800811,3997.112087,-1685.410096
3090.889853,-9918.759623,1110.308913,229.828649
3090.890191,-8216.285956,2072.576638,612.876398
3090.890528,-7624.121203,2590.720797,0.000000
3090.890865,-9104.533087,2072.576638,-229.828649
3090.891203,-9844.739029,740.205942,-383.047749
3090.891540,-10436.903782,74.020594,1072.533697
3090.891878,-9252.574275,1776.494261,2374.896044
3090.892215,-8808.450710,2072.576638,2757.943793
3090.892552,-10732.986159,666.185348,2757.943793
3090.892890,-12731.542202,0.000000,2221.676944
3090.893227,-11399.171507,-296.082377,1532.190996
3090.893564,-9622.677246,-592.164754,2757.943793
3090.893902,-9474.636058,-222.061783,3677.258390
3090.894239,-10658.965565,740.205942,2451.505594
3090.894576,-9770.718434,1184.329507,229.828649
3090.894914,-10436.903782,814.226536,842.705048
3090.895251,-11029.068536,1184.329507,2451.505594
3090.895588,-10510.924376,1924.535449,3140.991542
3090.895926,-9770.718434,2664.741391,2911.162892
3090.896263,-10658.965565,2368.659014,4290.134789
3090.896601,-11695.253884,1924.535449,3907.087040
3090.896938,-11547.212695,592.164754,3677.258390
3090.897275,-10807.006753,666.185348,3830.477490
3090.897613,-9178.553681,222.061783,2911.162892
3090.897950,-9252.574275,-814.226536,3064.381992
3090.898287,-9474.636058,740.205942,2911.162892
3090.898625,-9104.533087,296.082377,2068.457845
3090.898962,-8364.327145,814.226536,1149.143247
3090.899299,-8364.327145,740.205942,1149.143247
3090.899637,-9104.533087,1480.411884,2604.724693
3090.899974,-8956.491898,1628.453072,3753.867940
3090.900312,-9252.574275,2960.823768,4979.620737
3090.900649,-10584.944971,3478.967927,5056.230287
3090.900986,-11769.274478,3108.864956,4596.572988
3090.901324,-10436.903782,2886.803174,4366.744339
3090.901661,-9992.780217,2442.679609,6128.763984
3090.901998,-11029.068536,3256.906145,5515.887586
3090.902336,-10732.986159,3182.885551,2757.943793
3090.902673,-11251.130318,2294.638420,229.828649
3090.903010,-9844.739029,1332.370696,-1225.752797
3090.903348,-8364.327145,1628.453072,-1225.752797
3090.903685,-8290.306550,2072.576638,76.609550
3090.904022,-7402.059420,2590.720797,229.828649
3090.904360,-9844.739029,1998.556043,229.828649
3090.904697,-11547.212695,1998.556043,-995.924147
3090.905035,-11547.212695,2368.659014,689.485948
3090.905372,-12065.356855,888.247130,1455.581446
3090.905709,-10881.027347,148.041188,1685.410096
3090.906047,-10288.862594,-1702.473667,2604.724693
3090.906384,-10362.883188,-2072.576638,3294.210641
3090.906721,-8882.471304,-2368.659014,3140.991542
3090.907059,-8364.327145,-296.082377,1838.629195
3090.907396,-9400.615463,1554.432478,2298.286494
3090.907733,-10362.883188,1776.494261,1225.752797
3090.908071,-11843.295072,3478.967927,1838.629195
3090.908408,-10658.965565,4145.153275,306.438199
3090.908746,-10288.862594,3108.864956,1608.800546
3090.909083,-9548.656652,2368.659014,2757.943793
3090.909420,-10955.047942,888.247130,3983.696590
3090.909758,-10584.944971,1702.473667,4826.401637
3090.910095,-8512.368333,2146.597232,3907.087040
3090.910432,-9548.656652,3034.844362,4903.011187
3090.910770,-10288.862594,4441.235652,3907.087040
3090.911107,-11103.089130,4367.215058,1838.629195
3090.911444,-10732.986159,4441.235652,689.485948
3090.911782,-10214.842000,3923.091493,766.095498
3090.912119,-11325.150913,3552.988522,1762.019645
3090.912456,-10140.821405,2590.720797,1762.019645
3090.912794,-8142.265362,2072.576638,1915.238745
3090.913131,-8438.347739,1776.494261,3447.429741
3090.913469,-9326.594869,2146.597232,3064.381992
3090.913806,-9252.574275,1924.535449,2528.115143
3090.914143,-9326.594869,1776.494261,4366.744339
3090.914481,-11399.171507,2590.720797,4673.182538
3090.914818,-10881.027347,3182.885551,3907.087040
3090.915155,-10955.047942,2812.782580,4290.134789
3090.915493,-10436.903782,2146.597232,5975.544884
3090.915830,-9770.718434,2368.659014,3447.429741
3090.916167,-9474.636058,1850.514855,2834.553343
3090.916505,-9696.697840,666.185348,2757.943793
3090.916842,-9918.759623,518.144159,1532.190996
3090.917180,-10510.924376,1406.391290,1149.143247
3090.917517,-8956.491898,1332.370696,1302.362347
3090.917854,-8734.430116,1924.535449,1838.629195
3090.918192,-9918.759623,1702.473667,0.000000
3090.918529,-9844.739029,2294.638420,-1302.362347
3090.918866,-11029.068536,518.144159,-536.266849
3090.919204,-11325.150913,-1110.308913,995.924147
3090.919541,-11029.068536,0.000000,1225.752797
3090.919878,-11473.192101,296.082377,2374.896044
3090.920216,-10066.800811,-666.185348,1838.629195
3090.920553,-9474.636058,-888.247130,1532.190996
3090.920890,-8438.347739,-74.020594,1762.019645
3090.921228,-8660.409521,-666.185348,3140.991542
3090.921565,-10214.842000,-666.185348,4826.401637
3090.921903,-10881.027347,2442.679609,4136.915689
3090.922240,-12509.480420,3923.091493,2374.896044
3090.922577,-11399.171507,3256.906145,1838.629195
3090.922915,-10732.986159,1850.514855,2757.943793
3090.923252,-10436.903782,1776.494261,3600.648841
3090.923589,-8734.430116,1850.514855,3370.820191
3090.923927,-8586.388927,2442.679609,3753.867940
3090.924264,-9622.677246,1998.556043,2451.505594
3090.924601,-10807.006753,2590.720797,1838.629195
3090.924939,-10140.821405,2516.700203,1455.581446
3090.925276,-8956.491898,2294.638420,1072.533697
3090.925614,-8142.265362,2886.803174,612.876398
3090.925951,-9400.615463,3997.112087,306.438199
3090.926288,-11103.089130,2886.803174,-919.314598
3090.926626,-10881.027347,1924.535449,-229.828649
3090.926963,-10288.862594,-296.082377,306.438199
3090.927300,-10732.986159,-888.247130,3524.039291
3090.927638,-8660.409521,-592.164754,3600.648841
3090.927975,-8364.327145,-222.061783,3677.258390
3090.928312,-10066.800811,-888.247130,3524.039291
3090.928650,-9400.615463,1036.288319,2757.943793
3090.928987,-10658.965565,2368.659014,3907.087040
3090.929324,-11547.212695,3701.029710,3294.210641
3090.929662,-11621.233289,3552.988522,842.705048
3090.929999,-11769.274478,1776.494261,842.705048
3090.930337,-10140.821405,444.123565,1915.238745
3090.930674,-8290.306550,518.144159,3524.039291
3090.931011,-9178.553681,1258.350101,4596.572988
3090.931349,-8290.306550,2294.638420,2145.067394
3090.931686,-10510.924376,1480.411884,1915.238745
3090.932023,-11029.068536,1776.494261,2681.334243
3090.932361,-10955.047942,1184.329507,3524.039291
3090.932698,-11325.150913,2590.720797,3370.820191
3090.933035,-9326.594869,2590.720797,1915.238745
3090.933373,-10362.883188,2072.576638,2068.457845
3090.933710,-10955.047942,2368.659014,1149.143247
3090.934048,-9474.636058,0.000000,2834.553343
3090.934385,-10807.006753,740.205942,3677.258390
3090.934722,-8068.244768,1850.514855,1532.190996
3090.935060,-9104.533087,1776.494261,1225.752797
3090.935397,-10288.862594,370.102971,2298.286494
3090.935734,-10214.842000,666.185348,2987.772442
3090.936072,-8734.430116,3627.009116,1455.581446
3090.936409,-9326.594869,4293.194464,3370.820191
3090.936746,-11473.192101,3923.091493,3830.477490
3090.937084,-12213.398043,2516.700203,2298.286494
3090.937421,-10584.944971,1776.494261,2528.115143
3090.937758,-9104.533087,2738.761985,2681.334243
3090.938096,-9474.636058,2368.659014,3140.991542
3090.938433,-10658.965565,2368.659014,459.657299
3090.938771,-10881.027347,148.041188,-995.924147
3090.939108,-8882.471304,-444.123565,-689.485948
3090.939445,-8956.491898,296.082377,-995.924147
3090.939783,-8586.388927,962.267725,-1225.752797
3090.940120,-9548.656652,1110.308913,-2298.286494
3090.940457,-10140.821405,370.102971,-2757.943793
3090.940795,-10436.903782,-592.164754,-2374.896044
3090.941132,-11399.171507,-1258.350101,-459.657299
3090.941469,-10066.800811,-2368.659014,229.828649
3090.941807,-9400.615463,-1998.556043,1072.533697
3090.942144,-9474.636058,-2368.659014,1072.533697
3090.942482,-10584.944971,-2294.638420,1991.848295
3090.942819,-11177.109724,-2072.576638,1762.019645
3090.943156,-10436.903782,0.000000,689.485948
3090.943494,-11103.089130,1702.473667,76.609550
3090.943831,-11843.295072,814.226536,306.438199
3090.944168,-11769.274478,-740.205942,1149.143247
3090.944506,-9918.759623,148.041188,229.828649
3090.944843,-9030.512492,1110.308913,1072.533697
3090.945180,-9770.718434,1628.453072,1838.629195
3090.945518,-11621.233289,666.185348,1302.362347
3090.945855,-10955.047942,148.041188,459.657299
3090.946192,-10214.842000,814.226536,459.657299
3090.946530,-9030.512492,1258.350101,1072.533697
3090.946867,-10140.821405,518.144159,612.876398
3090.947205,-9474.636058,0.000000,-689.485948
3090.947541,-8364.327145,-1406.391290,-1302.362347
3090.947878,-7994.224174,-2072.576638,0.000000
3090.948215,-8068.244768,-1554.432478,1149.143247
3090.948553,-9474.636058,-592.164754,1915.238745
3090.948890,-10658.965565,-814.226536,459.657299
3090.949227,-8364.327145,-148.041188,-306.438199
3090.949565,-9030.512492,0.000000,1762.019645
3090.949902,-11177.109724,-1924.535449,3217.601092
3090.950239,-10658.965565,0.000000,1762.019645
3090.950576,-9696.697840,222.061783,766.095498
3090.950914,-10140.821405,-1110.308913,1608.800546
3090.951251,-10881.027347,-1480.411884,1915.238745
3090.951588,-11251.130318,-1406.391290,1455.581446
3090.951926,-11621.233289,740.205942,-842.705048
3090.952263,-10510.924376,296.082377,-2145.067394
3090.952600,-9770.718434,370.102971,-1685.410096
3090.952938,-9474.636058,-666.185348,-1455.581446
3090.953275,-9622.677246,-444.123565,-842.705048
3090.953612,-11399.171507,-518.144159,-1608.800546
3090.953949,-10881.027347,-1332.370696,-1762.019645
3090.954287,-10732.986159,-1110.308913,-1225.752797
3090.954624,-9030.512492,-1110.308913,-306.438199
3090.954961,-9400.615463,-1036.288319,-766.095498
3090.955299,-10140.821405,-2516.700203,0.000000
3090.955636,-12583.501014,-2886.803174,229.828649
3090.955973,-9770.718434,-2146.597232,229.828649
3090.956310,-9326.594869,-1332.370696,536.266849
3090.956648,-8882.471304,-666.185348,536.266849
3090.956985,-9030.512492,-74.020594,229.828649
3090.957322,-9770.718434,1406.391290,1378.971896
3090.957660,-11103.089130,1110.308913,919.314598
3090.957997,-11103.089130,1628.453072,919.314598
3090.958334,-10807.006753,2368.659014,689.485948
3090.958672,-11103.089130,2442.679609,1838.629195
3090.959009,-9770.718434,2442.679609,1378.971896
3090.959346,-9178.553681,2590.720797,229.828649
3090.959683,-9252.574275,1480.411884,1838.629195
3090.960021,-10807.006753,0.000000,1685.410096
3090.960358,-10066.800811,1480.411884,229.828649
3090.960695,-9474.636058,2516.700203,-459.657299
3090.961033,-9252.574275,2812.782580,-1149.143247
3090.961370,-9992.780217,1702.473667,-1762.019645
3090.961707,-9178.553681,666.185348,-2145.067394
3090.962044,-8068.244768,370.102971,-1302.362347
3090.962382,-8586.388927,0.000000,153.219100
3090.962719,-10140.821405,74.020594,-229.828649
3090.963056,-10955.047942,-1110.308913,229.828649
3090.963394,-11029.068536,-2368.659014,2068.457845
3090.963731,-9400.615463,-1924.535449,2528.115143
3090.964068,-9252.574275,-1776.494261,2834.553343
3090.964406,-11103.089130,-962.267725,3140.991542
3090.964743,-10807.006753,-1258.350101,1915.238745
3090.965080,-10881.027347,-1036.288319,383.047749
3090.965417,-9400.615463,-296.082377,76.609550
3090.965755,-9992.780217,-222.061783,0.000000
3090.966092,-10732.986159,-1258.350101,0.000000
3090.966429,-10658.965565,-74.020594,-306.438199
3090.966767,-9252.574275,-296.082377,-689.485948
3090.967104,-11473.192101,-296.082377,1149.143247
3090.967441,-12139.377449,-962.267725,0.000000
3090.967779,-10732.986159,-814.226536,-1608.800546
3090.968116,-10732.986159,-1776.494261,-383.047749
3090.968453,-10362.883188,-3182.885551,-766.095498
3090.968790,-9178.553681,-3404.947333,689.485948
3090.969128,-8438.347739,-962.267725,306.438199
3090.969465,-9400.615463,962.267725,0.000000
3090.969802,-10584.944971,370.102971,-1378.971896
3090.970140,-11103.089130,-1184.329507,-1455.581446
3090.970477,-11325.150913,-1998.556043,689.485948
3090.970814,-9548.656652,-888.247130,689.485948
3090.971151,-7402.059420,1184.329507,919.314598
3090.971489,-8808.450710,-592.164754,1149.143247
3090.971826,-10214.842000,-1036.288319,1915.238745
3090.972163,-9770.718434,148.041188,1072.533697
3090.972501,-9400.615463,666.185348,229.828649
3090.972838,-9474.636058,370.102971,229.828649
3090.973175,-11473.192101,296.082377,612.876398
3090.973513,-11473.192101,1036.288319,-842.705048
3090.973850,-8808.450710,518.144159,-612.876398
3090.974187,-8290.306550,666.185348,-459.657299
3090.974524,-9400.615463,962.267725,306.438199
3090.974862,-12139.377449,1036.288319,-1532.190996
3090.975199,-11621.233289,592.164754,-2068.457845
3090.975536,-10288.862594,-1554.432478,-2451.505594
3090.975874,-10362.883188,-2442.679609,-229.828649
3090.976211,-9474.636058,-1110.308913,536.266849
3090.976548,-8438.347739,-370.102971,1532.190996
3090.976885,-9918.759623,-814.226536,459.657299
3090.977223,-11399.171507,-814.226536,-995.924147
3090.977560,-11769.274478,-1628.453072,0.000000
3090.977897,-11325.150913,-1850.514855,1378.971896
3090.978235,-9400.615463,-1702.473667,2451.505594
3090.978572,-8216.285956,-1332.370696,2681.334243
3090.978909,-9104.533087,-1628.453072,3140.991542
3090.979247,-9770.718434,-740.205942,2681.334243
3090.979584,-9104.533087,-740.205942,612.876398
3090.979921,-9696.697840,-1406.391290,612.876398
3090.980258,-10732.986159,-2146.597232,2068.457845
3090.980596,-9400.615463,296.082377,1685.410096
3090.980933,-9992.780217,2072.576638,229.828649
3090.981270,-9178.553681,1554.432478,-1608.800546
3090.981608,-9474.636058,814.226536,-1072.533697
3090.981945,-11029.068536,962.267725,0.000000
3090.982282,-10955.047942,962.267725,-153.219100
3090.982620,-10658.965565,666.185348,-612.876398
3090.982957,-10214.842000,1036.288319,306.438199
3090.983294,-11029.068536,-518.144159,1225.752797
3090.983631,-11177.109724,1036.288319,0.000000
3090.983969,-8512.368333,2146.597232,-306.438199
3090.984306,-8660.409521,1110.308913,0.000000
3090.984643,-11843.295072,-296.082377,-76.609550
3090.984981,-12287.418637,370.102971,229.828649
3090.985318,-10584.944971,1850.514855,76.609550
3090.985655,-8512.368333,1702.473667,-919.314598
3090.985992,-8956.491898,814.226536,306.438199
3090.986330,-10658.965565,1110.308913,1302.362347
3090.986667,-8956.491898,-74.020594,-612.876398
3090.987004,-8734.430116,0.000000,0.000000
3090.987342,-8882.471304,-592.164754,459.657299
3090.987679,-11325.150913,-370.102971,1378.971896
3090.988016,-11251.130318,148.041188,-1378.971896
3090.988354,-8142.265362,740.205942,-2145.067394
3090.988691,-7772.162391,-962.267725,-1532.190996
3090.989028,-9548.656652,-2590.720797,-842.705048
3090.989365,-9548.656652,-1480.411884,0.000000
3090.989703,-10140.821405,74.020594,-919.314598
3090.990040,-11325.150913,-1480.411884,-1302.362347
3090.990377,-11695.253884,-2442.679609,-2221.676944
3090.990715,-11621.233289,-3923.091493,612.876398
3090.991052,-9844.739029,-3552.988522,2451.505594
3090.991389,-6587.832884,-1258.350101,2068.457845
3090.991726,-8660.409521,296.082377,3753.867940
3090.992064,-13619.789333,-74.020594,3907.087040
3090.992401,-15544.324782,-222.061783,2068.457845
3090.992738,-13841.851115,2294.638420,229.828649
3090.993076,-9548.656652,1110.308913,612.876398
3090.993413,-9030.512492,0.000000,2145.067394
3090.993750,-8660.409521,-296.082377,1378.971896
3090.994088,-7772.162391,962.267725,0.000000
3090.994425,-8290.306550,-444.123565,0.000000
3090.994762,-11473.192101,-1184.329507,842.705048
3090.995099,-11473.192101,518.144159,306.438199
3090.995437,-9178.553681,1406.391290,229.828649
3090.995774,-7254.018232,1258.350101,76.609550
3090.996111,-8364.327145,-592.164754,153.219100
3090.996449,-9178.553681,-296.082377,-383.047749
3090.996786,-9992.780217,-1850.514855,-1225.752797
3090.997123,-10436.903782,-1332.370696,612.876398
3090.997461,-8882.471304,-592.164754,0.000000
3090.997798,-9696.697840,-1480.411884,-1762.019645
3090.998135,-11103.089130,-2368.659014,-919.314598
3090.998472,-7994.224174,-962.267725,-2451.505594
3090.998810,-6883.915261,-1258.350101,-1532.190996
3090.999147,-10066.800811,-1258.350101,76.609550
3090.999484,-12139.377449,-1258.350101,0.000000
3090.999822,-13471.748144,148.041188,995.924147
3091.000159,-11325.150913,518.144159,-919.314598
3091.000496,-10066.800811,0.000000,229.828649
3091.000833,-10288.862594,0.000000,1762.019645
3091.001171,-11103.089130,-296.082377,612.876398
3091.001508,-10881.027347,-370.102971,-919.314598
3091.001845,-9918.759623,-296.082377,-1225.752797
3091.002183,-10066.800811,-370.102971,-1378.971896
3091.002520,-10955.047942,-2072.576638,-842.705048
3091.002857,-9252.574275,-666.185348,-1532.190996
3091.003195,-7254.018232,-518.144159,-995.924147
3091.003532,-9622.677246,-740.205942,612.876398
3091.003869,-10066.800811,-1258.350101,229.828649
3091.004206,-9992.780217,-1184.329507,229.828649
3091.004544,-10436.903782,-962.267725,536.266849
3091.004881,-10214.842000,-1924.535449,1378.971896
3091.005218,-9474.636058,-1480.411884,2145.067394
3091.005556,-8364.327145,-2664.741391,3524.039291
3091.005893,-8660.409521,148.041188,4290.134789
3091.006230,-10510.924376,2072.576638,2451.505594
3091.006567,-12361.439231,1924.535449,459.657299
3091.006905,-12139.377449,592.164754,153.219100
3091.007242,-9104.533087,1110.308913,1378.971896
3091.007579,-8438.347739,2886.803174,2298.286494
3091.007917,-9548.656652,2664.741391,2757.943793
3091.008254,-12213.398043,3034.844362,689.485948
3091.008591,-12731.542202,2072.576638,-2068.457845
3091.008929,-11177.109724,1406.391290,-1225.752797
3091.009266,-8438.347739,370.102971,1455.581446
3091.009603,-9326.594869,370.102971,1838.629195
3091.009940,-9400.615463,-1332.370696,-536.266849
3091.010278,-8142.265362,-592.164754,-2145.067394
3091.010615,-9548.656652,-1628.453072,153.219100
3091.010952,-10510.924376,-2294.638420,-153.219100
3091.011290,-9474.636058,-2072.576638,0.000000
3091.011627,-9400.615463,-222.061783,-612.876398
3091.011964,-9474.636058,-444.123565,-1762.019645
3091.012302,-9474.636058,-370.102971,-2757.943793
3091.012639,-9400.615463,-1184.329507,-2145.067394
3091.012976,-10658.965565,-3478.967927,-383.047749
3091.013313,-9770.718434,-2368.659014,0.000000
3091.013651,-9918.759623,-962.267725,2068.457845
3091.013988,-11695.253884,-962.267725,2374.896044
3091.014325,-10288.862594,-1258.350101,1072.533697
3091.014663,-9474.636058,296.082377,612.876398
3091.015000,-11325.150913,1406.391290,612.876398
3091.015337,-10955.047942,296.082377,842.705048
3091.015674,-11251.130318,444.123565,-383.047749
3091.016012,-10066.800811,1184.329507,-1072.533697
3091.016349,-9992.780217,444.123565,-1072.533697
3091.016686,-10436.903782,-74.020594,-1302.362347
3091.017024,-9918.759623,-592.164754,-919.314598
3091.017361,-9326.594869,-1110.308913,-459.657299
3091.017698,-9178.553681,-814.226536,-383.047749
3091.018036,-8808.450710,-888.247130,229.828649
3091.018373,-9178.553681,-740.205942,153.219100
3091.018710,-10362.883188,-1184.329507,1378.971896
3091.019047,-10955.047942,0.000000,1455.581446
3091.019385,-8586.388927,222.061783,76.609550
3091.019722,-9844.739029,-666.185348,1149.143247
3091.020059,-9918.759623,-1184.329507,1608.800546
3091.020397,-10436.903782,296.082377,1532.190996
3091.020734,-10288.862594,0.000000,766.095498
3091.021071,-8438.347739,-888.247130,766.095498
3091.021408,-10584.944971,-2368.659014,3064.381992
3091.021746,-9030.512492,0.000000,1225.752797
3091.022083,-7550.100608,0.000000,1838.629195
3091.022420,-10362.883188,962.267725,3064.381992
3091.022758,-11399.171507,1554.432478,0.000000
3091.023095,-12509.480420,740.205942,-1302.362347
3091.023432,-10510.924376,888.247130,-383.047749
3091.023770,-9252.574275,-518.144159,612.876398
3091.024107,-10510.924376,-814.226536,-612.876398
3091.024444,-9622.677246,-962.267725,-1225.752797
3091.024781,-9548.656652,-1998.556043,0.000000
3091.025119,-10807.006753,-1850.514855,-919.314598
3091.025456,-9770.718434,-962.267725,-1149.143247
3091.025793,-10732.986159,-2146.597232,-536.266849
3091.026131,-10362.883188,-2516.700203,-229.828649
3091.026468,-9622.677246,-2738.761985,0.000000
3091.026805,-9252.574275,-592.164754,612.876398
3091.027143,-8660.409521,-148.041188,1685.410096
3091.027480,-10066.800811,-888.247130,1225.752797
3091.027817,-11769.274478,0.000000,919.314598
3091.028154,-11251.130318,0.000000,842.705048
3091.028492,-10066.800811,-296.082377,2298.286494
3091.028829,-8142.265362,666.185348,1838.629195
3091.029166,-9992.780217,814.226536,0.000000
3091.029504,-12435.459826,148.041188,612.876398
3091.029841,-10584.944971,592.164754,-1378.971896
3091.030178,-7846.182985,1480.411884,-1762.019645
3091.030515,-7698.141797,1036.288319,-766.095498
3091.030853,-9844.739029,1258.350101,-689.485948
3091.031190,-10658.965565,2294.638420,-1149.143247
3091.031527,-11177.109724,962.267725,-1378.971896
3091.031865,-9918.759623,1332.370696,-76.609550
3091.032202,-10881.027347,740.205942,536.266849
3091.032539,-10807.006753,296.082377,919.314598
3091.032877,-9918.759623,-444.123565,0.000000
3091.033214,-10140.821405,-1776.494261,1072.533697
3091.033551,-10436.903782,-1406.391290,1225.752797
3091.033888,-8142.265362,-666.185348,0.000000
3091.034226,-7846.182985,444.123565,-919.314598
3091.034563,-8068.244768,-74.020594,-1608.800546
3091.034900,-10807.006753,0.000000,459.657299
3091.035238,-11843.295072,1184.329507,1455.581446
3091.035575,-9918.759623,444.123565,229.828649
3091.035912,-9474.636058,518.144159,1532.190996
3091.036249,-11103.089130,-1258.350101,2221.676944
3091.036587,-11325.150913,-1110.308913,2911.162892
3091.036924,-9474.636058,-1258.350101,1838.629195
3091.037261,-8438.347739,-962.267725,1991.848295
3091.037599,-9474.636058,-1702.473667,1149.143247
3091.037936,-9992.780217,-1332.370696,76.609550
3091.038273,-10140.821405,-370.102971,306.438199
3091.038611,-11621.233289,814.226536,0.000000
3091.038948,-10658.965565,1110.308913,-1991.848295
3091.039285,-11843.295072,-222.061783,-1685.410096
3091.039622,-10955.047942,-148.041188,-2451.505594
3091.039960,-9104.533087,-148.041188,-2068.457845
3091.040297,-9178.553681,-1258.350101,-1302.362347
3091.040634,-9178.553681,-2516.700203,-76.609550
3091.040972,-10881.027347,-3552.988522,1685.410096
3091.041309,-10658.965565,-3108.864956,2221.676944
3091.041646,-9474.636058,-1850.514855,3064.381992
3091.041984,-8808.450710,666.185348,3370.820191
3091.042321,-9992.780217,1480.411884,2451.505594
3091.042658,-11251.130318,1406.391290,1225.752797
3091.042995,-11843.295072,1554.432478,842.705048
3091.043333,-10658.965565,1258.350101,-459.657299
3091.043670,-9770.718434,518.144159,-1378.971896
3091.044007,-8882.471304,518.144159,-1455.581446
3091.044345,-8438.347739,-148.041188,-1838.629195
3091.044682,-6291.750507,-1036.288319,-1532.190996
3091.045019,-8216.285956,-444.123565,-612.876398
3091.045356,-11695.253884,666.185348,919.314598
3091.045694,-11843.295072,1332.370696,-2068.457845
3091.046031,-10436.903782,1332.370696,-2374.896044
3091.046368,-9992.780217,148.041188,-1225.752797
3091.046706,-10510.924376,-222.061783,689.485948
3091.047043,-11251.130318,-1258.350101,689.485948
3091.047380,-9474.636058,-1702.473667,0.000000
3091.047718,-9400.615463,-1036.288319,-229.828649
3091.048055,-10732.986159,-2812.782580,0.000000
3091.048392,-10807.006753,-1036.288319,536.266849
3091.048729,-9326.594869,-666.185348,536.266849
3091.049067,-9548.656652,-518.144159,766.095498
3091.049404,-10436.903782,222.061783,842.705048
3091.049741,-11325.150913,-740.205942,3064.381992
3091.050079,-11399.171507,-444.123565,4519.963438
3091.050416,-9548.656652,-148.041188,2834.553343
3091.050753,-10658.965565,1036.288319,3140.991542
3091.051091,-11621.233289,-148.041188,2681.334243
3091.051428,-10510.924376,-1184.329507,229.828649
3091.051765,-9326.594869,-592.164754,-766.095498
3091.052103,-8142.265362,-1554.432478,-612.876398
3091.052440,-9474.636058,-1776.494261,76.609550
3091.052777,-9474.636058,-888.247130,-536.266849
3091.053115,-7920.203579,962.267725,-1455.581446
3091.053452,-7994.224174,1332.370696,-1302.362347
3091.053789,-11991.336260,74.020594,919.314598
3091.054127,-12361.439231,444.123565,2145.067394
3091.054464,-11547.212695,148.041188,1149.143247
3091.054801,-9326.594869,1258.350101,383.047749
3091.055139,-8660.409521,0.000000,76.609550
3091.055476,-11399.171507,-1702.473667,2528.115143
3091.055813,-11695.253884,-814.226536,1225.752797
3091.056151,-9326.594869,592.164754,-459.657299
3091.056488,-7846.182985,2738.761985,-1072.533697
3091.056825,-10214.842000,1036.288319,-842.705048
3091.057163,-11695.253884,1406.391290,0.000000
3091.057500,-9548.656652,1998.556043,-1838.629195
3091.057837,-8364.327145,2812.782580,-383.047749
3091.058175,-11843.295072,296.082377,1149.143247
3091.058512,-13175.665768,-148.041188,76.609550
3091.058849,-10881.027347,-74.020594,-842.705048
3091.059186,-6735.874072,-518.144159,-689.485948
3091.059524,-7105.977043,-592.164754,76.609550
3091.059861,-10658.965565,-1628.453072,76.609550
3091.060198,-11399.171507,-1850.514855,-1762.019645
3091.060536,-9252.574275,-888.247130,-3677.258390
3091.060873,-8734.430116,-518.144159,-995.924147
3091.061210,-10214.842000,-814.226536,459.657299
3091.061548,-11547.212695,-1776.494261,1685.410096
3091.061885,-10214.842000,-148.041188,689.485948
3091.062222,-9104.533087,-888.247130,153.219100
3091.062560,-10955.047942,-2442.679609,3064.381992
3091.062897,-12213.398043,-3330.926739,3370.820191
3091.063234,-10436.903782,-1702.473667,3140.991542
3091.063572,-8290.306550,592.164754,3140.991542
3091.063909,-9918.759623,740.205942,4060.306139
3091.064246,-11621.233289,1036.288319,2757.943793
3091.064584,-12139.377449,1184.329507,1149.143247
3091.064921,-10288.862594,3108.864956,1455.581446
3091.065258,-10362.883188,2146.597232,995.924147
3091.065596,-11695.253884,962.267725,229.828649
3091.065933,-9326.594869,222.061783,-1378.971896
3091.066270,-7031.956449,-666.185348,-1532.190996
3091.066608,-7031.956449,0.000000,-919.314598
3091.066945,-8660.409521,-962.267725,-689.485948
3091.067282,-10140.821405,0.000000,-76.609550
3091.067620,-10214.842000,-296.082377,0.000000
3091.067957,-10955.047942,1554.432478,-229.828649
3091.068294,-12361.439231,592.164754,76.609550
3091.068632,-11843.295072,-2738.761985,766.095498
3091.068969,-9400.615463,-2442.679609,689.485948
3091.069306,-5181.441594,-962.267725,-1762.019645
3091.069643,-7994.224174,-1332.370696,689.485948
3091.069981,-11917.315666,-2516.700203,0.000000
3091.070318,-12213.398043,-1776.494261,-2681.334243
3091.070655,-10140.821405,888.247130,-1915.238745
3091.070993,-9030.512492,1480.411884,-842.705048
3091.071330,-8956.491898,370.102971,153.219100
3091.071667,-10658.965565,0.000000,-536.266849
3091.072005,-10584.944971,-666.185348,0.000000
3091.072342,-11547.212695,222.061783,1225.752797
3091.072679,-11695.253884,-740.205942,1302.362347
3091.073017,-10436.903782,-1184.329507,-383.047749
3091.073354,-11103.089130,-1628.453072,-306.438199
3091.073691,-8808.450710,-740.205942,-1532.190996
3091.074029,-6735.874072,-592.164754,-1838.629195
3091.074366,-9178.553681,-592.164754,-919.314598
3091.074703,-10658.965565,-1036.288319,-2068.457845
3091.075041,-9918.759623,148.041188,-3140.991542
3091.075378,-9178.553681,1332.370696,-995.924147
3091.075715,-9030.512492,0.000000,1149.143247
3091.076053,-10436.903782,-1110.308913,2221.676944
3091.076390,-9474.636058,-1258.350101,2451.505594
3091.076727,-9992.780217,-592.164754,5515.887586
3091.077065,-11399.171507,518.144159,6358.592633
3091.077402,-11103.089130,740.205942,4213.525239
3091.077739,-11399.171507,740.205942,1455.581446
3091.078077,-9770.718434,296.082377,536.266849
3091.078414,-7846.182985,1480.411884,1225.752797
3091.078751,-9178.553681,1258.350101,2987.772442
3091.079089,-9252.574275,1850.514855,1225.752797
3091.079426,-10214.842000,1998.556043,-1072.533697
3091.079763,-11621.233289,814.226536,-612.876398
3091.080101,-10066.800811,1036.288319,689.485948
3091.080438,-10732.986159,-444.123565,1608.800546
3091.080775,-10732.986159,-1258.350101,459.657299
3091.081112,-8882.471304,-1184.329507,153.219100
3091.081450,-10066.800811,-1924.535449,2068.457845
3091.081787,-10214.842000,-1850.514855,-459.657299
3091.082124,-9400.615463,-1702.473667,-1762.019645
3091.082462,-9696.697840,-740.205942,-2145.067394
3091.082799,-10436.903782,-1924.535449,-2451.505594
3091.083136,-10955.047942,-1702.473667,-1608.800546
3091.083474,-10066.800811,-1998.556043,-612.876398
3091.083811,-8734.430116,-1184.329507,995.924147
3091.084148,-9918.759623,222.061783,459.657299
3091.084486,-10955.047942,-592.164754,612.876398
3091.084823,-10881.027347,-1110.308913,919.314598
3091.085160,-11843.295072,-1554.432478,1378.971896
3091.085498,-10214.842000,-370.102971,689.485948
3091.085835,-7920.203579,444.123565,0.000000
3091.086172,-9326.594869,1776.494261,919.314598
3091.086510,-9844.739029,2294.638420,-1378.971896
3091.086847,-10584.944971,3108.864956,-3217.601092
3091.087184,-12139.377449,2146.597232,-2145.067394
3091.087522,-11621.233289,222.061783,-1762.019645
3091.087859,-9474.636058,0.000000,-1302.362347
3091.088196,-7698.141797,444.123565,-612.876398
3091.088534,-7254.018232,444.123565,76.609550
3091.088871,-9252.574275,-1480.411884,0.000000
3091.089208,-11325.150913,-1036.288319,76.609550
3091.089546,-11399.171507,370.102971,1149.143247
3091.089883,-10140.821405,296.082377,1149.143247
3091.090220,-8290.306550,444.123565,766.095498
3091.090558,-9548.656652,296.082377,1608.800546
3091.090895,-9622.677246,444.123565,1378.971896
3091.091232,-9104.533087,148.041188,2374.896044
3091.091569,-10214.842000,-740.205942,2757.943793
3091.091907,-11769.274478,592.164754,2068.457845
3091.092244,-10658.965565,370.102971,766.095498
3091.092581,-8734.430116,-592.164754,1532.190996
3091.092919,-9252.574275,-1184.329507,2298.286494
3091.093256,-9474.636058,0.000000,1149.143247
3091.093593,-9252.574275,148.041188,0.000000
3091.093931,-10362.883188,-444.123565,766.095498
3091.094268,-11991.336260,-444.123565,995.924147
3091.094605,-11399.171507,-370.102971,-153.219100
3091.094943,-9844.739029,592.164754,612.876398
3091.095280,-9548.656652,-1036.288319,1072.533697
3091.095617,-11251.130318,-1258.350101,459.657299
3091.095955,-10584.944971,-592.164754,-153.219100
3091.096292,-11325.150913,-962.267725,-459.657299
3091.096629,-11029.068536,-1924.535449,-1302.362347
3091.096967,-10436.903782,-1924.535449,-3064.381992
3091.097304,-9548.656652,-1110.308913,-1838.629195
3091.097641,-7994.224174,-2368.659014,-1225.752797
3091.097979,-7772.162391,-2072.576638,0.000000
3091.098316,-9548.656652,-888.247130,1225.752797
3091.098653,-11843.295072,-296.082377,2911.162892
3091.098991,-11547.212695,888.247130,2068.457845
3091.099328,-10807.006753,-518.144159,919.314598
3091.099665,-10807.006753,-1554.432478,1762.019645
3091.100003,-10140.821405,-1554.432478,2451.505594
3091.100340,-6883.915261,0.000000,612.876398
3091.100677,-6513.812290,74.020594,-995.924147
3091.101015,-9548.656652,222.061783,-1991.848295
3091.101352,-10955.047942,444.123565,-3753.867940
3091.101689,-10807.006753,2294.638420,-3677.258390
3091.102027,-9548.656652,3182.885551,-2834.553343
3091.102364,-9622.677246,1850.514855,-3600.648841
3091.102701,-10658.965565,592.164754,-2757.943793
3091.103038,-8956.491898,-1332.370696,-689.485948
3091.103376,-9104.533087,-1628.453072,2681.334243
3091.103713,-10955.047942,-1702.473667,3294.210641
3091.104050,-11251.130318,-1110.308913,995.924147
3091.104388,-11547.212695,-1258.350101,383.047749
3091.104725,-10955.047942,-1702.473667,-306.438199
3091.105062,-8808.450710,-592.164754,-1302.362347
3091.105400,-8216.285956,444.123565,153.219100
3091.105737,-11029.068536,0.000000,612.876398
3091.106074,-9918.759623,518.144159,-306.438199
3091.106412,-9178.553681,814.226536,153.219100
3091.106749,-9992.780217,888.247130,2757.943793
3091.107086,-10732.986159,-1184.329507,3294.210641
3091.107424,-10584.944971,-2146.597232,1608.800546
3091.107761,-9770.718434,-962.267725,2451.505594
3091.108098,-10807.006753,-370.102971,3677.258390
3091.108436,-11251.130318,-74.020594,1762.019645
3091.108773,-10658.965565,-740.205942,0.000000
3091.109110,-9844.739029,0.000000,-1378.971896
3091.109448,-7920.203579,-222.061783,-995.924147
3091.109785,-7920.203579,-1184.329507,153.219100
3091.110122,-9696.697840,-962.267725,1072.533697
3091.110460,-11029.068536,-888.247130,-612.876398
3091.110797,-11695.253884,0.000000,-383.047749
3091.111134,-11769.274478,-74.020594,1072.533697
3091.111472,-10214.842000,-1332.370696,1302.362347
3091.111809,-10658.965565,-1406.391290,2374.896044
3091.112146,-10066.800811,-1036.288319,2145.067394
3091.112484,-8586.388927,0.000000,1991.848295
3091.112821,-10510.924376,666.185348,1915.238745
3091.113158,-10140.821405,814.226536,459.657299
3091.113495,-9918.759623,2960.823768,0.000000
3091.113833,-9992.780217,2590.720797,-1072.533697
3091.114170,-10288.862594,1850.514855,-1608.800546
3091.114507,-9770.718434,740.205942,-1302.362347
3091.114845,-10955.047942,592.164754,0.000000
