#time,accel_x,accel_y,accel_z
3249.161254,-10214.842000,-2146.597232,2374.896044
3249.161592,-10658.965565,-962.267725,2451.505594
3249.161930,-9696.697840,-1480.411884,2451.505594
3249.162268,-9918.759623,-888.247130,1532.190996
3249.162606,-10807.006753,-962.267725,1915.238745
3249.162944,-10140.821405,0.000000,1685.410096
3249.163282,-9844.739029,-222.061783,2451.505594
3249.163620,-10214.842000,-444.123565,2834.553343
3249.163958,-9030.512492,-444.123565,2221.676944
3249.164296,-7846.182985,74.020594,1762.019645
3249.164634,-8660.409521,962.267725,2068.457845
3249.164972,-10362.883188,666.185348,842.705048
3249.165310,-10807.006753,1036.288319,0.000000
3249.165648,-10214.842000,740.205942,536.266849
3249.165986,-10584.944971,814.226536,612.876398
3249.166324,-10881.027347,-888.247130,229.828649
3249.166662,-10362.883188,-592.164754,459.657299
3249.167000,-9178.553681,-1480.411884,0.000000
3249.167338,-9400.615463,-1998.556043,1225.752797
3249.167676,-10066.800811,-2294.638420,2221.676944
3249.168014,-10436.903782,-3034.844362,1991.848295
3249.168352,-10510.924376,-1850.514855,1991.848295
3249.168690,-10807.006753,-2368.659014,2451.505594
3249.169028,-10881.027347,-2294.638420,2451.505594
3249.169366,-10732.986159,-2738.761985,3524.039291
3249.169704,-10658.965565,-3256.906145,4060.306139
3249.170042,-10510.924376,-2516.700203,4903.011187
3249.170380,-11399.171507,-2442.679609,4903.011187
3249.170718,-10658.965565,-2812.782580,4290.134789
3249.171056,-9548.656652,-3182.885551,3907.087040
3249.171394,-9400.615463,-2664.741391,3524.039291
3249.171732,-9326.594869,-3034.844362,4060.306139
3249.172070,-8882.471304,-2738.761985,4826.401637
3249.172408,-9474.636058,-2886.803174,5132.839837
3249.172746,-10807.006753,-2738.761985,4979.620737
3249.173084,-10955.047942,-2368.659014,3370.820191
3249.173422,-10140.821405,-2368.659014,2528.115143
3249.173760,-9770.718434,-3404.947333,2145.067394
3249.174098,-8660.409521,-3552.988522,1991.848295
3249.174436,-8734.430116,-4367.215058,2221.676944
3249.174774,-8438.347739,-4885.359217,2451.505594
3249.175112,-9326.594869,-5329.482782,2911.162892
3249.175450,-10584.944971,-5107.421000,3753.867940
3249.175788,-10584.944971,-4219.173869,2911.162892
3249.176126,-9474.636058,-3478.967927,2757.943793
3249.176464,-9548.656652,-4071.132681,4136.915689
3249.176802,-10584.944971,-4145.153275,5056.230287
3249.177140,-11695.253884,-2886.803174,3753.867940
3249.177478,-11103.089130,-1480.411884,1685.410096
3249.177816,-10436.903782,-1480.411884,153.219100
3249.178154,-11399.171507,-3627.009116,383.047749
3249.178492,-11029.068536,-3849.070898,-306.438199
3249.178830,-8512.368333,-3997.112087,-995.924147
3249.179168,-7476.080014,-2146.597232,-1072.533697
3249.179506,-9622.677246,-2812.782580,-1302.362347
3249.179844,-11103.089130,-3849.070898,-1378.971896
3249.180182,-10288.862594,-2960.823768,-919.314598
3249.180520,-10140.821405,-1406.391290,612.876398
3249.180858,-10510.924376,0.000000,-1302.362347
3249.181196,-10658.965565,-296.082377,-2757.943793
3249.181534,-11177.109724,-2442.679609,-2528.115143
3249.181872,-9918.759623,-4071.132681,-1685.410096
3249.182210,-9326.594869,-3701.029710,0.000000
3249.182548,-8586.388927,-2368.659014,1838.629195
3249.182886,-9918.759623,-2442.679609,1762.019645
3249.183223,-11769.274478,-2664.741391,1685.410096
3249.183560,-10955.047942,-962.267725,995.924147
3249.183898,-9178.553681,2072.576638,1685.410096
3249.184235,-10732.986159,4441.235652,2451.505594
3249.184573,-12213.398043,3997.112087,766.095498
3249.184910,-11325.150913,2738.761985,-1915.238745
3249.185248,-7476.080014,1628.453072,229.828649
3249.185585,-7402.059420,1258.350101,4443.353888
3249.185923,-10584.944971,1110.308913,5975.544884
3249.186260,-12287.418637,1776.494261,2681.334243
3249.186598,-9548.656652,3478.967927,76.609550
3249.186935,-8882.471304,4071.132681,1225.752797
3249.187273,-10362.883188,3997.112087,1225.752797
3249.187610,-9992.780217,3478.967927,-842.705048
3249.187948,-8956.491898,3775.050304,-1532.190996
3249.188285,-8586.388927,3182.885551,1072.533697
3249.188622,-10436.903782,592.164754,2604.724693
3249.188960,-11029.068536,-370.102971,2068.457845
3249.189297,-8438.347739,-222.061783,1838.629195
3249.189635,-8586.388927,-370.102971,2834.553343
3249.189972,-10362.883188,222.061783,2681.334243
3249.190310,-10436.903782,444.123565,76.609550
3249.190647,-9770.718434,148.041188,-612.876398
3249.190985,-9474.636058,148.041188,76.609550
3249.191322,-11621.233289,-518.144159,1532.190996
3249.191660,-11991.336260,222.061783,612.876398
3249.191997,-8808.450710,296.082377,-383.047749
3249.192335,-8734.430116,0.000000,536.266849
3249.192672,-10658.965565,-1554.432478,0.000000
3249.193009,-11991.336260,-2442.679609,-306.438199
3249.193347,-9474.636058,-1998.556043,-306.438199
3249.193684,-8142.265362,-2368.659014,766.095498
3249.194022,-11399.171507,-2516.700203,2604.724693
3249.194359,-12879.583391,-1480.411884,-919.314598
3249.194697,-9252.574275,-370.102971,-4519.963438
3249.195034,-9474.636058,148.041188,-4443.353888
3249.195372,-11029.068536,-1850.514855,-3447.429741
3249.195709,-10658.965565,-2442.679609,-4903.011187
3249.196047,-8068.244768,-2664.741391,-2987.772442
3249.196384,-7624.121203,-4145.153275,842.705048
3249.196722,-10955.047942,-4737.318029,3294.210641
3249.197059,-12361.439231,-2886.803174,1455.581446
3249.197397,-9400.615463,-1332.370696,0.000000
3249.197734,-9030.512492,-518.144159,0.000000
3249.198071,-11843.295072,-1776.494261,995.924147
3249.198409,-11547.212695,-518.144159,0.000000
3249.198746,-8142.265362,0.000000,2298.286494
3249.199084,-9030.512492,-740.205942,4290.134789
3249.199421,-12287.418637,-1480.411884,3677.258390
3249.199759,-11103.089130,-518.144159,1225.752797
3249.200096,-7846.182985,666.185348,229.828649
3249.200434,-8142.265362,-148.041188,995.924147
3249.200771,-9770.718434,-1110.308913,0.000000
3249.201109,-9178.553681,222.061783,-1072.533697
3249.201446,-7624.121203,-444.123565,76.609550
3249.201784,-9696.697840,-444.123565,689.485948
3249.202121,-12731.542202,-1184.329507,766.095498
3249.202459,-11325.150913,-148.041188,-1378.971896
3249.202796,-7994.224174,-518.144159,-1302.362347
3249.203133,-9474.636058,-1924.535449,919.314598
3249.203471,-11103.089130,-3330.926739,1149.143247
3249.203808,-8734.430116,-3330.926739,536.266849
3249.204146,-9252.574275,-3034.844362,3140.991542
3249.204483,-10658.965565,-2516.700203,3447.429741
3249.204821,-12731.542202,-2516.700203,2068.457845
3249.205158,-11399.171507,0.000000,306.438199
3249.205496,-8364.327145,1776.494261,-383.047749
3249.205833,-11177.109724,1110.308913,0.000000
3249.206171,-12583.501014,592.164754,-1225.752797
3249.206508,-9474.636058,740.205942,0.000000
3249.206846,-8438.347739,0.000000,2987.772442
3249.207183,-11399.171507,-888.247130,4290.134789
3249.207521,-11621.233289,592.164754,995.924147
3249.207858,-9696.697840,2368.659014,-1838.629195
3249.208195,-7994.224174,2442.679609,-1838.629195
3249.208533,-9770.718434,1776.494261,-1838.629195
3249.208870,-11251.130318,1702.473667,-1685.410096
3249.209208,-8438.347739,2812.782580,-1455.581446
3249.209545,-8956.491898,1406.391290,383.047749
3249.209883,-12435.459826,1184.329507,536.266849
3249.210220,-11621.233289,1332.370696,-1991.848295
3249.210558,-8512.368333,2220.617826,-1378.971896
3249.210895,-7698.141797,1110.308913,-459.657299
3249.211233,-10066.800811,444.123565,76.609550
3249.211570,-10288.862594,1036.288319,-766.095498
3249.211908,-8142.265362,1628.453072,383.047749
3249.212245,-10214.842000,148.041188,2987.772442
3249.212583,-12805.562797,1258.350101,2145.067394
3249.212920,-11399.171507,3627.009116,76.609550
3249.213257,-9474.636058,3775.050304,-536.266849
3249.213595,-9400.615463,2220.617826,0.000000
3249.213932,-11251.130318,0.000000,-76.609550
3249.214270,-9548.656652,-518.144159,153.219100
3249.214607,-7698.141797,-814.226536,2145.067394
3249.214945,-10658.965565,-1924.535449,2987.772442
3249.215282,-12139.377449,-2516.700203,536.266849
3249.215620,-9474.636058,-814.226536,-2145.067394
3249.215957,-8438.347739,-74.020594,-1225.752797
3249.216295,-9326.594869,-1628.453072,-2374.896044
3249.216632,-11621.233289,-1924.535449,-3217.601092
3249.216970,-9474.636058,-2590.720797,-2911.162892
3249.217307,-7846.182985,-3849.070898,536.266849
3249.217645,-11473.192101,-4589.276840,3447.429741
3249.217982,-12435.459826,-4515.256246,1378.971896
3249.218319,-9474.636058,-2368.659014,-1455.581446
3249.218657,-8660.409521,-2146.597232,-536.266849
3249.218994,-10658.965565,-2664.741391,229.828649
3249.219332,-11769.274478,-3256.906145,612.876398
3249.219669,-9252.574275,-1924.535449,1532.190996
3249.220007,-9104.533087,-1554.432478,3677.258390
3249.220344,-12805.562797,-1628.453072,4136.915689
3249.220682,-12139.377449,-518.144159,1685.410096
3249.221019,-9030.512492,740.205942,0.000000
3249.221357,-8290.306550,666.185348,153.219100
3249.221694,-10955.047942,962.267725,-612.876398
3249.222032,-11399.171507,-148.041188,-995.924147
3249.222369,-7402.059420,148.041188,-383.047749
3249.222706,-7624.121203,-1332.370696,1685.410096
3249.223044,-11473.192101,-1184.329507,2451.505594
3249.223381,-10436.903782,296.082377,-919.314598
3249.223719,-8364.327145,1628.453072,-2145.067394
3249.224056,-8734.430116,296.082377,-919.314598
3249.224394,-10362.883188,-740.205942,-766.095498
3249.224731,-10140.821405,-962.267725,0.000000
3249.225069,-8216.285956,-1850.514855,1532.190996
3249.225406,-9400.615463,-1924.535449,3677.258390
3249.225744,-11917.315666,-2368.659014,2451.505594
3249.226081,-10584.944971,-962.267725,-383.047749
3249.226419,-8290.306550,74.020594,-766.095498
3249.226756,-9770.718434,-148.041188,-536.266849
3249.227094,-11621.233289,148.041188,-1225.752797
3249.227431,-10140.821405,74.020594,-1455.581446
3249.227768,-9104.533087,-666.185348,1762.019645
3249.228106,-10955.047942,-1850.514855,2681.334243
3249.228443,-11917.315666,-370.102971,919.314598
3249.228781,-11029.068536,1332.370696,-842.705048
3249.229118,-8882.471304,888.247130,-1838.629195
3249.229456,-10288.862594,-592.164754,-995.924147
3249.229793,-12065.356855,-1332.370696,-306.438199
3249.230131,-8956.491898,-962.267725,-766.095498
3249.230468,-8586.388927,-1702.473667,1072.533697
3249.230806,-12065.356855,-1776.494261,1838.629195
3249.231143,-12213.398043,-1110.308913,-919.314598
3249.231481,-8882.471304,0.000000,-2145.067394
3249.231818,-8216.285956,1110.308913,-1302.362347
3249.232156,-10881.027347,-370.102971,-1225.752797
3249.232493,-10362.883188,74.020594,-1302.362347
3249.232830,-7105.977043,-296.082377,0.000000
3249.233168,-8734.430116,-1036.288319,3600.648841
3249.233505,-11917.315666,0.000000,3600.648841
3249.233843,-11251.130318,1480.411884,1455.581446
3249.234180,-8956.491898,3923.091493,153.219100
3249.234518,-9030.512492,3330.926739,229.828649
3249.234855,-11473.192101,1998.556043,842.705048
3249.235193,-9622.677246,1998.556043,76.609550
3249.235530,-7624.121203,2738.761985,2068.457845
3249.235868,-10066.800811,1406.391290,2757.943793
3249.236205,-11991.336260,1332.370696,766.095498
3249.236543,-9844.739029,2220.617826,-1225.752797
3249.236880,-8142.265362,2442.679609,-1762.019645
3249.237218,-9252.574275,2220.617826,-1608.800546
3249.237555,-11843.295072,518.144159,-2451.505594
3249.237892,-10140.821405,296.082377,-2451.505594
3249.238230,-7772.162391,-1258.350101,-459.657299
3249.238567,-10436.903782,-2664.741391,2451.505594
3249.238905,-11843.295072,-2368.659014,1455.581446
3249.239242,-9548.656652,-888.247130,-1302.362347
3249.239580,-8882.471304,-296.082377,-766.095498
3249.239917,-10288.862594,-2664.741391,306.438199
3249.240255,-11621.233289,-2590.720797,0.000000
3249.240592,-9474.636058,-2590.720797,1532.190996
3249.240930,-9474.636058,-2516.700203,4136.915689
3249.241267,-11769.274478,-2960.823768,4136.915689
3249.241605,-12953.603985,-1998.556043,1225.752797
3249.241942,-9326.594869,-518.144159,-919.314598
3249.242280,-8956.491898,-666.185348,-1225.752797
3249.242617,-11325.150913,-1776.494261,-383.047749
3249.242954,-11103.089130,-444.123565,-1225.752797
3249.243292,-8586.388927,-1628.453072,-76.609550
3249.243629,-8216.285956,-2812.782580,2068.457845
3249.243967,-11843.295072,-2664.741391,1838.629195
3249.244304,-11769.274478,-666.185348,383.047749
3249.244642,-9030.512492,592.164754,-1762.019645
3249.244979,-9178.553681,0.000000,-1149.143247
3249.245317,-11325.150913,-1480.411884,-306.438199
3249.245654,-10732.986159,-1554.432478,76.609550
3249.245992,-8142.265362,-814.226536,1685.410096
3249.246329,-9252.574275,-1924.535449,4060.306139
3249.246667,-12509.480420,-962.267725,3524.039291
3249.247004,-10658.965565,-296.082377,0.000000
3249.247341,-7994.224174,1480.411884,229.828649
3249.247679,-9252.574275,1258.350101,1225.752797
3249.248016,-11251.130318,370.102971,536.266849
3249.248354,-9474.636058,1850.514855,-383.047749
3249.248691,-7920.203579,814.226536,1378.971896
3249.249029,-10214.842000,444.123565,3294.210641
3249.249366,-12287.418637,518.144159,1225.752797
3249.249704,-10214.842000,2294.638420,-1302.362347
3249.250041,-7994.224174,2442.679609,-1302.362347
3249.250379,-9992.780217,592.164754,-229.828649
3249.250716,-10732.986159,-370.102971,-76.609550
3249.251054,-7772.162391,-962.267725,-919.314598
3249.251391,-8734.430116,-296.082377,1608.800546
3249.251729,-12213.398043,-1480.411884,1378.971896
3249.252066,-11843.295072,-592.164754,-1762.019645
3249.252403,-9400.615463,148.041188,-2298.286494
3249.252741,-8290.306550,222.061783,-995.924147
3249.253078,-10658.965565,-296.082377,-1225.752797
3249.253416,-11547.212695,-962.267725,-2145.067394
3249.253753,-9178.553681,-1332.370696,-229.828649
3249.254091,-8956.491898,-2146.597232,2604.724693
3249.254428,-12435.459826,-1924.535449,3370.820191
3249.254766,-11917.315666,0.000000,536.266849
3249.255103,-9474.636058,1554.432478,-306.438199
3249.255441,-9474.636058,1850.514855,842.705048
3249.255778,-11251.130318,814.226536,536.266849
3249.256116,-11103.089130,962.267725,919.314598
3249.256453,-8956.491898,592.164754,2604.724693
3249.256791,-10214.842000,740.205942,3907.087040
3249.257128,-12435.459826,1702.473667,1838.629195
3249.257465,-10955.047942,2072.576638,-842.705048
3249.257803,-7402.059420,3108.864956,-1762.019645
3249.258140,-8882.471304,1480.411884,-689.485948
3249.258478,-11621.233289,1924.535449,-1302.362347
3249.258815,-9474.636058,1036.288319,-2298.286494
3249.259153,-7105.977043,370.102971,459.657299
3249.259490,-9696.697840,-1036.288319,1762.019645
3249.259828,-11103.089130,-444.123565,766.095498
3249.260165,-9030.512492,2146.597232,-1225.752797
3249.260503,-8586.388927,1998.556043,153.219100
3249.260840,-10807.006753,296.082377,1149.143247
3249.261178,-11399.171507,-814.226536,536.266849
3249.261515,-9474.636058,-740.205942,1302.362347
3249.261853,-8586.388927,-666.185348,3447.429741
3249.262190,-11843.295072,-1924.535449,4673.182538
3249.262527,-11843.295072,-518.144159,1685.410096
3249.262865,-9178.553681,888.247130,-842.705048
3249.263202,-8956.491898,1110.308913,-383.047749
3249.263540,-11399.171507,-518.144159,-842.705048
3249.263877,-11177.109724,-296.082377,-1915.238745
3249.264215,-9030.512492,-370.102971,-459.657299
3249.264552,-8734.430116,-2146.597232,1762.019645
3249.264890,-10732.986159,-2738.761985,1608.800546
3249.265227,-11399.171507,-1776.494261,-612.876398
3249.265565,-9252.574275,-666.185348,-2298.286494
3249.265902,-9104.533087,-1258.350101,-2298.286494
3249.266240,-11547.212695,-2516.700203,-1225.752797
3249.266577,-10362.883188,-2812.782580,-766.095498
3249.266915,-7846.182985,-2960.823768,383.047749
3249.267252,-9696.697840,-3108.864956,2451.505594
3249.267589,-12435.459826,-3034.844362,1532.190996
3249.267927,-11251.130318,-1480.411884,-459.657299
3249.268264,-8512.368333,0.000000,-306.438199
3249.268602,-9622.677246,0.000000,536.266849
3249.268939,-11843.295072,-962.267725,0.000000
3249.269277,-10436.903782,0.000000,0.000000
3249.269614,-7476.080014,-518.144159,1762.019645
3249.269952,-9770.718434,-518.144159,3830.477490
3249.270289,-11843.295072,592.164754,2528.115143
3249.270627,-10214.842000,2738.761985,536.266849
3249.270964,-8438.347739,3256.906145,-459.657299
3249.271302,-9474.636058,1628.453072,-153.219100
3249.271639,-11621.233289,1110.308913,-76.609550
3249.271977,-8660.409521,1258.350101,0.000000
3249.272314,-7994.224174,0.000000,1608.800546
3249.272651,-10288.862594,74.020594,1225.752797
3249.272989,-11547.212695,370.102971,-1072.533697
3249.273326,-9696.697840,1332.370696,-2298.286494
3249.273664,-7994.224174,370.102971,-1762.019645
3249.274001,-10066.800811,-740.205942,-306.438199
3249.274339,-10881.027347,-370.102971,-1149.143247
3249.274676,-7920.203579,-1406.391290,-1149.143247
3249.275014,-8956.491898,-1184.329507,2068.457845
3249.275351,-11251.130318,-2738.761985,2528.115143
3249.275689,-11399.171507,-370.102971,229.828649
3249.276026,-9770.718434,1110.308913,0.000000
3249.276364,-9548.656652,296.082377,383.047749
3249.276701,-11399.171507,-444.123565,919.314598
3249.277038,-11621.233289,-444.123565,612.876398
3249.277376,-8734.430116,-370.102971,2451.505594
3249.277713,-9474.636058,-1036.288319,2911.162892
3249.278051,-12509.480420,-592.164754,2221.676944
3249.278388,-10955.047942,518.144159,-1225.752797
3249.278726,-8586.388927,1480.411884,-766.095498
3249.279063,-9178.553681,666.185348,-995.924147
3249.279401,-11325.150913,-592.164754,-1072.533697
3249.279738,-9918.759623,0.000000,-1302.362347
3249.280076,-8364.327145,0.000000,-153.219100
3249.280413,-10214.842000,-740.205942,995.924147
3249.280751,-11177.109724,-1258.350101,-306.438199
3249.281088,-10066.800811,1110.308913,-1455.581446
3249.281425,-8660.409521,1258.350101,-919.314598
3249.281763,-9622.677246,1258.350101,-612.876398
3249.282100,-10732.986159,-444.123565,-76.609550
3249.282438,-9252.574275,-444.123565,919.314598
3249.282775,-7920.203579,-74.020594,3217.601092
3249.283113,-10807.006753,0.000000,4213.525239
3249.283450,-11843.295072,518.144159,1072.533697
3249.283787,-9178.553681,2294.638420,-689.485948
3249.284125,-8734.430116,2294.638420,536.266849
3249.284462,-10658.965565,1924.535449,0.000000
3249.284800,-11103.089130,666.185348,-1302.362347
3249.285137,-8660.409521,814.226536,-842.705048
3249.285475,-8364.327145,296.082377,459.657299
3249.285812,-11177.109724,-888.247130,689.485948
3249.286149,-10807.006753,0.000000,-1532.190996
3249.286487,-8660.409521,222.061783,-2451.505594
3249.286824,-8512.368333,296.082377,-995.924147
3249.287162,-11029.068536,-1184.329507,-919.314598
3249.287499,-11177.109724,-1406.391290,-1762.019645
3249.287836,-8808.450710,-2442.679609,229.828649
3249.288174,-10140.821405,-2590.720797,2374.896044
3249.288511,-11991.336260,-2516.700203,1532.190996
3249.288849,-11917.315666,-2220.617826,0.000000
3249.289186,-8142.265362,-1184.329507,-1378.971896
3249.289524,-8956.491898,-2368.659014,-229.828649
3249.289861,-11769.274478,-1850.514855,612.876398
3249.290198,-10955.047942,-1776.494261,-459.657299
3249.290536,-8882.471304,-1702.473667,1762.019645
3249.290873,-9622.677246,-2146.597232,3140.991542
3249.291211,-11695.253884,-518.144159,1838.629195
3249.291548,-10881.027347,370.102971,459.657299
3249.291886,-8734.430116,1850.514855,612.876398
3249.292223,-10214.842000,296.082377,1685.410096
3249.292560,-11695.253884,74.020594,1532.190996
3249.292898,-9622.677246,592.164754,919.314598
3249.293235,-9104.533087,0.000000,2374.896044
3249.293573,-10436.903782,-592.164754,2451.505594
3249.293910,-11769.274478,74.020594,383.047749
3249.294248,-9326.594869,1110.308913,-1149.143247
3249.294585,-7105.977043,1258.350101,-1608.800546
3249.294922,-9474.636058,0.000000,-1072.533697
3249.295260,-10881.027347,-962.267725,-1685.410096
3249.295597,-7846.182985,518.144159,-1225.752797
3249.295935,-8586.388927,-518.144159,1838.629195
3249.296272,-10732.986159,-888.247130,1532.190996
3249.296609,-11399.171507,-296.082377,76.609550
3249.296947,-9992.780217,1628.453072,-306.438199
3249.297284,-9030.512492,962.267725,0.000000
3249.297622,-11177.109724,-296.082377,612.876398
3249.297959,-10955.047942,-444.123565,229.828649
3249.298297,-8068.244768,-296.082377,842.705048
3249.298634,-9474.636058,-666.185348,2298.286494
3249.298971,-11917.315666,-444.123565,1532.190996
3249.299309,-11621.233289,296.082377,-1455.581446
3249.299646,-9252.574275,1554.432478,-1838.629195
3249.299984,-9400.615463,1036.288319,-1378.971896
3249.300321,-11547.212695,-296.082377,-1532.190996
3249.300659,-10807.006753,-888.247130,-2068.457845
3249.300996,-7994.224174,-1406.391290,-919.314598
3249.301333,-9622.677246,-2146.597232,1378.971896
3249.301671,-11621.233289,-1184.329507,0.000000
3249.302008,-11473.192101,-1480.411884,-1149.143247
3249.302346,-9104.533087,592.164754,-1685.410096
3249.302683,-9548.656652,-962.267725,-536.266849
3249.303021,-11843.295072,-1332.370696,153.219100
3249.303358,-9104.533087,-1554.432478,0.000000
3249.303695,-8142.265362,-1850.514855,3294.210641
3249.304033,-10584.944971,-1332.370696,4826.401637
3249.304370,-12065.356855,0.000000,2451.505594
3249.304708,-10881.027347,1480.411884,536.266849
3249.305045,-9178.553681,1998.556043,689.485948
3249.305382,-9844.739029,1628.453072,1072.533697
3249.305720,-11029.068536,888.247130,229.828649
3249.306057,-8586.388927,1332.370696,612.876398
3249.306395,-7476.080014,888.247130,1685.410096
3249.306732,-10955.047942,814.226536,2604.724693
3249.307070,-11547.212695,1258.350101,-612.876398
3249.307407,-9474.636058,2590.720797,-1991.848295
3249.307744,-8660.409521,2220.617826,-383.047749
3249.308082,-10584.944971,0.000000,-1072.533697
3249.308419,-10732.986159,74.020594,-842.705048
3249.308757,-8512.368333,-444.123565,0.000000
3249.309094,-9252.574275,-1702.473667,1149.143247
3249.309432,-11695.253884,-2220.617826,1225.752797
3249.309769,-11177.109724,-1258.350101,-383.047749
3249.310106,-8808.450710,-148.041188,-995.924147
3249.310444,-8882.471304,-814.226536,-536.266849
3249.310781,-11473.192101,-1924.535449,-842.705048
3249.311119,-10510.924376,-1850.514855,-1225.752797
3249.311456,-7772.162391,-1924.535449,383.047749
3249.311794,-9622.677246,-1702.473667,2528.115143
3249.312131,-12139.377449,-2368.659014,2068.457845
3249.312468,-11103.089130,0.000000,-383.047749
3249.312806,-8808.450710,666.185348,-995.924147
3249.313143,-9992.780217,-888.247130,306.438199
3249.313481,-11695.253884,-1628.453072,-383.047749
3249.313818,-10066.800811,-1702.473667,-153.219100
3249.314155,-8142.265362,-1110.308913,842.705048
3249.314493,-9992.780217,-2146.597232,1915.238745
3249.314830,-12583.501014,-1332.370696,459.657299
3249.315168,-10288.862594,0.000000,-1991.848295
3249.315505,-8956.491898,1110.308913,-1455.581446
3249.315843,-10288.862594,-518.144159,-1302.362347
3249.316180,-11325.150913,-1258.350101,-1532.190996
3249.316517,-9400.615463,-1036.288319,-229.828649
3249.316855,-8142.265362,-1776.494261,1838.629195
3249.317192,-9844.739029,-1184.329507,2528.115143
3249.317530,-11843.295072,-518.144159,536.266849
3249.317867,-9918.759623,1258.350101,0.000000
3249.318205,-8364.327145,1406.391290,153.219100
3249.318542,-10288.862594,814.226536,1455.581446
3249.318879,-11251.130318,296.082377,1455.581446
3249.319217,-8142.265362,814.226536,1685.410096
3249.319554,-8734.430116,592.164754,3753.867940
3249.319892,-11621.233289,148.041188,3064.381992
3249.320229,-11769.274478,1776.494261,0.000000
3249.320567,-9474.636058,1850.514855,-842.705048
3249.320904,-9030.512492,1776.494261,-306.438199
3249.321241,-10436.903782,74.020594,-1072.533697
3249.321579,-10288.862594,-148.041188,-1991.848295
3249.321916,-7476.080014,-370.102971,-1149.143247
3249.322254,-8808.450710,-1628.453072,842.705048
3249.322591,-11621.233289,-1850.514855,0.000000
3249.322928,-11399.171507,0.000000,-2374.896044
3249.323266,-9548.656652,148.041188,-1455.581446
3249.323603,-9770.718434,-962.267725,-612.876398
3249.323941,-11399.171507,-2146.597232,-383.047749
3249.324278,-10214.842000,-1776.494261,0.000000
3249.324616,-8364.327145,-2442.679609,919.314598
3249.324953,-10732.986159,-2812.782580,3370.820191
3249.325290,-12731.542202,-1924.535449,2298.286494
3249.325628,-11399.171507,-148.041188,536.266849
3249.325965,-9474.636058,814.226536,306.438199
3249.326303,-10140.821405,0.000000,229.828649
3249.326640,-11177.109724,148.041188,383.047749
3249.326978,-9252.574275,-444.123565,536.266849
3249.327315,-7772.162391,-296.082377,2604.724693
3249.327652,-10436.903782,-666.185348,2757.943793
3249.327990,-12139.377449,296.082377,766.095498
3249.328327,-10584.944971,2368.659014,-1302.362347
3249.328665,-8660.409521,2072.576638,-1225.752797
3249.329002,-9400.615463,666.185348,-995.924147
3249.329340,-9844.739029,-296.082377,-1072.533697
3249.329677,-7994.224174,148.041188,0.000000
3249.330014,-7920.203579,-740.205942,1685.410096
3249.330352,-11399.171507,-740.205942,1762.019645
3249.330689,-11547.212695,74.020594,0.000000
3249.331027,-9400.615463,1184.329507,-842.705048
3249.331364,-9104.533087,2294.638420,153.219100
3249.331701,-11325.150913,74.020594,-229.828649
3249.332039,-10807.006753,0.000000,-766.095498
3249.332376,-8142.265362,-962.267725,229.828649
3249.332714,-9400.615463,-1406.391290,3370.820191
3249.333051,-12213.398043,-888.247130,2298.286494
3249.333389,-11547.212695,444.123565,-76.609550
3249.333726,-9104.533087,1554.432478,-1149.143247
3249.334063,-8586.388927,518.144159,-1302.362347
3249.334401,-10732.986159,-666.185348,-842.705048
3249.334738,-10436.903782,-1110.308913,-689.485948
3249.335076,-8512.368333,-1184.329507,995.924147
3249.335413,-10362.883188,-1554.432478,2374.896044
3249.335751,-12509.480420,-1702.473667,229.828649
3249.336088,-11473.192101,-1036.288319,-1685.410096
3249.336425,-9326.594869,-592.164754,-2374.896044
3249.336763,-9104.533087,-1628.453072,-1378.971896
3249.337100,-11029.068536,-2960.823768,-1991.848295
3249.337438,-9400.615463,-2960.823768,-842.705048
3249.337775,-7920.203579,-3404.947333,306.438199
3249.338113,-10140.821405,-3849.070898,2298.286494
3249.338450,-12213.398043,-1702.473667,1532.190996
3249.338787,-10436.903782,-370.102971,-383.047749
3249.339125,-9104.533087,666.185348,0.000000
3249.339462,-10362.883188,-962.267725,1072.533697
3249.339800,-11473.192101,-666.185348,2068.457845
3249.340137,-9400.615463,-370.102971,2757.943793
3249.340474,-9326.594869,-296.082377,4903.011187
3249.340812,-11325.150913,-74.020594,4060.306139
3249.341149,-11621.233289,1184.329507,536.266849
3249.341487,-9918.759623,2442.679609,0.000000
3249.341824,-8142.265362,2516.700203,-383.047749
3249.342162,-10140.821405,1110.308913,-689.485948
3249.342499,-9918.759623,1110.308913,-1838.629195
3249.342836,-7550.100608,1110.308913,-1225.752797
3249.343174,-8512.368333,0.000000,1685.410096
3249.343511,-11399.171507,-888.247130,459.657299
3249.343849,-10732.986159,1110.308913,-1378.971896
3249.344186,-9474.636058,1258.350101,-1532.190996
3249.344524,-9030.512492,666.185348,-995.924147
3249.344861,-10214.842000,-1406.391290,-842.705048
3249.345198,-10066.800811,-2072.576638,-383.047749
3249.345536,-7476.080014,-1924.535449,1302.362347
3249.345873,-9178.553681,-2664.741391,2451.505594
3249.346211,-12509.480420,-1998.556043,2145.067394
3249.346548,-11621.233289,-740.205942,153.219100
3249.346886,-9178.553681,1036.288319,0.000000
3249.347223,-9844.739029,0.000000,-153.219100
3249.347560,-11547.212695,-740.205942,-1302.362347
3249.347898,-9548.656652,-814.226536,-383.047749
3249.348235,-8290.306550,-1184.329507,1608.800546
3249.348573,-9918.759623,-1332.370696,2604.724693
3249.348910,-12435.459826,-1480.411884,229.828649
3249.349247,-10807.006753,1332.370696,-1302.362347
3249.349585,-9400.615463,1258.350101,-1991.848295
3249.349922,-10436.903782,444.123565,-1225.752797
3249.350260,-11251.130318,-666.185348,-1608.800546
3249.350597,-9030.512492,-1258.350101,-229.828649
3249.350935,-7846.182985,-1184.329507,2145.067394
3249.351272,-10436.903782,-1850.514855,1532.190996
3249.351609,-12287.418637,-666.185348,0.000000
3249.351947,-9622.677246,814.226536,-1915.238745
3249.352284,-9030.512492,370.102971,-306.438199
3249.352622,-9918.759623,296.082377,153.219100
3249.352959,-9992.780217,-666.185348,-1072.533697
3249.353297,-7846.182985,-888.247130,1762.019645
3249.353634,-8290.306550,-2146.597232,3983.696590
3249.353971,-10881.027347,-888.247130,4443.353888
3249.354309,-11843.295072,1776.494261,1685.410096
3249.354646,-9178.553681,2442.679609,-459.657299
3249.354984,-9622.677246,2664.741391,383.047749
3249.355321,-11103.089130,518.144159,689.485948
3249.355659,-9548.656652,1184.329507,-459.657299
3249.355996,-8142.265362,222.061783,995.924147
3249.356333,-9770.718434,-518.144159,2604.724693
3249.356671,-11769.274478,-518.144159,0.000000
3249.357008,-10955.047942,666.185348,-2374.896044
3249.357346,-8290.306550,1184.329507,-2451.505594
3249.357683,-9252.574275,-222.061783,-2145.067394
3249.358020,-11473.192101,-740.205942,-1762.019645
3249.358358,-9918.759623,-1998.556043,-1991.848295
3249.358695,-7772.162391,-2294.638420,766.095498
3249.359033,-10510.924376,-3404.947333,2221.676944
3249.359370,-12731.542202,-2516.700203,1072.533697
3249.359708,-10955.047942,-370.102971,-919.314598
3249.360045,-8956.491898,-444.123565,-1532.190996
3249.360382,-9918.759623,-1924.535449,-459.657299
3249.360720,-10881.027347,-2738.761985,0.000000
3249.361057,-8882.471304,-1332.370696,995.924147
3249.361395,-8438.347739,-1998.556043,3447.429741
3249.361732,-11473.192101,-1480.411884,3140.991542
3249.362070,-12139.377449,-740.205942,1225.752797
3249.362407,-10066.800811,1406.391290,383.047749
3249.362744,-8512.368333,1554.432478,229.828649
3249.363082,-10955.047942,814.226536,76.609550
3249.363419,-11695.253884,370.102971,-536.266849
3249.363757,-8216.285956,222.061783,-689.485948
3249.364094,-8586.388927,-666.185348,2298.286494
3249.364432,-11843.295072,-222.061783,1762.019645
3249.364769,-11547.212695,444.123565,-1149.143247
3249.365106,-9252.574275,2072.576638,-2145.067394
3249.365444,-8586.388927,1332.370696,-1302.362347
3249.365781,-10658.965565,-444.123565,-689.485948
3249.366119,-10288.862594,-518.144159,0.000000
3249.366456,-7402.059420,-1406.391290,1378.971896
3249.366793,-9178.553681,-666.185348,3600.648841
3249.367131,-12435.459826,-814.226536,2451.505594
3249.367468,-11251.130318,814.226536,-306.438199
3249.367806,-9104.533087,1110.308913,-459.657299
3249.368143,-9400.615463,740.205942,306.438199
3249.368481,-10881.027347,-74.020594,-919.314598
3249.368818,-10140.821405,-592.164754,-612.876398
3249.369155,-6883.915261,-1036.288319,536.266849
3249.369493,-9474.636058,-2146.597232,1915.238745
3249.369830,-12139.377449,-296.082377,536.266849
3249.370168,-10436.903782,1036.288319,-1608.800546
3249.370505,-9474.636058,1406.391290,-1608.800546
3249.370843,-9992.780217,-148.041188,-1302.362347
3249.371180,-11769.274478,-814.226536,-1149.143247
3249.371517,-9548.656652,-1850.514855,-459.657299
3249.371855,-8142.265362,-1628.453072,1072.533697
3249.372192,-11769.274478,-2516.700203,1532.190996
3249.372530,-12213.398043,-1702.473667,-842.705048
3249.372867,-9992.780217,74.020594,-2374.896044
3249.373205,-9400.615463,-444.123565,-689.485948
3249.373542,-10066.800811,-1110.308913,-1532.190996
3249.373879,-10807.006753,-1480.411884,-1532.190996
3249.374217,-9104.533087,-1258.350101,459.657299
3249.374554,-8364.327145,-2294.638420,3677.258390
3249.374892,-11843.295072,-1776.494261,4596.572988
3249.375229,-11621.233289,296.082377,2451.505594
3249.375566,-9474.636058,2664.741391,306.438199
3249.375904,-9178.553681,2146.597232,1378.971896
3249.376241,-10881.027347,518.144159,1149.143247
3249.376579,-9844.739029,222.061783,1225.752797
3249.376916,-7328.038826,592.164754,2221.676944
3249.377254,-8660.409521,444.123565,3294.210641
3249.377591,-11917.315666,1036.288319,1532.190996
3249.377928,-10807.006753,1924.535449,-1225.752797
3249.378266,-7846.182985,2664.741391,-1378.971896
3249.378603,-8586.388927,1702.473667,-689.485948
3249.378941,-10658.965565,518.144159,-1455.581446
3249.379278,-9474.636058,0.000000,-1915.238745
3249.379616,-7846.182985,-740.205942,0.000000
3249.379953,-9696.697840,-1480.411884,2451.505594
3249.380290,-11843.295072,-1628.453072,536.266849
3249.380628,-10807.006753,148.041188,-1225.752797
3249.380965,-8660.409521,592.164754,-919.314598
3249.381303,-9548.656652,-1110.308913,383.047749
3249.381640,-11843.295072,-1406.391290,0.000000
3249.381978,-10066.800811,-2368.659014,1225.752797
3249.382315,-8734.430116,-1184.329507,2451.505594
3249.382652,-11843.295072,-1998.556043,3140.991542
3249.382990,-13027.624579,-740.205942,1608.800546
3249.383327,-9918.759623,296.082377,-995.924147
3249.383665,-8438.347739,74.020594,-766.095498
3249.384002,-10658.965565,0.000000,229.828649
3249.384340,-11621.233289,-1184.329507,-1455.581446
3249.384677,-8660.409521,-1480.411884,-1378.971896
3249.385015,-8290.306550,-2146.597232,766.095498
3249.385352,-10436.903782,-1554.432478,995.924147
3249.385690,-11695.253884,-1184.329507,-766.095498
3249.386027,-9844.739029,1110.308913,-1991.848295
3249.386365,-8364.327145,148.041188,-2068.457845
3249.386702,-11177.109724,-962.267725,-689.485948
3249.387040,-10436.903782,-1406.391290,-612.876398
3249.387377,-8068.244768,-1184.329507,1149.143247
3249.387714,-9918.759623,-1184.329507,4060.306139
3249.388052,-12065.356855,-1628.453072,2145.067394
3249.388389,-11177.109724,1110.308913,-76.609550
3249.388727,-9400.615463,2072.576638,153.219100
3249.389064,-9178.553681,888.247130,536.266849
3249.389402,-11103.089130,444.123565,1378.971896
3249.389739,-10140.821405,962.267725,1072.533697
3249.390077,-7550.100608,814.226536,2145.067394
3249.390414,-9104.533087,444.123565,3677.258390
3249.390752,-11843.295072,1184.329507,2068.457845
3249.391089,-10955.047942,2590.720797,0.000000
3249.391427,-9104.533087,2812.782580,-766.095498
3249.391764,-9992.780217,1924.535449,-1225.752797
3249.392102,-10955.047942,-296.082377,-1072.533697
3249.392439,-8808.450710,-666.185348,-536.266849
3249.392776,-7179.997637,-1332.370696,1225.752797
3249.393114,-10066.800811,-1998.556043,1915.238745
3249.393451,-11251.130318,-814.226536,-1532.190996
3249.393789,-9992.780217,-666.185348,-2681.334243
3249.394126,-9252.574275,444.123565,-1838.629195
3249.394464,-10732.986159,-1406.391290,-612.876398
3249.394801,-11769.274478,-2368.659014,-995.924147
3249.395139,-8438.347739,-2072.576638,-536.266849
3249.395476,-8216.285956,-2368.659014,2451.505594
3249.395814,-11769.274478,-3256.906145,3447.429741
3249.396151,-12361.439231,-1554.432478,842.705048
3249.396489,-10584.944971,296.082377,-153.219100
3249.396826,-9844.739029,148.041188,536.266849
3249.397164,-10955.047942,0.000000,76.609550
3249.397501,-11029.068536,-1184.329507,536.266849
3249.397838,-8438.347739,-518.144159,2374.896044
3249.398176,-9178.553681,-740.205942,3447.429741
3249.398513,-12287.418637,518.144159,2068.457845
3249.398851,-11843.295072,1406.391290,-1149.143247
3249.399188,-8734.430116,1998.556043,-2068.457845
3249.399526,-9030.512492,1628.453072,-995.924147
3249.399863,-10955.047942,296.082377,-1225.752797
3249.400201,-9252.574275,148.041188,-2451.505594
3249.400538,-7105.977043,-370.102971,-612.876398
3249.400876,-9252.574275,-1184.329507,2298.286494
3249.401213,-11251.130318,-1110.308913,1149.143247
3249.401551,-10510.924376,962.267725,-842.705048
3249.401888,-8364.327145,2072.576638,-76.609550
3249.402225,-9622.677246,592.164754,689.485948
3249.402563,-11177.109724,-148.041188,1149.143247
3249.402900,-9548.656652,0.000000,919.314598
3249.403238,-8438.347739,-592.164754,3447.429741
3249.403575,-11103.089130,-444.123565,3524.039291
3249.403913,-12139.377449,592.164754,689.485948
3249.404250,-10214.842000,1850.514855,-536.266849
3249.404588,-8290.306550,1480.411884,-383.047749
3249.404925,-9992.780217,148.041188,229.828649
3249.405263,-11547.212695,296.082377,-1072.533697
3249.405600,-9770.718434,222.061783,229.828649
3249.405938,-8808.450710,-1036.288319,1532.190996
3249.406275,-11325.150913,-1702.473667,1838.629195
3249.406613,-12065.356855,-518.144159,153.219100
3249.406950,-10066.800811,370.102971,-2298.286494
3249.407287,-9178.553681,0.000000,-1455.581446
3249.407625,-10436.903782,-2368.659014,-1378.971896
3249.407962,-10584.944971,-3034.844362,-919.314598
3249.408300,-7846.182985,-2516.700203,0.000000
3249.408637,-8956.491898,-3182.885551,2451.505594
3249.408975,-11843.295072,-2886.803174,1378.971896
3249.409312,-11325.150913,-1628.453072,-612.876398
3249.409650,-8734.430116,0.000000,-612.876398
3249.409987,-8512.368333,0.000000,689.485948
3249.410325,-10955.047942,-1110.308913,1149.143247
3249.410662,-11029.068536,-740.205942,1378.971896
3249.411000,-8364.327145,-370.102971,2451.505594
3249.411337,-9548.656652,-296.082377,3524.039291
3249.411675,-12509.480420,74.020594,2374.896044
3249.412012,-10955.047942,2146.597232,-229.828649
3249.412349,-8512.368333,2738.761985,-995.924147
3249.412687,-9548.656652,2812.782580,153.219100
3249.413024,-10955.047942,1110.308913,-1072.533697
3249.413362,-9474.636058,888.247130,-689.485948
3249.413699,-7772.162391,592.164754,1072.533697
3249.414037,-9918.759623,1036.288319,1915.238745
3249.414374,-11917.315666,1036.288319,-383.047749
3249.414712,-10066.800811,1110.308913,-2451.505594
3249.415049,-8216.285956,1184.329507,-1532.190996
3249.415387,-10066.800811,148.041188,-919.314598
3249.415724,-11547.212695,-1110.308913,-995.924147
3249.416062,-8882.471304,-1258.350101,-1225.752797
3249.416399,-7846.182985,-2220.617826,1378.971896
3249.416737,-10288.862594,-2294.638420,2757.943793
3249.417074,-11325.150913,-1110.308913,229.828649
3249.417411,-10510.924376,518.144159,-306.438199
3249.417749,-9252.574275,444.123565,-536.266849
3249.418086,-10658.965565,-666.185348,153.219100
3249.418424,-11325.150913,-962.267725,459.657299
3249.418761,-8882.471304,-1554.432478,1991.848295
3249.419099,-9104.533087,-1258.350101,3140.991542
3249.419436,-11843.295072,-1036.288319,1991.848295
3249.419774,-11917.315666,74.020594,-612.876398
3249.420111,-9178.553681,518.144159,-2451.505594
3249.420449,-9178.553681,370.102971,-383.047749
3249.420786,-11399.171507,-1110.308913,0.000000
3249.421124,-10955.047942,0.000000,-2068.457845
3249.421461,-8216.285956,-592.164754,-766.095498
3249.421799,-9696.697840,-1702.473667,1532.190996
3249.422136,-11769.274478,-1850.514855,1225.752797
3249.422473,-11251.130318,0.000000,-459.657299
3249.422811,-9178.553681,1110.308913,-689.485948
3249.423148,-10066.800811,296.082377,536.266849
3249.423486,-11843.295072,-962.267725,0.000000
3249.423823,-9770.718434,0.000000,76.609550
3249.424161,-8290.306550,-370.102971,3064.381992
3249.424498,-10436.903782,0.000000,4749.792088
3249.424836,-11547.212695,592.164754,1608.800546
3249.425173,-10362.883188,2072.576638,-306.438199
3249.425511,-8364.327145,3034.844362,0.000000
3249.425848,-9400.615463,1184.329507,689.485948
3249.426186,-10807.006753,1258.350101,459.657299
3249.426523,-8586.388927,888.247130,-306.438199
3249.426861,-7846.182985,1110.308913,1149.143247
3249.427198,-10732.986159,-444.123565,1608.800546
3249.427535,-11621.233289,0.000000,0.000000
3249.427873,-9252.574275,740.205942,-2068.457845
3249.428210,-8068.244768,1036.288319,-1915.238745
3249.428548,-9992.780217,-518.144159,-1378.971896
3249.428885,-11177.109724,-2664.741391,-1378.971896
3249.429223,-8364.327145,-1628.453072,-383.047749
3249.429560,-9326.594869,-2368.659014,1608.800546
3249.429898,-12287.418637,-2072.576638,1608.800546
3249.430235,-12583.501014,-1332.370696,-1302.362347
3249.430573,-10288.862594,-444.123565,-919.314598
3249.430910,-9252.574275,-1110.308913,-459.657299
3249.431248,-11029.068536,-2664.741391,-612.876398
3249.431585,-11769.274478,-2072.576638,0.000000
3249.431923,-8882.471304,-1702.473667,536.266849
3249.432260,-9992.780217,-2220.617826,3294.210641
3249.432597,-12213.398043,-1628.453072,2681.334243
3249.432935,-11103.089130,0.000000,842.705048
3249.433272,-9992.780217,888.247130,383.047749
3249.433610,-9030.512492,370.102971,459.657299
3249.433947,-10214.842000,-518.144159,612.876398
3249.434285,-10140.821405,-222.061783,995.924147
3249.434622,-7550.100608,-888.247130,1225.752797
3249.434960,-9622.677246,-370.102971,1838.629195
3249.435297,-11917.315666,74.020594,306.438199
3249.435635,-9770.718434,1184.329507,-2068.457845
3249.435972,-8068.244768,962.267725,-1685.410096
3249.436310,-8660.409521,222.061783,-995.924147
3249.436647,-10288.862594,-444.123565,-1378.971896
3249.436985,-9252.574275,370.102971,-689.485948
3249.437322,-7772.162391,0.000000,1378.971896
3249.437659,-10436.903782,-148.041188,2451.505594
3249.437997,-12139.377449,592.164754,1378.971896
3249.438334,-10362.883188,1628.453072,0.000000
3249.438672,-9104.533087,2516.700203,536.266849
3249.439009,-11251.130318,222.061783,1072.533697
3249.439347,-11399.171507,222.061783,1378.971896
3249.439684,-8808.450710,222.061783,1149.143247
3249.440022,-8586.388927,-444.123565,2757.943793
3249.440359,-11325.150913,-740.205942,2451.505594
3249.440697,-11473.192101,0.000000,-306.438199
3249.441034,-9474.636058,1776.494261,-1302.362347
3249.441372,-8882.471304,444.123565,-1838.629195
3249.441709,-10510.924376,-518.144159,-1378.971896
3249.442047,-10362.883188,-1480.411884,-1378.971896
3249.442384,-8586.388927,-1110.308913,0.000000
3249.442721,-8512.368333,-2368.659014,842.705048
3249.443059,-11473.192101,-2886.803174,229.828649
3249.443396,-11473.192101,-1850.514855,-689.485948
3249.443734,-8808.450710,-1036.288319,-2068.457845
3249.444071,-8808.450710,-1258.350101,-459.657299
3249.444409,-11177.109724,-2516.700203,-229.828649
3249.444746,-10066.800811,-1850.514855,-383.047749
3249.445084,-8512.368333,-1332.370696,1302.362347
3249.445421,-10362.883188,-1406.391290,3447.429741
3249.445759,-12583.501014,-814.226536,2145.067394
3249.446096,-11695.253884,740.205942,842.705048
3249.446434,-9030.512492,1998.556043,0.000000
3249.446771,-9548.656652,1406.391290,383.047749
3249.447108,-11991.336260,814.226536,229.828649
3249.447446,-9548.656652,740.205942,-459.657299
3249.447783,-7846.182985,444.123565,1455.581446
3249.448121,-10066.800811,444.123565,2451.505594
3249.448458,-11991.336260,888.247130,0.000000
3249.448796,-10214.842000,2220.617826,-1072.533697
3249.449133,-7772.162391,2368.659014,-1991.848295
3249.449471,-8956.491898,592.164754,-995.924147
3249.449808,-10658.965565,296.082377,-689.485948
3249.450146,-8364.327145,0.000000,-612.876398
3249.450483,-8438.347739,-962.267725,1532.190996
3249.450821,-11029.068536,-1480.411884,1302.362347
3249.451158,-11621.233289,0.000000,-459.657299
3249.451496,-9474.636058,-740.205942,-842.705048
3249.451833,-7920.203579,-296.082377,-766.095498
3249.452170,-10066.800811,-1924.535449,153.219100
3249.452508,-10362.883188,-1480.411884,-536.266849
3249.452845,-7698.141797,-740.205942,306.438199
3249.453183,-10214.842000,-2368.659014,3524.039291
3249.453520,-12287.418637,-1110.308913,2528.115143
3249.453858,-12139.377449,0.000000,229.828649
3249.454195,-10510.924376,1110.308913,0.000000
3249.454533,-9474.636058,518.144159,383.047749
3249.454870,-11325.150913,-1406.391290,766.095498
3249.455208,-11177.109724,-888.247130,536.266849
3249.455545,-8882.471304,-814.226536,919.314598
3249.455883,-10881.027347,-2072.576638,2374.896044
3249.456220,-12583.501014,-1776.494261,383.047749
3249.456558,-10732.986159,0.000000,-1378.971896
3249.456895,-9104.533087,222.061783,-919.314598
3249.457232,-9252.574275,-740.205942,-1762.019645
3249.457570,-10732.986159,-1628.453072,-1378.971896
3249.457907,-9400.615463,-1184.329507,-689.485948
3249.458245,-7402.059420,-1406.391290,1532.190996
3249.458582,-9696.697840,-2368.659014,2451.505594
3249.458920,-11843.295072,-1110.308913,1685.410096
3249.459257,-9918.759623,370.102971,0.000000
3249.459595,-8290.306550,1036.288319,0.000000
3249.459932,-9252.574275,518.144159,995.924147
3249.460270,-10510.924376,-370.102971,1302.362347
3249.460607,-9030.512492,814.226536,1991.848295
3249.460945,-8068.244768,370.102971,2911.162892
3249.461282,-10732.986159,0.000000,2987.772442
3249.461620,-11991.336260,1332.370696,153.219100
3249.461957,-9696.697840,2368.659014,-1225.752797
3249.462294,-8586.388927,2812.782580,-1302.362347
3249.462632,-10066.800811,518.144159,-2451.505594
3249.462969,-11103.089130,740.205942,-2451.505594
3249.463307,-8364.327145,-148.041188,-2528.115143
3249.463644,-8808.450710,-1406.391290,0.000000
3249.463982,-11621.233289,-1850.514855,612.876398
3249.464319,-11695.253884,-962.267725,-1915.238745
3249.464657,-9178.553681,0.000000,-1991.848295
3249.464994,-9400.615463,-814.226536,-612.876398
3249.465332,-11251.130318,-1776.494261,-306.438199
3249.465669,-10955.047942,-2664.741391,-459.657299
3249.466007,-8956.491898,-2072.576638,1608.800546
3249.466344,-9770.718434,-3108.864956,2834.553343
3249.466682,-12509.480420,-2590.720797,2681.334243
3249.467019,-11325.150913,-1110.308913,76.609550
3249.467356,-8882.471304,74.020594,0.000000
3249.467694,-9474.636058,-370.102971,306.438199
3249.468031,-11103.089130,-1332.370696,0.000000
3249.468369,-9622.677246,-296.082377,383.047749
3249.468706,-8068.244768,-1554.432478,2145.067394
3249.469044,-9844.739029,-1258.350101,3064.381992
3249.469381,-11695.253884,0.000000,1838.629195
3249.469719,-11177.109724,1776.494261,-459.657299
3249.470056,-8956.491898,2146.597232,-995.924147
3249.470394,-9474.636058,666.185348,-1149.143247
3249.470731,-10807.006753,222.061783,-383.047749
3249.471069,-8956.491898,370.102971,-459.657299
3249.471406,-7476.080014,0.000000,995.924147
3249.471744,-11029.068536,0.000000,1762.019645
3249.472081,-11917.315666,0.000000,536.266849
3249.472418,-9622.677246,1702.473667,-995.924147
3249.472756,-8660.409521,1332.370696,-306.438199
3249.473093,-10658.965565,888.247130,536.266849
3249.473431,-11103.089130,814.226536,-229.828649
3249.473768,-8290.306550,0.000000,306.438199
3249.474106,-8882.471304,0.000000,3907.087040
3249.474443,-11695.253884,-370.102971,3370.820191
3249.474781,-11621.233289,962.267725,766.095498
3249.475118,-9326.594869,2072.576638,-1149.143247
3249.475456,-8956.491898,1702.473667,0.000000
3249.475793,-10510.924376,-370.102971,-766.095498
3249.476131,-9622.677246,-666.185348,-919.314598
3249.476468,-7624.121203,-962.267725,995.924147
3249.476806,-10066.800811,-1554.432478,3064.381992
3249.477143,-11843.295072,-1332.370696,0.000000
3249.477480,-11399.171507,-962.267725,-2221.676944
3249.477818,-9178.553681,518.144159,-2145.067394
3249.478155,-8882.471304,-962.267725,-2298.286494
3249.478493,-10955.047942,-2146.597232,-2834.553343
3249.478830,-9696.697840,-3034.844362,-2374.896044
3249.479168,-7476.080014,-3552.988522,-459.657299
3249.479505,-10140.821405,-3330.926739,1838.629195
3249.479843,-12953.603985,-2442.679609,1149.143247
3249.480180,-11251.130318,-592.164754,-995.924147
3249.480518,-9474.636058,0.000000,-1072.533697
3249.480855,-10584.944971,-666.185348,842.705048
3249.481193,-10955.047942,-1332.370696,1149.143247
3249.481530,-9918.759623,-1480.411884,2374.896044
3249.481868,-8734.430116,-222.061783,4366.744339
3249.482205,-11399.171507,-592.164754,4290.134789
3249.482542,-12361.439231,888.247130,1378.971896
3249.482880,-10807.006753,2294.638420,-995.924147
3249.483217,-8290.306550,2220.617826,-612.876398
3249.483555,-9252.574275,1258.350101,-1302.362347
3249.483892,-10288.862594,666.185348,-1915.238745
3249.484230,-7550.100608,1036.288319,-536.266849
3249.484567,-7920.203579,0.000000,1608.800546
3249.484905,-11029.068536,-148.041188,1991.848295
3249.485242,-11325.150913,1554.432478,-612.876398
3249.485579,-9474.636058,2516.700203,-2068.457845
3249.485917,-8660.409521,666.185348,-1915.238745
3249.486254,-10140.821405,-814.226536,-229.828649
3249.486592,-10362.883188,-666.185348,1072.533697
3249.486929,-8290.306550,-1406.391290,1302.362347
3249.487267,-9178.553681,-1702.473667,2834.553343
3249.487604,-11917.315666,-2368.659014,2068.457845
3249.487941,-11325.150913,-740.205942,383.047749
3249.488279,-8956.491898,666.185348,-306.438199
3249.488616,-9474.636058,0.000000,459.657299
3249.488954,-11103.089130,-148.041188,-229.828649
3249.489291,-10510.924376,-518.144159,76.609550
3249.489629,-8882.471304,-666.185348,1608.800546
3249.489966,-10362.883188,-1998.556043,2987.772442
3249.490303,-12139.377449,-1258.350101,1608.800546
3249.490641,-11177.109724,814.226536,-1225.752797
3249.490978,-9252.574275,888.247130,-1915.238745
3249.491316,-10066.800811,-296.082377,-1455.581446
3249.491653,-11399.171507,-2146.597232,-995.924147
3249.491991,-9178.553681,-1924.535449,-536.266849
3249.492328,-8068.244768,-1998.556043,1455.581446
3249.492665,-11103.089130,-2072.576638,1991.848295
3249.493003,-12213.398043,-1406.391290,-383.047749
3249.493340,-9992.780217,-296.082377,-1991.848295
3249.493678,-8956.491898,370.102971,-612.876398
3249.494015,-9992.780217,0.000000,-1072.533697
3249.494353,-10584.944971,-148.041188,-1762.019645
3249.494690,-8882.471304,-1036.288319,459.657299
3249.495027,-8142.265362,-1110.308913,2987.772442
3249.495365,-10881.027347,-370.102971,3370.820191
3249.495702,-11769.274478,1258.350101,1149.143247
3249.496040,-9548.656652,3256.906145,-612.876398
3249.496377,-9104.533087,2960.823768,-383.047749
3249.496715,-10288.862594,1406.391290,229.828649
3249.497052,-10066.800811,962.267725,689.485948
3249.497389,-7772.162391,888.247130,2528.115143
3249.497727,-9030.512492,592.164754,2681.334243
3249.498064,-11917.315666,518.144159,612.876398
3249.498402,-11547.212695,1184.329507,-1762.019645
3249.498739,-8956.491898,1406.391290,-2298.286494
3249.499077,-8364.327145,740.205942,-2528.115143
3249.499414,-9918.759623,-370.102971,-2528.115143
3249.499751,-9992.780217,-1184.329507,-2451.505594
3249.500089,-7105.977043,-3108.864956,-919.314598
3249.500426,-9918.759623,-2812.782580,1838.629195
3249.500764,-12879.583391,-2146.597232,1608.800546
3249.501101,-11917.315666,0.000000,-1225.752797
3249.501439,-9252.574275,0.000000,-1532.190996
3249.501776,-9770.718434,-1406.391290,0.000000
3249.502114,-11029.068536,-2960.823768,1302.362347
3249.502451,-9696.697840,-2072.576638,2298.286494
3249.502788,-8882.471304,-2590.720797,3907.087040
3249.503126,-11769.274478,-2442.679609,4673.182538
3249.503463,-12435.459826,-1480.411884,1991.848295
3249.503801,-10584.944971,814.226536,-612.876398
3249.504138,-8956.491898,888.247130,306.438199
3249.504476,-10288.862594,74.020594,0.000000
3249.504813,-10288.862594,-666.185348,-1378.971896
3249.505150,-8142.265362,-592.164754,-229.828649
3249.505488,-7994.224174,-1480.411884,2834.553343
3249.505825,-10955.047942,-1702.473667,2528.115143
3249.506163,-11843.295072,740.205942,-383.047749
3249.506500,-9770.718434,1924.535449,-2528.115143
3249.506838,-8438.347739,1702.473667,-1378.971896
3249.507175,-9696.697840,-666.185348,-919.314598
3249.507512,-10584.944971,-1184.329507,536.266849
3249.507850,-8216.285956,-518.144159,1762.019645
3249.508187,-9474.636058,-370.102971,3140.991542
3249.508525,-11917.315666,296.082377,2221.676944
3249.508862,-11473.192101,222.061783,153.219100
3249.509200,-9252.574275,2220.617826,-153.219100
3249.509537,-9474.636058,1554.432478,536.266849
3249.509874,-11547.212695,962.267725,-229.828649
3249.510212,-9844.739029,148.041188,-1302.362347
3249.510549,-8290.306550,296.082377,1225.752797
3249.510887,-9326.594869,-666.185348,2757.943793
3249.511224,-11843.295072,-222.061783,612.876398
3249.511562,-10881.027347,740.205942,-1072.533697
3249.511899,-8364.327145,2294.638420,-2451.505594
3249.512236,-9104.533087,0.000000,-1608.800546
3249.512574,-10807.006753,-1184.329507,-1532.190996
3249.512911,-9474.636058,-1258.350101,-536.266849
3249.513249,-8882.471304,-2368.659014,1685.410096
3249.513586,-10362.883188,-2442.679609,1072.533697
3249.513924,-11843.295072,-2072.576638,-766.095498
3249.514261,-10436.903782,-1184.329507,-2221.676944
3249.514598,-8290.306550,-1036.288319,-1532.190996
3249.514936,-9918.759623,-1628.453072,-1608.800546
3249.515273,-11547.212695,-1924.535449,-1455.581446
3249.515611,-9104.533087,-1480.411884,-1302.362347
3249.515948,-8808.450710,-2738.761985,2451.505594
3249.516286,-11695.253884,-2368.659014,4443.353888
3249.516623,-12139.377449,-296.082377,2068.457845
3249.516960,-10732.986159,1776.494261,229.828649
3249.517298,-9548.656652,2072.576638,383.047749
3249.517635,-11029.068536,740.205942,1072.533697
3249.517973,-11103.089130,592.164754,1225.752797
3249.518310,-9252.574275,444.123565,2681.334243
3249.518648,-8734.430116,148.041188,3830.477490
3249.518985,-11621.233289,222.061783,2298.286494
3249.519322,-11103.089130,2294.638420,-459.657299
3249.519660,-8364.327145,2516.700203,-1838.629195
3249.519997,-8808.450710,1850.514855,-612.876398
3249.520335,-10140.821405,814.226536,-1302.362347
3249.520672,-9104.533087,148.041188,-1225.752797
3249.521010,-7328.038826,0.000000,0.000000
3249.521347,-8660.409521,-1480.411884,2528.115143
3249.521685,-11399.171507,-814.226536,995.924147
3249.522022,-10584.944971,666.185348,-1378.971896
3249.522359,-9252.574275,2072.576638,-1225.752797
3249.522697,-9178.553681,0.000000,-1225.752797
3249.523034,-10732.986159,-1480.411884,-536.266849
3249.523372,-9548.656652,-1628.453072,919.314598
3249.523709,-8364.327145,-1480.411884,2528.115143
3249.524047,-10732.986159,-1258.350101,3753.867940
3249.524384,-13101.645173,-740.205942,1225.752797
3249.524721,-10066.800811,740.205942,-842.705048
3249.525059,-9844.739029,1702.473667,-1225.752797
3249.525396,-10732.986159,0.000000,-1532.190996
3249.525734,-11325.150913,-962.267725,-2221.676944
3249.526071,-9252.574275,-888.247130,-1072.533697
3249.526409,-7994.224174,-2294.638420,919.314598
3249.526746,-10658.965565,-2368.659014,1685.410096
3249.527083,-12213.398043,-1332.370696,-76.609550
3249.527421,-9918.759623,0.000000,-2987.772442
3249.527758,-8956.491898,296.082377,-2374.896044
3249.528096,-10955.047942,-1776.494261,-1072.533697
3249.528433,-10732.986159,-2516.700203,0.000000
3249.528771,-8068.244768,-2368.659014,1915.238745
3249.529108,-8438.347739,-1776.494261,3140.991542
3249.529445,-11473.192101,-1554.432478,2834.553343
3249.529783,-11991.336260,-296.082377,0.000000
3249.530120,-9474.636058,740.205942,536.266849
3249.530458,-9030.512492,814.226536,229.828649
3249.530795,-10214.842000,370.102971,689.485948
3249.531133,-10066.800811,962.267725,383.047749
3249.531470,-7772.162391,814.226536,1838.629195
3249.531807,-8438.347739,518.144159,3217.601092
3249.532145,-11621.233289,1332.370696,2834.553343
3249.532482,-11695.253884,3330.926739,229.828649
3249.532820,-9178.553681,3775.050304,-1072.533697
3249.533157,-9918.759623,2294.638420,0.000000
3249.533495,-10732.986159,1258.350101,-689.485948
3249.533832,-9548.656652,222.061783,-229.828649
3249.534169,-8438.347739,0.000000,2374.896044
3249.534507,-9548.656652,-888.247130,1685.410096
3249.534844,-11399.171507,-666.185348,-612.876398
3249.535182,-10066.800811,0.000000,-2604.724693
3249.535519,-8216.285956,74.020594,-1762.019645
3249.535857,-9770.718434,-1480.411884,-153.219100
3249.536194,-11547.212695,-1850.514855,-766.095498
3249.536531,-9326.594869,-962.267725,-995.924147
3249.536869,-9030.512492,-2368.659014,1378.971896
3249.537206,-11177.109724,-3256.906145,2911.162892
3249.537544,-11621.233289,-2368.659014,1149.143247
3249.537881,-10140.821405,0.000000,0.000000
3249.538219,-9178.553681,222.061783,76.609550
3249.538556,-10584.944971,-1184.329507,-383.047749
3249.538893,-11103.089130,-1702.473667,76.609550
3249.539231,-9030.512492,-1554.432478,1302.362347
3249.539568,-9030.512492,-1110.308913,3600.648841
3249.539906,-11695.253884,-1184.329507,2451.505594
3249.540243,-11843.295072,148.041188,0.000000
3249.540581,-9474.636058,1332.370696,-995.924147
3249.540918,-9474.636058,1406.391290,-766.095498
3249.541256,-10658.965565,-148.041188,-1532.190996
3249.541593,-10732.986159,-222.061783,-2298.286494
3249.541930,-7846.182985,-370.102971,-229.828649
3249.542268,-9474.636058,-1332.370696,1455.581446
3249.542605,-11399.171507,-1332.370696,995.924147
3249.542943,-10658.965565,296.082377,0.000000
3249.543280,-8956.491898,1110.308913,-306.438199
3249.543618,-9400.615463,814.226536,-229.828649
3249.543955,-10584.944971,-518.144159,459.657299
3249.544292,-10140.821405,-370.102971,612.876398
3249.544630,-7476.080014,-518.144159,2834.553343
3249.544967,-10214.842000,148.041188,4673.182538
3249.545305,-12065.356855,1036.288319,1762.019645
3249.545642,-10955.047942,1628.453072,-459.657299
3249.545980,-9400.615463,2294.638420,-76.609550
3249.546317,-9474.636058,666.185348,-842.705048
3249.546654,-10881.027347,888.247130,-536.266849
3249.546992,-9178.553681,74.020594,-1302.362347
3249.547329,-7624.121203,-814.226536,842.705048
3249.547667,-10362.883188,-1332.370696,1838.629195
3249.548004,-11843.295072,-666.185348,0.000000
3249.548342,-9918.759623,1258.350101,-2145.067394
3249.548679,-9622.677246,296.082377,-2298.286494
3249.549016,-10288.862594,-1184.329507,-1838.629195
3249.549354,-10807.006753,-2220.617826,-1608.800546
3249.549691,-9326.594869,-2294.638420,536.266849
3249.550029,-8660.409521,-2960.823768,2221.676944
3249.550366,-10955.047942,-3627.009116,1532.190996
3249.550704,-11991.336260,-1998.556043,-306.438199
3249.551041,-10436.903782,-444.123565,-842.705048
3249.551378,-9178.553681,-962.267725,0.000000
3249.551716,-10807.006753,-1110.308913,-459.657299
3249.552053,-10510.924376,-1184.329507,1225.752797
3249.552391,-9178.553681,-666.185348,2298.286494
3249.552728,-9474.636058,-1184.329507,3753.867940
3249.553066,-11843.295072,-222.061783,3294.210641
3249.553403,-11325.150913,1480.411884,383.047749
3249.553740,-9400.615463,2664.741391,-306.438199
3249.554078,-9622.677246,2146.597232,0.000000
3249.554415,-10214.842000,962.267725,-153.219100
3249.554753,-9326.594869,888.247130,0.000000
3249.555090,-7624.121203,814.226536,1149.143247
3249.555428,-9844.739029,0.000000,2221.676944
3249.555765,-11917.315666,444.123565,536.266849
3249.556102,-9844.739029,1776.494261,-1915.238745
3249.556440,-7994.224174,1776.494261,-1762.019645
3249.556777,-9326.594869,666.185348,-153.219100
3249.557115,-11325.150913,-222.061783,-1225.752797
3249.557452,-9844.739029,-74.020594,-995.924147
3249.557790,-7994.224174,0.000000,1838.629195
3249.558127,-10362.883188,-1776.494261,2451.505594
3249.558464,-12361.439231,-370.102971,1532.190996
3249.558802,-10362.883188,592.164754,0.000000
3249.559139,-9104.533087,1036.288319,-153.219100
3249.559477,-9918.759623,0.000000,766.095498
3249.559814,-11843.295072,-370.102971,1072.533697
3249.560152,-9548.656652,0.000000,1302.362347
3249.560489,-8956.491898,-1036.288319,2221.676944
3249.560827,-12065.356855,-814.226536,2604.724693
3249.561164,-11991.336260,-592.164754,-689.485948
3249.561501,-9178.553681,-74.020594,-2145.067394
3249.561839,-8364.327145,0.000000,-1838.629195
3249.562176,-10362.883188,-1258.350101,-1685.410096
3249.562514,-10807.006753,-1406.391290,-2681.334243
3249.562851,-8734.430116,-1850.514855,-1532.190996
3249.563189,-8364.327145,-2812.782580,153.219100
3249.563526,-11547.212695,-3182.885551,153.219100
3249.563863,-11103.089130,-1554.432478,-1225.752797
3249.564201,-8734.430116,-370.102971,-2451.505594
3249.564538,-9178.553681,-1480.411884,0.000000
3249.564876,-10955.047942,-2294.638420,0.000000
3249.565213,-10510.924376,-1702.473667,536.266849
3249.565551,-9178.553681,-1258.350101,3524.039291
3249.565888,-10436.903782,-2294.638420,4749.792088
3249.566225,-12065.356855,222.061783,3294.210641
3249.566563,-11177.109724,888.247130,842.705048
3249.566900,-9548.656652,1998.556043,689.485948
3249.567238,-9696.697840,1480.411884,919.314598
3249.567575,-11103.089130,1406.391290,-306.438199
3249.567913,-9548.656652,1924.535449,-306.438199
3249.568250,-7698.141797,666.185348,1302.362347
3249.568587,-10140.821405,0.000000,2757.943793
3249.568925,-11251.130318,518.144159,536.266849
3249.569262,-9992.780217,1776.494261,-1149.143247
3249.569600,-8734.430116,1776.494261,-1455.581446
3249.569937,-9252.574275,0.000000,-1838.629195
3249.570275,-10288.862594,-592.164754,-1225.752797
3249.570612,-8882.471304,-1184.329507,-306.438199
3249.570949,-8290.306550,-1850.514855,2068.457845
3249.571287,-10584.944971,-2516.700203,2145.067394
3249.571624,-11991.336260,-1850.514855,689.485948
3249.571962,-10066.800811,-444.123565,-153.219100
3249.572299,-9030.512492,-518.144159,-383.047749
3249.572637,-10807.006753,-1924.535449,-229.828649
3249.572974,-11029.068536,-1850.514855,-1072.533697
3249.573311,-8660.409521,-1406.391290,459.657299
3249.573649,-9030.512492,-1480.411884,2145.067394
3249.573986,-11917.315666,-1924.535449,2221.676944
3249.574324,-11769.274478,-148.041188,-459.657299
3249.574661,-10066.800811,962.267725,-919.314598
3249.574999,-9400.615463,1332.370696,-842.705048
3249.575336,-11177.109724,0.000000,-536.266849
3249.575673,-10436.903782,222.061783,-459.657299
3249.576011,-7920.203579,0.000000,0.000000
3249.576348,-9844.739029,-518.144159,1685.410096
3249.576686,-12435.459826,-296.082377,0.000000
3249.577023,-11177.109724,296.082377,-2374.896044
3249.577361,-8882.471304,1406.391290,-2374.896044
3249.577698,-8956.491898,0.000000,-1991.848295
3249.578035,-10214.842000,-444.123565,-1685.410096
3249.578373,-9252.574275,-518.144159,-1455.581446
3249.578710,-8068.244768,-740.205942,1455.581446
3249.579048,-10288.862594,-814.226536,2604.724693
3249.579385,-12213.398043,-148.041188,1762.019645
3249.579723,-10362.883188,1554.432478,689.485948
3249.580060,-8586.388927,1406.391290,612.876398
3249.580398,-9770.718434,1628.453072,1685.410096
3249.580735,-11103.089130,592.164754,1455.581446
3249.581072,-9252.574275,814.226536,1455.581446
3249.581410,-8364.327145,0.000000,3217.601092
3249.581747,-11843.295072,296.082377,2987.772442
3249.582085,-11547.212695,444.123565,842.705048
3249.582422,-9400.615463,1332.370696,-919.314598
3249.582760,-8290.306550,1036.288319,-612.876398
3249.583097,-9400.615463,0.000000,-612.876398
3249.583434,-10658.965565,-518.144159,-1608.800546
3249.583772,-9030.512492,-148.041188,-1072.533697
3249.584109,-9178.553681,-1998.556043,1302.362347
3249.584447,-11621.233289,-1998.556043,1608.800546
3249.584784,-11177.109724,-1332.370696,-1991.848295
3249.585121,-9400.615463,-444.123565,-2221.676944
3249.585459,-9400.615463,-1184.329507,-1225.752797
3249.585796,-10510.924376,-3256.906145,-995.924147
3249.586134,-10658.965565,-2146.597232,-153.219100
3249.586471,-9326.594869,-2664.741391,1915.238745
3249.586808,-10362.883188,-2442.679609,3600.648841
3249.587146,-12953.603985,-2442.679609,2834.553343
3249.587483,-11325.150913,-444.123565,1762.019645
3249.587820,-9030.512492,962.267725,766.095498
3249.588158,-10362.883188,518.144159,1608.800546
3249.588495,-11843.295072,74.020594,689.485948
3249.588833,-10362.883188,-74.020594,0.000000
3249.589170,-8216.285956,592.164754,919.314598
3249.589507,-9844.739029,-592.164754,2298.286494
3249.589845,-11991.336260,148.041188,919.314598
3249.590182,-9252.574275,1184.329507,-1838.629195
3249.590519,-8364.327145,2146.597232,-1225.752797
3249.590857,-8956.491898,962.267725,-1225.752797
3249.591194,-10288.862594,-148.041188,-1915.238745
3249.591532,-9104.533087,-518.144159,-459.657299
3249.591869,-7476.080014,-296.082377,1608.800546
3249.592206,-10362.883188,-1110.308913,2987.772442
3249.592544,-12139.377449,-518.144159,612.876398
3249.592881,-9548.656652,666.185348,-1149.143247
3249.593218,-9252.574275,962.267725,0.000000
3249.593556,-10362.883188,-740.205942,-689.485948
3249.593893,-10881.027347,-888.247130,-1149.143247
3249.594230,-8734.430116,-1554.432478,689.485948
3249.594568,-8882.471304,-1554.432478,2757.943793
3249.594905,-11695.253884,-888.247130,2221.676944
3249.595243,-12435.459826,74.020594,153.219100
3249.595580,-9844.739029,1702.473667,-1302.362347
3249.595917,-9548.656652,296.082377,-919.314598
3249.596255,-11399.171507,0.000000,-306.438199
3249.596592,-10362.883188,-888.247130,-919.314598
3249.596929,-8808.450710,-1258.350101,842.705048
3249.597267,-9474.636058,-1850.514855,2221.676944
3249.597604,-11769.274478,-2294.638420,536.266849
3249.597942,-11251.130318,-518.144159,-1378.971896
3249.598279,-9030.512492,-296.082377,-1991.848295
3249.598616,-8882.471304,-222.061783,-1991.848295
3249.598954,-10955.047942,-1924.535449,-2221.676944
3249.599291,-9770.718434,-1258.350101,-1838.629195
3249.599628,-7476.080014,-2146.597232,306.438199
3249.599966,-9696.697840,-2516.700203,3600.648841
3249.600303,-12213.398043,-740.205942,1991.848295
3249.600641,-10732.986159,740.205942,-153.219100
3249.600978,-9474.636058,1332.370696,-306.438199
3249.601315,-10214.842000,0.000000,1302.362347
3249.601653,-11251.130318,370.102971,1225.752797
3249.601990,-9548.656652,1554.432478,1762.019645
3249.602327,-9178.553681,1036.288319,3907.087040
3249.602665,-11399.171507,592.164754,3370.820191
3249.603002,-11843.295072,1924.535449,689.485948
3249.603340,-9770.718434,2886.803174,0.000000
3249.603677,-8660.409521,3182.885551,0.000000
3249.604014,-9622.677246,2072.576638,-306.438199
3249.604352,-11029.068536,1184.329507,-1915.238745
3249.604689,-8142.265362,666.185348,-842.705048
3249.605026,-8734.430116,-444.123565,1991.848295
3249.605364,-10955.047942,-1332.370696,1838.629195
3249.605701,-10584.944971,74.020594,-1455.581446
3249.606039,-9252.574275,518.144159,-2451.505594
3249.606376,-8216.285956,-592.164754,-2221.676944
3249.606713,-9844.739029,-1776.494261,-1072.533697
3249.607051,-10732.986159,-2590.720797,-536.266849
3249.607388,-8438.347739,-2072.576638,383.047749
3249.607725,-10066.800811,-2590.720797,2681.334243
3249.608063,-12953.603985,-2368.659014,2528.115143
3249.608400,-11769.274478,-1628.453072,-76.609550
3249.608737,-9252.574275,-444.123565,-229.828649
3249.609075,-9548.656652,-444.123565,-536.266849
3249.609412,-10955.047942,-1406.391290,-383.047749
3249.609750,-10658.965565,-1110.308913,-689.485948
3249.610087,-8586.388927,-1480.411884,1532.190996
3249.610424,-10436.903782,-1554.432478,2987.772442
3249.610762,-12583.501014,-592.164754,1455.581446
3249.611099,-11325.150913,1110.308913,-919.314598
3249.611436,-8586.388927,518.144159,-1608.800546
3249.611774,-9474.636058,222.061783,-919.314598
3249.612111,-10732.986159,-962.267725,-995.924147
3249.612449,-9474.636058,-666.185348,-995.924147
3249.612786,-8216.285956,-1036.288319,766.095498
3249.613123,-10955.047942,-2294.638420,2451.505594
3249.613461,-11473.192101,-592.164754,459.657299
3249.613798,-9474.636058,0.000000,-1302.362347
3249.614135,-8216.285956,370.102971,153.219100
3249.614473,-9474.636058,0.000000,-76.609550
3249.614810,-10436.903782,-592.164754,-612.876398
3249.615148,-8734.430116,222.061783,459.657299
3249.615485,-8216.285956,-888.247130,3217.601092
3249.615822,-11473.192101,-518.144159,4366.744339
3249.616160,-11843.295072,1924.535449,1915.238745
3249.616497,-9474.636058,2442.679609,-306.438199
3249.616834,-9252.574275,1850.514855,383.047749
3249.617172,-10807.006753,592.164754,229.828649
3249.617509,-10214.842000,444.123565,0.000000
3249.617847,-8882.471304,296.082377,1149.143247
3249.618184,-9326.594869,-592.164754,2987.772442
3249.618521,-11399.171507,-1036.288319,1608.800546
3249.618859,-11251.130318,74.020594,-383.047749
3249.619196,-9252.574275,592.164754,-1838.629195
3249.619533,-9474.636058,444.123565,-1532.190996
3249.619871,-10955.047942,-1332.370696,-2451.505594
3249.620208,-9770.718434,-1850.514855,-2298.286494
3249.620546,-8290.306550,-2368.659014,229.828649
3249.620883,-9548.656652,-3478.967927,2681.334243
3249.621220,-12065.356855,-3330.926739,1225.752797
3249.621558,-11325.150913,-1036.288319,-995.924147
3249.621895,-8882.471304,0.000000,-766.095498
3249.622232,-9844.739029,-370.102971,-689.485948
3249.622570,-10955.047942,-1850.514855,0.000000
3249.622907,-9400.615463,-962.267725,1225.752797
3249.623245,-8956.491898,-1110.308913,4060.306139
3249.623582,-10955.047942,-962.267725,4213.525239
3249.623919,-12509.480420,222.061783,1302.362347
3249.624257,-10584.944971,1628.453072,-1149.143247
3249.624594,-8512.368333,2960.823768,-1149.143247
3249.624931,-10658.965565,1702.473667,-459.657299
3249.625269,-10436.903782,740.205942,-2451.505594
3249.625606,-7624.121203,518.144159,-2145.067394
3249.625943,-7994.224174,296.082377,995.924147
3249.626281,-10807.006753,0.000000,1838.629195
3249.626618,-11473.192101,1110.308913,-459.657299
3249.626956,-9178.553681,1924.535449,-3064.381992
3249.627293,-8068.244768,1406.391290,-1991.848295
3249.627630,-9918.759623,222.061783,-1225.752797
3249.627968,-10436.903782,-1110.308913,-689.485948
3249.628305,-8068.244768,-296.082377,919.314598
3249.628642,-9252.574275,-1258.350101,3907.087040
3249.628980,-11917.315666,-1258.350101,2451.505594
3249.629317,-11473.192101,0.000000,0.000000
3249.629655,-9770.718434,518.144159,-612.876398
3249.629992,-9474.636058,592.164754,0.000000
3249.630329,-10214.842000,-222.061783,-689.485948
3249.630667,-10584.944971,0.000000,-306.438199
3249.631004,-9030.512492,-1110.308913,1302.362347
3249.631341,-9622.677246,-1628.453072,2757.943793
3249.631679,-12213.398043,-666.185348,1915.238745
3249.632016,-11621.233289,888.247130,306.438199
3249.632354,-9400.615463,740.205942,-1072.533697
3249.632691,-9474.636058,-888.247130,-459.657299
3249.633028,-10732.986159,-1924.535449,-306.438199
3249.633366,-9548.656652,-1628.453072,-306.438199
3249.633703,-8882.471304,-2516.700203,1685.410096
3249.634040,-10436.903782,-2442.679609,2221.676944
3249.634378,-11917.315666,-2368.659014,536.266849
3249.634715,-10140.821405,-1110.308913,-1225.752797
3249.635053,-8142.265362,0.000000,-919.314598
3249.635390,-9770.718434,-1184.329507,-229.828649
3249.635727,-10955.047942,-1480.411884,-1072.533697
3249.636065,-8956.491898,-1480.411884,-459.657299
3249.636402,-8512.368333,-1480.411884,3370.820191
3249.636739,-11843.295072,-1406.391290,4903.011187
3249.637077,-11843.295072,222.061783,1838.629195
3249.637414,-9548.656652,1998.556043,0.000000
3249.637752,-9030.512492,2368.659014,612.876398
3249.638089,-10288.862594,1332.370696,1072.533697
3249.638426,-10955.047942,1406.391290,536.266849
3249.638764,-8364.327145,1036.288319,766.095498
3249.639101,-8438.347739,740.205942,1991.848295
3249.639438,-11547.212695,518.144159,1072.533697
3249.639776,-11103.089130,1036.288319,-689.485948
3249.640113,-9030.512492,1702.473667,-2757.943793
3249.640451,-8512.368333,1702.473667,-2528.115143
3249.640788,-10214.842000,222.061783,-2987.772442
3249.641125,-9918.759623,-592.164754,-3524.039291
3249.641463,-7698.141797,-2072.576638,-689.485948
3249.641800,-8734.430116,-2442.679609,2374.896044
3249.642137,-11103.089130,-2590.720797,2145.067394
3249.642475,-11251.130318,-592.164754,-689.485948
3249.642812,-9474.636058,74.020594,-1762.019645
3249.643149,-9474.636058,-814.226536,-766.095498
3249.643487,-11177.109724,-1702.473667,-383.047749
3249.643824,-9918.759623,-1776.494261,153.219100
3249.644162,-8512.368333,-2368.659014,3064.381992
3249.644499,-11325.150913,-1998.556043,4366.744339
3249.644836,-12731.542202,-1110.308913,689.485948
3249.645174,-10955.047942,518.144159,-995.924147
3249.645511,-9474.636058,592.164754,0.000000
3249.645848,-10140.821405,0.000000,0.000000
3249.646186,-11325.150913,74.020594,-842.705048
3249.646523,-9326.594869,-296.082377,-766.095498
3249.646861,-8512.368333,-1184.329507,1378.971896
3249.647198,-11103.089130,-814.226536,2528.115143
3249.647535,-11843.295072,222.061783,383.047749
3249.647873,-10140.821405,1628.453072,-1072.533697
3249.648210,-9030.512492,962.267725,-1225.752797
3249.648547,-10140.821405,-592.164754,-536.266849
3249.648885,-10362.883188,-592.164754,0.000000
3249.649222,-8734.430116,-888.247130,1685.410096
3249.649560,-9030.512492,-592.164754,3830.477490
3249.649897,-11473.192101,-962.267725,2374.896044
3249.650234,-11325.150913,74.020594,842.705048
3249.650572,-9400.615463,1998.556043,919.314598
3249.650909,-8882.471304,1184.329507,1455.581446
3249.651246,-10584.944971,1036.288319,919.314598
3249.651584,-10362.883188,888.247130,229.828649
3249.651921,-8216.285956,1332.370696,612.876398
3249.652259,-9326.594869,0.000000,2451.505594
3249.652596,-11843.295072,148.041188,2145.067394
3249.652933,-10658.965565,1480.411884,-383.047749
3249.653271,-9104.533087,1998.556043,-1838.629195
3249.653608,-9252.574275,888.247130,-1455.581446
3249.653945,-10362.883188,-888.247130,-1685.410096
3249.654283,-9622.677246,-740.205942,-383.047749
3249.654620,-8808.450710,-1184.329507,689.485948
3249.654958,-10584.944971,-1184.329507,2068.457845
3249.655295,-12435.459826,-1628.453072,-995.924147
3249.655632,-10807.006753,-666.185348,-2834.553343
3249.655970,-8734.430116,-740.205942,-2681.334243
3249.656307,-9992.780217,-1406.391290,-919.314598
3249.656644,-11399.171507,-2812.782580,-1915.238745
3249.656982,-9400.615463,-2368.659014,-1608.800546
3249.657319,-8808.450710,-2886.803174,1608.800546
3249.657656,-11103.089130,-2960.823768,2911.162892
3249.657994,-12065.356855,-1258.350101,1532.190996
3249.658331,-10140.821405,814.226536,76.609550
3249.658669,-8956.491898,1184.329507,0.000000
3249.659006,-10584.944971,-296.082377,919.314598
3249.659343,-11251.130318,-518.144159,1225.752797
3249.659681,-9178.553681,-296.082377,2145.067394
3249.660018,-8660.409521,-296.082377,3064.381992
3249.660355,-11547.212695,814.226536,2757.943793
3249.660693,-11695.253884,962.267725,-689.485948
3249.661030,-9030.512492,2072.576638,-1532.190996
3249.661368,-8068.244768,1332.370696,-612.876398
3249.661705,-10584.944971,1184.329507,-1072.533697
3249.662042,-9696.697840,296.082377,-2451.505594
3249.662380,-8142.265362,74.020594,-612.876398
3249.662717,-8882.471304,-1332.370696,2451.505594
3249.663054,-10732.986159,-740.205942,2374.896044
3249.663392,-11399.171507,592.164754,842.705048
3249.663729,-9400.615463,2072.576638,-1378.971896
3249.664067,-9770.718434,518.144159,-153.219100
3249.664404,-11547.212695,-592.164754,842.705048
3249.664741,-9696.697840,-888.247130,536.266849
3249.665079,-7846.182985,-666.185348,2757.943793
3249.665416,-10140.821405,-1258.350101,3753.867940
3249.665753,-11473.192101,-814.226536,1685.410096
3249.666091,-10732.986159,1406.391290,-689.485948
3249.666428,-9104.533087,370.102971,-459.657299
3249.666766,-9474.636058,-296.082377,76.609550
3249.667103,-11029.068536,-1110.308913,-766.095498
3249.667440,-9622.677246,-592.164754,-842.705048
3249.667778,-7994.224174,-1480.411884,919.314598
3249.668115,-10732.986159,-2294.638420,1762.019645
3249.668452,-11991.336260,-1184.329507,306.438199
3249.668790,-9918.759623,-370.102971,-1838.629195
3249.669127,-9178.553681,74.020594,-2145.067394
3249.669465,-10584.944971,-2294.638420,-1302.362347
3249.669802,-10955.047942,-2294.638420,-1378.971896
3249.670139,-8660.409521,-2146.597232,-612.876398
3249.670477,-8882.471304,-1924.535449,2681.334243
3249.670814,-11843.295072,-2368.659014,2604.724693
3249.671151,-12139.377449,-666.185348,0.000000
3249.671489,-9918.759623,0.000000,0.000000
3249.671826,-8956.491898,1258.350101,229.828649
3249.672164,-10955.047942,-296.082377,1072.533697
3249.672501,-11029.068536,444.123565,0.000000
3249.672838,-8216.285956,518.144159,1149.143247
3249.673176,-9030.512492,0.000000,4136.915689
3249.673513,-11399.171507,1332.370696,2834.553343
3249.673850,-10955.047942,1998.556043,0.000000
3249.674188,-9178.553681,2960.823768,-153.219100
3249.674525,-8734.430116,2590.720797,0.000000
3249.674862,-10214.842000,962.267725,-689.485948
3249.675200,-9400.615463,296.082377,-1072.533697
3249.675537,-7476.080014,296.082377,153.219100
3249.675875,-9770.718434,-444.123565,1072.533697
3249.676212,-11547.212695,444.123565,-459.657299
3249.676549,-9548.656652,74.020594,-3370.820191
3249.676887,-8586.388927,666.185348,-2068.457845
3249.677224,-8808.450710,-666.185348,-1378.971896
3249.677561,-10584.944971,-1628.453072,-995.924147
3249.677899,-9548.656652,-1480.411884,-1225.752797
3249.678236,-8586.388927,-2368.659014,1149.143247
3249.678574,-10658.965565,-1924.535449,3447.429741
3249.678911,-12731.542202,-1628.453072,1915.238745
3249.679248,-10955.047942,740.205942,0.000000
3249.679586,-9622.677246,518.144159,-306.438199
3249.679923,-11029.068536,-962.267725,995.924147
3249.680260,-11695.253884,-1036.288319,229.828649
3249.680598,-9400.615463,-1332.370696,766.095498
3249.680935,-9696.697840,-888.247130,2987.772442
3249.681273,-11695.253884,-1702.473667,2298.286494
3249.681610,-11917.315666,-222.061783,-536.266849
3249.681947,-9400.615463,1258.350101,-1915.238745
3249.682285,-9178.553681,814.226536,76.609550
3249.682622,-10140.821405,-888.247130,-459.657299
3249.682959,-10140.821405,-222.061783,-2145.067394
3249.683297,-8438.347739,-296.082377,-612.876398
3249.683634,-8808.450710,-1554.432478,1072.533697
3249.683972,-10732.986159,-1998.556043,1762.019645
3249.684309,-10955.047942,-222.061783,-383.047749
3249.684646,-8734.430116,962.267725,0.000000
3249.684984,-9178.553681,518.144159,612.876398
3249.685321,-10658.965565,-888.247130,383.047749
3249.685658,-9622.677246,0.000000,459.657299
3249.685996,-8364.327145,0.000000,2451.505594
3249.686333,-9474.636058,-370.102971,4213.525239
3249.686671,-11769.274478,518.144159,2757.943793
3249.687008,-11399.171507,1702.473667,306.438199
3249.687345,-8882.471304,3256.906145,0.000000
3249.687683,-10066.800811,1480.411884,229.828649
3249.688020,-11547.212695,1258.350101,-612.876398
3249.688357,-9474.636058,814.226536,-1838.629195
3249.688695,-7994.224174,0.000000,689.485948
3249.689032,-9696.697840,-888.247130,1608.800546
3249.689370,-11695.253884,-518.144159,-229.828649
3249.689707,-10436.903782,814.226536,-2374.896044
3249.690044,-9178.553681,666.185348,-2528.115143
3249.690382,-9622.677246,-740.205942,-2221.676944
3249.690719,-10955.047942,-2442.679609,-1991.848295
3249.691056,-9326.594869,-2368.659014,-689.485948
3249.691394,-8216.285956,-3627.009116,1225.752797
3249.691731,-11103.089130,-2368.659014,2068.457845
3249.692069,-12139.377449,-2812.782580,0.000000
3249.692406,-9992.780217,-1184.329507,-1762.019645
3249.692743,-8660.409521,-1480.411884,-919.314598
3249.693081,-10658.965565,-2516.700203,0.000000
3249.693418,-10807.006753,-1554.432478,306.438199
3249.693755,-8808.450710,-1406.391290,1149.143247
3249.694093,-9030.512492,-1184.329507,3907.087040
3249.694430,-11251.130318,-518.144159,3294.210641
3249.694768,-11769.274478,666.185348,1149.143247
3249.695105,-10140.821405,2220.617826,459.657299
3249.695442,-9844.739029,1998.556043,1225.752797
3249.695780,-11177.109724,370.102971,842.705048
3249.696117,-10140.821405,1036.288319,-612.876398
3249.696454,-7550.100608,888.247130,229.828649
3249.696792,-9474.636058,0.000000,2451.505594
3249.697129,-11399.171507,296.082377,689.485948
3249.697467,-10214.842000,1406.391290,-1455.581446
3249.697804,-8734.430116,1998.556043,-1455.581446
3249.698141,-9104.533087,592.164754,-919.314598
3249.698479,-10214.842000,0.000000,-1072.533697
3249.698816,-9622.677246,296.082377,-612.876398
3249.699153,-7772.162391,-370.102971,995.924147
3249.699491,-9770.718434,-1406.391290,2451.505594
3249.699828,-11621.233289,-962.267725,1608.800546
3249.700166,-10807.006753,444.123565,383.047749
3249.700503,-9326.594869,1406.391290,919.314598
3249.700840,-9770.718434,-518.144159,1302.362347
3249.701178,-10955.047942,-1480.411884,689.485948
3249.701515,-9474.636058,-666.185348,995.924147
3249.701852,-8956.491898,-962.267725,2604.724693
3249.702190,-11547.212695,-592.164754,2068.457845
3249.702527,-11991.336260,-962.267725,-766.095498
3249.702865,-10288.862594,1184.329507,-1532.190996
3249.703202,-8808.450710,222.061783,-1608.800546
3249.703539,-9844.739029,-1184.329507,-1915.238745
3249.703877,-10807.006753,-1850.514855,-2451.505594
3249.704214,-8956.491898,-1776.494261,-1838.629195
3249.704551,-8956.491898,-2146.597232,842.705048
3249.704889,-11917.315666,-2590.720797,842.705048
3249.705226,-11473.192101,-1258.350101,-842.705048
3249.705564,-9770.718434,-518.144159,-1915.238745
3249.705901,-9252.574275,-222.061783,-229.828649
3249.706238,-10510.924376,-1480.411884,229.828649
3249.706576,-11177.109724,-1480.411884,383.047749
3249.706913,-8882.471304,-1480.411884,1608.800546
3249.707250,-9992.780217,-1332.370696,4136.915689
3249.707588,-12509.480420,0.000000,3677.258390
3249.707925,-11547.212695,740.205942,536.266849
3249.708263,-8586.388927,2368.659014,76.609550
3249.708600,-8808.450710,2072.576638,536.266849
3249.708937,-11325.150913,1332.370696,1225.752797
3249.709275,-9474.636058,1480.411884,-995.924147
3249.709612,-7402.059420,1406.391290,459.657299
3249.709949,-9474.636058,666.185348,2681.334243
3249.710287,-10955.047942,962.267725,76.609550
3249.710624,-10066.800811,2442.679609,-1225.752797
3249.710962,-8734.430116,1924.535449,-1225.752797
3249.711299,-9030.512492,518.144159,-1455.581446
3249.711636,-11029.068536,0.000000,-995.924147
3249.711974,-9104.533087,-740.205942,-995.924147
3249.712311,-7772.162391,-2072.576638,1302.362347
3249.712648,-10362.883188,-2072.576638,1915.238745
3249.712986,-11917.315666,-1184.329507,306.438199
3249.713323,-10584.944971,222.061783,-1532.190996
3249.713661,-9548.656652,-592.164754,-612.876398
3249.713998,-10584.944971,-1184.329507,-306.438199
3249.714335,-11991.336260,-1850.514855,-459.657299
3249.714673,-9474.636058,-1332.370696,383.047749
3249.715010,-8956.491898,-1776.494261,2451.505594
3249.715347,-11991.336260,-2442.679609,3370.820191
3249.715685,-12435.459826,-592.164754,689.485948
3249.716022,-9992.780217,222.061783,-995.924147
3249.716360,-9548.656652,222.061783,153.219100
3249.716697,-10955.047942,-1702.473667,306.438199
3249.717034,-10214.842000,-1184.329507,-383.047749
3249.717372,-7698.141797,-1480.411884,919.314598
3249.717709,-9474.636058,-1480.411884,2911.162892
3249.718046,-11621.233289,-1998.556043,1072.533697
3249.718384,-11473.192101,0.000000,-1532.190996
3249.718721,-8660.409521,740.205942,-1915.238745
3249.719059,-8956.491898,-296.082377,-1532.190996
3249.719396,-10288.862594,-962.267725,-1685.410096
3249.719733,-9326.594869,-1110.308913,-1915.238745
3249.720071,-7550.100608,-814.226536,612.876398
3249.720408,-9770.718434,-962.267725,2604.724693
3249.720745,-12583.501014,-296.082377,2145.067394
3249.721083,-11325.150913,1110.308913,-536.266849
3249.721420,-8882.471304,2072.576638,306.438199
3249.721758,-10288.862594,1850.514855,2298.286494
3249.722095,-11473.192101,148.041188,1838.629195
3249.722432,-9696.697840,1406.391290,1378.971896
3249.722770,-8882.471304,1406.391290,2528.115143
3249.723107,-11177.109724,1184.329507,2987.772442
3249.723444,-12953.603985,1480.411884,536.266849
3249.723782,-9992.780217,1628.453072,-2298.286494
3249.724119,-7698.141797,1924.535449,-919.314598
3249.724457,-9104.533087,222.061783,-1532.190996
3249.724794,-9844.739029,-740.205942,-2528.115143
3249.725131,-8216.285956,-814.226536,-1762.019645
3249.725469,-8586.388927,-2294.638420,1608.800546
3249.725806,-10955.047942,-1480.411884,1378.971896
3249.726143,-11547.212695,-962.267725,-1149.143247
3249.726481,-10066.800811,0.000000,-2145.067394
3249.726818,-8956.491898,-1776.494261,-1072.533697
3249.727156,-10362.883188,-2590.720797,-76.609550
3249.727493,-10140.821405,-2738.761985,0.000000
3249.727830,-9030.512492,-2368.659014,842.705048
3249.728168,-10288.862594,-2368.659014,2834.553343
3249.728505,-12879.583391,-2368.659014,2221.676944
3249.728842,-11843.295072,-370.102971,76.609550
3249.729180,-9548.656652,592.164754,0.000000
3249.729517,-9400.615463,814.226536,612.876398
3249.729855,-11029.068536,148.041188,-153.219100
3249.730192,-10881.027347,518.144159,-459.657299
3249.730529,-8956.491898,148.041188,1378.971896
3249.730867,-9696.697840,-518.144159,2681.334243
3249.731204,-12139.377449,814.226536,1762.019645
3249.731541,-11029.068536,1702.473667,-459.657299
3249.731879,-8660.409521,3182.885551,-1378.971896
3249.732216,-8660.409521,1036.288319,-1149.143247
3249.732554,-10288.862594,0.000000,-842.705048
3249.732891,-8882.471304,148.041188,-612.876398
3249.733228,-7698.141797,-444.123565,1302.362347
3249.733566,-9992.780217,-444.123565,2528.115143
3249.733903,-11251.130318,-370.102971,536.266849
3249.734240,-9918.759623,888.247130,-76.609550
3249.734578,-8438.347739,1628.453072,-842.705048
3249.734915,-9770.718434,0.000000,-612.876398
3249.735253,-10955.047942,-888.247130,-1072.533697
3249.735590,-8808.450710,-814.226536,-536.266849
3249.735927,-8216.285956,-1184.329507,2528.115143
3249.736265,-11621.233289,-1110.308913,3907.087040
3249.736602,-11917.315666,0.000000,459.657299
3249.736939,-9992.780217,1554.432478,-1378.971896
3249.737277,-9548.656652,444.123565,0.000000
3249.737614,-10807.006753,0.000000,612.876398
3249.737952,-11177.109724,-1110.308913,-76.609550
3249.738289,-9400.615463,-814.226536,1072.533697
3249.738626,-9474.636058,-1776.494261,1762.019645
3249.738964,-11843.295072,-2072.576638,842.705048
3249.739301,-11325.150913,-1184.329507,-1608.800546
3249.739638,-9252.574275,-814.226536,-2374.896044
3249.739976,-8956.491898,-1110.308913,-2374.896044
3249.740313,-10955.047942,-2220.617826,-2987.772442
3249.740651,-9918.759623,-3108.864956,-2374.896044
3249.740988,-7846.182985,-2886.803174,-229.828649
3249.741325,-8882.471304,-3108.864956,3217.601092
3249.741663,-12139.377449,-2146.597232,2528.115143
3249.742000,-11251.130318,-370.102971,612.876398
3249.742337,-9696.697840,444.123565,306.438199
3249.742675,-9770.718434,-370.102971,1455.581446
3249.743012,-11399.171507,-148.041188,2221.676944
3249.743350,-10436.903782,0.000000,2221.676944
3249.743687,-8438.347739,518.144159,3370.820191
3249.744024,-9844.739029,148.041188,4290.134789
3249.744362,-12213.398043,1332.370696,1685.410096
3249.744699,-9992.780217,2590.720797,-1302.362347
3249.745036,-9178.553681,3775.050304,-536.266849
3249.745374,-9918.759623,2146.597232,-612.876398
3249.745711,-9622.677246,1480.411884,-1991.848295
3249.746049,-8438.347739,1554.432478,-842.705048
3249.746386,-8586.388927,0.000000,1685.410096
3249.746723,-10807.006753,-296.082377,2221.676944
3249.747061,-11769.274478,518.144159,-842.705048
3249.747398,-9622.677246,1184.329507,-2604.724693
3249.747735,-8882.471304,962.267725,-1685.410096
3249.748073,-9474.636058,-1924.535449,-1149.143247
3249.748410,-9844.739029,-1702.473667,-612.876398
3249.748748,-7846.182985,-2294.638420,536.266849
3249.749085,-9474.636058,-1702.473667,2298.286494
3249.749422,-11843.295072,-2516.700203,1915.238745
3249.749760,-11917.315666,-666.185348,-306.438199
3249.750097,-9696.697840,592.164754,-536.266849
3249.750434,-9770.718434,148.041188,0.000000
3249.750772,-10955.047942,-666.185348,-306.438199
3249.751109,-10288.862594,-1110.308913,-1072.533697
3249.751447,-8438.347739,-1998.556043,1225.752797
3249.751784,-9770.718434,-962.267725,2068.457845
3249.752121,-12879.583391,-1332.370696,1762.019645
3249.752459,-11695.253884,1406.391290,-1072.533697
3249.752796,-9474.636058,1036.288319,-2528.115143
3249.753133,-9548.656652,74.020594,-919.314598
3249.753471,-10584.944971,-1184.329507,-1378.971896
3249.753808,-9178.553681,-1480.411884,-766.095498
3249.754146,-8586.388927,-1628.453072,1378.971896
3249.754483,-10362.883188,-1554.432478,1685.410096
3249.754820,-12139.377449,-1036.288319,689.485948
3249.755158,-10732.986159,148.041188,-306.438199
3249.755495,-8438.347739,1110.308913,-459.657299
3249.755832,-9474.636058,74.020594,0.000000
3249.756170,-10807.006753,0.000000,-612.876398
3249.756507,-8364.327145,-444.123565,229.828649
3249.756845,-8068.244768,-740.205942,3600.648841
3249.757182,-10214.842000,0.000000,4673.182538
3249.757519,-11843.295072,1406.391290,2068.457845
3249.757857,-10732.986159,3552.988522,229.828649
3249.758194,-9178.553681,2738.761985,0.000000
3249.758531,-10066.800811,1776.494261,536.266849
3249.758869,-11029.068536,814.226536,536.266849
3249.759206,-8512.368333,222.061783,76.609550
3249.759544,-8808.450710,0.000000,2757.943793
3249.759881,-11177.109724,-666.185348,2068.457845
3249.760218,-10881.027347,0.000000,-1608.800546
3249.760556,-8808.450710,592.164754,-2528.115143
3249.760893,-9548.656652,296.082377,-1762.019645
3249.761230,-10658.965565,-1036.288319,-1838.629195
3249.761568,-10214.842000,-1998.556043,-2757.943793
3249.761905,-7772.162391,-2146.597232,-459.657299
3249.762243,-9474.636058,-3701.029710,2451.505594
3249.762580,-11473.192101,-3627.009116,1685.410096
3249.762917,-11325.150913,-1332.370696,-1072.533697
3249.763255,-9770.718434,-740.205942,-612.876398
3249.763592,-9770.718434,-1480.411884,-383.047749
3249.763929,-11029.068536,-3182.885551,0.000000
3249.764267,-10362.883188,-1554.432478,689.485948
3249.764604,-8882.471304,-1850.514855,3370.820191
3249.764942,-10658.965565,-1406.391290,5132.839837
3249.765279,-12509.480420,-740.205942,2298.286494
3249.765616,-11103.089130,1036.288319,0.000000
3249.765954,-9104.533087,1776.494261,0.000000
3249.766291,-9622.677246,814.226536,306.438199
3249.766628,-11103.089130,666.185348,-766.095498
3249.766966,-8512.368333,-148.041188,-1915.238745
3249.767303,-6883.915261,222.061783,0.000000
3249.767641,-10362.883188,-666.185348,2298.286494
3249.767978,-11621.233289,296.082377,306.438199
3249.768315,-9474.636058,2368.659014,-2451.505594
3249.768653,-8364.327145,1776.494261,-1915.238745
3249.768990,-9622.677246,74.020594,-919.314598
3249.769327,-9918.759623,-814.226536,536.266849
3249.769665,-8438.347739,0.000000,1455.581446
3249.770002,-8882.471304,-518.144159,3370.820191
3249.770340,-11695.253884,148.041188,2528.115143
3249.770677,-12509.480420,222.061783,229.828649
3249.771014,-9992.780217,1332.370696,-383.047749
3249.771352,-8142.265362,740.205942,229.828649
3249.771689,-10362.883188,518.144159,76.609550
3249.772027,-10658.965565,0.000000,-306.438199
3249.772364,-9030.512492,222.061783,0.000000
3249.772701,-9178.553681,-1258.350101,2145.067394
3249.773039,-11769.274478,0.000000,2451.505594
3249.773376,-11843.295072,1036.288319,229.828649
3249.773713,-10066.800811,1924.535449,-919.314598
3249.774051,-9696.697840,592.164754,-1302.362347
3249.774388,-10807.006753,-1036.288319,-612.876398
3249.774726,-10214.842000,-1850.514855,-536.266849
3249.775063,-8956.491898,-1998.556043,919.314598
3249.775400,-9770.718434,-2738.761985,1685.410096
3249.775738,-11769.274478,-2812.782580,-229.828649
3249.776075,-10510.924376,-888.247130,-1762.019645
3249.776412,-8660.409521,-1036.288319,-842.705048
3249.776750,-9474.636058,-1258.350101,0.000000
3249.777087,-10955.047942,-1850.514855,-1685.410096
3249.777425,-9844.739029,-1554.432478,-383.047749
3249.777762,-8216.285956,-2368.659014,2145.067394
3249.778099,-10436.903782,-2368.659014,4366.744339
3249.778437,-12065.356855,-296.082377,2604.724693
3249.778774,-10436.903782,1184.329507,229.828649
3249.779111,-9474.636058,1998.556043,0.000000
3249.779449,-10066.800811,296.082377,612.876398
3249.779786,-10584.944971,0.000000,459.657299
3249.780124,-8216.285956,888.247130,689.485948
3249.780461,-8364.327145,740.205942,2451.505594
3249.780798,-11399.171507,592.164754,2068.457845
3249.781136,-11621.233289,1110.308913,-536.266849
3249.781473,-8956.491898,2442.679609,-1991.848295
3249.781810,-8882.471304,1628.453072,-919.314598
3249.782148,-10436.903782,222.061783,-1991.848295
3249.782485,-10510.924376,-666.185348,-2834.553343
3249.782823,-8438.347739,-1332.370696,-689.485948
3249.783160,-8586.388927,-2220.617826,1762.019645
3249.783497,-11177.109724,-1998.556043,1302.362347
3249.783835,-11695.253884,-296.082377,-842.705048
3249.784172,-9104.533087,888.247130,-1608.800546
3249.784509,-9326.594869,0.000000,0.000000
3249.784847,-11399.171507,-1776.494261,995.924147
3249.785184,-10658.965565,-1702.473667,1225.752797
3249.785522,-9030.512492,-1628.453072,2987.772442
3249.785859,-10288.862594,-1332.370696,3830.477490
3249.786196,-12139.377449,-814.226536,2298.286494
3249.786534,-11029.068536,0.000000,0.000000
3249.786871,-8808.450710,148.041188,-383.047749
3249.787208,-9622.677246,296.082377,-459.657299
3249.787546,-11695.253884,-370.102971,-1225.752797
3249.787883,-9474.636058,-740.205942,-2068.457845
3249.788220,-7698.141797,-1184.329507,153.219100
3249.788558,-9622.677246,-666.185348,1532.190996
3249.788895,-11769.274478,-814.226536,-229.828649
3249.789232,-10214.842000,1332.370696,-2451.505594
3249.789570,-8660.409521,1036.288319,-1762.019645
3249.789907,-10214.842000,-518.144159,-689.485948
3249.790245,-11029.068536,-1184.329507,-995.924147
3249.790582,-9178.553681,-814.226536,919.314598
3249.790919,-8882.471304,-1332.370696,3294.210641
3249.791257,-10807.006753,-962.267725,3217.601092
3249.791594,-12361.439231,296.082377,1378.971896
3249.791931,-10362.883188,2146.597232,-153.219100
3249.792269,-9474.636058,962.267725,153.219100
3249.792606,-10510.924376,1036.288319,383.047749
3249.792943,-10066.800811,1184.329507,0.000000
3249.793281,-8142.265362,1110.308913,919.314598
3249.793618,-8808.450710,222.061783,2451.505594
3249.793955,-11103.089130,888.247130,1991.848295
3249.794293,-11843.295072,2146.597232,0.000000
3249.794630,-9400.615463,2368.659014,-1455.581446
3249.794968,-8882.471304,1258.350101,-1302.362347
3249.795305,-9992.780217,-814.226536,-995.924147
3249.795642,-9474.636058,-1036.288319,-766.095498
3249.795980,-7698.141797,-1332.370696,919.314598
3249.796317,-9548.656652,-1110.308913,2298.286494
3249.796654,-11621.233289,-1702.473667,-76.609550
3249.796992,-11251.130318,-666.185348,-2451.505594
3249.797329,-9326.594869,0.000000,-1991.848295
3249.797666,-9696.697840,-1110.308913,-383.047749
3249.798004,-10807.006753,-2368.659014,-1991.848295
3249.798341,-9992.780217,-2368.659014,-2221.676944
3249.798678,-8364.327145,-2960.823768,1072.533697
3249.799016,-10214.842000,-2812.782580,2374.896044
3249.799353,-12213.398043,-1258.350101,1838.629195
3249.799690,-11325.150913,0.000000,0.000000
3249.800028,-9770.718434,1184.329507,-459.657299
3249.800365,-10658.965565,222.061783,76.609550
3249.800703,-11399.171507,-740.205942,1455.581446
3249.801040,-9474.636058,-370.102971,1915.238745
3249.801377,-8734.430116,-296.082377,3370.820191
3249.801715,-11399.171507,444.123565,3294.210641
3249.802052,-11917.315666,296.082377,153.219100
3249.802389,-10140.821405,1332.370696,-306.438199
3249.802727,-8512.368333,1406.391290,-842.705048
3249.803064,-9252.574275,0.000000,-919.314598
3249.803401,-10288.862594,0.000000,-1532.190996
3249.803739,-7550.100608,-666.185348,-1608.800546
3249.804076,-7476.080014,-1258.350101,1915.238745
3249.804413,-10658.965565,-962.267725,1838.629195
3249.804751,-10214.842000,-296.082377,0.000000
3249.805088,-9548.656652,2220.617826,-766.095498
3249.805425,-9104.533087,444.123565,383.047749
3249.805763,-10214.842000,-962.267725,766.095498
3249.806100,-10807.006753,-1184.329507,919.314598
3249.806438,-8734.430116,-740.205942,2451.505594
3249.806775,-9548.656652,-1332.370696,3677.258390
3249.807112,-12139.377449,-962.267725,2451.505594
3249.807450,-11251.130318,888.247130,0.000000
3249.807787,-9326.594869,1184.329507,-459.657299
3249.808124,-10510.924376,814.226536,0.000000
3249.808462,-11843.295072,-74.020594,-1302.362347
3249.808799,-10214.842000,296.082377,-1991.848295
3249.809136,-8438.347739,-888.247130,-536.266849
3249.809474,-10214.842000,-2368.659014,1378.971896
3249.809811,-11325.150913,-1184.329507,0.000000
3249.810148,-10436.903782,0.000000,-2451.505594
3249.810486,-9030.512492,0.000000,-2145.067394
3249.810823,-9918.759623,-1850.514855,-1838.629195
3249.811161,-10955.047942,-2368.659014,-1455.581446
3249.811498,-9326.594869,-3108.864956,-229.828649
3249.811835,-8216.285956,-1776.494261,1838.629195
3249.812173,-10362.883188,-2590.720797,2298.286494
3249.812510,-11695.253884,-1406.391290,612.876398
3249.812847,-10066.800811,444.123565,-689.485948
3249.813185,-9104.533087,518.144159,766.095498
3249.813522,-10732.986159,-296.082377,995.924147
3249.813859,-10658.965565,-296.082377,0.000000
3249.814197,-9030.512492,222.061783,1762.019645
3249.814534,-8586.388927,592.164754,2681.334243
3249.814871,-10807.006753,74.020594,2374.896044
3249.815209,-11621.233289,1998.556043,306.438199
3249.815546,-9548.656652,3478.967927,-612.876398
3249.815883,-8882.471304,2664.741391,153.219100
3249.816221,-10881.027347,1184.329507,0.000000
3249.816558,-9844.739029,666.185348,-229.828649
3249.816896,-8290.306550,1110.308913,1072.533697
3249.817233,-9548.656652,0.000000,2834.553343
3249.817570,-11917.315666,0.000000,383.047749
3249.817908,-11177.109724,592.164754,-1838.629195
3249.818245,-9030.512492,962.267725,-1302.362347
3249.818582,-8734.430116,-296.082377,-689.485948
3249.818920,-11103.089130,-1850.514855,-842.705048
3249.819257,-9178.553681,-1702.473667,-1149.143247
3249.819594,-7402.059420,-2664.741391,459.657299
3249.819932,-9622.677246,-2516.700203,2604.724693
3249.820269,-12139.377449,-1850.514855,1302.362347
3249.820606,-11103.089130,0.000000,76.609550
3249.820944,-9104.533087,0.000000,306.438199
3249.821281,-9844.739029,-1554.432478,1455.581446
3249.821618,-11251.130318,-1850.514855,842.705048
3249.821956,-9474.636058,-666.185348,536.266849
3249.822293,-9030.512492,-1554.432478,2911.162892
3249.822631,-11177.109724,-1554.432478,1991.848295
3249.822968,-11991.336260,-296.082377,76.609550
3249.823305,-10658.965565,296.082377,-1225.752797
3249.823643,-8734.430116,1184.329507,-1455.581446
3249.823980,-10214.842000,-592.164754,-1532.190996
3249.824317,-11547.212695,-666.185348,-2221.676944
3249.824655,-8438.347739,-666.185348,-1915.238745
3249.824992,-8734.430116,-1332.370696,1149.143247
3249.825329,-11251.130318,-1776.494261,1072.533697
3249.825667,-11843.295072,0.000000,-459.657299
3249.826004,-10436.903782,888.247130,-536.266849
3249.826341,-9252.574275,74.020594,-459.657299
3249.826679,-9992.780217,-888.247130,689.485948
3249.827016,-10066.800811,-518.144159,459.657299
3249.827354,-8216.285956,-296.082377,2221.676944
3249.827691,-9622.677246,222.061783,3753.867940
3249.828028,-11769.274478,0.000000,2528.115143
3249.828366,-10732.986159,1480.411884,229.828649
3249.828703,-8216.285956,2220.617826,536.266849
3249.829040,-8586.388927,2072.576638,689.485948
3249.829378,-10658.965565,148.041188,76.609550
3249.829715,-9622.677246,666.185348,-1225.752797
3249.830052,-8142.265362,666.185348,383.047749
3249.830390,-9770.718434,-962.267725,1838.629195
3249.830727,-11547.212695,-370.102971,0.000000
3249.831064,-9696.697840,518.144159,-1915.238745
3249.831402,-8364.327145,370.102971,-1532.190996
3249.831739,-9474.636058,518.144159,-1072.533697
3249.832076,-11547.212695,-2368.659014,-842.705048
3249.832414,-9770.718434,-962.267725,-1225.752797
3249.832751,-9178.553681,-2294.638420,842.705048
3249.833089,-11621.233289,-2368.659014,2451.505594
3249.833426,-12657.521608,-1850.514855,383.047749
3249.833763,-10436.903782,-1036.288319,-612.876398
3249.834101,-9474.636058,-592.164754,383.047749
3249.834438,-10584.944971,-1554.432478,76.609550
3249.834775,-11843.295072,-1332.370696,-459.657299
3249.835113,-9474.636058,-1480.411884,153.219100
3249.835450,-8734.430116,-1110.308913,2911.162892
3249.835787,-11325.150913,-1332.370696,3294.210641
3249.836125,-11769.274478,666.185348,919.314598
3249.836462,-9622.677246,1554.432478,-612.876398
3249.836799,-9178.553681,1184.329507,229.828649
3249.837137,-10510.924376,518.144159,459.657299
3249.837474,-10066.800811,148.041188,-689.485948
3249.837811,-7698.141797,0.000000,612.876398
3249.838149,-8586.388927,-888.247130,1762.019645
3249.838486,-11177.109724,148.041188,1149.143247
3249.838824,-10658.965565,1406.391290,-1149.143247
3249.839161,-8438.347739,1258.350101,-2451.505594
3249.839498,-8660.409521,74.020594,-842.705048
3249.839836,-10807.006753,-518.144159,-919.314598
3249.840173,-9548.656652,0.000000,-995.924147
3249.840510,-7698.141797,-222.061783,1149.143247
3249.840848,-9622.677246,-592.164754,2604.724693
3249.841185,-11991.336260,-444.123565,995.924147
3249.841522,-11325.150913,518.144159,-612.876398
3249.841860,-9252.574275,2220.617826,0.000000
3249.842197,-10288.862594,0.000000,766.095498
3249.842534,-10881.027347,-666.185348,306.438199
3249.842872,-9400.615463,0.000000,0.000000
3249.843209,-8882.471304,-370.102971,2528.115143
3249.843546,-10658.965565,-962.267725,2145.067394
3249.843884,-12065.356855,-666.185348,536.266849
3249.844221,-10510.924376,1036.288319,-1149.143247
3249.844559,-8956.491898,296.082377,-1149.143247
3249.844896,-10140.821405,-814.226536,-689.485948
3249.845233,-10436.903782,-1480.411884,-1991.848295
3249.845571,-8660.409521,-1554.432478,-919.314598
3249.845908,-8512.368333,-2368.659014,766.095498
3249.846245,-10732.986159,-2960.823768,536.266849
3249.846583,-11695.253884,-1628.453072,-766.095498
3249.846920,-10288.862594,-1110.308913,-1838.629195
3249.847257,-8734.430116,-370.102971,-306.438199
3249.847595,-10732.986159,-1850.514855,0.000000
3249.847932,-10436.903782,-1480.411884,-306.438199
3249.848269,-8438.347739,-1554.432478,1302.362347
3249.848607,-10066.800811,-1480.411884,4519.963438
3249.848944,-12583.501014,-962.267725,4290.134789
3249.849282,-11843.295072,814.226536,766.095498
3249.849619,-9622.677246,2516.700203,536.266849
3249.849956,-9474.636058,1480.411884,1072.533697
3249.850294,-11399.171507,1628.453072,0.000000
3249.850631,-9770.718434,1406.391290,-612.876398
3249.850968,-7772.162391,814.226536,0.000000
3249.851306,-8956.491898,74.020594,1455.581446
3249.851643,-11769.274478,814.226536,459.657299
3249.851980,-10288.862594,2146.597232,-1225.752797
3249.852318,-8438.347739,2368.659014,-1608.800546
3249.852655,-9030.512492,518.144159,-1532.190996
3249.852992,-10288.862594,444.123565,-2145.067394
3249.853330,-9326.594869,-962.267725,-1149.143247
3249.853667,-8438.347739,-1702.473667,1149.143247
3249.854004,-9548.656652,-2738.761985,1915.238745
3249.854342,-11843.295072,-1480.411884,995.924147
3249.854679,-10362.883188,-740.205942,-1302.362347
3249.855017,-8364.327145,-592.164754,-1072.533697
3249.855354,-9622.677246,-1776.494261,-383.047749
3249.855691,-11251.130318,-2368.659014,-536.266849
3249.856029,-9548.656652,-1036.288319,76.609550
3249.856366,-8660.409521,-2220.617826,2221.676944
3249.856703,-11695.253884,-1628.453072,3447.429741
3249.857041,-12287.418637,-814.226536,459.657299
3249.857378,-10732.986159,814.226536,-153.219100
3249.857715,-9844.739029,518.144159,76.609550
3249.858053,-10807.006753,-1406.391290,-153.219100
3249.858390,-11029.068536,-666.185348,-612.876398
3249.858727,-8586.388927,-1332.370696,0.000000
3249.859065,-9030.512492,-1258.350101,2987.772442
3249.859402,-11695.253884,-1628.453072,1991.848295
3249.859739,-11473.192101,0.000000,-612.876398
3249.860077,-8882.471304,1480.411884,-1915.238745
3249.860414,-9252.574275,148.041188,-1225.752797
3249.860752,-10732.986159,-1110.308913,-1608.800546
3249.861089,-9548.656652,-1036.288319,-1991.848295
3249.861426,-7402.059420,-444.123565,919.314598
3249.861764,-9178.553681,-1480.411884,2987.772442
3249.862101,-11325.150913,-370.102971,2221.676944
3249.862438,-11325.150913,814.226536,0.000000
3249.862776,-9400.615463,1702.473667,842.705048
3249.863113,-9178.553681,1776.494261,1225.752797
3249.863450,-10807.006753,888.247130,1838.629195
3249.863788,-9548.656652,962.267725,842.705048
3249.864125,-8216.285956,1332.370696,2451.505594
3249.864462,-10584.944971,740.205942,3447.429741
3249.864800,-12287.418637,1406.391290,1072.533697
3249.865137,-10807.006753,2146.597232,-995.924147
3249.865475,-9030.512492,2368.659014,-766.095498
3249.865812,-9474.636058,666.185348,-1762.019645
3249.866149,-9918.759623,-74.020594,-2374.896044
3249.866487,-8882.471304,-1184.329507,-1915.238745
3249.866824,-7994.224174,-2146.597232,1149.143247
3249.867161,-10510.924376,-2146.597232,842.705048
3249.867499,-11991.336260,-1184.329507,-1149.143247
3249.867836,-10140.821405,-296.082377,-2451.505594
3249.868173,-9178.553681,-1110.308913,-1302.362347
3249.868511,-10362.883188,-1406.391290,0.000000
3249.868848,-10732.986159,-2812.782580,-1225.752797
3249.869185,-9252.574275,-2516.700203,229.828649
3249.869523,-9696.697840,-3330.926739,2528.115143
3249.869860,-12435.459826,-3108.864956,3524.039291
3249.870197,-12139.377449,-666.185348,689.485948
3249.870535,-10288.862594,370.102971,-536.266849
3249.870872,-9622.677246,74.020594,76.609550
3249.871210,-10436.903782,-666.185348,-612.876398
3249.871547,-10362.883188,-740.205942,229.828649
3249.871884,-7994.224174,0.000000,1685.410096
3249.872222,-9400.615463,-962.267725,2987.772442
3249.872559,-11843.295072,0.000000,1378.971896
3249.872896,-11399.171507,2146.597232,-842.705048
3249.873234,-9178.553681,2442.679609,-459.657299
3249.873571,-9326.594869,888.247130,-1072.533697
3249.873908,-9992.780217,148.041188,-1302.362347
3249.874246,-9474.636058,74.020594,-612.876398
3249.874583,-7846.182985,0.000000,842.705048
3249.874920,-9178.553681,-740.205942,2451.505594
3249.875258,-12065.356855,-74.020594,1072.533697
3249.875595,-11103.089130,1184.329507,-229.828649
3249.875932,-8956.491898,1554.432478,-306.438199
3249.876270,-9474.636058,296.082377,842.705048
3249.876607,-10436.903782,-296.082377,153.219100
3249.876945,-9030.512492,-222.061783,153.219100
3249.877282,-8364.327145,0.000000,2681.334243
3249.877619,-11029.068536,-1480.411884,3064.381992
3249.877957,-12065.356855,148.041188,1762.019645
3249.878294,-9992.780217,1702.473667,-1149.143247
3249.878631,-8586.388927,1110.308913,-919.314598
3249.878969,-9918.759623,-592.164754,-842.705048
3249.879306,-10732.986159,-740.205942,-612.876398
3249.879643,-8586.388927,-740.205942,76.609550
3249.879981,-8882.471304,-1628.453072,1455.581446
3249.880318,-11843.295072,-1776.494261,1225.752797
3249.880655,-12583.501014,-1332.370696,-766.095498
3249.880993,-9474.636058,74.020594,-2451.505594
3249.881330,-8586.388927,-1258.350101,-1608.800546
3249.881667,-10658.965565,-2072.576638,-1608.800546
3249.882005,-10140.821405,-2812.782580,-2528.115143
3249.882342,-9252.574275,-2886.803174,0.000000
3249.882680,-8956.491898,-3256.906145,1838.629195
3249.883017,-11917.315666,-2664.741391,2298.286494
3249.883354,-12213.398043,-1036.288319,536.266849
3249.883692,-9474.636058,592.164754,-1072.533697
3249.884029,-9326.594869,-444.123565,842.705048
3249.884366,-11399.171507,-666.185348,1149.143247
3249.884704,-9918.759623,-740.205942,1455.581446
3249.885041,-8734.430116,148.041188,3983.696590
3249.885378,-10066.800811,-444.123565,4290.134789
3249.885715,-12139.377449,1110.308913,1838.629195
3249.886053,-11621.233289,3330.926739,76.609550
3249.886390,-9178.553681,3330.926739,-689.485948
3249.886727,-9474.636058,1702.473667,-306.438199
3249.887065,-10658.965565,1406.391290,-1762.019645
3249.887402,-8290.306550,1406.391290,-1685.410096
3249.887739,-7994.224174,666.185348,842.705048
3249.888076,-10436.903782,-518.144159,2145.067394
3249.888414,-11843.295072,740.205942,-153.219100
3249.888751,-10140.821405,2072.576638,-2298.286494
3249.889088,-8660.409521,1776.494261,-1302.362347
3249.889425,-9548.656652,-888.247130,-842.705048
3249.889763,-9844.739029,-1406.391290,-153.219100
3249.890100,-8290.306550,-1554.432478,306.438199
3249.890437,-8512.368333,-2294.638420,2451.505594
3249.890774,-11251.130318,-2368.659014,2451.505594
3249.891112,-11991.336260,-740.205942,919.314598
3249.891449,-10584.944971,814.226536,0.000000
3249.891786,-8956.491898,1184.329507,-153.219100
3249.892124,-10955.047942,-962.267725,306.438199
3249.892461,-11251.130318,-518.144159,-1225.752797
3249.892798,-8512.368333,-444.123565,-383.047749
3249.893135,-9104.533087,-1702.473667,2374.896044
3249.893473,-11843.295072,-1554.432478,1762.019645
3249.893810,-11621.233289,222.061783,-995.924147
3249.894147,-9844.739029,592.164754,-1149.143247
3249.894484,-9622.677246,666.185348,-1378.971896
3249.894822,-11029.068536,-1406.391290,-1378.971896
3249.895159,-10510.924376,-1480.411884,-1302.362347
3249.895496,-7994.224174,-1480.411884,536.266849
3249.895833,-9918.759623,-1924.535449,2374.896044
3249.896171,-12509.480420,-1036.288319,536.266849
3249.896508,-10658.965565,-74.020594,-1455.581446
3249.896845,-8734.430116,1036.288319,-536.266849
3249.897183,-9474.636058,-222.061783,0.000000
3249.897520,-10658.965565,-370.102971,-1149.143247
3249.897857,-9252.574275,-888.247130,383.047749
3249.898194,-7994.224174,-740.205942,3677.258390
3249.898532,-9770.718434,0.000000,4443.353888
3249.898869,-12435.459826,666.185348,2681.334243
3249.899206,-10584.944971,2812.782580,229.828649
3249.899543,-9178.553681,2516.700203,689.485948
3249.899881,-10288.862594,1850.514855,1302.362347
3249.900218,-10362.883188,814.226536,0.000000
3249.900555,-8734.430116,592.164754,383.047749
3249.900892,-9030.512492,148.041188,2068.457845
3249.901230,-11103.089130,-740.205942,1762.019645
3249.901567,-10881.027347,444.123565,-1225.752797
3249.901904,-9178.553681,1998.556043,-3064.381992
3249.902242,-8808.450710,444.123565,-1838.629195
3249.902579,-9622.677246,-888.247130,-2451.505594
3249.902916,-9770.718434,-1702.473667,-2528.115143
3249.903253,-8364.327145,-1776.494261,-612.876398
3249.903591,-9104.533087,-3478.967927,1991.848295
3249.903928,-11843.295072,-2812.782580,2374.896044
3249.904265,-11769.274478,-1332.370696,0.000000
3249.904602,-9252.574275,0.000000,-1072.533697
3249.904940,-9918.759623,-1184.329507,0.000000
3249.905277,-11177.109724,-2886.803174,76.609550
3249.905614,-10288.862594,-1776.494261,0.000000
3249.905951,-9252.574275,-2220.617826,2681.334243
3249.906289,-9992.780217,-1406.391290,4213.525239
3249.906626,-12139.377449,-740.205942,2681.334243
3249.906963,-11769.274478,1110.308913,0.000000
3249.907301,-9326.594869,1480.411884,-1149.143247
3249.907638,-10140.821405,518.144159,612.876398
3249.907975,-11621.233289,-148.041188,-383.047749
3249.908312,-8956.491898,0.000000,-995.924147
3249.908650,-7624.121203,-518.144159,689.485948
3249.908987,-10214.842000,-888.247130,2068.457845
3249.909324,-11621.233289,-740.205942,76.609550
3249.909661,-9622.677246,1110.308913,-1762.019645
3249.909999,-8512.368333,1554.432478,-1378.971896
3249.910336,-9400.615463,0.000000,-689.485948
3249.910673,-10510.924376,-592.164754,-919.314598
3249.911010,-8438.347739,-370.102971,0.000000
3249.911348,-7698.141797,-666.185348,2451.505594
3249.911685,-9918.759623,-370.102971,2681.334243
3249.912022,-12509.480420,0.000000,1378.971896
3249.912360,-10214.842000,2368.659014,-536.266849
3249.912697,-9178.553681,1628.453072,0.000000
3249.913034,-10881.027347,370.102971,153.219100
3249.913371,-10584.944971,0.000000,-1378.971896
3249.913709,-8068.244768,0.000000,-76.609550
3249.914046,-8660.409521,-296.082377,2374.896044
3249.914383,-11029.068536,148.041188,2451.505594
3249.914720,-12509.480420,1554.432478,229.828649
3249.915058,-10510.924376,2590.720797,-1762.019645
3249.915395,-9474.636058,1332.370696,-1532.190996
3249.915732,-11029.068536,-666.185348,-995.924147
3249.916069,-10436.903782,-888.247130,-383.047749
3249.916407,-8438.347739,-1554.432478,919.314598
3249.916744,-9326.594869,-2146.597232,1608.800546
3249.917081,-11325.150913,-2220.617826,306.438199
3249.917419,-11251.130318,-740.205942,-1915.238745
3249.917756,-9326.594869,-592.164754,-536.266849
3249.918093,-9178.553681,-1776.494261,-229.828649
3249.918430,-11029.068536,-2220.617826,-612.876398
3249.918768,-9474.636058,-1628.453072,0.000000
3249.919105,-7994.224174,-2072.576638,2068.457845
3249.919442,-10288.862594,-2442.679609,5132.839837
3249.919779,-11843.295072,-1184.329507,3447.429741
3249.920117,-10436.903782,1184.329507,766.095498
3249.920454,-9548.656652,1998.556043,1149.143247
3249.920791,-10807.006753,888.247130,1685.410096
3249.921128,-11325.150913,148.041188,0.000000
3249.921466,-9252.574275,222.061783,459.657299
3249.921803,-8364.327145,1332.370696,2145.067394
3249.922140,-11177.109724,518.144159,2451.505594
3249.922478,-11769.274478,1110.308913,-229.828649
3249.922815,-8882.471304,2294.638420,-2451.505594
3249.923152,-9030.512492,1776.494261,-919.314598
3249.923489,-10510.924376,518.144159,-1455.581446
3249.923827,-10807.006753,-592.164754,-2528.115143
3249.924164,-8068.244768,-444.123565,-1149.143247
3249.924501,-8364.327145,-1702.473667,2145.067394
3249.924838,-10807.006753,-2516.700203,1302.362347
3249.925176,-10955.047942,-1036.288319,-1072.533697
3249.925513,-9400.615463,370.102971,-1378.971896
3249.925850,-9030.512492,-518.144159,-153.219100
3249.926187,-10214.842000,-1480.411884,0.000000
3249.926525,-10362.883188,-1924.535449,229.828649
3249.926862,-8734.430116,-1628.453072,1532.190996
3249.927199,-9696.697840,-1184.329507,2834.553343
3249.927537,-11917.315666,-1110.308913,2068.457845
3249.927874,-11695.253884,74.020594,-229.828649
3249.928211,-9030.512492,444.123565,-612.876398
3249.928548,-9474.636058,222.061783,-459.657299
3249.928886,-11621.233289,-1184.329507,-689.485948
3249.929223,-10362.883188,-518.144159,-1608.800546
3249.929560,-8216.285956,-1480.411884,536.266849
3249.929897,-9770.718434,-1998.556043,2068.457845
3249.930235,-11843.295072,-666.185348,153.219100
3249.930572,-11177.109724,296.082377,-1072.533697
3249.930909,-9474.636058,592.164754,-1072.533697
3249.931246,-9844.739029,-1184.329507,-1072.533697
3249.931584,-11177.109724,-1850.514855,-612.876398
3249.931921,-9030.512492,-1406.391290,536.266849
3249.932258,-8216.285956,-1480.411884,2681.334243
3249.932596,-10732.986159,-1702.473667,3064.381992
3249.932933,-11843.295072,0.000000,536.266849
3249.933270,-10214.842000,666.185348,306.438199
3249.933607,-9104.533087,1110.308913,1302.362347
3249.933945,-10066.800811,518.144159,1225.752797
3249.934282,-11473.192101,1036.288319,995.924147
3249.934619,-8216.285956,296.082377,612.876398
3249.934956,-7772.162391,666.185348,2834.553343
3249.935294,-10436.903782,296.082377,3064.381992
3249.935631,-11695.253884,1702.473667,612.876398
3249.935968,-10066.800811,3478.967927,-1149.143247
3249.936305,-9474.636058,1776.494261,-1302.362347
3249.936643,-10584.944971,222.061783,-766.095498
3249.936980,-9844.739029,-296.082377,-1608.800546
3249.937317,-7698.141797,0.000000,229.828649
3249.937655,-8882.471304,-962.267725,1915.238745
3249.937992,-11621.233289,-1110.308913,-842.705048
3249.938329,-11029.068536,0.000000,-2374.896044
3249.938666,-9474.636058,0.000000,-2145.067394
3249.939004,-9252.574275,-740.205942,-612.876398
3249.939341,-11473.192101,-1850.514855,-1072.533697
3249.939678,-10214.842000,-1332.370696,-1762.019645
3249.940015,-7698.141797,-2294.638420,306.438199
3249.940353,-10214.842000,-2590.720797,2451.505594
3249.940690,-12139.377449,-1702.473667,1302.362347
3249.941027,-10955.047942,-296.082377,-459.657299
3249.941364,-9474.636058,1036.288319,0.000000
3249.941702,-10658.965565,-296.082377,0.000000
3249.942039,-11325.150913,-1110.308913,306.438199
3249.942376,-9030.512492,-592.164754,1072.533697
3249.942714,-8586.388927,-1036.288319,2987.772442
3249.943051,-11103.089130,0.000000,2987.772442
3249.943388,-12657.521608,296.082377,153.219100
3249.943725,-10362.883188,962.267725,-1225.752797
3249.944063,-8290.306550,1184.329507,-536.266849
3249.944400,-10214.842000,-74.020594,-536.266849
3249.944737,-10140.821405,-592.164754,-1838.629195
3249.945074,-8142.265362,-666.185348,-1225.752797
3249.945412,-8068.244768,-1628.453072,1608.800546
3249.945749,-10955.047942,-1776.494261,1608.800546
3249.946086,-11695.253884,296.082377,383.047749
3249.946423,-9474.636058,1924.535449,-383.047749
3249.946761,-8882.471304,740.205942,306.438199
3249.947098,-10510.924376,0.000000,1149.143247
3249.947435,-10658.965565,-444.123565,1149.143247
3249.947773,-8438.347739,592.164754,2987.772442
3249.948110,-9844.739029,-962.267725,3600.648841
3249.948447,-12509.480420,740.205942,2298.286494
3249.948784,-11547.212695,666.185348,-536.266849
3249.949122,-9030.512492,1850.514855,-1072.533697
3249.949459,-8660.409521,592.164754,0.000000
3249.949796,-10807.006753,-222.061783,-919.314598
3249.950133,-9770.718434,666.185348,-1685.410096
3249.950471,-8586.388927,-1184.329507,1072.533697
3249.950808,-9992.780217,-1332.370696,2068.457845
3249.951145,-11991.336260,-1184.329507,229.828649
3249.951482,-11029.068536,0.000000,-1149.143247
3249.951820,-8290.306550,740.205942,-1838.629195
3249.952157,-9622.677246,-1850.514855,-919.314598
3249.952494,-11251.130318,-2886.803174,-689.485948
3249.952832,-9474.636058,-2294.638420,-1455.581446
3249.953169,-8364.327145,-2442.679609,1608.800546
3249.953506,-10732.986159,-2886.803174,1608.800546
3249.953843,-11769.274478,-1702.473667,-383.047749
3249.954181,-10066.800811,-814.226536,-689.485948
3249.954518,-8586.388927,-222.061783,0.000000
3249.954855,-9992.780217,-1036.288319,1225.752797
3249.955192,-11843.295072,-888.247130,995.924147
3249.955530,-9178.553681,0.000000,1149.143247
3249.955867,-8808.450710,-666.185348,2681.334243
3249.956204,-11695.253884,-370.102971,3140.991542
3249.956541,-11843.295072,962.267725,612.876398
3249.956879,-9918.759623,2294.638420,-229.828649
3249.957216,-9252.574275,2590.720797,0.000000
3249.957553,-10584.944971,592.164754,-1072.533697
3249.957891,-10658.965565,666.185348,-842.705048
3249.958228,-8142.265362,518.144159,-383.047749
3249.958565,-8586.388927,0.000000,1915.238745
3249.958902,-11399.171507,222.061783,153.219100
3249.959240,-11251.130318,740.205942,-1608.800546
3249.959577,-9474.636058,888.247130,-1608.800546
3249.959914,-8734.430116,0.000000,-1072.533697
3249.960251,-10658.965565,-814.226536,-689.485948
3249.960589,-10140.821405,-1332.370696,-689.485948
3249.960926,-7476.080014,-1036.288319,612.876398
3249.961263,-8438.347739,-2294.638420,2834.553343
3249.961600,-11621.233289,-1184.329507,2145.067394
3249.961938,-11029.068536,740.205942,306.438199
3249.962275,-10214.842000,740.205942,459.657299
3249.962612,-9992.780217,222.061783,612.876398
3249.962950,-11695.253884,0.000000,0.000000
3249.963287,-10436.903782,-370.102971,919.314598
3249.963624,-8364.327145,-592.164754,1838.629195
3249.963961,-10288.862594,-888.247130,2604.724693
3249.964299,-12731.542202,0.000000,612.876398
3249.964636,-10288.862594,444.123565,-1915.238745
3249.964973,-9326.594869,814.226536,-1225.752797
3249.965310,-9918.759623,-962.267725,-919.314598
3249.965648,-10658.965565,-444.123565,-2068.457845
3249.965985,-9178.553681,-666.185348,-1455.581446
3249.966322,-8438.347739,-1850.514855,306.438199
3249.966659,-10584.944971,-2294.638420,1685.410096
3249.966997,-11547.212695,-1480.411884,-383.047749
3249.967334,-9696.697840,370.102971,-383.047749
3249.967671,-9104.533087,0.000000,229.828649
3249.968009,-10732.986159,-1554.432478,1225.752797
3249.968346,-10510.924376,-1480.411884,306.438199
3249.968683,-8512.368333,-1258.350101,2145.067394
3249.969020,-8586.388927,-740.205942,3600.648841
3249.969358,-11547.212695,-814.226536,2681.334243
3249.969695,-11769.274478,1332.370696,536.266849
3249.970032,-8956.491898,2368.659014,-459.657299
3249.970369,-8882.471304,1628.453072,0.000000
3249.970707,-10658.965565,666.185348,-383.047749
3249.971044,-10214.842000,1184.329507,-919.314598
3249.971381,-8142.265362,148.041188,153.219100
3249.971718,-9474.636058,-296.082377,1225.752797
3249.972056,-11843.295072,-592.164754,1149.143247
3249.972393,-11103.089130,518.144159,-995.924147
3249.972730,-9030.512492,1110.308913,-1991.848295
3249.973068,-9252.574275,-148.041188,-1225.752797
3249.973405,-10510.924376,-1924.535449,-1762.019645
3249.973742,-9252.574275,-1702.473667,-1838.629195
3249.974079,-8808.450710,-2220.617826,1455.581446
3249.974417,-10362.883188,-1110.308913,1915.238745
3249.974754,-12583.501014,-1776.494261,-612.876398
3249.975091,-11029.068536,-740.205942,-1838.629195
3249.975428,-8438.347739,-370.102971,-612.876398
3249.975766,-10140.821405,-1702.473667,612.876398
3249.976103,-10955.047942,-1184.329507,-459.657299
3249.976440,-8660.409521,-1480.411884,-612.876398
3249.976777,-8586.388927,-1554.432478,2987.772442
3249.977115,-11029.068536,-1332.370696,3677.258390
3249.977452,-12065.356855,370.102971,1608.800546
3249.977789,-10362.883188,1850.514855,0.000000
3249.978127,-9030.512492,888.247130,0.000000
3249.978464,-10362.883188,222.061783,766.095498
3249.978801,-10881.027347,-666.185348,0.000000
3249.979138,-8216.285956,0.000000,1072.533697
3249.979476,-9178.553681,-814.226536,2068.457845
3249.979813,-11621.233289,-296.082377,1149.143247
3249.980150,-10732.986159,0.000000,-2221.676944
3249.980487,-8956.491898,1480.411884,-1838.629195
3249.980825,-8512.368333,0.000000,-536.266849
3249.981162,-10510.924376,-1110.308913,-1149.143247
3249.981499,-10288.862594,-148.041188,-842.705048
3249.981836,-7698.141797,0.000000,459.657299
3249.982174,-9474.636058,-1332.370696,2834.553343
3249.982511,-11325.150913,-888.247130,2145.067394
3249.982848,-11325.150913,1036.288319,536.266849
3249.983186,-9474.636058,2442.679609,766.095498
3249.983523,-9918.759623,518.144159,995.924147
