#time,accel_x,accel_y,accel_z
3127.920426,-8956.491898,-1554.432478,1149.143247
3127.920764,-9918.759623,-1924.535449,383.047749
3127.921101,-9992.780217,-2146.597232,229.828649
3127.921439,-9696.697840,-2072.576638,3064.381992
3127.921777,-10362.883188,-666.185348,4136.915689
3127.922115,-9178.553681,518.144159,2528.115143
3127.922453,-9474.636058,888.247130,995.924147
3127.922791,-11177.109724,1628.453072,-919.314598
3127.923128,-8142.265362,1776.494261,0.000000
3127.923466,-9474.636058,1036.288319,4213.525239
3127.923804,-10955.047942,1554.432478,4979.620737
3127.924142,-9474.636058,444.123565,536.266849
3127.924480,-9326.594869,0.000000,-1072.533697
3127.924817,-10214.842000,296.082377,1149.143247
3127.925155,-9622.677246,74.020594,2145.067394
3127.925493,-8438.347739,592.164754,-306.438199
3127.925831,-9992.780217,222.061783,-2987.772442
3127.926169,-9770.718434,1332.370696,-2911.162892
3127.926507,-9844.739029,-592.164754,-2068.457845
3127.926844,-9252.574275,-888.247130,-766.095498
3127.927182,-9252.574275,-2516.700203,-1149.143247
3127.927520,-10658.965565,-2516.700203,536.266849
3127.927858,-10658.965565,-2442.679609,1225.752797
3127.928196,-11399.171507,-3552.988522,2374.896044
3127.928534,-10658.965565,-2516.700203,2528.115143
3127.928871,-10584.944971,-2738.761985,2298.286494
3127.929209,-11177.109724,-1258.350101,1302.362347
3127.929547,-10214.842000,-666.185348,-306.438199
3127.929885,-10955.047942,-1850.514855,229.828649
3127.930223,-9548.656652,-1628.453072,153.219100
3127.930560,-9178.553681,-740.205942,-153.219100
3127.930898,-10140.821405,-148.041188,1149.143247
3127.931236,-10362.883188,-814.226536,0.000000
3127.931574,-10584.944971,-1258.350101,1072.533697
3127.931912,-10436.903782,-1554.432478,1072.533697
3127.932250,-9474.636058,-1258.350101,1915.238745
3127.932587,-10362.883188,0.000000,2068.457845
3127.932925,-10362.883188,-148.041188,0.000000
3127.933263,-9622.677246,296.082377,0.000000
3127.933601,-9844.739029,-370.102971,-306.438199
3127.933939,-8808.450710,-666.185348,-689.485948
3127.934277,-8660.409521,-296.082377,0.000000
3127.934614,-9918.759623,0.000000,766.095498
3127.934952,-9474.636058,518.144159,229.828649
3127.935290,-10140.821405,148.041188,612.876398
3127.935628,-10066.800811,74.020594,2145.067394
3127.935966,-9844.739029,444.123565,2451.505594
3127.936304,-9918.759623,962.267725,3217.601092
3127.936641,-10066.800811,1924.535449,2298.286494
3127.936979,-10362.883188,1702.473667,1838.629195
3127.937317,-9992.780217,1406.391290,995.924147
3127.937655,-10140.821405,962.267725,689.485948
3127.937993,-9844.739029,1184.329507,0.000000
3127.938330,-9622.677246,592.164754,-612.876398
3127.938668,-9548.656652,814.226536,-842.705048
3127.939006,-9770.718434,0.000000,-1302.362347
3127.939344,-10140.821405,296.082377,-2145.067394
3127.939682,-10510.924376,-592.164754,-1532.190996
3127.940020,-10066.800811,-740.205942,-2221.676944
3127.940357,-9400.615463,-1332.370696,-1685.410096
3127.940695,-10362.883188,-2516.700203,-919.314598
3127.941033,-10436.903782,-2146.597232,229.828649
3127.941371,-10510.924376,-2738.761985,-842.705048
3127.941709,-10288.862594,-2442.679609,306.438199
3127.942047,-10140.821405,-2146.597232,229.828649
3127.942384,-10362.883188,-2886.803174,0.000000
3127.942722,-10732.986159,-1998.556043,383.047749
3127.943060,-10140.821405,-2146.597232,306.438199
3127.943398,-10214.842000,-888.247130,766.095498
3127.943735,-10362.883188,-370.102971,766.095498
3127.944073,-10362.883188,-370.102971,842.705048
3127.944410,-10658.965565,0.000000,1455.581446
3127.944747,-9918.759623,148.041188,1302.362347
3127.945084,-10362.883188,888.247130,1532.190996
3127.945422,-10732.986159,1110.308913,1915.238745
3127.945759,-9992.780217,740.205942,1532.190996
3127.946096,-9844.739029,962.267725,919.314598
3127.946434,-10066.800811,1406.391290,612.876398
3127.946771,-9770.718434,740.205942,-306.438199
3127.947108,-9326.594869,962.267725,-689.485948
3127.947445,-9030.512492,814.226536,-995.924147
3127.947783,-8808.450710,370.102971,-995.924147
3127.948120,-9030.512492,222.061783,76.609550
3127.948457,-9326.594869,-592.164754,536.266849
3127.948795,-9548.656652,-370.102971,1225.752797
3127.949132,-9770.718434,-148.041188,1302.362347
3127.949469,-9770.718434,-518.144159,1991.848295
3127.949806,-10288.862594,-370.102971,2221.676944
3127.950144,-9992.780217,-888.247130,2068.457845
3127.950481,-10362.883188,74.020594,1685.410096
3127.950818,-10288.862594,-592.164754,1149.143247
3127.951156,-10436.903782,-444.123565,306.438199
3127.951493,-10214.842000,-666.185348,689.485948
3127.951830,-10140.821405,-1184.329507,0.000000
3127.952167,-10066.800811,-518.144159,153.219100
3127.952505,-10732.986159,-666.185348,0.000000
3127.952842,-10362.883188,-962.267725,-383.047749
3127.953179,-10807.006753,-1258.350101,-459.657299
3127.953517,-10955.047942,-1406.391290,0.000000
3127.953854,-10362.883188,-1850.514855,-459.657299
3127.954191,-10362.883188,-1924.535449,0.000000
3127.954528,-10140.821405,-2368.659014,-995.924147
3127.954866,-10140.821405,-2294.638420,-1302.362347
3127.955203,-10140.821405,-2072.576638,-766.095498
3127.955540,-10140.821405,-2516.700203,-1072.533697
3127.955878,-9622.677246,-1332.370696,0.000000
3127.956215,-9992.780217,-962.267725,-306.438199
3127.956552,-10510.924376,-1110.308913,153.219100
3127.956889,-9548.656652,-296.082377,229.828649
3127.957227,-10066.800811,-814.226536,1532.190996
3127.957564,-10066.800811,148.041188,2221.676944
3127.957901,-9770.718434,814.226536,1302.362347
3127.958239,-10658.965565,1702.473667,1762.019645
3127.958576,-10436.903782,1850.514855,1302.362347
3127.958913,-9622.677246,1776.494261,842.705048
3127.959250,-10214.842000,2368.659014,842.705048
3127.959588,-9400.615463,2368.659014,229.828649
3127.959925,-9400.615463,1998.556043,-612.876398
3127.960262,-9252.574275,1776.494261,-995.924147
3127.960600,-9030.512492,1776.494261,-1225.752797
3127.960937,-9548.656652,1776.494261,-995.924147
3127.961274,-9770.718434,888.247130,-1225.752797
3127.961611,-9548.656652,1184.329507,-689.485948
3127.961949,-9992.780217,444.123565,-612.876398
3127.962286,-10066.800811,-518.144159,0.000000
3127.962623,-9992.780217,-962.267725,0.000000
3127.962961,-9992.780217,-1776.494261,306.438199
3127.963298,-9918.759623,-1258.350101,766.095498
3127.963635,-10066.800811,-1776.494261,459.657299
3127.963972,-9844.739029,-2368.659014,612.876398
3127.964310,-10140.821405,-1554.432478,1149.143247
3127.964647,-10066.800811,-1110.308913,612.876398
3127.964984,-10732.986159,-962.267725,919.314598
3127.965322,-10955.047942,-814.226536,842.705048
3127.965659,-9696.697840,-1480.411884,766.095498
3127.965996,-10288.862594,-814.226536,1225.752797
3127.966333,-10658.965565,-740.205942,1532.190996
3127.966671,-10510.924376,-1110.308913,689.485948
3127.967008,-10140.821405,-444.123565,459.657299
3127.967345,-10140.821405,-888.247130,229.828649
3127.967683,-10140.821405,-962.267725,76.609550
3127.968020,-10214.842000,-444.123565,-229.828649
3127.968357,-10288.862594,-518.144159,-383.047749
3127.968694,-9770.718434,-518.144159,-766.095498
3127.969032,-9844.739029,-740.205942,-536.266849
3127.969369,-10140.821405,-296.082377,-153.219100
3127.969706,-9696.697840,-962.267725,306.438199
3127.970044,-10140.821405,0.000000,612.876398
3127.970381,-9992.780217,-370.102971,153.219100
3127.970718,-9474.636058,0.000000,919.314598
3127.971055,-9548.656652,-518.144159,1915.238745
3127.971393,-9548.656652,-296.082377,1685.410096
3127.971730,-9326.594869,148.041188,1838.629195
3127.972067,-10214.842000,1406.391290,1302.362347
3127.972405,-9992.780217,814.226536,689.485948
3127.972742,-9548.656652,1110.308913,383.047749
3127.973079,-9844.739029,666.185348,383.047749
3127.973416,-9400.615463,666.185348,0.000000
3127.973754,-9918.759623,518.144159,0.000000
3127.974091,-10436.903782,296.082377,-383.047749
3127.974428,-9474.636058,-666.185348,-1455.581446
3127.974766,-9844.739029,-814.226536,-1378.971896
3127.975103,-10140.821405,-1480.411884,-689.485948
3127.975440,-10066.800811,-1776.494261,-1225.752797
3127.975777,-9548.656652,-1998.556043,-1455.581446
3127.976115,-9770.718434,-2368.659014,-1532.190996
3127.976452,-10066.800811,-2072.576638,-1149.143247
3127.976789,-10436.903782,-2590.720797,76.609550
3127.977127,-10436.903782,-2516.700203,0.000000
3127.977464,-10066.800811,-2368.659014,0.000000
3127.977801,-10807.006753,-2368.659014,306.438199
3127.978138,-10881.027347,-2368.659014,919.314598
3127.978476,-10214.842000,-2442.679609,842.705048
3127.978813,-10140.821405,-1184.329507,919.314598
3127.979150,-10732.986159,-1036.288319,1838.629195
3127.979488,-10362.883188,0.000000,995.924147
3127.979825,-10140.821405,-296.082377,919.314598
3127.980162,-10066.800811,666.185348,1302.362347
3127.980499,-9622.677246,888.247130,689.485948
3127.980837,-9844.739029,814.226536,766.095498
3127.981174,-9770.718434,1332.370696,459.657299
3127.981511,-9326.594869,1258.350101,0.000000
3127.981848,-9474.636058,1406.391290,0.000000
3127.982186,-10140.821405,1258.350101,-229.828649
3127.982523,-9326.594869,1036.288319,-383.047749
3127.982860,-9252.574275,888.247130,-383.047749
3127.983198,-9326.594869,740.205942,-229.828649
3127.983535,-9252.574275,444.123565,0.000000
3127.983872,-9696.697840,740.205942,612.876398
3127.984209,-9696.697840,74.020594,459.657299
3127.984547,-9770.718434,1110.308913,995.924147
3127.984884,-10214.842000,888.247130,1455.581446
3127.985221,-10288.862594,0.000000,1608.800546
3127.985559,-9992.780217,148.041188,1838.629195
3127.985896,-10214.842000,592.164754,1838.629195
3127.986233,-10436.903782,0.000000,1378.971896
3127.986570,-10584.944971,-222.061783,612.876398
3127.986908,-10066.800811,74.020594,306.438199
3127.987245,-9770.718434,-222.061783,153.219100
3127.987582,-9992.780217,-814.226536,383.047749
3127.987920,-10066.800811,-444.123565,229.828649
3127.988257,-10658.965565,-1036.288319,0.000000
3127.988594,-10436.903782,-962.267725,-229.828649
3127.988931,-9992.780217,-1406.391290,-459.657299
3127.989269,-10732.986159,-1776.494261,-383.047749
3127.989606,-10214.842000,-1776.494261,-383.047749
3127.989943,-10140.821405,-2368.659014,-919.314598
3127.990281,-10288.862594,-2664.741391,-1685.410096
3127.990618,-9548.656652,-1998.556043,-1455.581446
3127.990955,-10436.903782,-2664.741391,-689.485948
3127.991292,-9992.780217,-1924.535449,-1149.143247
3127.991630,-9918.759623,-1850.514855,383.047749
3127.991967,-10362.883188,-1480.411884,842.705048
3127.992304,-9548.656652,-1184.329507,612.876398
3127.992642,-10436.903782,-666.185348,1685.410096
3127.992979,-11177.109724,444.123565,1915.238745
3127.993316,-10066.800811,888.247130,1685.410096
3127.993653,-10881.027347,1110.308913,1838.629195
3127.993991,-9844.739029,814.226536,995.924147
3127.994328,-9548.656652,1776.494261,1225.752797
3127.994665,-9918.759623,1776.494261,459.657299
3127.995003,-9696.697840,2072.576638,0.000000
3127.995340,-9474.636058,1554.432478,-766.095498
3127.995677,-9474.636058,1776.494261,-306.438199
3127.996014,-9326.594869,1702.473667,-459.657299
3127.996352,-9474.636058,814.226536,-229.828649
3127.996689,-9548.656652,1036.288319,-995.924147
3127.997026,-9104.533087,74.020594,-1149.143247
3127.997364,-9696.697840,296.082377,-383.047749
3127.997701,-9770.718434,-592.164754,0.000000
3127.998038,-10288.862594,-962.267725,306.438199
3127.998375,-9844.739029,-1406.391290,536.266849
3127.998713,-9918.759623,-1184.329507,306.438199
3127.999050,-10066.800811,-1998.556043,689.485948
3127.999387,-9770.718434,-1406.391290,383.047749
3127.999725,-10288.862594,-2220.617826,1302.362347
3128.000062,-10288.862594,-592.164754,1225.752797
3128.000399,-10288.862594,-814.226536,919.314598
3128.000736,-11177.109724,-1036.288319,1762.019645
3128.001074,-10658.965565,-814.226536,1149.143247
3128.001411,-10658.965565,-666.185348,1072.533697
3128.001748,-10584.944971,-518.144159,1225.752797
3128.002086,-10436.903782,-666.185348,459.657299
3128.002423,-10140.821405,-888.247130,0.000000
3128.002760,-10732.986159,-888.247130,383.047749
3128.003097,-9918.759623,-148.041188,-306.438199
3128.003435,-10288.862594,-444.123565,0.000000
3128.003772,-10066.800811,0.000000,-306.438199
3128.004109,-9622.677246,-592.164754,-919.314598
3128.004447,-10140.821405,-148.041188,-76.609550
3128.004784,-9696.697840,-518.144159,383.047749
3128.005121,-9992.780217,-666.185348,919.314598
3128.005458,-10436.903782,592.164754,1149.143247
3128.005796,-9992.780217,0.000000,612.876398
3128.006133,-9548.656652,666.185348,1072.533697
3128.006470,-9918.759623,-370.102971,1838.629195
3128.006808,-9844.739029,444.123565,1685.410096
3128.007145,-9474.636058,888.247130,1225.752797
3128.007482,-9992.780217,1702.473667,1455.581446
3128.007819,-10214.842000,1702.473667,842.705048
3128.008157,-9918.759623,1258.350101,459.657299
3128.008494,-9770.718434,1776.494261,842.705048
3128.008831,-9918.759623,1480.411884,459.657299
3128.009169,-10066.800811,1036.288319,0.000000
3128.009506,-9844.739029,592.164754,-383.047749
3128.009843,-10436.903782,-148.041188,-153.219100
3128.010180,-9548.656652,-518.144159,-1072.533697
3128.010518,-9770.718434,0.000000,-1302.362347
3128.010855,-10436.903782,-1332.370696,-1149.143247
3128.011192,-9696.697840,-1702.473667,-1762.019645
3128.011530,-9474.636058,-1998.556043,-1532.190996
3128.011867,-10584.944971,-2146.597232,-919.314598
3128.012204,-10436.903782,-2146.597232,-766.095498
3128.012541,-10881.027347,-2368.659014,-766.095498
3128.012879,-10214.842000,-2664.741391,0.000000
3128.013216,-10066.800811,-2368.659014,536.266849
3128.013553,-10955.047942,-2664.741391,1225.752797
3128.013891,-10436.903782,-2516.700203,1302.362347
3128.014228,-10288.862594,-1628.453072,1378.971896
3128.014565,-11029.068536,-1258.350101,1685.410096
3128.014902,-10362.883188,0.000000,1149.143247
3128.015240,-10288.862594,-296.082377,1072.533697
3128.015577,-10066.800811,0.000000,1455.581446
3128.015914,-10066.800811,592.164754,612.876398
3128.016252,-10066.800811,1036.288319,459.657299
3128.016589,-9992.780217,592.164754,229.828649
3128.016926,-9548.656652,888.247130,0.000000
3128.017263,-9696.697840,1406.391290,-76.609550
3128.017601,-9622.677246,1110.308913,0.000000
3128.017938,-9548.656652,888.247130,-536.266849
3128.018275,-9326.594869,740.205942,0.000000
3128.018613,-9622.677246,814.226536,229.828649
3128.018950,-9104.533087,74.020594,459.657299
3128.019287,-9918.759623,962.267725,842.705048
3128.019624,-9696.697840,296.082377,919.314598
3128.019962,-9844.739029,666.185348,995.924147
3128.020299,-9622.677246,444.123565,1072.533697
3128.020636,-10510.924376,74.020594,1685.410096
3128.020973,-9918.759623,296.082377,1685.410096
3128.021311,-10510.924376,148.041188,1762.019645
3128.021648,-10362.883188,592.164754,1838.629195
3128.021985,-9770.718434,444.123565,459.657299
3128.022323,-9992.780217,0.000000,536.266849
3128.022660,-10140.821405,-148.041188,919.314598
3128.022997,-9696.697840,-222.061783,919.314598
3128.023334,-10214.842000,-370.102971,536.266849
3128.023672,-10214.842000,-444.123565,0.000000
3128.024009,-10066.800811,-1184.329507,-383.047749
3128.024346,-10584.944971,-740.205942,229.828649
3128.024684,-10362.883188,-1332.370696,-689.485948
3128.025021,-10066.800811,-1628.453072,-1149.143247
3128.025358,-10436.903782,-1850.514855,-1072.533697
3128.025695,-10140.821405,-2368.659014,-842.705048
3128.026033,-9992.780217,-2146.597232,-1149.143247
3128.026370,-10066.800811,-1850.514855,-919.314598
3128.026707,-10066.800811,-1850.514855,-919.314598
3128.027045,-10288.862594,-1406.391290,383.047749
3128.027382,-10362.883188,-1184.329507,536.266849
3128.027719,-10140.821405,-888.247130,1072.533697
3128.028056,-10066.800811,-740.205942,1378.971896
3128.028394,-10436.903782,74.020594,1225.752797
3128.028731,-10362.883188,888.247130,1225.752797
3128.029068,-10288.862594,1258.350101,1072.533697
3128.029406,-10140.821405,1480.411884,1149.143247
3128.029743,-9918.759623,1628.453072,459.657299
3128.030080,-9770.718434,1776.494261,229.828649
3128.030417,-9696.697840,2220.617826,76.609550
3128.030755,-9474.636058,1776.494261,-383.047749
3128.031092,-8956.491898,1406.391290,-306.438199
3128.031429,-9178.553681,1628.453072,-229.828649
3128.031767,-9474.636058,1184.329507,-689.485948
3128.032104,-9622.677246,1184.329507,-919.314598
3128.032441,-9992.780217,592.164754,-1072.533697
3128.032778,-9474.636058,444.123565,-842.705048
3128.033116,-9696.697840,-444.123565,0.000000
3128.033453,-10214.842000,-666.185348,383.047749
3128.033790,-9696.697840,-1036.288319,229.828649
3128.034128,-10066.800811,-1110.308913,536.266849
3128.034465,-10288.862594,-1480.411884,766.095498
3128.034802,-10066.800811,-1850.514855,995.924147
3128.035139,-10140.821405,-1406.391290,1378.971896
3128.035477,-10510.924376,-1110.308913,1532.190996
3128.035814,-10436.903782,-518.144159,1225.752797
3128.036151,-10732.986159,-592.164754,919.314598
3128.036489,-10881.027347,-1110.308913,1072.533697
3128.036826,-10288.862594,-814.226536,1072.533697
3128.037163,-10510.924376,-1036.288319,995.924147
3128.037500,-10881.027347,-592.164754,919.314598
3128.037838,-10362.883188,-888.247130,-229.828649
3128.038175,-10362.883188,-814.226536,229.828649
3128.038512,-10362.883188,-888.247130,0.000000
3128.038850,-10066.800811,-222.061783,-229.828649
3128.039187,-10066.800811,-962.267725,-383.047749
3128.039524,-9770.718434,-444.123565,-842.705048
3128.039861,-9622.677246,-1036.288319,-383.047749
3128.040199,-9918.759623,-740.205942,229.828649
3128.040536,-9992.780217,-370.102971,153.219100
3128.040873,-10362.883188,0.000000,459.657299
3128.041211,-10066.800811,-148.041188,689.485948
3128.041548,-9400.615463,444.123565,689.485948
3128.041885,-9770.718434,0.000000,1455.581446
3128.042223,-9696.697840,222.061783,1915.238745
3128.042560,-9548.656652,888.247130,1378.971896
3128.042897,-9770.718434,1258.350101,1072.533697
3128.043235,-10066.800811,1702.473667,1072.533697
3128.043572,-10066.800811,1184.329507,383.047749
3128.043909,-9770.718434,1554.432478,153.219100
3128.044247,-9474.636058,1184.329507,229.828649
3128.044584,-9696.697840,1332.370696,-459.657299
3128.044921,-10214.842000,444.123565,-612.876398
3128.045259,-9992.780217,370.102971,-689.485948
3128.045596,-9844.739029,-814.226536,-919.314598
3128.045933,-9992.780217,-222.061783,-1225.752797
3128.046271,-9696.697840,-1110.308913,-1149.143247
3128.046608,-9548.656652,-1850.514855,-1838.629195
3128.046945,-9474.636058,-1628.453072,-919.314598
3128.047283,-10066.800811,-2220.617826,-689.485948
3128.047620,-10584.944971,-1850.514855,-459.657299
3128.047957,-10732.986159,-2146.597232,-995.924147
3128.048295,-10584.944971,-1998.556043,153.219100
3128.048632,-10214.842000,-1998.556043,76.609550
3128.048969,-9548.656652,-2590.720797,1149.143247
3128.049307,-10436.903782,-2146.597232,1991.848295
3128.049644,-10362.883188,-1776.494261,1455.581446
3128.049981,-10955.047942,-370.102971,1378.971896
3128.050319,-10881.027347,-148.041188,842.705048
3128.050656,-9844.739029,-222.061783,1149.143247
3128.050993,-10362.883188,0.000000,1302.362347
3128.051331,-9992.780217,888.247130,919.314598
3128.051668,-9622.677246,1036.288319,536.266849
3128.052005,-10362.883188,1110.308913,689.485948
3128.052343,-9918.759623,740.205942,153.219100
3128.052680,-9844.739029,1702.473667,153.219100
3128.053018,-9844.739029,1480.411884,689.485948
3128.053355,-9178.553681,666.185348,-689.485948
3128.053692,-9400.615463,1110.308913,-459.657299
3128.054030,-9030.512492,592.164754,-153.219100
3128.054367,-9326.594869,518.144159,1225.752797
3128.054704,-9770.718434,296.082377,842.705048
3128.055042,-9770.718434,518.144159,459.657299
3128.055379,-9548.656652,296.082377,1302.362347
3128.055716,-9844.739029,296.082377,1149.143247
3128.056054,-9918.759623,0.000000,1838.629195
3128.056391,-10140.821405,814.226536,1685.410096
3128.056728,-10436.903782,-222.061783,1532.190996
3128.057066,-10288.862594,444.123565,1378.971896
3128.057403,-10140.821405,296.082377,459.657299
3128.057740,-10140.821405,-222.061783,229.828649
3128.058078,-10066.800811,-296.082377,229.828649
3128.058415,-9548.656652,-1258.350101,153.219100
3128.058752,-9770.718434,0.000000,229.828649
3128.059090,-10436.903782,-962.267725,383.047749
3128.059427,-10214.842000,-1184.329507,-842.705048
3128.059764,-10436.903782,-1406.391290,-459.657299
3128.060102,-11177.109724,-1110.308913,-229.828649
3128.060439,-10140.821405,-1924.535449,-1225.752797
3128.060776,-10288.862594,-2220.617826,-1225.752797
3128.061114,-10140.821405,-2664.741391,-842.705048
3128.061451,-9918.759623,-2368.659014,-995.924147
3128.061788,-10066.800811,-2072.576638,-459.657299
3128.062126,-10584.944971,-2368.659014,-1149.143247
3128.062463,-9918.759623,-1554.432478,-612.876398
3128.062800,-10214.842000,-1258.350101,0.000000
3128.063138,-10140.821405,-1036.288319,1149.143247
3128.063475,-9992.780217,-814.226536,1225.752797
3128.063812,-10066.800811,74.020594,1455.581446
3128.064150,-10362.883188,666.185348,1762.019645
3128.064487,-10214.842000,1036.288319,919.314598
3128.064824,-10362.883188,1332.370696,1149.143247
3128.065162,-9696.697840,1258.350101,689.485948
3128.065499,-9770.718434,1850.514855,536.266849
3128.065836,-9548.656652,2220.617826,76.609550
3128.066174,-9474.636058,1702.473667,-995.924147
3128.066511,-9326.594869,1480.411884,-459.657299
3128.066848,-8882.471304,1480.411884,-842.705048
3128.067186,-9474.636058,1110.308913,-1072.533697
3128.067523,-9992.780217,1110.308913,-919.314598
3128.067861,-9548.656652,888.247130,-766.095498
3128.068198,-9770.718434,0.000000,-612.876398
3128.068535,-9992.780217,0.000000,0.000000
3128.068873,-9918.759623,-814.226536,229.828649
3128.069210,-10362.883188,-1110.308913,612.876398
3128.069547,-9548.656652,-666.185348,153.219100
3128.069885,-10066.800811,-1554.432478,0.000000
3128.070222,-10436.903782,-1554.432478,842.705048
3128.070559,-9844.739029,-888.247130,689.485948
3128.070897,-10881.027347,-1258.350101,1991.848295
3128.071234,-10288.862594,0.000000,612.876398
3128.071571,-10436.903782,-1036.288319,1072.533697
3128.071909,-11325.150913,-518.144159,1762.019645
3128.072246,-10066.800811,-1110.308913,1072.533697
3128.072583,-10584.944971,-296.082377,1225.752797
3128.072921,-10881.027347,-592.164754,1072.533697
3128.073258,-10140.821405,-1110.308913,0.000000
3128.073595,-10288.862594,-592.164754,229.828649
3128.073933,-10066.800811,-1332.370696,0.000000
3128.074270,-10066.800811,-222.061783,153.219100
3128.074607,-10510.924376,-814.226536,-995.924147
3128.074945,-9918.759623,-296.082377,-842.705048
3128.075282,-9696.697840,-888.247130,-536.266849
3128.075619,-9770.718434,-814.226536,459.657299
3128.075957,-9992.780217,-296.082377,383.047749
3128.076294,-10140.821405,-666.185348,612.876398
3128.076631,-9844.739029,222.061783,842.705048
3128.076969,-9770.718434,-666.185348,995.924147
3128.077306,-9770.718434,74.020594,1991.848295
3128.077643,-9622.677246,0.000000,1838.629195
3128.077981,-10140.821405,814.226536,1915.238745
3128.078318,-9622.677246,1184.329507,1762.019645
3128.078655,-10066.800811,1332.370696,995.924147
3128.078993,-9770.718434,1332.370696,995.924147
3128.079330,-9400.615463,1480.411884,-153.219100
3128.079667,-9696.697840,888.247130,842.705048
3128.080005,-10066.800811,1924.535449,-612.876398
3128.080342,-9696.697840,0.000000,-689.485948
3128.080679,-10066.800811,0.000000,-153.219100
3128.081017,-9918.759623,-888.247130,-612.876398
3128.081354,-10066.800811,-666.185348,-919.314598
3128.081692,-9696.697840,-1184.329507,-612.876398
3128.082029,-9696.697840,-1850.514855,-1838.629195
3128.082366,-9326.594869,-2294.638420,-1532.190996
3128.082704,-10362.883188,-2294.638420,-306.438199
3128.083041,-9992.780217,-1702.473667,-842.705048
3128.083378,-10510.924376,-2886.803174,-612.876398
3128.083716,-10807.006753,-1850.514855,153.219100
3128.084053,-10140.821405,-2368.659014,306.438199
3128.084390,-11029.068536,-1702.473667,1838.629195
3128.084728,-10658.965565,-2220.617826,995.924147
3128.085065,-10214.842000,-2072.576638,1225.752797
3128.085402,-10732.986159,-518.144159,1378.971896
3128.085740,-10362.883188,-1480.411884,766.095498
3128.086077,-10288.862594,296.082377,1302.362347
3128.086414,-10436.903782,-518.144159,1225.752797
3128.086752,-9918.759623,888.247130,612.876398
3128.087089,-9474.636058,888.247130,229.828649
3128.087426,-10214.842000,592.164754,612.876398
3128.087764,-9770.718434,740.205942,0.000000
3128.088101,-9696.697840,1036.288319,0.000000
3128.088438,-9770.718434,1480.411884,689.485948
3128.088776,-9844.739029,888.247130,-459.657299
3128.089113,-9326.594869,296.082377,-459.657299
3128.089450,-8956.491898,740.205942,-536.266849
3128.089788,-9548.656652,222.061783,383.047749
3128.090125,-9548.656652,296.082377,919.314598
3128.090462,-9474.636058,518.144159,306.438199
3128.090800,-10066.800811,222.061783,1072.533697
3128.091137,-9474.636058,666.185348,1072.533697
3128.091474,-9622.677246,74.020594,1455.581446
3128.091812,-10436.903782,518.144159,1991.848295
3128.092149,-9918.759623,296.082377,1378.971896
3128.092486,-10584.944971,444.123565,1762.019645
3128.092824,-10214.842000,74.020594,995.924147
3128.093161,-9918.759623,148.041188,1225.752797
3128.093498,-10288.862594,-370.102971,766.095498
3128.093836,-10066.800811,0.000000,459.657299
3128.094173,-9770.718434,-74.020594,0.000000
3128.094510,-10362.883188,-1110.308913,0.000000
3128.094848,-9696.697840,-1406.391290,-306.438199
3128.095185,-9992.780217,-1554.432478,-919.314598
3128.095523,-10584.944971,-740.205942,0.000000
3128.095860,-10288.862594,-1776.494261,-1072.533697
3128.096197,-10658.965565,-1554.432478,-995.924147
3128.096535,-10214.842000,-2590.720797,-995.924147
3128.096872,-9918.759623,-2146.597232,-842.705048
3128.097209,-10362.883188,-1850.514855,-306.438199
3128.097547,-10510.924376,-2146.597232,-536.266849
3128.097884,-10140.821405,-1924.535449,-919.314598
3128.098221,-9918.759623,-1480.411884,0.000000
3128.098559,-10214.842000,-814.226536,612.876398
3128.098896,-10288.862594,-1110.308913,1455.581446
3128.099233,-9992.780217,0.000000,1225.752797
3128.099571,-9770.718434,666.185348,1072.533697
3128.099908,-10066.800811,888.247130,919.314598
3128.100245,-10066.800811,1036.288319,689.485948
3128.100583,-10436.903782,1110.308913,612.876398
3128.100920,-9844.739029,2072.576638,153.219100
3128.101257,-9548.656652,1702.473667,-612.876398
3128.101595,-9252.574275,1406.391290,-76.609550
3128.101932,-9030.512492,888.247130,-766.095498
3128.102269,-9474.636058,1258.350101,-459.657299
3128.102607,-9474.636058,1776.494261,-842.705048
3128.102944,-9252.574275,296.082377,-1302.362347
3128.103281,-9622.677246,814.226536,-306.438199
3128.103619,-9992.780217,-74.020594,-995.924147
3128.103956,-9844.739029,0.000000,-536.266849
3128.104293,-10140.821405,0.000000,229.828649
3128.104631,-10510.924376,-1036.288319,153.219100
3128.104968,-9548.656652,-1332.370696,306.438199
3128.105305,-10288.862594,-1406.391290,536.266849
3128.105643,-10066.800811,-1258.350101,1149.143247
3128.105980,-10066.800811,-1258.350101,995.924147
3128.106317,-10658.965565,-1406.391290,1608.800546
3128.106655,-10510.924376,-888.247130,919.314598
3128.106992,-10214.842000,-740.205942,1149.143247
3128.107329,-10510.924376,-740.205942,1302.362347
3128.107667,-10584.944971,-1184.329507,1149.143247
3128.108004,-10732.986159,-592.164754,1149.143247
3128.108341,-10658.965565,-222.061783,612.876398
3128.108679,-10140.821405,-962.267725,306.438199
3128.109016,-10214.842000,-592.164754,-306.438199
3128.109353,-10214.842000,-888.247130,229.828649
3128.109691,-9992.780217,-740.205942,-383.047749
3128.110028,-9992.780217,-592.164754,-766.095498
3128.110366,-10214.842000,-518.144159,-612.876398
3128.110703,-9622.677246,-814.226536,-612.876398
3128.111040,-9770.718434,-592.164754,-153.219100
3128.111378,-10066.800811,-296.082377,306.438199
3128.111715,-10214.842000,-518.144159,459.657299
3128.112052,-9770.718434,222.061783,766.095498
3128.112390,-9992.780217,-222.061783,689.485948
3128.112727,-9992.780217,444.123565,1378.971896
3128.113064,-9844.739029,0.000000,2221.676944
3128.113402,-10066.800811,444.123565,1838.629195
3128.113739,-9178.553681,1184.329507,1072.533697
3128.114076,-10140.821405,1480.411884,1225.752797
3128.114414,-10214.842000,1406.391290,689.485948
3128.114751,-9400.615463,1036.288319,0.000000
3128.115088,-9474.636058,1628.453072,536.266849
3128.115426,-9696.697840,1258.350101,0.000000
3128.115763,-10214.842000,740.205942,-153.219100
3128.116100,-10066.800811,296.082377,-919.314598
3128.116438,-10288.862594,-888.247130,-995.924147
3128.116775,-9622.677246,-148.041188,-1762.019645
3128.117112,-9918.759623,-1036.288319,-1608.800546
3128.117450,-9918.759623,-1702.473667,-1149.143247
3128.117787,-9178.553681,-2368.659014,-1838.629195
3128.118124,-9770.718434,-2072.576638,-612.876398
3128.118462,-10807.006753,-2220.617826,229.828649
3128.118799,-10436.903782,-2072.576638,-306.438199
3128.119136,-10658.965565,-2812.782580,0.000000
3128.119474,-10288.862594,-1702.473667,383.047749
3128.119811,-10436.903782,-2516.700203,1915.238745
3128.120148,-10436.903782,-2294.638420,1302.362347
3128.120486,-10288.862594,-1332.370696,842.705048
3128.120823,-10807.006753,-666.185348,842.705048
3128.121160,-10881.027347,-1036.288319,1991.848295
3128.121498,-9992.780217,0.000000,919.314598
3128.121835,-10066.800811,-592.164754,1225.752797
3128.122172,-9918.759623,518.144159,1378.971896
3128.122510,-9918.759623,666.185348,689.485948
3128.122847,-10436.903782,888.247130,612.876398
3128.123184,-10140.821405,1110.308913,919.314598
3128.123522,-10066.800811,370.102971,153.219100
3128.123859,-9844.739029,1332.370696,383.047749
3128.124197,-9992.780217,888.247130,76.609550
3128.124534,-9622.677246,444.123565,-766.095498
3128.124871,-8808.450710,296.082377,-153.219100
3128.125209,-9400.615463,518.144159,383.047749
3128.125546,-9474.636058,296.082377,689.485948
3128.125883,-9992.780217,518.144159,612.876398
3128.126221,-9622.677246,444.123565,1149.143247
3128.126558,-9696.697840,0.000000,1532.190996
3128.126895,-9844.739029,962.267725,1378.971896
3128.127233,-10066.800811,0.000000,1838.629195
3128.127570,-9992.780217,74.020594,1532.190996
3128.127907,-9622.677246,666.185348,1072.533697
3128.128245,-10436.903782,370.102971,1378.971896
3128.128582,-10436.903782,0.000000,1072.533697
3128.128919,-9844.739029,-666.185348,76.609550
3128.129257,-10214.842000,0.000000,76.609550
3128.129594,-9622.677246,-666.185348,-536.266849
3128.129931,-10362.883188,-1258.350101,0.000000
3128.130269,-10362.883188,-1776.494261,-306.438199
3128.130606,-9992.780217,-1332.370696,-766.095498
3128.130943,-10955.047942,-1036.288319,0.000000
3128.131281,-11103.089130,-1776.494261,-1378.971896
3128.131618,-10288.862594,-2220.617826,-1149.143247
3128.131955,-10510.924376,-2368.659014,-689.485948
3128.132293,-9844.739029,-2812.782580,-842.705048
3128.132630,-10436.903782,-1480.411884,-76.609550
3128.132967,-10658.965565,-2590.720797,0.000000
3128.133305,-10362.883188,-2072.576638,-766.095498
3128.133642,-9844.739029,-1332.370696,0.000000
3128.133979,-10214.842000,-1110.308913,612.876398
3128.134317,-10362.883188,-592.164754,1455.581446
3128.134654,-10066.800811,-74.020594,1455.581446
3128.134991,-9844.739029,518.144159,1302.362347
3128.135329,-10066.800811,1184.329507,1378.971896
3128.135666,-10362.883188,1110.308913,1072.533697
3128.136003,-10362.883188,1258.350101,1149.143247
3128.136341,-9770.718434,1924.535449,0.000000
3128.136678,-9696.697840,1998.556043,0.000000
3128.137015,-9474.636058,2072.576638,76.609550
3128.137353,-8882.471304,1184.329507,-1378.971896
3128.137690,-9178.553681,1480.411884,-919.314598
3128.138027,-9252.574275,1406.391290,-1072.533697
3128.138365,-9252.574275,740.205942,-1455.581446
3128.138702,-9770.718434,814.226536,-536.266849
3128.139040,-9844.739029,74.020594,229.828649
3128.139377,-9770.718434,222.061783,-153.219100
3128.139714,-10066.800811,-370.102971,536.266849
3128.140052,-10732.986159,-370.102971,1225.752797
3128.140389,-9844.739029,-814.226536,842.705048
3128.140726,-9770.718434,-1184.329507,459.657299
3128.141064,-10288.862594,-888.247130,1072.533697
3128.141401,-10140.821405,-1110.308913,766.095498
3128.141738,-9696.697840,-1184.329507,1072.533697
3128.142076,-10807.006753,-444.123565,1225.752797
3128.142413,-9992.780217,-592.164754,919.314598
3128.142750,-10807.006753,-444.123565,1149.143247
3128.143087,-10436.903782,-814.226536,766.095498
3128.143425,-10140.821405,-1110.308913,1149.143247
3128.143762,-10584.944971,-518.144159,1225.752797
3128.144099,-10362.883188,-1184.329507,612.876398
3128.144436,-10214.842000,-592.164754,459.657299
3128.144774,-10288.862594,-666.185348,0.000000
3128.145111,-10066.800811,-666.185348,-689.485948
3128.145448,-10288.862594,-666.185348,-995.924147
3128.145785,-10066.800811,-814.226536,-766.095498
3128.146123,-9548.656652,-962.267725,-612.876398
3128.146460,-10066.800811,-888.247130,0.000000
3128.146797,-9548.656652,74.020594,0.000000
3128.147134,-10214.842000,-444.123565,153.219100
3128.147472,-10140.821405,0.000000,995.924147
3128.147809,-9696.697840,0.000000,1149.143247
3128.148146,-10140.821405,-74.020594,1991.848295
3128.148483,-9696.697840,518.144159,2451.505594
3128.148821,-9696.697840,444.123565,1685.410096
3128.149158,-10140.821405,814.226536,1608.800546
3128.149495,-9252.574275,1702.473667,536.266849
3128.149832,-9918.759623,1110.308913,612.876398
3128.150170,-9474.636058,1258.350101,153.219100
3128.150507,-9104.533087,1406.391290,-306.438199
3128.150844,-10288.862594,740.205942,612.876398
3128.151181,-9918.759623,1406.391290,-1072.533697
3128.151519,-9622.677246,0.000000,-612.876398
3128.151856,-10584.944971,0.000000,-76.609550
3128.152193,-9326.594869,-444.123565,-1685.410096
3128.152530,-10140.821405,-962.267725,-1302.362347
3128.152868,-9844.739029,-1924.535449,-1225.752797
3128.153205,-8956.491898,-2368.659014,-1149.143247
3128.153542,-10140.821405,-1776.494261,-612.876398
3128.153879,-10436.903782,-1998.556043,-919.314598
3128.154217,-10362.883188,-1850.514855,-612.876398
3128.154554,-10955.047942,-2146.597232,-383.047749
3128.154891,-10436.903782,-2220.617826,1072.533697
3128.155228,-10436.903782,-2072.576638,919.314598
3128.155566,-10955.047942,-1702.473667,1455.581446
3128.155903,-10584.944971,-1406.391290,995.924147
3128.156240,-10584.944971,-1184.329507,919.314598
3128.156577,-10362.883188,-222.061783,1302.362347
3128.156915,-10510.924376,-444.123565,1532.190996
3128.157252,-10436.903782,0.000000,1225.752797
3128.157589,-9918.759623,592.164754,536.266849
3128.157926,-9992.780217,1110.308913,536.266849
3128.158264,-9696.697840,444.123565,229.828649
3128.158601,-9696.697840,814.226536,306.438199
3128.158938,-9696.697840,222.061783,76.609550
3128.159275,-9992.780217,1628.453072,0.000000
3128.159613,-9918.759623,962.267725,0.000000
3128.159950,-9992.780217,1406.391290,-612.876398
3128.160287,-9474.636058,74.020594,-306.438199
3128.160624,-9474.636058,666.185348,306.438199
3128.160962,-9474.636058,592.164754,766.095498
3128.161299,-9696.697840,518.144159,842.705048
3128.161636,-9474.636058,518.144159,1455.581446
3128.161973,-9992.780217,74.020594,1072.533697
3128.162311,-9992.780217,592.164754,1532.190996
3128.162648,-10362.883188,962.267725,2221.676944
3128.162985,-9770.718434,666.185348,1302.362347
3128.163322,-9844.739029,444.123565,1149.143247
3128.163660,-10362.883188,1110.308913,1685.410096
3128.163997,-10214.842000,0.000000,919.314598
3128.164334,-10955.047942,-296.082377,995.924147
3128.164671,-9696.697840,-148.041188,0.000000
3128.165009,-9474.636058,-444.123565,0.000000
3128.165346,-10288.862594,-740.205942,0.000000
3128.165683,-10066.800811,-2220.617826,0.000000
3128.166020,-9992.780217,-1184.329507,-612.876398
3128.166358,-10807.006753,-1258.350101,0.000000
3128.166695,-10881.027347,-1258.350101,-1532.190996
3128.167032,-10362.883188,-2072.576638,-1915.238745
3128.167369,-10214.842000,-2220.617826,-689.485948
3128.167707,-9474.636058,-2516.700203,-536.266849
3128.168044,-10066.800811,-1924.535449,0.000000
3128.168381,-10658.965565,-1776.494261,0.000000
3128.168718,-10584.944971,-1850.514855,-612.876398
3128.169056,-10140.821405,-2072.576638,-76.609550
3128.169393,-10362.883188,-1036.288319,459.657299
3128.169730,-10362.883188,-592.164754,1838.629195
3128.170067,-10066.800811,-222.061783,1302.362347
3128.170405,-9770.718434,148.041188,689.485948
3128.170742,-10362.883188,1184.329507,1378.971896
3128.171079,-10214.842000,1480.411884,689.485948
3128.171416,-10066.800811,1406.391290,919.314598
3128.171754,-9474.636058,1480.411884,0.000000
3128.172091,-9252.574275,2368.659014,0.000000
3128.172428,-9622.677246,1480.411884,-612.876398
3128.172765,-9400.615463,1406.391290,-689.485948
3128.173103,-8956.491898,1332.370696,-612.876398
3128.173440,-9548.656652,1406.391290,-612.876398
3128.173777,-9548.656652,1036.288319,-766.095498
3128.174114,-9400.615463,518.144159,-995.924147
3128.174452,-9696.697840,0.000000,229.828649
3128.174789,-9326.594869,0.000000,-306.438199
3128.175126,-9696.697840,-296.082377,459.657299
3128.175463,-10214.842000,-222.061783,919.314598
3128.175801,-10214.842000,-1184.329507,612.876398
3128.176138,-9992.780217,-740.205942,536.266849
3128.176475,-10288.862594,-1702.473667,842.705048
3128.176812,-9770.718434,-740.205942,1225.752797
3128.177150,-10436.903782,-1036.288319,1149.143247
3128.177487,-10436.903782,-962.267725,1225.752797
3128.177824,-10288.862594,-148.041188,766.095498
3128.178161,-10732.986159,-518.144159,1378.971896
3128.178499,-10807.006753,-814.226536,1762.019645
3128.178836,-10658.965565,-1184.329507,766.095498
3128.179173,-10510.924376,-814.226536,689.485948
3128.179510,-9844.739029,-296.082377,306.438199
3128.179848,-10362.883188,-1110.308913,0.000000
3128.180185,-10140.821405,-1110.308913,0.000000
3128.180522,-10140.821405,-888.247130,-536.266849
3128.180859,-10140.821405,-444.123565,-383.047749
3128.181197,-10214.842000,-666.185348,-995.924147
3128.181534,-9548.656652,-1036.288319,-459.657299
3128.181871,-9696.697840,-814.226536,0.000000
3128.182208,-9696.697840,-592.164754,689.485948
3128.182546,-10510.924376,-444.123565,612.876398
3128.182883,-9844.739029,0.000000,842.705048
3128.183220,-9992.780217,0.000000,1072.533697
3128.183557,-10362.883188,0.000000,1455.581446
3128.183895,-9400.615463,814.226536,1608.800546
3128.184232,-9770.718434,740.205942,1991.848295
3128.184569,-10140.821405,1184.329507,1455.581446
3128.184906,-9622.677246,1554.432478,689.485948
3128.185244,-9844.739029,1110.308913,459.657299
3128.185581,-9548.656652,1332.370696,766.095498
3128.185918,-9548.656652,1332.370696,-306.438199
3128.186255,-9548.656652,1184.329507,153.219100
3128.186593,-9548.656652,666.185348,-612.876398
3128.186930,-10140.821405,222.061783,-689.485948
3128.187267,-9844.739029,0.000000,-1378.971896
3128.187604,-9992.780217,-592.164754,-1378.971896
3128.187942,-10140.821405,-814.226536,-1225.752797
3128.188279,-9844.739029,-1332.370696,-1378.971896
3128.188616,-9474.636058,-2294.638420,-1532.190996
3128.188953,-9622.677246,-2220.617826,-766.095498
3128.189291,-10288.862594,-2072.576638,0.000000
3128.189628,-10732.986159,-2146.597232,-459.657299
3128.189965,-10732.986159,-2146.597232,-229.828649
3128.190302,-10436.903782,-2368.659014,766.095498
3128.190640,-10436.903782,-2368.659014,1072.533697
3128.190977,-10362.883188,-1480.411884,1455.581446
3128.191314,-10658.965565,-1850.514855,995.924147
3128.191651,-10362.883188,-1258.350101,766.095498
3128.191989,-10362.883188,-148.041188,612.876398
3128.192326,-10807.006753,-518.144159,1072.533697
3128.192663,-9918.759623,-148.041188,919.314598
3128.193000,-9770.718434,-296.082377,459.657299
3128.193338,-10140.821405,592.164754,842.705048
3128.193675,-9548.656652,592.164754,-153.219100
3128.194012,-9918.759623,740.205942,153.219100
3128.194349,-9918.759623,518.144159,306.438199
3128.194687,-9918.759623,814.226536,0.000000
3128.195024,-9918.759623,1480.411884,-306.438199
3128.195361,-9696.697840,222.061783,-766.095498
3128.195698,-9104.533087,296.082377,-153.219100
3128.196035,-9474.636058,296.082377,383.047749
3128.196373,-9844.739029,444.123565,1072.533697
3128.196710,-9400.615463,666.185348,306.438199
3128.197047,-9696.697840,74.020594,919.314598
3128.197384,-10066.800811,148.041188,1532.190996
3128.197722,-9400.615463,370.102971,1455.581446
3128.198059,-10140.821405,1036.288319,2298.286494
3128.198396,-10288.862594,74.020594,1762.019645
3128.198733,-9844.739029,740.205942,1072.533697
3128.199071,-10436.903782,0.000000,612.876398
3128.199408,-10584.944971,666.185348,1149.143247
3128.199745,-10436.903782,-592.164754,459.657299
3128.200082,-9474.636058,-518.144159,0.000000
3128.200420,-9474.636058,-296.082377,0.000000
3128.200757,-10362.883188,-814.226536,-536.266849
3128.201094,-10214.842000,-1480.411884,-536.266849
3128.201431,-10140.821405,-1258.350101,-995.924147
3128.201769,-10658.965565,-1776.494261,-689.485948
3128.202106,-10658.965565,-1258.350101,-766.095498
3128.202443,-10658.965565,-2146.597232,-1685.410096
3128.202780,-10140.821405,-2960.823768,-919.314598
3128.203118,-9548.656652,-2812.782580,0.000000
3128.203455,-9918.759623,-2516.700203,-536.266849
3128.203792,-10510.924376,-1924.535449,-536.266849
3128.204129,-10658.965565,-2442.679609,0.000000
3128.204467,-9992.780217,-1924.535449,-383.047749
3128.204804,-9992.780217,-1554.432478,842.705048
3128.205141,-10288.862594,-592.164754,1225.752797
3128.205478,-9918.759623,-222.061783,1532.190996
3128.205816,-10362.883188,1110.308913,1455.581446
3128.206153,-10066.800811,962.267725,842.705048
3128.206490,-10510.924376,888.247130,1455.581446
3128.206827,-10214.842000,1850.514855,995.924147
3128.207165,-9548.656652,888.247130,459.657299
3128.207502,-9548.656652,1998.556043,0.000000
3128.207839,-9030.512492,1702.473667,-1225.752797
3128.208176,-9474.636058,1924.535449,-612.876398
3128.208514,-9326.594869,740.205942,-995.924147
3128.208851,-9400.615463,888.247130,-995.924147
3128.209188,-9622.677246,1110.308913,-1072.533697
3128.209525,-9326.594869,962.267725,-1149.143247
3128.209863,-9770.718434,444.123565,0.000000
3128.210200,-10214.842000,-518.144159,229.828649
3128.210537,-9622.677246,296.082377,842.705048
3128.210874,-10732.986159,0.000000,1455.581446
3128.211212,-10436.903782,-888.247130,153.219100
3128.211549,-9844.739029,-1258.350101,459.657299
3128.211886,-10288.862594,-1406.391290,766.095498
3128.212223,-9548.656652,-1036.288319,919.314598
3128.212561,-9992.780217,-666.185348,919.314598
3128.212898,-10214.842000,-1258.350101,1225.752797
3128.213235,-10140.821405,-296.082377,612.876398
3128.213572,-10584.944971,-518.144159,1378.971896
3128.213910,-10807.006753,-740.205942,1302.362347
3128.214247,-10436.903782,-888.247130,1225.752797
3128.214584,-10510.924376,-814.226536,995.924147
3128.214921,-9844.739029,-1184.329507,383.047749
3128.215259,-10436.903782,-1110.308913,76.609550
3128.215596,-10288.862594,-1258.350101,-459.657299
3128.215933,-10288.862594,-1332.370696,-383.047749
3128.216270,-9844.739029,-666.185348,-766.095498
3128.216608,-9992.780217,-1184.329507,-1225.752797
3128.216945,-9844.739029,-1184.329507,-229.828649
3128.217282,-9622.677246,-1036.288319,-536.266849
3128.217619,-9844.739029,0.000000,153.219100
3128.217957,-10288.862594,-222.061783,306.438199
3128.218294,-10362.883188,-518.144159,842.705048
3128.218631,-9918.759623,148.041188,1762.019645
3128.218968,-9992.780217,0.000000,2145.067394
3128.219306,-9918.759623,814.226536,1915.238745
3128.219643,-9844.739029,222.061783,1762.019645
3128.219980,-10214.842000,1332.370696,1762.019645
3128.220317,-9400.615463,888.247130,1149.143247
3128.220655,-9252.574275,1554.432478,459.657299
3128.220992,-9548.656652,1480.411884,612.876398
3128.221329,-9474.636058,814.226536,0.000000
3128.221666,-9474.636058,1702.473667,0.000000
3128.222004,-10066.800811,740.205942,0.000000
3128.222341,-9622.677246,518.144159,-459.657299
3128.222678,-10140.821405,74.020594,-842.705048
3128.223015,-10066.800811,-666.185348,-995.924147
3128.223353,-10140.821405,-740.205942,-1532.190996
3128.223690,-10066.800811,-1258.350101,-919.314598
3128.224027,-9844.739029,-2294.638420,-536.266849
3128.224364,-9474.636058,-2368.659014,-383.047749
3128.224702,-10436.903782,-1924.535449,0.000000
3128.225039,-10362.883188,-2368.659014,-842.705048
3128.225376,-10288.862594,-2146.597232,-383.047749
3128.225713,-10436.903782,-2590.720797,306.438199
3128.226051,-10732.986159,-2072.576638,1072.533697
3128.226388,-11325.150913,-888.247130,1762.019645
3128.226725,-10658.965565,-1332.370696,842.705048
3128.227062,-10288.862594,-1184.329507,842.705048
3128.227400,-10214.842000,-740.205942,919.314598
3128.227737,-10584.944971,-222.061783,1072.533697
3128.228074,-10955.047942,-222.061783,1072.533697
3128.228411,-10140.821405,-148.041188,459.657299
3128.228749,-9770.718434,962.267725,76.609550
3128.229086,-10288.862594,148.041188,612.876398
3128.229423,-9474.636058,1184.329507,0.000000
3128.229760,-10066.800811,296.082377,76.609550
3128.230098,-9696.697840,592.164754,0.000000
3128.230435,-9326.594869,1406.391290,-919.314598
3128.230772,-10288.862594,666.185348,0.000000
3128.231109,-9474.636058,518.144159,-306.438199
3128.231447,-8956.491898,74.020594,229.828649
3128.231784,-9252.574275,592.164754,1455.581446
3128.232121,-9178.553681,518.144159,1072.533697
3128.232458,-9992.780217,444.123565,1149.143247
3128.232796,-9992.780217,0.000000,1455.581446
3128.233133,-9548.656652,740.205942,1685.410096
3128.233470,-10288.862594,814.226536,1685.410096
3128.233807,-10214.842000,296.082377,1838.629195
3128.234145,-9622.677246,1184.329507,995.924147
3128.234482,-9622.677246,74.020594,1225.752797
3128.234819,-10362.883188,518.144159,1455.581446
3128.235156,-10362.883188,0.000000,612.876398
3128.235494,-10066.800811,-296.082377,229.828649
3128.235831,-9696.697840,74.020594,153.219100
3128.236168,-10066.800811,-1184.329507,0.000000
3128.236505,-10066.800811,-1036.288319,0.000000
3128.236843,-10066.800811,-1554.432478,-306.438199
3128.237180,-10436.903782,-1480.411884,-1149.143247
3128.237517,-10214.842000,-1480.411884,-1608.800546
3128.237854,-10658.965565,-1850.514855,-1838.629195
3128.238192,-10066.800811,-2516.700203,-995.924147
3128.238529,-10066.800811,-2812.782580,-995.924147
3128.238866,-9622.677246,-2812.782580,0.000000
3128.239203,-10807.006753,-1628.453072,-536.266849
3128.239541,-10584.944971,-2146.597232,-306.438199
3128.239878,-10510.924376,-1998.556043,-383.047749
3128.240215,-10140.821405,-1480.411884,612.876398
3128.240552,-10214.842000,-666.185348,1608.800546
3128.240890,-10288.862594,-296.082377,1378.971896
3128.241227,-9770.718434,74.020594,689.485948
3128.241564,-9918.759623,888.247130,1149.143247
3128.241901,-10584.944971,1480.411884,1072.533697
3128.242239,-9992.780217,1332.370696,306.438199
3128.242576,-10140.821405,1332.370696,153.219100
3128.242913,-9548.656652,1998.556043,-842.705048
3128.243250,-9400.615463,1332.370696,-612.876398
3128.243588,-9252.574275,2072.576638,0.000000
3128.243925,-9252.574275,962.267725,-1225.752797
3128.244262,-9400.615463,1110.308913,-536.266849
3128.244600,-9252.574275,1184.329507,-1072.533697
3128.244937,-9326.594869,444.123565,-612.876398
3128.245274,-9918.759623,592.164754,306.438199
3128.245612,-9696.697840,-444.123565,536.266849
3128.245949,-9770.718434,444.123565,459.657299
3128.246286,-10214.842000,-666.185348,1378.971896
3128.246624,-10436.903782,-592.164754,612.876398
3128.246961,-9844.739029,-1332.370696,612.876398
3128.247298,-9918.759623,-1184.329507,689.485948
3128.247636,-9844.739029,-666.185348,1072.533697
3128.247973,-10288.862594,-962.267725,842.705048
3128.248310,-10214.842000,-518.144159,1225.752797
3128.248648,-10436.903782,-518.144159,995.924147
3128.248985,-10436.903782,-518.144159,1302.362347
3128.249322,-10510.924376,-592.164754,919.314598
3128.249660,-10732.986159,-1184.329507,1532.190996
3128.249997,-10510.924376,-814.226536,842.705048
3128.250335,-10066.800811,-740.205942,229.828649
3128.250672,-10658.965565,-888.247130,459.657299
3128.251009,-9992.780217,-1332.370696,-536.266849
3128.251347,-10140.821405,-1332.370696,-995.924147
3128.251684,-10362.883188,-1184.329507,-612.876398
3128.252021,-9992.780217,-1036.288319,-919.314598
3128.252359,-10362.883188,-1036.288319,-306.438199
3128.252696,-9770.718434,-962.267725,-383.047749
3128.253033,-9548.656652,-296.082377,76.609550
3128.253371,-10510.924376,-370.102971,459.657299
3128.253708,-10288.862594,-74.020594,842.705048
3128.254045,-9548.656652,-592.164754,1149.143247
3128.254383,-10362.883188,-296.082377,2145.067394
3128.254720,-9918.759623,888.247130,1608.800546
3128.255057,-9918.759623,962.267725,1991.848295
3128.255395,-10066.800811,1184.329507,1838.629195
3128.255732,-9622.677246,1406.391290,459.657299
3128.256069,-9622.677246,1850.514855,612.876398
3128.256407,-9770.718434,888.247130,766.095498
3128.256744,-9548.656652,1480.411884,-306.438199
3128.257081,-9474.636058,1258.350101,-689.485948
3128.257419,-9622.677246,1110.308913,-459.657299
3128.257756,-9622.677246,444.123565,-689.485948
3128.258093,-10140.821405,74.020594,-919.314598
3128.258431,-10066.800811,0.000000,-1608.800546
3128.258768,-9844.739029,-666.185348,-1838.629195
3128.259106,-9918.759623,-1258.350101,-1608.800546
3128.259443,-9252.574275,-1628.453072,-1072.533697
3128.259780,-10066.800811,-2664.741391,-689.485948
3128.260118,-9770.718434,-1924.535449,-383.047749
3128.260455,-10362.883188,-1776.494261,-229.828649
3128.260792,-10807.006753,-1850.514855,0.000000
3128.261130,-10955.047942,-2664.741391,76.609550
3128.261467,-10732.986159,-2146.597232,1149.143247
3128.261804,-10510.924376,-1184.329507,1378.971896
3128.262142,-10584.944971,-1332.370696,1532.190996
3128.262479,-10955.047942,-962.267725,1072.533697
3128.262816,-10066.800811,-962.267725,995.924147
3128.263154,-10510.924376,0.000000,1455.581446
3128.263491,-10955.047942,-296.082377,842.705048
3128.263828,-10066.800811,296.082377,229.828649
3128.264166,-9696.697840,296.082377,306.438199
3128.264503,-10066.800811,814.226536,766.095498
3128.264840,-9474.636058,592.164754,229.828649
3128.265178,-10140.821405,296.082377,153.219100
3128.265515,-9844.739029,444.123565,76.609550
3128.265852,-9770.718434,962.267725,-459.657299
3128.266190,-9844.739029,666.185348,0.000000
3128.266527,-9548.656652,444.123565,0.000000
3128.266864,-9474.636058,148.041188,459.657299
3128.267202,-9474.636058,888.247130,1762.019645
3128.267539,-9548.656652,888.247130,1149.143247
3128.267876,-9622.677246,148.041188,1149.143247
3128.268214,-9844.739029,370.102971,1378.971896
3128.268551,-9844.739029,444.123565,1302.362347
3128.268889,-9696.697840,1110.308913,1838.629195
3128.269226,-10140.821405,1258.350101,1838.629195
3128.269563,-10362.883188,740.205942,1608.800546
3128.269901,-9918.759623,666.185348,229.828649
3128.270238,-10510.924376,666.185348,1302.362347
3128.270575,-10362.883188,0.000000,612.876398
3128.270913,-9844.739029,-592.164754,0.000000
3128.271250,-10140.821405,-296.082377,76.609550
3128.271587,-9918.759623,-1480.411884,-153.219100
3128.271925,-9770.718434,-1332.370696,-766.095498
3128.272262,-10436.903782,-1702.473667,-459.657299
3128.272599,-10510.924376,-1554.432478,-995.924147
3128.272937,-10658.965565,-1776.494261,-1532.190996
3128.273274,-10807.006753,-1998.556043,-1762.019645
3128.273611,-9844.739029,-2368.659014,-1378.971896
3128.273949,-10140.821405,-2664.741391,-306.438199
3128.274286,-10288.862594,-2442.679609,76.609550
3128.274623,-10436.903782,-2368.659014,0.000000
3128.274961,-10732.986159,-1850.514855,-153.219100
3128.275298,-10658.965565,-2220.617826,76.609550
3128.275635,-10362.883188,-1332.370696,689.485948
3128.275973,-10288.862594,-740.205942,689.485948
3128.276310,-10214.842000,0.000000,1532.190996
3128.276647,-9918.759623,444.123565,229.828649
3128.276985,-10140.821405,666.185348,995.924147
3128.277322,-10510.924376,1184.329507,1149.143247
3128.277660,-9696.697840,1406.391290,229.828649
3128.277997,-10214.842000,1998.556043,229.828649
3128.278334,-9622.677246,1628.453072,-229.828649
3128.278672,-9474.636058,1850.514855,-919.314598
3128.279009,-9326.594869,1332.370696,-536.266849
3128.279346,-9474.636058,1554.432478,-229.828649
3128.279684,-9252.574275,814.226536,-689.485948
3128.280021,-9252.574275,962.267725,-459.657299
3128.280358,-9474.636058,888.247130,-536.266849
3128.280696,-9918.759623,592.164754,0.000000
3128.281033,-9474.636058,0.000000,383.047749
3128.281370,-9918.759623,148.041188,689.485948
3128.281708,-9844.739029,74.020594,1072.533697
3128.282045,-10140.821405,148.041188,919.314598
3128.282382,-9918.759623,-1110.308913,306.438199
3128.282720,-10066.800811,-1184.329507,766.095498
3128.283057,-9844.739029,-370.102971,1455.581446
3128.283394,-10066.800811,-814.226536,919.314598
3128.283732,-10288.862594,-518.144159,919.314598
3128.284069,-10288.862594,-1110.308913,1149.143247
3128.284406,-10288.862594,-296.082377,1149.143247
3128.284744,-10658.965565,-740.205942,1149.143247
3128.285081,-10732.986159,-518.144159,1302.362347
3128.285418,-10510.924376,-1036.288319,612.876398
3128.285756,-10436.903782,-740.205942,306.438199
3128.286093,-10214.842000,-814.226536,0.000000
3128.286431,-10807.006753,-1998.556043,76.609550
3128.286768,-10510.924376,-1184.329507,-1149.143247
3128.287105,-10140.821405,-1258.350101,-842.705048
3128.287443,-10436.903782,-1480.411884,-306.438199
3128.287780,-9918.759623,-1184.329507,-995.924147
3128.288117,-10288.862594,-1036.288319,0.000000
3128.288455,-9696.697840,-888.247130,-76.609550
3128.288792,-9696.697840,-740.205942,153.219100
3128.289129,-10658.965565,-962.267725,1149.143247
3128.289467,-9770.718434,-370.102971,1532.190996
3128.289804,-9918.759623,0.000000,1991.848295
3128.290141,-10510.924376,296.082377,1838.629195
3128.290479,-9548.656652,1406.391290,1225.752797
3128.290816,-10140.821405,740.205942,1455.581446
3128.291153,-9548.656652,962.267725,689.485948
3128.291491,-8808.450710,1258.350101,612.876398
3128.291828,-9696.697840,1554.432478,536.266849
3128.292165,-9770.718434,1554.432478,0.000000
3128.292503,-9474.636058,1110.308913,-689.485948
3128.292840,-9474.636058,740.205942,0.000000
3128.293177,-9474.636058,666.185348,-766.095498
3128.293515,-9918.759623,518.144159,-689.485948
3128.293852,-9844.739029,-148.041188,-1225.752797
3128.294189,-9844.739029,-740.205942,-842.705048
3128.294527,-9844.739029,-1184.329507,-612.876398
3128.294864,-10066.800811,-1776.494261,-766.095498
3128.295202,-10066.800811,-2146.597232,-536.266849
3128.295539,-9696.697840,-2368.659014,-689.485948
3128.295876,-10362.883188,-1924.535449,383.047749
3128.296214,-10436.903782,-1924.535449,76.609550
3128.296551,-10807.006753,-2368.659014,612.876398
3128.296888,-10658.965565,-1924.535449,1072.533697
3128.297226,-10732.986159,-1554.432478,689.485948
3128.297563,-10658.965565,-888.247130,1225.752797
3128.297900,-10214.842000,-1332.370696,612.876398
3128.298238,-10140.821405,-1332.370696,1072.533697
3128.298575,-10288.862594,-666.185348,842.705048
3128.298912,-10436.903782,74.020594,1455.581446
3128.299250,-10510.924376,0.000000,153.219100
3128.299587,-9696.697840,0.000000,0.000000
3128.299924,-9696.697840,518.144159,0.000000
3128.300262,-9696.697840,148.041188,0.000000
3128.300599,-9548.656652,518.144159,0.000000
3128.300936,-9918.759623,592.164754,0.000000
3128.301274,-9992.780217,666.185348,-383.047749
3128.301611,-9548.656652,888.247130,-383.047749
3128.301948,-10066.800811,222.061783,306.438199
3128.302286,-9326.594869,444.123565,459.657299
3128.302623,-9474.636058,592.164754,1149.143247
3128.302960,-9622.677246,592.164754,1532.190996
3128.303298,-9474.636058,370.102971,995.924147
3128.303635,-10214.842000,814.226536,1762.019645
3128.303973,-10066.800811,222.061783,1608.800546
3128.304310,-9548.656652,1332.370696,2298.286494
3128.304647,-10362.883188,1776.494261,1915.238745
3128.304985,-9770.718434,592.164754,1149.143247
3128.305322,-9622.677246,888.247130,1378.971896
3128.305659,-10214.842000,0.000000,1455.581446
3128.305997,-10362.883188,888.247130,766.095498
3128.306334,-10214.842000,0.000000,229.828649
3128.306671,-9992.780217,-222.061783,-919.314598
3128.307009,-9622.677246,-1036.288319,-76.609550
3128.307346,-9696.697840,-1332.370696,-229.828649
3128.307683,-9844.739029,-814.226536,-536.266849
3128.308021,-10510.924376,-2072.576638,-919.314598
3128.308358,-10510.924376,-1702.473667,-1532.190996
3128.308695,-10288.862594,-1850.514855,-1685.410096
3128.309033,-10436.903782,-2738.761985,-766.095498
3128.309370,-9696.697840,-1998.556043,-689.485948
3128.309707,-10066.800811,-2886.803174,153.219100
3128.310045,-10584.944971,-2368.659014,76.609550
3128.310382,-10066.800811,-1702.473667,-689.485948
3128.310719,-10955.047942,-2368.659014,1455.581446
3128.311057,-10732.986159,-1480.411884,919.314598
3128.311394,-9918.759623,-1184.329507,1149.143247
3128.311731,-10436.903782,0.000000,1225.752797
3128.312069,-9696.697840,222.061783,153.219100
3128.312406,-10066.800811,370.102971,689.485948
3128.312744,-10362.883188,592.164754,1149.143247
3128.313081,-9696.697840,1258.350101,766.095498
3128.313418,-10510.924376,1776.494261,229.828649
3128.313756,-9918.759623,1406.391290,-383.047749
3128.314093,-8882.471304,1702.473667,-842.705048
3128.314430,-9622.677246,888.247130,-919.314598
3128.314768,-9474.636058,1850.514855,-306.438199
3128.315105,-9252.574275,666.185348,-1532.190996
3128.315442,-9474.636058,1406.391290,-689.485948
3128.315780,-9474.636058,740.205942,-1072.533697
3128.316117,-9548.656652,148.041188,153.219100
3128.316454,-10066.800811,222.061783,536.266849
3128.316792,-9770.718434,0.000000,919.314598
3128.317129,-10140.821405,148.041188,919.314598
3128.317466,-10066.800811,-296.082377,689.485948
3128.317804,-10214.842000,-296.082377,1378.971896
3128.318141,-10140.821405,-888.247130,1225.752797
3128.318478,-9992.780217,-740.205942,612.876398
3128.318816,-10140.821405,-592.164754,919.314598
3128.319153,-10584.944971,0.000000,1302.362347
3128.319490,-10140.821405,-740.205942,1072.533697
3128.319828,-10881.027347,-962.267725,1149.143247
3128.320165,-9992.780217,-962.267725,919.314598
3128.320502,-10807.006753,-296.082377,919.314598
3128.320840,-10732.986159,-1110.308913,612.876398
3128.321177,-10140.821405,-1036.288319,0.000000
3128.321515,-10066.800811,-1110.308913,76.609550
3128.321852,-10584.944971,-1036.288319,0.000000
3128.322189,-9918.759623,-1850.514855,-919.314598
3128.322527,-10288.862594,-962.267725,-689.485948
3128.322864,-9696.697840,-1480.411884,-1302.362347
3128.323201,-9622.677246,-1406.391290,-536.266849
3128.323539,-9992.780217,-814.226536,0.000000
3128.323876,-9770.718434,-1480.411884,0.000000
3128.324213,-10436.903782,0.000000,1072.533697
3128.324551,-9548.656652,-518.144159,536.266849
3128.324888,-9992.780217,-296.082377,1378.971896
3128.325225,-10658.965565,0.000000,2145.067394
3128.325563,-10214.842000,0.000000,2298.286494
3128.325900,-9844.739029,2072.576638,1685.410096
3128.326237,-10066.800811,1110.308913,1225.752797
3128.326575,-9622.677246,1480.411884,689.485948
3128.326912,-9030.512492,1258.350101,459.657299
3128.327249,-9400.615463,2146.597232,383.047749
3128.327587,-9548.656652,1406.391290,-383.047749
3128.327924,-9252.574275,1406.391290,-766.095498
3128.328261,-9178.553681,1406.391290,-689.485948
3128.328599,-9548.656652,1110.308913,-229.828649
3128.328936,-9696.697840,148.041188,-689.485948
3128.329273,-9992.780217,-222.061783,-1685.410096
3128.329611,-9844.739029,-666.185348,-1225.752797
3128.329948,-10214.842000,-1110.308913,-1302.362347
3128.330286,-9474.636058,-1628.453072,-995.924147
3128.330623,-9844.739029,-1924.535449,76.609550
3128.330960,-9844.739029,-2220.617826,-536.266849
3128.331298,-9844.739029,-1924.535449,-766.095498
3128.331635,-10732.986159,-2368.659014,0.000000
3128.331972,-10658.965565,-1924.535449,612.876398
3128.332310,-10658.965565,-2294.638420,689.485948
3128.332647,-10658.965565,-1332.370696,1149.143247
3128.332984,-10362.883188,-962.267725,1532.190996
3128.333322,-10881.027347,-1332.370696,1149.143247
3128.333659,-10658.965565,-962.267725,1072.533697
3128.333996,-9992.780217,-962.267725,689.485948
3128.334334,-10658.965565,-370.102971,1302.362347
3128.334671,-10066.800811,0.000000,0.000000
3128.335008,-9696.697840,0.000000,-153.219100
3128.335346,-9992.780217,222.061783,0.000000
3128.335683,-9770.718434,0.000000,0.000000
3128.336020,-9992.780217,814.226536,0.000000
3128.336358,-10214.842000,296.082377,76.609550
3128.336695,-9474.636058,518.144159,0.000000
3128.337032,-9548.656652,0.000000,153.219100
3128.337370,-9918.759623,444.123565,842.705048
3128.337707,-9622.677246,0.000000,1072.533697
3128.338044,-9770.718434,444.123565,995.924147
3128.338382,-9474.636058,296.082377,1378.971896
3128.338719,-9548.656652,296.082377,995.924147
3128.339057,-9844.739029,0.000000,1915.238745
3128.339394,-9252.574275,962.267725,1532.190996
3128.339731,-10214.842000,740.205942,2145.067394
3128.340069,-9696.697840,1406.391290,1225.752797
3128.340406,-10066.800811,1554.432478,1149.143247
3128.340743,-10140.821405,1332.370696,1225.752797
3128.341081,-10140.821405,370.102971,1072.533697
3128.341418,-10214.842000,444.123565,995.924147
3128.341755,-9770.718434,148.041188,76.609550
3128.342093,-9992.780217,-296.082377,0.000000
3128.342430,-10362.883188,-814.226536,-76.609550
3128.342767,-9548.656652,-1776.494261,-842.705048
3128.343105,-10066.800811,-888.247130,-612.876398
3128.343442,-10584.944971,-1924.535449,-1378.971896
3128.343779,-10214.842000,-1850.514855,-1838.629195
3128.344117,-10066.800811,-2590.720797,-1378.971896
3128.344454,-10807.006753,-2368.659014,-459.657299
3128.344791,-10214.842000,-2368.659014,-383.047749
3128.345129,-10584.944971,-2590.720797,0.000000
3128.345466,-10584.944971,-2368.659014,0.000000
3128.345803,-10362.883188,-2220.617826,-306.438199
3128.346140,-10584.944971,-2072.576638,766.095498
3128.346478,-10214.842000,-1702.473667,612.876398
3128.346815,-10362.883188,-740.205942,995.924147
3128.347152,-9992.780217,0.000000,995.924147
3128.347489,-10362.883188,296.082377,459.657299
3128.347827,-10288.862594,814.226536,612.876398
3128.348164,-9992.780217,518.144159,689.485948
3128.348501,-9770.718434,1258.350101,995.924147
3128.348838,-9622.677246,1702.473667,0.000000
3128.349176,-9992.780217,2442.679609,76.609550
3128.349513,-9548.656652,1480.411884,-995.924147
3128.349850,-9178.553681,1258.350101,-919.314598
3128.350188,-9474.636058,1480.411884,-612.876398
3128.350525,-9104.533087,888.247130,-995.924147
3128.350862,-9178.553681,666.185348,-919.314598
3128.351199,-9252.574275,518.144159,-153.219100
3128.351537,-9326.594869,0.000000,0.000000
3128.351874,-9548.656652,666.185348,919.314598
3128.352211,-10510.924376,0.000000,1225.752797
3128.352548,-10140.821405,444.123565,766.095498
3128.352886,-10066.800811,-148.041188,612.876398
3128.353223,-10436.903782,0.000000,1072.533697
3128.353560,-10214.842000,-740.205942,1455.581446
3128.353897,-10214.842000,-592.164754,1685.410096
3128.354235,-9992.780217,-222.061783,1072.533697
3128.354572,-9918.759623,-666.185348,919.314598
3128.354909,-10362.883188,-296.082377,995.924147
3128.355246,-10510.924376,-1184.329507,1149.143247
3128.355584,-10214.842000,-370.102971,995.924147
3128.355921,-11029.068536,-296.082377,1225.752797
3128.356258,-10955.047942,-740.205942,536.266849
3128.356595,-9918.759623,-1036.288319,-306.438199
3128.356933,-10214.842000,-1554.432478,153.219100
3128.357270,-10436.903782,-1554.432478,689.485948
3128.357607,-10288.862594,-2072.576638,-995.924147
3128.357944,-10362.883188,-1258.350101,-612.876398
3128.358282,-10066.800811,-1850.514855,-536.266849
3128.358619,-10214.842000,-962.267725,-612.876398
3128.358956,-9770.718434,-1332.370696,-612.876398
3128.359293,-10362.883188,-814.226536,76.609550
3128.359631,-9992.780217,-1406.391290,689.485948
3128.359968,-9992.780217,-518.144159,1455.581446
3128.360305,-10066.800811,-222.061783,1915.238745
3128.360642,-10362.883188,148.041188,1991.848295
3128.360980,-10140.821405,518.144159,1915.238745
3128.361317,-10214.842000,1110.308913,1455.581446
3128.361654,-9770.718434,1110.308913,1225.752797
3128.361991,-9548.656652,1776.494261,1072.533697
3128.362329,-9474.636058,1258.350101,689.485948
3128.362666,-9474.636058,1924.535449,76.609550
3128.363003,-9696.697840,1850.514855,0.000000
3128.363341,-9548.656652,1110.308913,-612.876398
3128.363678,-9104.533087,1036.288319,-766.095498
3128.364015,-9474.636058,0.000000,-229.828649
3128.364352,-10066.800811,888.247130,-689.485948
3128.364690,-9696.697840,0.000000,-995.924147
3128.365027,-9770.718434,0.000000,-1455.581446
3128.365364,-9844.739029,-1702.473667,-1455.581446
3128.365701,-10288.862594,-1702.473667,-536.266849
3128.366039,-9770.718434,-1702.473667,-612.876398
3128.366376,-10066.800811,-2516.700203,0.000000
3128.366713,-9400.615463,-1924.535449,-306.438199
3128.367050,-10362.883188,-2220.617826,-76.609550
3128.367388,-11177.109724,-2072.576638,1149.143247
3128.367725,-10658.965565,-1776.494261,459.657299
3128.368062,-11029.068536,-1554.432478,1225.752797
3128.368399,-10807.006753,-962.267725,1225.752797
3128.368737,-10362.883188,-1036.288319,612.876398
3128.369074,-10732.986159,-1258.350101,1149.143247
3128.369411,-10288.862594,-518.144159,306.438199
3128.369748,-10436.903782,-148.041188,842.705048
3128.370086,-10510.924376,-518.144159,766.095498
3128.370423,-9622.677246,222.061783,-383.047749
3128.370760,-10140.821405,-370.102971,-306.438199
3128.371097,-10140.821405,0.000000,-153.219100
3128.371435,-9400.615463,444.123565,-459.657299
3128.371772,-10510.924376,888.247130,229.828649
3128.372109,-9770.718434,296.082377,-766.095498
3128.372446,-9622.677246,0.000000,-229.828649
3128.372784,-10214.842000,148.041188,689.485948
3128.373121,-9696.697840,370.102971,919.314598
3128.373458,-9548.656652,370.102971,995.924147
3128.373795,-8956.491898,222.061783,919.314598
3128.374133,-9400.615463,296.082377,1532.190996
3128.374470,-10214.842000,666.185348,1532.190996
3128.374807,-9992.780217,1184.329507,1762.019645
3128.375144,-9992.780217,1332.370696,1762.019645
3128.375482,-9918.759623,1628.453072,1762.019645
3128.375819,-9622.677246,1850.514855,2068.457845
3128.376156,-9918.759623,1036.288319,1225.752797
3128.376493,-9992.780217,518.144159,1455.581446
3128.376831,-10214.842000,740.205942,1149.143247
3128.377168,-10066.800811,444.123565,0.000000
3128.377505,-10214.842000,0.000000,0.000000
3128.377843,-9474.636058,-740.205942,-306.438199
3128.378180,-9548.656652,-1776.494261,-459.657299
3128.378517,-9622.677246,-1406.391290,-766.095498
3128.378854,-10436.903782,-1406.391290,-995.924147
3128.379192,-9918.759623,-2146.597232,-1608.800546
3128.379529,-9918.759623,-2368.659014,-1762.019645
3128.379866,-10362.883188,-2590.720797,-459.657299
3128.380203,-10140.821405,-2886.803174,-306.438199
3128.380541,-10288.862594,-2886.803174,-229.828649
3128.380878,-10584.944971,-2368.659014,153.219100
3128.381215,-10436.903782,-2442.679609,-306.438199
3128.381552,-10140.821405,-1924.535449,76.609550
3128.381890,-11029.068536,-1776.494261,536.266849
3128.382227,-10658.965565,-962.267725,766.095498
3128.382564,-9992.780217,0.000000,612.876398
3128.382901,-9992.780217,222.061783,536.266849
3128.383239,-10066.800811,888.247130,536.266849
3128.383576,-10584.944971,666.185348,842.705048
3128.383913,-10066.800811,1036.288319,459.657299
3128.384250,-9696.697840,1998.556043,153.219100
3128.384588,-10066.800811,1998.556043,0.000000
3128.384925,-9548.656652,888.247130,-459.657299
3128.385262,-9178.553681,962.267725,-1225.752797
3128.385599,-9178.553681,1036.288319,-383.047749
3128.385937,-9400.615463,1480.411884,-459.657299
3128.386274,-9400.615463,296.082377,-612.876398
3128.386611,-9474.636058,296.082377,-842.705048
3128.386948,-9252.574275,148.041188,0.000000
3128.387286,-9400.615463,592.164754,459.657299
3128.387623,-9844.739029,518.144159,1149.143247
3128.387960,-10362.883188,-444.123565,842.705048
3128.388297,-10066.800811,148.041188,995.924147
3128.388635,-9918.759623,74.020594,1149.143247
3128.388972,-10732.986159,-592.164754,1991.848295
3128.389309,-9992.780217,0.000000,1225.752797
3128.389646,-9844.739029,-740.205942,842.705048
3128.389984,-9992.780217,0.000000,919.314598
3128.390321,-10288.862594,0.000000,612.876398
3128.390658,-10955.047942,-1036.288319,1302.362347
3128.390996,-10510.924376,-444.123565,306.438199
3128.391333,-10140.821405,-444.123565,612.876398
3128.391670,-10881.027347,-592.164754,919.314598
3128.392007,-10140.821405,-1258.350101,229.828649
3128.392345,-10066.800811,-1702.473667,76.609550
3128.392682,-10288.862594,-1258.350101,0.000000
3128.393019,-9844.739029,-1332.370696,-536.266849
3128.393356,-10584.944971,-2146.597232,-919.314598
3128.393694,-10436.903782,-2072.576638,-459.657299
3128.394031,-9548.656652,-1776.494261,-766.095498
3128.394368,-9992.780217,-1332.370696,229.828649
3128.394705,-10362.883188,-888.247130,459.657299
3128.395043,-10066.800811,-1406.391290,0.000000
3128.395380,-10066.800811,-444.123565,1149.143247
3128.395717,-9992.780217,-222.061783,1762.019645
3128.396054,-10288.862594,296.082377,2221.676944
3128.396392,-10584.944971,444.123565,2068.457845
3128.396729,-10066.800811,1332.370696,1455.581446
3128.397066,-10140.821405,1628.453072,1225.752797
3128.397403,-9622.677246,1554.432478,842.705048
3128.397741,-9474.636058,1850.514855,306.438199
3128.398078,-9548.656652,1628.453072,229.828649
3128.398415,-9474.636058,1998.556043,-689.485948
3128.398752,-9252.574275,1406.391290,-842.705048
3128.399090,-9400.615463,814.226536,-1072.533697
3128.399427,-9030.512492,888.247130,-919.314598
3128.399764,-10362.883188,518.144159,-536.266849
3128.400101,-9770.718434,444.123565,-1378.971896
3128.400439,-9992.780217,0.000000,-1455.581446
3128.400776,-10140.821405,-1554.432478,-766.095498
3128.401113,-9474.636058,-1628.453072,-1072.533697
3128.401450,-9548.656652,-1850.514855,153.219100
3128.401788,-10510.924376,-1850.514855,-536.266849
3128.402125,-9622.677246,-1998.556043,-612.876398
3128.402462,-10584.944971,-1998.556043,536.266849
3128.402799,-10584.944971,-2072.576638,153.219100
3128.403137,-10214.842000,-1554.432478,842.705048
3128.403474,-10881.027347,-1480.411884,1225.752797
3128.403811,-10584.944971,-1554.432478,1302.362347
3128.404149,-10436.903782,-592.164754,1225.752797
3128.404486,-10807.006753,-1184.329507,919.314598
3128.404823,-10584.944971,-888.247130,1149.143247
3128.405160,-9844.739029,-666.185348,612.876398
3128.405498,-10362.883188,-222.061783,689.485948
3128.405835,-9696.697840,74.020594,-383.047749
3128.406172,-9992.780217,-370.102971,76.609550
3128.406509,-9474.636058,0.000000,-306.438199
3128.406847,-9548.656652,0.000000,0.000000
3128.407184,-9918.759623,518.144159,0.000000
3128.407521,-10066.800811,222.061783,-459.657299
3128.407858,-9400.615463,0.000000,-536.266849
3128.408196,-9770.718434,74.020594,842.705048
3128.408533,-9696.697840,518.144159,1225.752797
3128.408870,-10066.800811,444.123565,1378.971896
3128.409207,-9622.677246,592.164754,612.876398
3128.409545,-9474.636058,222.061783,1915.238745
3128.409882,-9844.739029,592.164754,2145.067394
3128.410219,-9400.615463,888.247130,1762.019645
3128.410556,-9844.739029,592.164754,1838.629195
3128.410894,-9696.697840,1480.411884,1532.190996
3128.411231,-9548.656652,1776.494261,1072.533697
3128.411568,-10510.924376,1036.288319,1685.410096
3128.411905,-10214.842000,1258.350101,842.705048
3128.412243,-10066.800811,222.061783,306.438199
3128.412580,-10436.903782,888.247130,383.047749
3128.412917,-9770.718434,-296.082377,-612.876398
3128.413254,-9992.780217,-962.267725,-229.828649
3128.413592,-9770.718434,-962.267725,-153.219100
3128.413929,-9400.615463,-1628.453072,-1302.362347
3128.414266,-9844.739029,-1554.432478,-919.314598
3128.414603,-9992.780217,-2516.700203,-1991.848295
3128.414941,-9992.780217,-2516.700203,-1302.362347
3128.415278,-10362.883188,-2442.679609,-536.266849
3128.415615,-10214.842000,-2664.741391,-459.657299
3128.415952,-10436.903782,-1998.556043,-536.266849
3128.416290,-10584.944971,-2664.741391,0.000000
3128.416627,-10214.842000,-2368.659014,0.000000
3128.416964,-10288.862594,-2368.659014,459.657299
3128.417301,-10955.047942,-962.267725,1762.019645
3128.417639,-10955.047942,-1406.391290,383.047749
3128.417976,-10214.842000,0.000000,612.876398
3128.418313,-9992.780217,222.061783,153.219100
3128.418651,-10288.862594,592.164754,1072.533697
3128.418988,-10436.903782,222.061783,919.314598
3128.419325,-9548.656652,1110.308913,153.219100
3128.419662,-10066.800811,1332.370696,153.219100
3128.420000,-10066.800811,2146.597232,-612.876398
3128.420337,-9622.677246,1850.514855,-306.438199
3128.420674,-9770.718434,1406.391290,-612.876398
3128.421011,-8956.491898,740.205942,-1072.533697
3128.421349,-9252.574275,1480.411884,-536.266849
3128.421686,-9474.636058,888.247130,-919.314598
3128.422023,-9474.636058,740.205942,76.609550
3128.422360,-9548.656652,148.041188,306.438199
3128.422698,-9622.677246,296.082377,766.095498
3128.423035,-9622.677246,888.247130,919.314598
3128.423372,-10140.821405,-148.041188,1225.752797
3128.423709,-9770.718434,148.041188,842.705048
3128.424047,-9770.718434,0.000000,1225.752797
3128.424384,-10658.965565,370.102971,1762.019645
3128.424721,-9992.780217,-370.102971,1532.190996
3128.425058,-10436.903782,-518.144159,766.095498
3128.425396,-10066.800811,0.000000,459.657299
3128.425733,-9770.718434,-444.123565,229.828649
3128.426070,-10214.842000,-518.144159,995.924147
3128.426407,-10510.924376,-740.205942,536.266849
3128.426745,-10362.883188,-222.061783,536.266849
3128.427082,-10436.903782,-962.267725,0.000000
3128.427419,-10584.944971,-1110.308913,76.609550
3128.427756,-10214.842000,-1776.494261,-153.219100
3128.428094,-10362.883188,-1702.473667,-229.828649
3128.428431,-10066.800811,-1628.453072,-842.705048
3128.428768,-10140.821405,-1924.535449,-1225.752797
3128.429105,-10066.800811,-1776.494261,-306.438199
3128.429443,-10288.862594,-2294.638420,-689.485948
3128.429780,-10214.842000,-1406.391290,-383.047749
3128.430117,-10288.862594,-1110.308913,76.609550
3128.430454,-10288.862594,-1036.288319,766.095498
3128.430792,-9622.677246,-1184.329507,1225.752797
3128.431129,-10066.800811,-666.185348,1685.410096
3128.431466,-10362.883188,222.061783,2068.457845
3128.431804,-10288.862594,814.226536,1838.629195
3128.432141,-10510.924376,740.205942,1302.362347
3128.432478,-9548.656652,1480.411884,766.095498
3128.432815,-9474.636058,1480.411884,842.705048
3128.433153,-9474.636058,1628.453072,919.314598
3128.433490,-9252.574275,1332.370696,-153.219100
3128.433827,-9400.615463,1406.391290,-995.924147
3128.434164,-9400.615463,1258.350101,-766.095498
3128.434502,-9474.636058,1110.308913,-383.047749
3128.434839,-9622.677246,444.123565,-306.438199
3128.435176,-9844.739029,0.000000,-459.657299
3128.435513,-9474.636058,296.082377,-1455.581446
3128.435851,-9918.759623,-518.144159,-1225.752797
3128.436188,-10584.944971,-814.226536,-306.438199
3128.436525,-9918.759623,-1554.432478,-1225.752797
3128.436862,-9918.759623,-1480.411884,-229.828649
3128.437200,-10066.800811,-1554.432478,0.000000
3128.437537,-10214.842000,-2442.679609,-229.828649
3128.437874,-9918.759623,-2072.576638,229.828649
3128.438211,-10807.006753,-2368.659014,1149.143247
3128.438549,-10658.965565,-962.267725,995.924147
3128.438886,-10955.047942,-1258.350101,842.705048
3128.439223,-10955.047942,-814.226536,995.924147
3128.439560,-10214.842000,-1554.432478,1225.752797
3128.439898,-10658.965565,-740.205942,842.705048
3128.440235,-10288.862594,-814.226536,612.876398
3128.440572,-10436.903782,-740.205942,0.000000
3128.440909,-10510.924376,0.000000,0.000000
3128.441247,-10288.862594,-296.082377,-459.657299
3128.441584,-9770.718434,0.000000,-306.438199
3128.441921,-9696.697840,-518.144159,0.000000
3128.442258,-9474.636058,-370.102971,-383.047749
3128.442596,-9548.656652,592.164754,-153.219100
3128.442933,-10066.800811,370.102971,153.219100
3128.443270,-10214.842000,0.000000,0.000000
3128.443607,-9548.656652,74.020594,459.657299
3128.443945,-9918.759623,222.061783,1608.800546
3128.444282,-9548.656652,0.000000,1072.533697
3128.444619,-9104.533087,370.102971,1532.190996
3128.444957,-9770.718434,444.123565,1838.629195
3128.445294,-9696.697840,666.185348,1915.238745
3128.445631,-9696.697840,1036.288319,1532.190996
3128.445968,-9844.739029,1776.494261,1455.581446
3128.446306,-10140.821405,1406.391290,1532.190996
3128.446643,-9326.594869,1406.391290,1302.362347
3128.446980,-9622.677246,1258.350101,1915.238745
3128.447318,-10584.944971,1184.329507,1762.019645
3128.447655,-10066.800811,592.164754,229.828649
3128.447992,-10288.862594,666.185348,76.609550
3128.448330,-10066.800811,0.000000,-383.047749
3128.448667,-9696.697840,-666.185348,-612.876398
3128.449004,-10214.842000,-1480.411884,0.000000
3128.449342,-9326.594869,-1332.370696,-1149.143247
3128.449679,-9918.759623,-1850.514855,-995.924147
3128.450016,-10510.924376,-2220.617826,-1302.362347
3128.450353,-9844.739029,-2072.576638,-1532.190996
3128.450691,-10881.027347,-2960.823768,-459.657299
3128.451028,-10436.903782,-2738.761985,-306.438199
3128.451365,-9696.697840,-2516.700203,-383.047749
3128.451703,-10807.006753,-2516.700203,76.609550
3128.452040,-10584.944971,-2442.679609,0.000000
3128.452377,-10658.965565,-2368.659014,76.609550
3128.452715,-10584.944971,-1184.329507,689.485948
3128.453052,-10881.027347,-1036.288319,612.876398
3128.453389,-10214.842000,-296.082377,766.095498
3128.453727,-10140.821405,0.000000,153.219100
3128.454064,-9918.759623,518.144159,536.266849
3128.454401,-10140.821405,888.247130,306.438199
3128.454739,-9844.739029,666.185348,383.047749
3128.455076,-9844.739029,1184.329507,153.219100
3128.455413,-9918.759623,1332.370696,-306.438199
3128.455751,-9844.739029,1776.494261,-306.438199
3128.456088,-9770.718434,1110.308913,-1149.143247
3128.456425,-9178.553681,814.226536,-766.095498
3128.456763,-8734.430116,1258.350101,-766.095498
3128.457100,-9104.533087,666.185348,-383.047749
3128.457437,-9400.615463,518.144159,0.000000
3128.457775,-9770.718434,370.102971,0.000000
3128.458112,-9770.718434,222.061783,536.266849
3128.458449,-9622.677246,592.164754,995.924147
3128.458787,-9918.759623,518.144159,1608.800546
3128.459124,-10066.800811,0.000000,1762.019645
3128.459461,-9622.677246,0.000000,1455.581446
3128.459799,-10510.924376,666.185348,1762.019645
3128.460136,-10510.924376,0.000000,1532.190996
3128.460473,-9844.739029,-296.082377,459.657299
3128.460811,-10288.862594,0.000000,1072.533697
3128.461148,-10436.903782,-222.061783,842.705048
3128.461485,-9992.780217,-296.082377,459.657299
3128.461823,-10881.027347,-962.267725,383.047749
3128.462160,-10214.842000,-296.082377,0.000000
3128.462497,-10362.883188,-1184.329507,153.219100
3128.462834,-10732.986159,-962.267725,306.438199
3128.463172,-10362.883188,-1332.370696,0.000000
3128.463509,-10362.883188,-1628.453072,76.609550
3128.463846,-10214.842000,-1776.494261,-536.266849
3128.464184,-10066.800811,-2146.597232,-842.705048
3128.464521,-10362.883188,-1924.535449,-153.219100
3128.464858,-10584.944971,-2072.576638,-383.047749
3128.465196,-9844.739029,-1554.432478,-1072.533697
3128.465533,-10288.862594,-1628.453072,0.000000
3128.465870,-10140.821405,-1184.329507,459.657299
3128.466208,-9770.718434,-1332.370696,1149.143247
3128.466545,-9844.739029,-740.205942,1302.362347
3128.466882,-10066.800811,74.020594,2221.676944
3128.467220,-10436.903782,962.267725,2451.505594
3128.467557,-10510.924376,1110.308913,1532.190996
3128.467894,-10066.800811,1036.288319,919.314598
3128.468232,-9844.739029,1702.473667,1072.533697
3128.468569,-9474.636058,2146.597232,383.047749
3128.468906,-9548.656652,1628.453072,306.438199
3128.469244,-9178.553681,1554.432478,-1149.143247
3128.469581,-9030.512492,1110.308913,-995.924147
3128.469918,-9474.636058,1406.391290,-536.266849
3128.470256,-9474.636058,962.267725,-1149.143247
3128.470593,-9474.636058,666.185348,-766.095498
3128.470930,-9622.677246,0.000000,-1225.752797
3128.471268,-9474.636058,-370.102971,-1685.410096
3128.471605,-10584.944971,-888.247130,-612.876398
3128.471942,-10140.821405,-1332.370696,229.828649
3128.472280,-9918.759623,-1628.453072,-306.438199
3128.472617,-10066.800811,-1332.370696,0.000000
3128.472954,-9918.759623,-1998.556043,-153.219100
3128.473292,-10140.821405,-2294.638420,153.219100
3128.473629,-10436.903782,-2146.597232,612.876398
3128.473966,-10214.842000,-1480.411884,153.219100
3128.474303,-10955.047942,-1184.329507,995.924147
3128.474641,-11103.089130,-1036.288319,995.924147
3128.474978,-10584.944971,-1258.350101,766.095498
3128.475315,-10362.883188,-666.185348,1532.190996
3128.475653,-10214.842000,-888.247130,689.485948
3128.475990,-10584.944971,-518.144159,459.657299
3128.476327,-10584.944971,-1110.308913,0.000000
3128.476665,-9844.739029,0.000000,0.000000
3128.477002,-9844.739029,-740.205942,-536.266849
3128.477339,-9992.780217,-370.102971,-383.047749
3128.477677,-9474.636058,0.000000,-689.485948
3128.478014,-9696.697840,0.000000,-612.876398
3128.478351,-9474.636058,-296.082377,-383.047749
3128.478689,-9548.656652,0.000000,153.219100
3128.479026,-10066.800811,-518.144159,919.314598
3128.479363,-9696.697840,888.247130,1149.143247
3128.479701,-10658.965565,0.000000,1608.800546
3128.480038,-9326.594869,296.082377,1455.581446
3128.480375,-9252.574275,222.061783,1532.190996
3128.480713,-10140.821405,222.061783,2681.334243
3128.481050,-9252.574275,888.247130,1225.752797
3128.481387,-10066.800811,1998.556043,1915.238745
3128.481725,-10140.821405,1184.329507,1532.190996
3128.482062,-9178.553681,1332.370696,1072.533697
3128.482399,-9696.697840,1406.391290,1149.143247
3128.482737,-9844.739029,962.267725,1149.143247
3128.483074,-9844.739029,1110.308913,306.438199
3128.483411,-10436.903782,444.123565,153.219100
3128.483749,-9548.656652,-296.082377,-612.876398
3128.484086,-9992.780217,-740.205942,-766.095498
3128.484423,-10288.862594,-1258.350101,-689.485948
3128.484761,-9844.739029,-1554.432478,-1225.752797
3128.485098,-9696.697840,-1924.535449,-1685.410096
3128.485435,-10214.842000,-2294.638420,-1072.533697
3128.485772,-9992.780217,-2368.659014,-1608.800546
3128.486110,-10510.924376,-2368.659014,-229.828649
3128.486447,-10955.047942,-2738.761985,0.000000
3128.486784,-10436.903782,-2442.679609,-229.828649
3128.487122,-10214.842000,-2146.597232,0.000000
3128.487459,-10436.903782,-2442.679609,306.438199
3128.487796,-10140.821405,-2738.761985,0.000000
3128.488134,-10658.965565,-1406.391290,306.438199
3128.488471,-10584.944971,-370.102971,842.705048
3128.488808,-10584.944971,-666.185348,229.828649
3128.489146,-10140.821405,0.000000,153.219100
3128.489483,-9992.780217,0.000000,536.266849
3128.489820,-10362.883188,962.267725,383.047749
3128.490158,-9918.759623,888.247130,76.609550
3128.490495,-9918.759623,1184.329507,0.000000
3128.490832,-9844.739029,1480.411884,0.000000
3128.491170,-9992.780217,1258.350101,-919.314598
3128.491507,-9770.718434,1036.288319,-383.047749
3128.491844,-9548.656652,1184.329507,-995.924147
3128.492182,-8956.491898,666.185348,-919.314598
3128.492519,-9474.636058,888.247130,306.438199
3128.492856,-9178.553681,296.082377,-153.219100
3128.493194,-9474.636058,444.123565,459.657299
3128.493531,-9918.759623,444.123565,1302.362347
3128.493868,-9548.656652,296.082377,766.095498
3128.494206,-9992.780217,814.226536,1225.752797
3128.494543,-10140.821405,0.000000,1762.019645
3128.494880,-9696.697840,370.102971,1378.971896
3128.495218,-9992.780217,0.000000,1915.238745
3128.495555,-10510.924376,370.102971,1608.800546
3128.495892,-10288.862594,296.082377,612.876398
3128.496230,-10807.006753,-74.020594,689.485948
3128.496567,-9548.656652,-74.020594,0.000000
3128.496904,-9622.677246,-888.247130,536.266849
3128.497242,-10584.944971,0.000000,1072.533697
3128.497579,-10658.965565,-1480.411884,0.000000
3128.497916,-10066.800811,-888.247130,76.609550
3128.498253,-10510.924376,-1258.350101,0.000000
3128.498591,-10732.986159,-740.205942,76.609550
3128.498928,-10362.883188,-1998.556043,-689.485948
3128.499265,-9474.636058,-1554.432478,-766.095498
3128.499603,-9992.780217,-2590.720797,-383.047749
3128.499940,-10066.800811,-2072.576638,-459.657299
3128.500277,-10214.842000,-1850.514855,-153.219100
3128.500615,-10807.006753,-1776.494261,-383.047749
3128.500952,-9696.697840,-1554.432478,76.609550
3128.501289,-10066.800811,-1110.308913,536.266849
3128.501627,-10066.800811,-1258.350101,1378.971896
3128.501964,-9844.739029,-592.164754,1915.238745
3128.502301,-10436.903782,-222.061783,2374.896044
3128.502639,-10436.903782,740.205942,1991.848295
3128.502976,-10214.842000,1110.308913,1225.752797
3128.503313,-10436.903782,1036.288319,1838.629195
3128.503651,-9548.656652,1480.411884,842.705048
3128.503988,-8956.491898,1480.411884,459.657299
3128.504325,-9770.718434,1924.535449,0.000000
3128.504663,-9178.553681,1184.329507,-1149.143247
3128.505000,-9178.553681,666.185348,-766.095498
3128.505337,-9326.594869,1036.288319,-229.828649
3128.505675,-9326.594869,888.247130,-306.438199
3128.506012,-9622.677246,148.041188,-459.657299
3128.506349,-9474.636058,0.000000,-842.705048
3128.506687,-9474.636058,0.000000,-842.705048
3128.507024,-10066.800811,-888.247130,-383.047749
3128.507361,-10066.800811,-1036.288319,-383.047749
3128.507699,-9992.780217,-1776.494261,-76.609550
3128.508036,-9622.677246,-1628.453072,0.000000
3128.508373,-9918.759623,-1702.473667,76.609550
3128.508711,-10140.821405,-2220.617826,306.438199
3128.509048,-10362.883188,-1258.350101,306.438199
3128.509385,-10807.006753,-1924.535449,842.705048
3128.509722,-10362.883188,-740.205942,919.314598
3128.510060,-10881.027347,-962.267725,1302.362347
3128.510397,-11029.068536,-1184.329507,1378.971896
3128.510734,-10140.821405,-1184.329507,766.095498
3128.511072,-10288.862594,-666.185348,612.876398
3128.511409,-10436.903782,-518.144159,536.266849
3128.511746,-10510.924376,-444.123565,-229.828649
3128.512084,-10288.862594,-1036.288319,-766.095498
3128.512421,-9992.780217,-666.185348,-995.924147
3128.512758,-9844.739029,-296.082377,-612.876398
3128.513096,-9770.718434,0.000000,-536.266849
3128.513433,-9918.759623,-518.144159,0.000000
3128.513770,-9622.677246,-74.020594,-459.657299
3128.514108,-9770.718434,-222.061783,536.266849
3128.514445,-10214.842000,222.061783,766.095498
3128.514782,-10214.842000,0.000000,1072.533697
3128.515120,-10066.800811,444.123565,1455.581446
3128.515457,-9474.636058,370.102971,1149.143247
3128.515794,-9770.718434,518.144159,2298.286494
3128.516132,-10066.800811,1110.308913,2298.286494
3128.516469,-9918.759623,962.267725,1149.143247
3128.516806,-9548.656652,2146.597232,1762.019645
3128.517144,-9548.656652,1924.535449,1302.362347
3128.517481,-9696.697840,1184.329507,1762.019645
3128.517818,-9622.677246,1184.329507,995.924147
3128.518156,-9844.739029,1406.391290,1685.410096
3128.518493,-10066.800811,1702.473667,612.876398
3128.518830,-10066.800811,592.164754,0.000000
3128.519168,-9844.739029,0.000000,0.000000
3128.519505,-9770.718434,-1110.308913,-306.438199
3128.519842,-9918.759623,-666.185348,-766.095498
3128.520180,-9844.739029,-1480.411884,-1302.362347
3128.520517,-9770.718434,-1924.535449,-2145.067394
3128.520854,-9474.636058,-1924.535449,-1608.800546
3128.521192,-10362.883188,-2442.679609,-1762.019645
3128.521529,-10214.842000,-1924.535449,-536.266849
3128.521866,-10807.006753,-2590.720797,-306.438199
3128.522203,-10436.903782,-2738.761985,0.000000
3128.522541,-9844.739029,-2738.761985,229.828649
3128.522878,-10881.027347,-2368.659014,766.095498
3128.523215,-11103.089130,-2368.659014,536.266849
3128.523553,-10436.903782,-1480.411884,383.047749
3128.523890,-10584.944971,-666.185348,383.047749
3128.524227,-10510.924376,-740.205942,153.219100
3128.524565,-9918.759623,0.000000,306.438199
3128.524902,-10066.800811,-370.102971,0.000000
3128.525239,-9992.780217,888.247130,76.609550
3128.525577,-9770.718434,666.185348,0.000000
3128.525914,-9844.739029,962.267725,-459.657299
3128.526251,-9770.718434,518.144159,0.000000
3128.526589,-9770.718434,1036.288319,-689.485948
3128.526926,-9770.718434,1776.494261,-383.047749
3128.527263,-9770.718434,962.267725,-842.705048
3128.527601,-9474.636058,814.226536,-842.705048
3128.527938,-9178.553681,592.164754,-612.876398
3128.528275,-9474.636058,370.102971,229.828649
3128.528613,-9326.594869,1110.308913,536.266849
3128.528950,-9696.697840,0.000000,612.876398
3128.529287,-9474.636058,740.205942,1149.143247
3128.529625,-9770.718434,740.205942,1378.971896
3128.529962,-10288.862594,444.123565,2145.067394
3128.530299,-9918.759623,1036.288319,1532.190996
3128.530637,-10140.821405,0.000000,2145.067394
3128.530974,-10362.883188,962.267725,1762.019645
3128.531311,-9770.718434,296.082377,995.924147
3128.531649,-10584.944971,0.000000,1302.362347
3128.531986,-9992.780217,-148.041188,766.095498
3128.532323,-9770.718434,-296.082377,536.266849
3128.532661,-10066.800811,-74.020594,153.219100
3128.532998,-10436.903782,-666.185348,536.266849
3128.533335,-10584.944971,-1036.288319,0.000000
3128.533672,-10362.883188,-1480.411884,-229.828649
3128.534010,-10510.924376,-814.226536,76.609550
3128.534347,-10658.965565,-1702.473667,-383.047749
3128.534684,-10658.965565,-1850.514855,-229.828649
3128.535022,-10140.821405,-2664.741391,-306.438199
3128.535359,-10140.821405,-2516.700203,-306.438199
3128.535696,-10510.924376,-1628.453072,-153.219100
3128.536034,-10288.862594,-2368.659014,-306.438199
3128.536371,-10066.800811,-1998.556043,229.828649
3128.536708,-9918.759623,-1406.391290,459.657299
3128.537046,-9918.759623,-962.267725,1378.971896
3128.537383,-9696.697840,-592.164754,1915.238745
3128.537720,-10436.903782,-370.102971,1838.629195
3128.538058,-10362.883188,962.267725,2298.286494
3128.538395,-10140.821405,1036.288319,1225.752797
3128.538732,-10140.821405,1628.453072,1302.362347
3128.539070,-10362.883188,962.267725,842.705048
3128.539407,-9326.594869,1702.473667,76.609550
3128.539744,-9474.636058,1702.473667,-536.266849
3128.540082,-9622.677246,1332.370696,-612.876398
3128.540419,-8882.471304,888.247130,-1302.362347
3128.540756,-9178.553681,1110.308913,-919.314598
3128.541094,-9548.656652,888.247130,-612.876398
3128.541431,-8956.491898,666.185348,-1455.581446
3128.541768,-9474.636058,296.082377,-1225.752797
3128.542106,-9548.656652,-148.041188,-766.095498
3128.542443,-10140.821405,-592.164754,0.000000
3128.542780,-10362.883188,-444.123565,0.000000
3128.543118,-10362.883188,-888.247130,-229.828649
3128.543455,-10140.821405,-1258.350101,229.828649
3128.543792,-9992.780217,-2072.576638,383.047749
3128.544130,-9770.718434,-1850.514855,612.876398
3128.544467,-10436.903782,-1184.329507,766.095498
3128.544804,-10584.944971,-1702.473667,842.705048
3128.545142,-10214.842000,-962.267725,0.000000
3128.545479,-10510.924376,-888.247130,689.485948
3128.545817,-11029.068536,-592.164754,1378.971896
3128.546154,-10436.903782,-962.267725,1149.143247
3128.546492,-10584.944971,-814.226536,536.266849
3128.546829,-10066.800811,-518.144159,383.047749
3128.547166,-10362.883188,-962.267725,0.000000
3128.547504,-10214.842000,-592.164754,-383.047749
3128.547841,-9992.780217,-1110.308913,-383.047749
3128.548179,-9992.780217,-592.164754,-383.047749
3128.548516,-9992.780217,0.000000,-995.924147
3128.548854,-9622.677246,-814.226536,-459.657299
3128.549191,-9548.656652,-888.247130,0.000000
3128.549528,-9474.636058,-592.164754,612.876398
3128.549866,-10288.862594,222.061783,1378.971896
3128.550203,-10140.821405,74.020594,995.924147
3128.550541,-9770.718434,222.061783,1455.581446
3128.550878,-9992.780217,0.000000,1915.238745
3128.551216,-9622.677246,666.185348,1762.019645
3128.551553,-9770.718434,666.185348,2145.067394
3128.551890,-10214.842000,962.267725,1915.238745
3128.552228,-9252.574275,1258.350101,1225.752797
3128.552565,-9992.780217,2072.576638,1225.752797
3128.552903,-10140.821405,1924.535449,1378.971896
3128.553240,-9548.656652,1332.370696,612.876398
3128.553578,-9770.718434,1628.453072,1455.581446
3128.553915,-9622.677246,1110.308913,383.047749
3128.554252,-10066.800811,888.247130,306.438199
3128.554590,-9770.718434,296.082377,0.000000
3128.554927,-9992.780217,-444.123565,-842.705048
3128.555265,-10214.842000,-444.123565,-766.095498
3128.555602,-10066.800811,-1036.288319,-1225.752797
3128.555940,-9622.677246,-1702.473667,-1991.848295
3128.556277,-9474.636058,-2812.782580,-1608.800546
3128.556614,-9548.656652,-2072.576638,-766.095498
3128.556952,-10510.924376,-2516.700203,-459.657299
3128.557289,-10658.965565,-2516.700203,0.000000
3128.557627,-10288.862594,-2516.700203,-1072.533697
3128.557964,-10584.944971,-2072.576638,459.657299
3128.558301,-10436.903782,-2368.659014,536.266849
3128.558639,-10510.924376,-1776.494261,919.314598
3128.558976,-10807.006753,-2146.597232,459.657299
3128.559314,-10214.842000,-222.061783,0.000000
3128.559651,-10955.047942,-740.205942,842.705048
3128.559989,-10658.965565,148.041188,229.828649
3128.560326,-9770.718434,-148.041188,-76.609550
3128.560663,-10214.842000,518.144159,459.657299
3128.561001,-9548.656652,740.205942,-153.219100
3128.561338,-9548.656652,888.247130,-229.828649
3128.561676,-10214.842000,814.226536,0.000000
3128.562013,-9474.636058,888.247130,-842.705048
3128.562351,-9918.759623,1036.288319,-612.876398
3128.562688,-9770.718434,1184.329507,-689.485948
3128.563025,-9178.553681,1406.391290,-842.705048
3128.563363,-9474.636058,0.000000,229.828649
3128.563700,-9178.553681,222.061783,229.828649
3128.564038,-9326.594869,518.144159,919.314598
3128.564375,-10362.883188,814.226536,919.314598
3128.564713,-9548.656652,666.185348,1072.533697
3128.565050,-9770.718434,370.102971,1072.533697
3128.565387,-10214.842000,740.205942,2374.896044
3128.565725,-9918.759623,444.123565,2068.457845
3128.566062,-10066.800811,888.247130,1838.629195
3128.566400,-10288.862594,296.082377,1302.362347
3128.566737,-10066.800811,518.144159,919.314598
3128.567075,-10362.883188,370.102971,689.485948
3128.567412,-10288.862594,0.000000,842.705048
3128.567749,-9622.677246,-370.102971,306.438199
3128.568087,-9844.739029,-518.144159,0.000000
3128.568424,-10510.924376,-296.082377,229.828649
3128.568762,-10436.903782,-1184.329507,229.828649
3128.569099,-10510.924376,-1332.370696,-459.657299
3128.569437,-10436.903782,-1332.370696,-383.047749
3128.569774,-10732.986159,-1776.494261,0.000000
3128.570111,-10066.800811,-2442.679609,-842.705048
3128.570449,-10066.800811,-2442.679609,-459.657299
3128.570786,-10362.883188,-2738.761985,306.438199
3128.571124,-10288.862594,-1628.453072,-612.876398
3128.571461,-10140.821405,-2146.597232,0.000000
3128.571798,-10436.903782,-1924.535449,-306.438199
3128.572136,-9992.780217,-1850.514855,842.705048
3128.572473,-10436.903782,-888.247130,1455.581446
3128.572811,-9770.718434,-518.144159,1762.019645
3128.573148,-10288.862594,0.000000,1915.238745
3128.573486,-10955.047942,444.123565,1762.019645
3128.573823,-9770.718434,518.144159,1378.971896
3128.574160,-9844.739029,1332.370696,1685.410096
3128.574498,-10584.944971,1480.411884,1149.143247
3128.574835,-9548.656652,1554.432478,0.000000
3128.575173,-9548.656652,1184.329507,-766.095498
3128.575510,-9252.574275,1480.411884,-383.047749
3128.575848,-9178.553681,1258.350101,-1378.971896
3128.576185,-9474.636058,814.226536,-536.266849
3128.576522,-9474.636058,1184.329507,-766.095498
3128.576860,-9030.512492,370.102971,-995.924147
3128.577197,-9696.697840,518.144159,-842.705048
3128.577535,-9770.718434,-444.123565,0.000000
3128.577872,-10066.800811,-592.164754,-229.828649
3128.578210,-9844.739029,-888.247130,229.828649
3128.578547,-10140.821405,-666.185348,383.047749
3128.578884,-10066.800811,-1850.514855,0.000000
3128.579222,-9992.780217,-1480.411884,0.000000
3128.579559,-10066.800811,-2146.597232,689.485948
3128.579897,-10066.800811,-666.185348,306.438199
3128.580234,-9844.739029,-1258.350101,306.438199
3128.580572,-11103.089130,-962.267725,919.314598
3128.580909,-10214.842000,-740.205942,995.924147
3128.581246,-10732.986159,-888.247130,612.876398
3128.581584,-10881.027347,-962.267725,995.924147
3128.581921,-10066.800811,-1110.308913,306.438199
3128.582259,-10214.842000,-888.247130,612.876398
3128.582596,-10732.986159,-666.185348,-229.828649
3128.582934,-10066.800811,-666.185348,-612.876398
3128.583271,-10214.842000,-1184.329507,-612.876398
3128.583608,-9844.739029,-740.205942,-1072.533697
3128.583946,-9622.677246,-296.082377,-766.095498
3128.584283,-10362.883188,-444.123565,-689.485948
3128.584621,-9770.718434,-740.205942,0.000000
3128.584958,-9622.677246,-592.164754,459.657299
3128.585295,-10288.862594,666.185348,1455.581446
3128.585633,-10288.862594,0.000000,1532.190996
3128.585970,-10066.800811,74.020594,1225.752797
3128.586308,-9992.780217,74.020594,1991.848295
3128.586645,-9844.739029,296.082377,2068.457845
3128.586983,-9844.739029,1036.288319,2298.286494
3128.587320,-9992.780217,1480.411884,1838.629195
3128.587657,-9474.636058,1406.391290,1072.533697
3128.587995,-9474.636058,1998.556043,1072.533697
3128.588332,-9844.739029,1628.453072,919.314598
3128.588670,-9548.656652,1406.391290,842.705048
3128.589007,-9474.636058,1480.411884,766.095498
3128.589345,-9770.718434,1036.288319,766.095498
3128.589682,-10066.800811,814.226536,229.828649
3128.590019,-9770.718434,0.000000,-229.828649
3128.590357,-10066.800811,0.000000,0.000000
3128.590694,-10066.800811,-962.267725,-1072.533697
3128.591032,-9918.759623,-962.267725,-1302.362347
3128.591369,-9696.697840,-1850.514855,-1762.019645
3128.591707,-9400.615463,-2590.720797,-1532.190996
3128.592044,-9770.718434,-2516.700203,-383.047749
3128.592381,-10362.883188,-2516.700203,-153.219100
3128.592719,-10288.862594,-2368.659014,-459.657299
3128.593056,-10658.965565,-2664.741391,-306.438199
3128.593394,-10510.924376,-2516.700203,229.828649
3128.593731,-10362.883188,-2294.638420,536.266849
3128.594069,-11029.068536,-1702.473667,919.314598
3128.594406,-10732.986159,-1702.473667,536.266849
3128.594743,-10140.821405,-1036.288319,919.314598
3128.595081,-10436.903782,-740.205942,383.047749
3128.595418,-10362.883188,-888.247130,0.000000
3128.595756,-9992.780217,222.061783,0.000000
3128.596093,-9992.780217,74.020594,0.000000
3128.596431,-9770.718434,296.082377,-536.266849
3128.596768,-9178.553681,962.267725,-306.438199
3128.597105,-9844.739029,592.164754,-306.438199
3128.597443,-10140.821405,888.247130,-153.219100
3128.597780,-9696.697840,888.247130,-995.924147
3128.598118,-9696.697840,1628.453072,0.000000
3128.598455,-9696.697840,518.144159,-766.095498
3128.598792,-9178.553681,222.061783,-229.828649
3128.599130,-9104.533087,444.123565,0.000000
3128.599467,-9252.574275,296.082377,919.314598
3128.599805,-9622.677246,740.205942,689.485948
3128.600142,-9548.656652,296.082377,612.876398
3128.600480,-9770.718434,370.102971,1378.971896
3128.600817,-9696.697840,888.247130,1762.019645
3128.601154,-10288.862594,888.247130,2221.676944
3128.601492,-10140.821405,1110.308913,1838.629195
3128.601829,-10066.800811,370.102971,1532.190996
3128.602167,-9918.759623,592.164754,1378.971896
3128.602504,-10288.862594,444.123565,995.924147
3128.602842,-10510.924376,0.000000,842.705048
3128.603179,-10288.862594,0.000000,306.438199
3128.603516,-9548.656652,-296.082377,459.657299
3128.603854,-9918.759623,-666.185348,-306.438199
3128.604191,-10436.903782,-814.226536,536.266849
3128.604529,-9844.739029,-1628.453072,-306.438199
3128.604866,-10288.862594,-2072.576638,-383.047749
3128.605204,-10362.883188,-1554.432478,-459.657299
3128.605541,-10436.903782,-2442.679609,-766.095498
3128.605878,-10881.027347,-1998.556043,-459.657299
3128.606216,-10140.821405,-2960.823768,0.000000
3128.606553,-9992.780217,-2738.761985,-612.876398
3128.606891,-10066.800811,-1776.494261,0.000000
3128.607228,-10658.965565,-1850.514855,153.219100
3128.607566,-10140.821405,-1628.453072,536.266849
3128.607903,-10066.800811,-1480.411884,459.657299
3128.608240,-10214.842000,-444.123565,1762.019645
3128.608578,-10362.883188,296.082377,1378.971896
3128.608915,-10436.903782,0.000000,1762.019645
3128.609253,-9918.759623,1036.288319,1302.362347
3128.609590,-10140.821405,1110.308913,1072.533697
3128.609928,-10510.924376,1924.535449,1302.362347
3128.610265,-9992.780217,1480.411884,153.219100
3128.610602,-9548.656652,1332.370696,-383.047749
3128.610940,-9326.594869,1628.453072,-383.047749
3128.611277,-8660.409521,1406.391290,-612.876398
3128.611615,-9252.574275,518.144159,-689.485948
3128.611952,-9474.636058,888.247130,-842.705048
3128.612289,-9252.574275,222.061783,-1225.752797
3128.612627,-9474.636058,592.164754,-842.705048
3128.612964,-9844.739029,222.061783,0.000000
3128.613302,-9548.656652,-1110.308913,-306.438199
3128.613639,-9622.677246,-666.185348,76.609550
3128.613977,-10658.965565,-296.082377,383.047749
3128.614314,-10214.842000,-1554.432478,76.609550
3128.614651,-10288.862594,-1036.288319,229.828649
3128.614989,-9844.739029,-1998.556043,76.609550
3128.615326,-10066.800811,-962.267725,1302.362347
3128.615664,-10436.903782,-1110.308913,459.657299
3128.616001,-10732.986159,-1480.411884,766.095498
3128.616339,-10436.903782,-666.185348,536.266849
3128.616676,-10584.944971,-444.123565,842.705048
3128.617013,-10955.047942,-592.164754,1149.143247
3128.617351,-10140.821405,-888.247130,536.266849
3128.617688,-10732.986159,-814.226536,536.266849
3128.618026,-10140.821405,-1332.370696,76.609550
3128.618363,-9992.780217,-1480.411884,-383.047749
3128.618701,-10584.944971,-666.185348,-536.266849
3128.619038,-10214.842000,-1110.308913,-536.266849
3128.619375,-9992.780217,-148.041188,-1072.533697
3128.619713,-9770.718434,-740.205942,-1072.533697
3128.620050,-10140.821405,-740.205942,306.438199
3128.620388,-9622.677246,-888.247130,459.657299
3128.620725,-9696.697840,-370.102971,1455.581446
3128.621063,-10140.821405,0.000000,1455.581446
3128.621400,-10140.821405,296.082377,1455.581446
3128.621737,-10140.821405,0.000000,2068.457845
3128.622075,-10140.821405,222.061783,2221.676944
3128.622412,-9474.636058,1406.391290,1991.848295
3128.622750,-9844.739029,1406.391290,1685.410096
3128.623087,-9918.759623,1554.432478,1838.629195
3128.623425,-9474.636058,1702.473667,1149.143247
3128.623762,-9770.718434,2072.576638,995.924147
3128.624099,-9548.656652,2368.659014,995.924147
3128.624437,-9548.656652,962.267725,612.876398
3128.624774,-9622.677246,1332.370696,995.924147
3128.625112,-9474.636058,592.164754,383.047749
3128.625449,-9696.697840,814.226536,229.828649
3128.625786,-10066.800811,148.041188,-612.876398
3128.626124,-10140.821405,-888.247130,-842.705048
3128.626461,-10066.800811,-1184.329507,-1225.752797
3128.626799,-9622.677246,-1628.453072,-1762.019645
3128.627136,-9400.615463,-2368.659014,-995.924147
3128.627474,-9400.615463,-2812.782580,-1149.143247
3128.627811,-10140.821405,-2368.659014,-459.657299
3128.628148,-10362.883188,-2442.679609,-306.438199
3128.628486,-10584.944971,-2220.617826,-689.485948
3128.628823,-10658.965565,-2368.659014,306.438199
3128.629161,-10955.047942,-2146.597232,612.876398
3128.629498,-10288.862594,-1998.556043,766.095498
3128.629836,-10881.027347,-1184.329507,689.485948
3128.630173,-10732.986159,-1776.494261,0.000000
3128.630510,-10214.842000,-1110.308913,-306.438199
3128.630848,-10732.986159,-814.226536,459.657299
3128.631185,-9992.780217,74.020594,-459.657299
3128.631523,-9918.759623,-222.061783,-612.876398
3128.631860,-10214.842000,814.226536,0.000000
3128.632198,-9030.512492,222.061783,-995.924147
3128.632535,-10362.883188,1258.350101,0.000000
3128.632872,-10066.800811,1110.308913,-306.438199
3128.633210,-9770.718434,518.144159,-919.314598
3128.633547,-9696.697840,1258.350101,0.000000
3128.633885,-9474.636058,296.082377,-612.876398
3128.634222,-9178.553681,518.144159,536.266849
3128.634560,-9400.615463,0.000000,612.876398
3128.634897,-9770.718434,444.123565,1072.533697
3128.635234,-9548.656652,962.267725,842.705048
3128.635572,-10066.800811,740.205942,766.095498
3128.635909,-9992.780217,814.226536,766.095498
3128.636247,-9622.677246,444.123565,2068.457845
3128.636584,-9844.739029,1480.411884,2068.457845
3128.636922,-10288.862594,814.226536,2145.067394
3128.637259,-10436.903782,1110.308913,1225.752797
3128.637596,-9844.739029,444.123565,919.314598
3128.637934,-10436.903782,740.205942,995.924147
3128.638271,-10214.842000,296.082377,1072.533697
3128.638609,-9770.718434,-296.082377,153.219100
3128.638946,-9992.780217,-740.205942,153.219100
3128.639283,-9252.574275,-444.123565,-459.657299
3128.639621,-10140.821405,-1480.411884,76.609550
3128.639958,-10436.903782,-1332.370696,-459.657299
3128.640296,-9844.739029,-1776.494261,-842.705048
3128.640633,-10807.006753,-1776.494261,-153.219100
3128.640971,-10140.821405,-2442.679609,-383.047749
3128.641308,-10140.821405,-2590.720797,0.000000
3128.641645,-10658.965565,-2590.720797,76.609550
3128.641983,-10214.842000,-2368.659014,-919.314598
3128.642320,-10140.821405,-2072.576638,-383.047749
3128.642658,-10214.842000,-2368.659014,229.828649
3128.642995,-10362.883188,-1702.473667,766.095498
3128.643333,-10214.842000,-1776.494261,1378.971896
3128.643670,-10140.821405,-74.020594,1455.581446
3128.644007,-9992.780217,74.020594,1455.581446
3128.644345,-11029.068536,592.164754,1532.190996
3128.644682,-9844.739029,444.123565,1378.971896
3128.645020,-9844.739029,740.205942,1455.581446
3128.645357,-10288.862594,1924.535449,1378.971896
3128.645694,-10214.842000,1480.411884,459.657299
3128.646032,-9622.677246,1554.432478,-459.657299
3128.646369,-9252.574275,592.164754,-689.485948
3128.646707,-9252.574275,1850.514855,-459.657299
3128.647044,-9178.553681,888.247130,-1225.752797
3128.647381,-9474.636058,814.226536,-842.705048
3128.647719,-9104.533087,518.144159,-1225.752797
3128.648056,-9326.594869,370.102971,-612.876398
3128.648394,-9844.739029,222.061783,0.000000
3128.648731,-9918.759623,-740.205942,306.438199
3128.649068,-10140.821405,-666.185348,76.609550
3128.649406,-9844.739029,-296.082377,0.000000
3128.649743,-10732.986159,-1110.308913,459.657299
3128.650081,-10214.842000,-1850.514855,689.485948
3128.650418,-9844.739029,-1850.514855,76.609550
3128.650755,-10214.842000,-888.247130,1378.971896
3128.651093,-10288.862594,-518.144159,153.219100
3128.651430,-9770.718434,-1332.370696,153.219100
3128.651767,-10881.027347,-962.267725,919.314598
3128.652105,-10288.862594,-444.123565,1149.143247
3128.652442,-10732.986159,-518.144159,689.485948
3128.652780,-10658.965565,-740.205942,536.266849
3128.653117,-10214.842000,-1184.329507,153.219100
3128.653454,-10510.924376,-1258.350101,459.657299
3128.653792,-9992.780217,-1480.411884,-536.266849
3128.654129,-9992.780217,-592.164754,-229.828649
3128.654467,-10807.006753,-1184.329507,-689.485948
3128.654804,-9844.739029,-740.205942,-1072.533697
3128.655141,-9770.718434,-1110.308913,-766.095498
3128.655479,-9844.739029,-666.185348,229.828649
3128.655816,-9770.718434,-962.267725,383.047749
3128.656153,-9992.780217,-518.144159,1685.410096
3128.656491,-9918.759623,0.000000,1072.533697
3128.656828,-9918.759623,0.000000,2145.067394
3128.657166,-10288.862594,518.144159,2145.067394
3128.657503,-10214.842000,370.102971,2451.505594
3128.657840,-9844.739029,1110.308913,2221.676944
3128.658178,-9548.656652,1406.391290,1685.410096
3128.658515,-9844.739029,2146.597232,1455.581446
3128.658853,-9474.636058,1332.370696,1532.190996
3128.659190,-9400.615463,2146.597232,842.705048
3128.659527,-9474.636058,1776.494261,919.314598
3128.659865,-9770.718434,1776.494261,229.828649
3128.660202,-9474.636058,1406.391290,153.219100
3128.660540,-9992.780217,592.164754,689.485948
3128.660877,-9622.677246,888.247130,229.828649
3128.661214,-9992.780217,0.000000,-689.485948
3128.661552,-10214.842000,-666.185348,-842.705048
3128.661889,-9770.718434,-962.267725,-1991.848295
3128.662226,-9696.697840,-1924.535449,-1455.581446
3128.662564,-9622.677246,-2220.617826,-1302.362347
3128.662901,-9252.574275,-2590.720797,-919.314598
3128.663239,-10214.842000,-2516.700203,-689.485948
3128.663576,-10510.924376,-2294.638420,-383.047749
3128.663913,-10140.821405,-2294.638420,-306.438199
3128.664251,-10807.006753,-2442.679609,766.095498
3128.664588,-11029.068536,-2368.659014,1149.143247
3128.664926,-10362.883188,-1998.556043,842.705048
3128.665263,-10658.965565,-1036.288319,383.047749
3128.665600,-10510.924376,-1110.308913,153.219100
3128.665938,-10732.986159,-740.205942,0.000000
3128.666275,-10584.944971,-666.185348,0.000000
3128.666612,-10066.800811,0.000000,-383.047749
3128.666950,-10140.821405,296.082377,-306.438199
3128.667287,-9992.780217,74.020594,-842.705048
3128.667625,-9770.718434,444.123565,-612.876398
3128.667962,-9992.780217,592.164754,0.000000
3128.668299,-10214.842000,1184.329507,-76.609550
3128.668637,-10066.800811,888.247130,-153.219100
3128.668974,-9992.780217,962.267725,-689.485948
3128.669312,-9474.636058,666.185348,-229.828649
3128.669649,-9548.656652,592.164754,76.609550
3128.669986,-8882.471304,148.041188,689.485948
3128.670324,-9030.512492,518.144159,995.924147
3128.670661,-9548.656652,370.102971,1302.362347
3128.670998,-9474.636058,222.061783,689.485948
3128.671336,-9548.656652,962.267725,1608.800546
3128.671673,-9844.739029,592.164754,1762.019645
3128.672011,-9844.739029,1110.308913,2145.067394
3128.672348,-10362.883188,1258.350101,2374.896044
3128.672685,-9844.739029,1480.411884,1532.190996
3128.673023,-9844.739029,666.185348,1302.362347
3128.673360,-10510.924376,592.164754,1378.971896
3128.673698,-9992.780217,148.041188,459.657299
3128.674035,-10362.883188,148.041188,919.314598
3128.674372,-10140.821405,-222.061783,0.000000
3128.674710,-9622.677246,-1184.329507,-76.609550
3128.675047,-10066.800811,-962.267725,-383.047749
3128.675385,-10510.924376,-1480.411884,0.000000
3128.675722,-10288.862594,-1036.288319,-383.047749
3128.676059,-10658.965565,-1924.535449,-689.485948
3128.676397,-10955.047942,-2738.761985,-536.266849
3128.676734,-9548.656652,-2516.700203,-229.828649
3128.677071,-10510.924376,-2368.659014,153.219100
3128.677409,-10140.821405,-2664.741391,0.000000
3128.677746,-9696.697840,-2368.659014,-919.314598
3128.678084,-10214.842000,-1480.411884,0.000000
3128.678421,-10807.006753,-1924.535449,536.266849
3128.678758,-9992.780217,-1776.494261,995.924147
3128.679096,-9992.780217,-740.205942,689.485948
3128.679433,-10066.800811,148.041188,2451.505594
3128.679771,-10436.903782,370.102971,1685.410096
3128.680108,-10140.821405,592.164754,1378.971896
3128.680445,-9992.780217,962.267725,1455.581446
3128.680783,-10214.842000,1776.494261,1072.533697
3128.681120,-10362.883188,1628.453072,0.000000
3128.681457,-9548.656652,1258.350101,-612.876398
3128.681795,-9252.574275,1110.308913,-766.095498
3128.682132,-8882.471304,1776.494261,0.000000
3128.682470,-9252.574275,1480.411884,-612.876398
3128.682807,-9326.594869,518.144159,-1302.362347
3128.683144,-9622.677246,1036.288319,-995.924147
3128.683482,-9400.615463,444.123565,-842.705048
3128.683819,-9474.636058,0.000000,-612.876398
3128.684157,-10066.800811,-222.061783,995.924147
3128.684494,-9918.759623,-592.164754,0.000000
3128.684831,-9622.677246,-666.185348,383.047749
3128.685169,-10214.842000,-666.185348,612.876398
3128.685506,-10436.903782,-1628.453072,536.266849
3128.685844,-10510.924376,-1110.308913,689.485948
3128.686181,-9844.739029,-1406.391290,995.924147
3128.686518,-9992.780217,-888.247130,383.047749
3128.686856,-9844.739029,-814.226536,459.657299
3128.687193,-10658.965565,-518.144159,995.924147
3128.687530,-10436.903782,-1258.350101,612.876398
3128.687868,-10584.944971,-518.144159,689.485948
3128.688205,-11029.068536,-222.061783,842.705048
3128.688543,-10436.903782,-962.267725,0.000000
3128.688880,-10066.800811,-1332.370696,-153.219100
3128.689217,-9918.759623,-1036.288319,0.000000
3128.689555,-10214.842000,-962.267725,-229.828649
3128.689892,-10214.842000,-592.164754,-1225.752797
3128.690230,-10214.842000,-1110.308913,-1072.533697
3128.690567,-9770.718434,-814.226536,-689.485948
3128.690904,-10066.800811,-1110.308913,0.000000
3128.691242,-9992.780217,-888.247130,689.485948
3128.691579,-9474.636058,-518.144159,1149.143247
3128.691916,-10140.821405,0.000000,1455.581446
3128.692254,-10214.842000,-370.102971,1532.190996
3128.692591,-10362.883188,666.185348,2068.457845
3128.692929,-10436.903782,740.205942,2528.115143
3128.693266,-10066.800811,592.164754,2068.457845
3128.693603,-9474.636058,1924.535449,1838.629195
3128.693941,-9400.615463,1702.473667,1072.533697
3128.694278,-9622.677246,1702.473667,1302.362347
3128.694616,-9548.656652,1406.391290,612.876398
3128.694953,-9474.636058,1554.432478,459.657299
3128.695290,-9622.677246,1998.556043,842.705048
3128.695628,-9844.739029,1332.370696,0.000000
3128.695965,-9474.636058,814.226536,306.438199
3128.696302,-9548.656652,444.123565,153.219100
3128.696640,-9918.759623,222.061783,0.000000
3128.696977,-10362.883188,-74.020594,-995.924147
3128.697315,-9918.759623,-1480.411884,-1915.238745
3128.697652,-9474.636058,-1850.514855,-1378.971896
3128.697989,-9770.718434,-2294.638420,-612.876398
3128.698327,-9548.656652,-2516.700203,-766.095498
3128.698664,-9918.759623,-2516.700203,-459.657299
3128.699002,-10510.924376,-2368.659014,-459.657299
3128.699339,-10362.883188,-2294.638420,-612.876398
3128.699676,-10510.924376,-2368.659014,383.047749
3128.700014,-10881.027347,-2072.576638,919.314598
3128.700351,-10807.006753,-1628.453072,842.705048
3128.700689,-10584.944971,-1184.329507,536.266849
3128.701026,-10584.944971,-1036.288319,229.828649
3128.701363,-10436.903782,-740.205942,153.219100
3128.701701,-10288.862594,-666.185348,-383.047749
3128.702038,-10584.944971,-444.123565,-229.828649
3128.702375,-9918.759623,518.144159,-842.705048
3128.702713,-9622.677246,-222.061783,-995.924147
3128.703050,-10066.800811,666.185348,-229.828649
3128.703388,-9474.636058,296.082377,-919.314598
3128.703725,-9844.739029,962.267725,-612.876398
3128.704062,-9844.739029,888.247130,-383.047749
3128.704400,-9844.739029,592.164754,-306.438199
3128.704737,-9770.718434,740.205942,0.000000
3128.705075,-9474.636058,74.020594,76.609550
3128.705412,-9104.533087,1036.288319,766.095498
3128.705749,-9326.594869,888.247130,536.266849
3128.706087,-9548.656652,814.226536,919.314598
3128.706424,-9622.677246,444.123565,536.266849
3128.706761,-9104.533087,1036.288319,1608.800546
3128.707099,-9844.739029,740.205942,2145.067394
3128.707436,-9770.718434,962.267725,1991.848295
3128.707774,-9622.677246,1776.494261,2068.457845
3128.708111,-9918.759623,814.226536,1838.629195
3128.708448,-10288.862594,1480.411884,1149.143247
3128.708786,-10066.800811,518.144159,689.485948
3128.709123,-10807.006753,444.123565,612.876398
3128.709461,-10140.821405,222.061783,76.609550
3128.709798,-10066.800811,-296.082377,-383.047749
3128.710135,-9474.636058,-1258.350101,-612.876398
3128.710473,-9400.615463,-1332.370696,-766.095498
3128.710810,-10288.862594,-1702.473667,229.828649
3128.711148,-10881.027347,-1702.473667,-995.924147
3128.711485,-10362.883188,-2146.597232,-689.485948
3128.711822,-10510.924376,-2294.638420,76.609550
3128.712160,-10140.821405,-2812.782580,-306.438199
3128.712497,-10288.862594,-2072.576638,76.609550
3128.712834,-10436.903782,-2590.720797,0.000000
3128.713172,-10288.862594,-2664.741391,-383.047749
3128.713509,-10362.883188,-2220.617826,919.314598
3128.713847,-10881.027347,-2294.638420,919.314598
3128.714184,-10288.862594,-1184.329507,1072.533697
3128.714521,-10066.800811,-1184.329507,459.657299
3128.714859,-9844.739029,0.000000,1225.752797
3128.715196,-10066.800811,296.082377,1149.143247
3128.715534,-10140.821405,592.164754,1532.190996
3128.715871,-9844.739029,666.185348,919.314598
3128.716208,-9770.718434,1036.288319,919.314598
3128.716546,-10066.800811,1850.514855,76.609550
3128.716883,-9548.656652,1406.391290,-383.047749
3128.717220,-9400.615463,1036.288319,-306.438199
3128.717558,-9104.533087,962.267725,-995.924147
3128.717895,-9622.677246,1406.391290,-612.876398
3128.718233,-9104.533087,518.144159,-1149.143247
3128.718570,-9252.574275,814.226536,-1225.752797
3128.718907,-9474.636058,-222.061783,-459.657299
3128.719245,-9474.636058,370.102971,-536.266849
3128.719582,-9548.656652,148.041188,459.657299
3128.719920,-10140.821405,-592.164754,612.876398
3128.720257,-9474.636058,-444.123565,229.828649
3128.720594,-10732.986159,-740.205942,689.485948
3128.720932,-10510.924376,-1110.308913,995.924147
3128.721269,-9844.739029,-888.247130,306.438199
3128.721606,-10510.924376,-1036.288319,842.705048
3128.721944,-9992.780217,-444.123565,536.266849
3128.722281,-9622.677246,-888.247130,306.438199
3128.722619,-10807.006753,-814.226536,612.876398
3128.722956,-10584.944971,-962.267725,76.609550
3128.723293,-10140.821405,-666.185348,153.219100
3128.723631,-10658.965565,-148.041188,459.657299
3128.723968,-10436.903782,-1110.308913,383.047749
3128.724306,-10510.924376,-1036.288319,306.438199
3128.724643,-9770.718434,-1480.411884,-459.657299
3128.724980,-10066.800811,-962.267725,-612.876398
3128.725318,-10436.903782,-962.267725,-766.095498
3128.725655,-10066.800811,-1480.411884,-919.314598
3128.725993,-9474.636058,-1480.411884,-766.095498
3128.726330,-9844.739029,-1406.391290,0.000000
3128.726667,-9844.739029,-592.164754,689.485948
3128.727005,-9918.759623,-1110.308913,383.047749
3128.727342,-10066.800811,74.020594,1455.581446
3128.727679,-10140.821405,74.020594,1608.800546
3128.728017,-10288.862594,444.123565,2451.505594
3128.728354,-10362.883188,888.247130,1915.238745
3128.728692,-9992.780217,814.226536,2451.505594
3128.729029,-10066.800811,1332.370696,2298.286494
3128.729366,-9474.636058,2220.617826,1378.971896
3128.729704,-9770.718434,1850.514855,2221.676944
3128.730041,-9770.718434,1628.453072,766.095498
3128.730379,-9178.553681,1850.514855,229.828649
3128.730716,-9770.718434,1554.432478,995.924147
3128.731053,-9622.677246,1332.370696,306.438199
3128.731391,-9030.512492,518.144159,0.000000
3128.731728,-10066.800811,222.061783,0.000000
3128.732065,-9474.636058,444.123565,-612.876398
3128.732403,-10288.862594,-370.102971,-689.485948
3128.732740,-10214.842000,-1332.370696,-1225.752797
3128.733078,-9474.636058,-1554.432478,-1685.410096
3128.733415,-9696.697840,-2072.576638,-306.438199
3128.733752,-9844.739029,-2294.638420,-766.095498
3128.734090,-9474.636058,-2294.638420,-612.876398
3128.734427,-10584.944971,-2664.741391,-689.485948
3128.734765,-10288.862594,-2812.782580,-153.219100
3128.735102,-10584.944971,-2146.597232,153.219100
3128.735439,-11029.068536,-2146.597232,612.876398
3128.735777,-10732.986159,-1554.432478,612.876398
3128.736114,-10436.903782,-1036.288319,536.266849
3128.736452,-10584.944971,-1184.329507,153.219100
3128.736789,-10214.842000,-296.082377,229.828649
3128.737126,-10362.883188,-814.226536,-76.609550
3128.737464,-10436.903782,-296.082377,229.828649
3128.737801,-10288.862594,0.000000,-459.657299
3128.738138,-10066.800811,0.000000,-1072.533697
3128.738476,-9918.759623,148.041188,-612.876398
3128.738813,-9474.636058,0.000000,-766.095498
3128.739151,-10066.800811,1036.288319,-766.095498
3128.739488,-9770.718434,592.164754,-459.657299
3128.739825,-10066.800811,592.164754,-459.657299
3128.740163,-9770.718434,148.041188,-612.876398
3128.740500,-9622.677246,74.020594,612.876398
3128.740838,-9474.636058,814.226536,766.095498
3128.741175,-9474.636058,222.061783,995.924147
3128.741512,-9622.677246,518.144159,1455.581446
3128.741850,-9474.636058,666.185348,612.876398
3128.742187,-9622.677246,666.185348,1608.800546
3128.742524,-10510.924376,1628.453072,1838.629195
3128.742862,-9770.718434,1110.308913,1838.629195
3128.743199,-9992.780217,1406.391290,1532.190996
3128.743537,-9918.759623,1480.411884,3294.210641
3128.743874,-9844.739029,1702.473667,1762.019645
3128.744211,-10362.883188,296.082377,1532.190996
3128.744549,-10214.842000,1110.308913,766.095498
3128.744886,-10066.800811,148.041188,0.000000
3128.745224,-10288.862594,0.000000,0.000000
3128.745561,-9696.697840,-666.185348,-383.047749
3128.745898,-9696.697840,-1628.453072,-612.876398
3128.746236,-9918.759623,-1258.350101,-153.219100
3128.746573,-10214.842000,-1850.514855,-995.924147
3128.746910,-10807.006753,-2146.597232,-766.095498
3128.747248,-10584.944971,-2590.720797,-383.047749
3128.747585,-10362.883188,-2590.720797,-306.438199
3128.747923,-10584.944971,-2294.638420,459.657299
3128.748260,-10362.883188,-2368.659014,0.000000
3128.748597,-10362.883188,-2368.659014,-536.266849
3128.748935,-10510.924376,-2368.659014,0.000000
3128.749272,-10140.821405,-1480.411884,689.485948
3128.749610,-10955.047942,-1480.411884,1072.533697
