#time,accel_x,accel_y,accel_z
3284.725168,-9104.533087,-2812.782580,1838.629195
3284.725506,-10066.800811,-1924.535449,1838.629195
3284.725843,-9844.739029,-1776.494261,766.095498
3284.726181,-10140.821405,-1850.514855,1455.581446
3284.726519,-11103.089130,-1554.432478,2145.067394
3284.726857,-10288.862594,-2220.617826,1378.971896
3284.727195,-9992.780217,-1554.432478,1302.362347
3284.727532,-10214.842000,-1850.514855,1149.143247
3284.727870,-9548.656652,-2072.576638,1455.581446
3284.728208,-10140.821405,-2368.659014,919.314598
3284.728546,-9844.739029,-2516.700203,459.657299
3284.728884,-9548.656652,-1406.391290,-153.219100
3284.729222,-9622.677246,-2072.576638,536.266849
3284.729559,-9252.574275,-1702.473667,842.705048
3284.729897,-8290.306550,-1628.453072,1072.533697
3284.730235,-9622.677246,-962.267725,1762.019645
3284.730573,-10510.924376,-740.205942,2451.505594
3284.730911,-10732.986159,-740.205942,2681.334243
3284.731248,-11177.109724,-222.061783,2834.553343
3284.731586,-11103.089130,-666.185348,3907.087040
3284.731924,-10066.800811,-1776.494261,4826.401637
3284.732262,-9622.677246,-740.205942,4519.963438
3284.732600,-9918.759623,-740.205942,4903.011187
3284.732937,-10510.924376,-592.164754,4060.306139
3284.733275,-10214.842000,-666.185348,3370.820191
3284.733613,-10140.821405,-666.185348,3753.867940
3284.733951,-9548.656652,0.000000,2757.943793
3284.734289,-9474.636058,-814.226536,2145.067394
3284.734627,-9622.677246,-1480.411884,2145.067394
3284.734964,-8808.450710,-2146.597232,2068.457845
3284.735302,-9548.656652,-2738.761985,2757.943793
3284.735640,-10658.965565,-3330.926739,2681.334243
3284.735978,-10066.800811,-3923.091493,1762.019645
3284.736316,-9918.759623,-4737.318029,2145.067394
3284.736653,-9474.636058,-5329.482782,3140.991542
3284.736991,-8882.471304,-6069.688724,3830.477490
3284.737329,-10140.821405,-5847.626942,5209.449386
3284.737667,-11177.109724,-4589.276840,3600.648841
3284.738005,-11621.233289,-3330.926739,2068.457845
3284.738343,-11399.171507,-3108.864956,842.705048
3284.738680,-10362.883188,-4515.256246,1225.752797
3284.739018,-9992.780217,-5033.400406,2528.115143
3284.739356,-9326.594869,-5329.482782,4290.134789
3284.739694,-9400.615463,-4219.173869,3294.210641
3284.740032,-10881.027347,-3997.112087,3447.429741
3284.740369,-11843.295072,-3552.988522,3447.429741
3284.740707,-10658.965565,-3849.070898,3140.991542
3284.741045,-9918.759623,-3034.844362,4826.401637
3284.741383,-10658.965565,-2146.597232,4903.011187
3284.741721,-10658.965565,-962.267725,2681.334243
3284.742059,-9770.718434,-888.247130,0.000000
3284.742396,-9844.739029,-1184.329507,-306.438199
3284.742734,-10288.862594,-2886.803174,306.438199
3284.743072,-9622.677246,-2590.720797,-306.438199
3284.743410,-7402.059420,-2072.576638,-689.485948
3284.743748,-7624.121203,-2590.720797,1072.533697
3284.744085,-9252.574275,-4071.132681,1762.019645
3284.744423,-10436.903782,-3552.988522,2451.505594
3284.744761,-10362.883188,-962.267725,2451.505594
3284.745099,-10362.883188,1480.411884,2451.505594
3284.745437,-11843.295072,1406.391290,1532.190996
3284.745775,-11177.109724,-1036.288319,766.095498
3284.746112,-8808.450710,-2368.659014,2757.943793
3284.746450,-7920.203579,-2960.823768,5515.887586
3284.746788,-10436.903782,-962.267725,6741.640382
3284.747125,-12583.501014,-962.267725,3983.696590
3284.747463,-11325.150913,-518.144159,459.657299
3284.747800,-9178.553681,296.082377,0.000000
3284.748138,-9992.780217,222.061783,1225.752797
3284.748475,-10140.821405,814.226536,612.876398
3284.748812,-8882.471304,962.267725,-612.876398
3284.749150,-9844.739029,-518.144159,689.485948
3284.749487,-11621.233289,-1628.453072,459.657299
3284.749825,-11399.171507,-1332.370696,842.705048
3284.750162,-9548.656652,-1850.514855,306.438199
3284.750499,-8808.450710,-2812.782580,689.485948
3284.750837,-9030.512492,-4071.132681,1378.971896
3284.751174,-9696.697840,-2590.720797,4060.306139
3284.751512,-10510.924376,-2220.617826,4366.744339
3284.751849,-11621.233289,-888.247130,1685.410096
3284.752186,-12583.501014,148.041188,0.000000
3284.752524,-11325.150913,0.000000,0.000000
3284.752861,-9252.574275,-1480.411884,1991.848295
3284.753199,-9030.512492,-1702.473667,3907.087040
3284.753536,-9474.636058,0.000000,2374.896044
3284.753874,-9696.697840,-148.041188,1532.190996
3284.754211,-11473.192101,-444.123565,2145.067394
3284.754548,-9992.780217,-962.267725,1838.629195
3284.754886,-8364.327145,-592.164754,1838.629195
3284.755223,-7772.162391,962.267725,4060.306139
3284.755561,-9548.656652,2886.803174,2987.772442
3284.755898,-12731.542202,3404.947333,0.000000
3284.756235,-12583.501014,2664.741391,-2681.334243
3284.756573,-9770.718434,1110.308913,-2681.334243
3284.756910,-9178.553681,-444.123565,842.705048
3284.757248,-8956.491898,-2294.638420,1532.190996
3284.757585,-8290.306550,-1998.556043,-459.657299
3284.757922,-6883.915261,-2294.638420,-1915.238745
3284.758260,-8808.450710,-2738.761985,-1225.752797
3284.758597,-10732.986159,-2516.700203,0.000000
3284.758935,-11399.171507,-1924.535449,306.438199
3284.759272,-10732.986159,-296.082377,995.924147
3284.759609,-11177.109724,148.041188,-383.047749
3284.759947,-12287.418637,-740.205942,-1072.533697
3284.760284,-9918.759623,-2294.638420,-766.095498
3284.760622,-8068.244768,-4145.153275,766.095498
3284.760959,-9844.739029,-3330.926739,3677.258390
3284.761296,-10955.047942,-3108.864956,2528.115143
3284.761634,-10214.842000,-2368.659014,0.000000
3284.761971,-9474.636058,-2664.741391,-766.095498
3284.762309,-10140.821405,-2072.576638,-766.095498
3284.762646,-10510.924376,-2072.576638,0.000000
3284.762984,-10881.027347,0.000000,766.095498
3284.763321,-10436.903782,148.041188,536.266849
3284.763658,-11991.336260,740.205942,-919.314598
3284.763996,-11029.068536,-740.205942,-2221.676944
3284.764333,-10214.842000,-2072.576638,-1455.581446
3284.764671,-9326.594869,-3627.009116,1302.362347
3284.765008,-8586.388927,-3256.906145,842.705048
3284.765345,-8956.491898,-2590.720797,-153.219100
3284.765683,-9178.553681,-1258.350101,76.609550
3284.766020,-9918.759623,-1702.473667,0.000000
3284.766358,-11029.068536,-814.226536,536.266849
3284.766695,-10584.944971,888.247130,2221.676944
3284.767032,-9844.739029,1480.411884,2987.772442
3284.767370,-10881.027347,2812.782580,2221.676944
3284.767707,-10807.006753,2072.576638,766.095498
3284.768045,-9548.656652,1258.350101,1762.019645
3284.768382,-10066.800811,0.000000,3447.429741
3284.768719,-8882.471304,0.000000,2911.162892
3284.769057,-8364.327145,962.267725,1608.800546
3284.769394,-7994.224174,1110.308913,689.485948
3284.769732,-8586.388927,1184.329507,-229.828649
3284.770069,-11399.171507,1110.308913,153.219100
3284.770406,-11547.212695,2516.700203,842.705048
3284.770744,-10140.821405,3552.988522,-1378.971896
3284.771081,-12065.356855,4145.153275,-1838.629195
3284.771419,-10510.924376,1628.453072,-4673.182538
3284.771756,-8586.388927,-962.267725,-3907.087040
3284.772093,-9178.553681,-3923.091493,306.438199
3284.772431,-7772.162391,-3182.885551,0.000000
3284.772768,-8882.471304,-2812.782580,76.609550
3284.773106,-9918.759623,-2664.741391,383.047749
3284.773443,-9918.759623,-2072.576638,-536.266849
3284.773781,-12065.356855,-2368.659014,689.485948
3284.774118,-11621.233289,0.000000,1685.410096
3284.774455,-10066.800811,814.226536,1225.752797
3284.774793,-12879.583391,1628.453072,1072.533697
3284.775130,-11103.089130,888.247130,-1302.362347
3284.775468,-9844.739029,-666.185348,-766.095498
3284.775805,-10362.883188,-1998.556043,1685.410096
3284.776142,-9252.574275,-1554.432478,0.000000
3284.776480,-9474.636058,-296.082377,153.219100
3284.776817,-9474.636058,0.000000,-306.438199
3284.777155,-8956.491898,-592.164754,-459.657299
3284.777492,-11251.130318,0.000000,76.609550
3284.777829,-11029.068536,2368.659014,689.485948
3284.778167,-10955.047942,3552.988522,842.705048
3284.778504,-12583.501014,3701.029710,0.000000
3284.778842,-10436.903782,2072.576638,-3600.648841
3284.779179,-8808.450710,0.000000,-2604.724693
3284.779516,-9548.656652,-1850.514855,1455.581446
3284.779854,-7476.080014,-1554.432478,919.314598
3284.780191,-7994.224174,-1184.329507,0.000000
3284.780529,-8290.306550,-740.205942,766.095498
3284.780866,-9400.615463,-1850.514855,459.657299
3284.781203,-10658.965565,-1480.411884,842.705048
3284.781541,-10436.903782,740.205942,2834.553343
3284.781878,-10436.903782,2368.659014,3370.820191
3284.782216,-12065.356855,3182.885551,2298.286494
3284.782553,-10658.965565,2220.617826,-995.924147
3284.782891,-9918.759623,-518.144159,-536.266849
3284.783228,-9992.780217,-3627.009116,2604.724693
3284.783565,-8660.409521,-3330.926739,2374.896044
3284.783903,-8660.409521,-2664.741391,1378.971896
3284.784240,-8660.409521,-2886.803174,-306.438199
3284.784578,-8808.450710,-3182.885551,-995.924147
3284.784915,-11399.171507,-3997.112087,-995.924147
3284.785252,-11547.212695,-1258.350101,-689.485948
3284.785590,-11177.109724,148.041188,-76.609550
3284.785927,-11769.274478,-666.185348,-1225.752797
3284.786265,-10214.842000,-1184.329507,-3677.258390
3284.786602,-9548.656652,-3552.988522,-2604.724693
3284.786939,-9622.677246,-4737.318029,842.705048
3284.787277,-8808.450710,-5625.565159,612.876398
3284.787614,-9992.780217,-4219.173869,383.047749
3284.787952,-9400.615463,-4441.235652,995.924147
3284.788289,-8956.491898,-3627.009116,1455.581446
3284.788626,-11399.171507,-3108.864956,1532.190996
3284.788964,-11251.130318,148.041188,1915.238745
3284.789301,-10362.883188,2294.638420,3140.991542
3284.789639,-12583.501014,3701.029710,1685.410096
3284.789976,-11621.233289,3182.885551,-459.657299
3284.790313,-9252.574275,1184.329507,-1991.848295
3284.790651,-9844.739029,-148.041188,1608.800546
3284.790988,-9030.512492,-592.164754,1225.752797
3284.791326,-8068.244768,444.123565,306.438199
3284.791663,-7105.977043,74.020594,-536.266849
3284.792000,-8216.285956,-666.185348,-383.047749
3284.792338,-10436.903782,444.123565,0.000000
3284.792675,-10807.006753,2220.617826,766.095498
3284.793013,-10955.047942,3775.050304,0.000000
3284.793350,-11547.212695,4663.297435,-1838.629195
3284.793688,-11103.089130,2960.823768,-2987.772442
3284.794025,-7994.224174,666.185348,-2681.334243
3284.794362,-8956.491898,-2738.761985,1991.848295
3284.794700,-9030.512492,-2812.782580,3294.210641
3284.795037,-9252.574275,-2368.659014,842.705048
3284.795375,-9622.677246,-1406.391290,536.266849
3284.795712,-9918.759623,-1628.453072,-306.438199
3284.796049,-10658.965565,-1554.432478,536.266849
3284.796387,-11177.109724,1332.370696,2221.676944
3284.796724,-10732.986159,2072.576638,1685.410096
3284.797062,-12065.356855,3478.967927,229.828649
3284.797399,-11843.295072,1924.535449,-1915.238745
3284.797736,-9622.677246,-296.082377,-995.924147
3284.798074,-10436.903782,-2442.679609,1762.019645
3284.798411,-9770.718434,-2368.659014,1532.190996
3284.798749,-8142.265362,-2442.679609,-612.876398
3284.799086,-8216.285956,-1628.453072,-689.485948
3284.799423,-9548.656652,-1554.432478,-995.924147
3284.799761,-10955.047942,-1628.453072,-1608.800546
3284.800098,-11769.274478,148.041188,0.000000
3284.800436,-11103.089130,1110.308913,1072.533697
3284.800773,-11843.295072,2220.617826,0.000000
3284.801110,-11325.150913,1998.556043,-1762.019645
3284.801448,-9252.574275,-518.144159,-1072.533697
3284.801785,-10066.800811,-2812.782580,2528.115143
3284.802123,-9104.533087,-2812.782580,2987.772442
3284.802460,-7772.162391,-888.247130,1838.629195
3284.802798,-8956.491898,-518.144159,1532.190996
3284.803135,-8512.368333,-666.185348,1608.800546
3284.803472,-10140.821405,222.061783,1225.752797
3284.803810,-11547.212695,2220.617826,2221.676944
3284.804147,-10140.821405,4811.338623,1991.848295
3284.804485,-11769.274478,5403.503377,689.485948
3284.804822,-11621.233289,4515.256246,-2145.067394
3284.805159,-8142.265362,1554.432478,-2528.115143
3284.805497,-9178.553681,-1628.453072,2451.505594
3284.805834,-7994.224174,-2442.679609,3524.039291
3284.806172,-8068.244768,-1480.411884,919.314598
3284.806509,-8438.347739,74.020594,-1225.752797
3284.806846,-9474.636058,-1554.432478,-1915.238745
3284.807184,-11843.295072,-2072.576638,-1378.971896
3284.807521,-10807.006753,-1110.308913,-612.876398
3284.807859,-9622.677246,370.102971,-306.438199
3284.808196,-12139.377449,1850.514855,-612.876398
3284.808533,-12139.377449,-370.102971,-2834.553343
3284.808871,-9030.512492,-2516.700203,-3064.381992
3284.809208,-9770.718434,-5699.585753,1915.238745
3284.809546,-9548.656652,-5477.523971,3370.820191
3284.809883,-8512.368333,-4663.297435,1455.581446
3284.810220,-9696.697840,-3256.906145,1149.143247
3284.810558,-9326.594869,-2960.823768,995.924147
3284.810895,-10288.862594,-2960.823768,689.485948
3284.811233,-13101.645173,-518.144159,2145.067394
3284.811570,-12731.542202,1998.556043,2681.334243
3284.811907,-11251.130318,2442.679609,76.609550
3284.812245,-10881.027347,2960.823768,-1915.238745
3284.812582,-10362.883188,74.020594,-1455.581446
3284.812920,-9104.533087,-2368.659014,766.095498
3284.813257,-8438.347739,-2738.761985,689.485948
3284.813595,-8586.388927,-740.205942,306.438199
3284.813932,-9400.615463,-74.020594,612.876398
3284.814269,-8586.388927,-1332.370696,0.000000
3284.814607,-10288.862594,-1554.432478,-459.657299
3284.814944,-11547.212695,1258.350101,612.876398
3284.815282,-10362.883188,2960.823768,1608.800546
3284.815619,-11473.192101,3849.070898,459.657299
3284.815956,-10658.965565,3775.050304,-2145.067394
3284.816294,-9104.533087,1258.350101,-2528.115143
3284.816631,-8660.409521,-1036.288319,2068.457845
3284.816969,-7402.059420,-1850.514855,3370.820191
3284.817306,-8068.244768,-592.164754,2911.162892
3284.817643,-8956.491898,518.144159,1991.848295
3284.817981,-8808.450710,666.185348,612.876398
3284.818318,-11177.109724,296.082377,536.266849
3284.818656,-12805.562797,1776.494261,612.876398
3284.818993,-11251.130318,4219.173869,1302.362347
3284.819330,-11843.295072,3997.112087,0.000000
3284.819668,-11325.150913,2812.782580,-3064.381992
3284.820005,-8586.388927,-592.164754,-4290.134789
3284.820343,-9474.636058,-2960.823768,919.314598
3284.820680,-9178.553681,-3627.009116,766.095498
3284.821017,-8956.491898,-2368.659014,-612.876398
3284.821355,-9992.780217,-2294.638420,-1532.190996
3284.821692,-9252.574275,-3256.906145,-1149.143247
3284.822030,-10807.006753,-3849.070898,-229.828649
3284.822367,-11843.295072,-592.164754,919.314598
3284.822705,-11621.233289,148.041188,2451.505594
3284.823042,-11991.336260,1110.308913,1685.410096
3284.823379,-12361.439231,666.185348,-383.047749
3284.823717,-8882.471304,-592.164754,-689.485948
3284.824054,-9178.553681,-3627.009116,2681.334243
3284.824392,-9400.615463,-3330.926739,4213.525239
3284.824729,-9178.553681,-1554.432478,1915.238745
3284.825066,-8734.430116,740.205942,1685.410096
3284.825404,-8364.327145,-740.205942,1838.629195
3284.825741,-12065.356855,-296.082377,919.314598
3284.826079,-11621.233289,2886.803174,1838.629195
3284.826416,-9400.615463,4737.318029,1302.362347
3284.826753,-11843.295072,5329.482782,1302.362347
3284.827091,-11991.336260,4145.153275,-2451.505594
3284.827428,-8142.265362,2072.576638,-2528.115143
3284.827766,-8586.388927,-444.123565,153.219100
3284.828103,-8882.471304,-1554.432478,2068.457845
3284.828440,-7994.224174,-296.082377,76.609550
3284.828778,-8290.306550,-592.164754,0.000000
3284.829115,-8808.450710,-444.123565,-459.657299
3284.829453,-10214.842000,-814.226536,-306.438199
3284.829790,-11917.315666,1406.391290,459.657299
3284.830127,-10658.965565,2960.823768,1225.752797
3284.830465,-11399.171507,2664.741391,-1149.143247
3284.830802,-10732.986159,1850.514855,-2374.896044
3284.831140,-8364.327145,-888.247130,-1685.410096
3284.831477,-9474.636058,-3552.988522,2757.943793
3284.831814,-9326.594869,-3404.947333,3600.648841
3284.832152,-8956.491898,-2664.741391,1838.629195
3284.832489,-9474.636058,-1702.473667,1149.143247
3284.832827,-8882.471304,-2294.638420,-842.705048
3284.833164,-10881.027347,-1850.514855,-459.657299
3284.833502,-12805.562797,-148.041188,459.657299
3284.833839,-10807.006753,1850.514855,766.095498
3284.834176,-11029.068536,1702.473667,-1072.533697
3284.834514,-10732.986159,148.041188,-2451.505594
3284.834851,-8660.409521,-1702.473667,-3064.381992
3284.835189,-9844.739029,-4293.194464,0.000000
3284.835526,-8956.491898,-3997.112087,1225.752797
3284.835863,-8734.430116,-3849.070898,229.828649
3284.836201,-9030.512492,-2664.741391,459.657299
3284.836538,-9252.574275,-2146.597232,-383.047749
3284.836876,-11325.150913,-1628.453072,383.047749
3284.837213,-12805.562797,0.000000,1915.238745
3284.837550,-11029.068536,1850.514855,2604.724693
3284.837888,-11325.150913,3627.009116,1685.410096
3284.838225,-11843.295072,2960.823768,536.266849
3284.838563,-9400.615463,222.061783,-919.314598
3284.838900,-9474.636058,-888.247130,2834.553343
3284.839237,-9474.636058,-1110.308913,5669.106685
3284.839575,-7846.182985,-222.061783,3217.601092
3284.839912,-8068.244768,666.185348,1915.238745
3284.840250,-9030.512492,1332.370696,306.438199
3284.840587,-10140.821405,1406.391290,536.266849
3284.840924,-12139.377449,3330.926739,153.219100
3284.841262,-10066.800811,3923.091493,-459.657299
3284.841599,-10140.821405,4737.318029,-2451.505594
3284.841937,-10658.965565,3404.947333,-3830.477490
3284.842274,-8586.388927,370.102971,-4596.572988
3284.842611,-7772.162391,-3108.864956,-536.266849
3284.842949,-8586.388927,-4219.173869,766.095498
3284.843286,-8142.265362,-3552.988522,919.314598
3284.843624,-9326.594869,-2072.576638,229.828649
3284.843961,-9918.759623,-2294.638420,-536.266849
3284.844299,-11473.192101,-1924.535449,-995.924147
3284.844636,-12657.521608,-814.226536,0.000000
3284.844973,-11769.274478,1406.391290,2374.896044
3284.845311,-11695.253884,1628.453072,153.219100
3284.845648,-12583.501014,1776.494261,-612.876398
3284.845986,-9696.697840,-1110.308913,-2374.896044
3284.846323,-10066.800811,-3108.864956,-76.609550
3284.846660,-8956.491898,-3627.009116,2911.162892
3284.846998,-8956.491898,-2516.700203,995.924147
3284.847335,-8586.388927,-1036.288319,1072.533697
3284.847673,-9992.780217,-444.123565,-459.657299
3284.848010,-11251.130318,0.000000,-536.266849
3284.848347,-11769.274478,666.185348,-995.924147
3284.848685,-11177.109724,2442.679609,383.047749
3284.849022,-10732.986159,3627.009116,459.657299
3284.849360,-11103.089130,2960.823768,-1378.971896
3284.849697,-9252.574275,592.164754,-4443.353888
3284.850034,-8216.285956,-2516.700203,-995.924147
3284.850372,-8660.409521,-3256.906145,2757.943793
3284.850709,-7698.141797,-2294.638420,1532.190996
3284.851047,-8586.388927,-592.164754,1762.019645
3284.851384,-8512.368333,0.000000,995.924147
3284.851721,-9992.780217,592.164754,0.000000
3284.852059,-13249.686362,2072.576638,1302.362347
3284.852396,-10881.027347,4959.379811,1915.238745
3284.852733,-11399.171507,4367.215058,919.314598
3284.853071,-11547.212695,4293.194464,-229.828649
3284.853408,-8068.244768,1702.473667,-2221.676944
3284.853746,-8290.306550,-740.205942,2298.286494
3284.854083,-8438.347739,-2960.823768,3677.258390
3284.854420,-8142.265362,-1480.411884,1762.019645
3284.854758,-10140.821405,0.000000,153.219100
3284.855095,-9474.636058,444.123565,-689.485948
3284.855433,-11029.068536,-962.267725,-995.924147
3284.855770,-12435.459826,518.144159,-766.095498
3284.856107,-10362.883188,2738.761985,-1072.533697
3284.856445,-11769.274478,2072.576638,-689.485948
3284.856782,-12287.418637,1110.308913,-1225.752797
3284.857120,-8882.471304,-2072.576638,-4290.134789
3284.857457,-9178.553681,-5329.482782,-1149.143247
3284.857794,-9326.594869,-6069.688724,2681.334243
3284.858132,-7550.100608,-5625.565159,2068.457845
3284.858469,-8586.388927,-3775.050304,995.924147
3284.858807,-10066.800811,-3256.906145,1072.533697
3284.859144,-10807.006753,-2220.617826,459.657299
3284.859481,-12435.459826,-1110.308913,1225.752797
3284.859819,-11991.336260,1998.556043,1838.629195
3284.860156,-11769.274478,2960.823768,1302.362347
3284.860494,-11473.192101,3256.906145,-306.438199
3284.860831,-9252.574275,1258.350101,-2834.553343
3284.861168,-8956.491898,-2072.576638,0.000000
3284.861506,-8660.409521,-2664.741391,3370.820191
3284.861843,-7846.182985,-1628.453072,2145.067394
3284.862181,-9474.636058,0.000000,919.314598
3284.862518,-9474.636058,888.247130,0.000000
3284.862855,-10066.800811,814.226536,-1225.752797
3284.863193,-11917.315666,1406.391290,-1532.190996
3284.863530,-10955.047942,3478.967927,-1378.971896
3284.863868,-10658.965565,4071.132681,76.609550
3284.864205,-11029.068536,2664.741391,-1302.362347
3284.864542,-8068.244768,222.061783,-3677.258390
3284.864880,-7994.224174,-2590.720797,-383.047749
3284.865217,-8068.244768,-3997.112087,3753.867940
3284.865555,-7920.203579,-3330.926739,3140.991542
3284.865892,-9252.574275,-1554.432478,536.266849
3284.866229,-10510.924376,222.061783,-919.314598
3284.866567,-10584.944971,0.000000,-229.828649
3284.866904,-12435.459826,518.144159,612.876398
3284.867242,-11843.295072,2368.659014,2451.505594
3284.867579,-11177.109724,3034.844362,1072.533697
3284.867916,-11843.295072,2738.761985,-536.266849
3284.868254,-9696.697840,0.000000,-2604.724693
3284.868591,-8364.327145,-3034.844362,-612.876398
3284.868929,-9178.553681,-4145.153275,2987.772442
3284.869266,-8586.388927,-3330.926739,1762.019645
3284.869603,-10066.800811,-1332.370696,-383.047749
3284.869941,-10362.883188,-518.144159,-689.485948
3284.870278,-9844.739029,-666.185348,-1915.238745
3284.870616,-11695.253884,-370.102971,-766.095498
3284.870953,-12139.377449,518.144159,536.266849
3284.871290,-10214.842000,1110.308913,0.000000
3284.871628,-10807.006753,2072.576638,-1302.362347
3284.871965,-9400.615463,-592.164754,-3140.991542
3284.872303,-8586.388927,-3256.906145,-766.095498
3284.872640,-9548.656652,-5181.441594,4213.525239
3284.872977,-7994.224174,-2664.741391,3600.648841
3284.873315,-8142.265362,-444.123565,1225.752797
3284.873652,-10584.944971,1184.329507,1608.800546
3284.873990,-10955.047942,1110.308913,919.314598
3284.874327,-12361.439231,1480.411884,1378.971896
3284.874664,-11991.336260,3923.091493,2911.162892
3284.875002,-10807.006753,5107.421000,1455.581446
3284.875339,-11177.109724,4737.318029,0.000000
3284.875677,-9252.574275,2294.638420,-2681.334243
3284.876014,-7772.162391,-888.247130,-1762.019645
3284.876351,-8586.388927,-2442.679609,2834.553343
3284.876689,-8290.306550,-1554.432478,2374.896044
3284.877026,-9326.594869,666.185348,-1532.190996
3284.877364,-9474.636058,1258.350101,-1915.238745
3284.877701,-10288.862594,296.082377,-3370.820191
3284.878038,-10955.047942,74.020594,-1991.848295
3284.878376,-12287.418637,962.267725,76.609550
3284.878713,-10658.965565,1850.514855,612.876398
3284.879051,-10881.027347,1406.391290,-1378.971896
3284.879388,-9548.656652,-1628.453072,-4060.306139
3284.879725,-8068.244768,-4737.318029,-536.266849
3284.880063,-9696.697840,-6365.771101,4443.353888
3284.880400,-8882.471304,-5107.421000,2451.505594
3284.880738,-8586.388927,-2294.638420,-76.609550
3284.881075,-10658.965565,-666.185348,1149.143247
3284.881412,-11917.315666,-1480.411884,383.047749
3284.881750,-12287.418637,-888.247130,689.485948
3284.882087,-12805.562797,1628.453072,153.219100
3284.882425,-11621.233289,2590.720797,1532.190996
3284.882762,-11621.233289,2294.638420,76.609550
3284.883099,-8660.409521,-296.082377,-2528.115143
3284.883437,-8142.265362,-2664.741391,-1225.752797
3284.883774,-9622.677246,-4515.256246,2757.943793
3284.884112,-8734.430116,-2738.761985,1685.410096
3284.884449,-9030.512492,-666.185348,919.314598
3284.884786,-10510.924376,296.082377,-536.266849
3284.885124,-9474.636058,0.000000,-2145.067394
3284.885461,-11325.150913,-1258.350101,-536.266849
3284.885798,-11251.130318,1702.473667,1838.629195
3284.886136,-9992.780217,3701.029710,2221.676944
3284.886473,-10807.006753,3923.091493,-383.047749
3284.886811,-9474.636058,1184.329507,-3370.820191
3284.887148,-7550.100608,-2812.782580,459.657299
3284.887485,-9622.677246,-4145.153275,5286.058936
3284.887823,-8068.244768,-2516.700203,4596.572988
3284.888160,-7476.080014,0.000000,2298.286494
3284.888498,-11029.068536,888.247130,1532.190996
3284.888835,-10955.047942,1924.535449,-229.828649
3284.889172,-11843.295072,1628.453072,-459.657299
3284.889510,-12065.356855,2590.720797,1378.971896
3284.889847,-10214.842000,3849.070898,612.876398
3284.890185,-10584.944971,2960.823768,-1225.752797
3284.890522,-8438.347739,1036.288319,-3217.601092
3284.890859,-7550.100608,-2664.741391,-2374.896044
3284.891197,-10214.842000,-4219.173869,2068.457845
3284.891534,-9474.636058,-3404.947333,0.000000
3284.891872,-8734.430116,-1554.432478,-1225.752797
3284.892209,-10288.862594,-1258.350101,-842.705048
3284.892546,-10362.883188,-2146.597232,-1455.581446
3284.892884,-11547.212695,-2516.700203,-1378.971896
3284.893221,-13101.645173,0.000000,1532.190996
3284.893559,-11103.089130,1036.288319,1685.410096
3284.893896,-10436.903782,1184.329507,-306.438199
3284.894233,-9844.739029,-1184.329507,-1991.848295
3284.894571,-9030.512492,-3849.070898,-383.047749
3284.894908,-10214.842000,-4959.379811,4290.134789
3284.895246,-9400.615463,-3849.070898,3294.210641
3284.895583,-9104.533087,-1184.329507,1991.848295
3284.895920,-9178.553681,370.102971,1072.533697
3284.896258,-9844.739029,148.041188,229.828649
3284.896595,-11769.274478,0.000000,536.266849
3284.896933,-11621.233289,1554.432478,1532.190996
3284.897270,-10436.903782,3701.029710,1991.848295
3284.897607,-11103.089130,6365.771101,-995.924147
3284.897945,-9548.656652,2812.782580,-3447.429741
3284.898282,-7476.080014,-1480.411884,-2987.772442
3284.898620,-8512.368333,-3552.988522,1072.533697
3284.898957,-8586.388927,-1850.514855,2145.067394
3284.899294,-8586.388927,-666.185348,766.095498
3284.899632,-9178.553681,-666.185348,0.000000
3284.899969,-9474.636058,-1184.329507,-1072.533697
3284.900307,-11325.150913,-518.144159,0.000000
3284.900644,-12361.439231,1776.494261,766.095498
3284.900981,-11029.068536,2738.761985,1225.752797
3284.901319,-10881.027347,2590.720797,-153.219100
3284.901656,-9104.533087,444.123565,-3524.039291
3284.901994,-7476.080014,-2738.761985,-1378.971896
3284.902331,-10362.883188,-4145.153275,3830.477490
3284.902668,-9474.636058,-3404.947333,3524.039291
3284.903006,-8734.430116,-370.102971,842.705048
3284.903343,-10510.924376,0.000000,0.000000
3284.903681,-10436.903782,-1110.308913,536.266849
3284.904018,-11843.295072,-1184.329507,-153.219100
3284.904355,-13323.706956,1332.370696,1532.190996
3284.904693,-11251.130318,2294.638420,995.924147
3284.905030,-11399.171507,2590.720797,0.000000
3284.905368,-9696.697840,74.020594,-3294.210641
3284.905705,-8290.306550,-2072.576638,-2834.553343
3284.906042,-10140.821405,-4293.194464,842.705048
3284.906380,-9992.780217,-4293.194464,689.485948
3284.906717,-8438.347739,-3034.844362,-229.828649
3284.907055,-8142.265362,-2368.659014,383.047749
3284.907392,-9326.594869,-2368.659014,-459.657299
3284.907729,-10362.883188,-1628.453072,0.000000
3284.908067,-12213.398043,148.041188,1225.752797
3284.908404,-10436.903782,1702.473667,2987.772442
3284.908742,-10807.006753,2812.782580,1685.410096
3284.909079,-9770.718434,2146.597232,-612.876398
3284.909416,-9178.553681,-1258.350101,-766.095498
3284.909754,-9918.759623,-2960.823768,3830.477490
3284.910091,-8734.430116,-1184.329507,4519.963438
3284.910429,-7994.224174,0.000000,2068.457845
3284.910766,-8068.244768,666.185348,1302.362347
3284.911103,-9918.759623,1036.288319,306.438199
3284.911441,-11917.315666,962.267725,0.000000
3284.911778,-11991.336260,3182.885551,-919.314598
3284.912116,-11029.068536,4145.153275,-383.047749
3284.912453,-11399.171507,4959.379811,-1685.410096
3284.912790,-9474.636058,2294.638420,-4136.915689
3284.913128,-7920.203579,-962.267725,-2834.553343
3284.913465,-9252.574275,-3701.029710,1149.143247
3284.913803,-9474.636058,-4811.338623,2451.505594
3284.914140,-9474.636058,-4071.132681,383.047749
3284.914477,-8512.368333,-3034.844362,-306.438199
3284.914815,-9474.636058,-2738.761985,-306.438199
3284.915152,-10732.986159,-2294.638420,229.828649
3284.915490,-11547.212695,-740.205942,383.047749
3284.915827,-11029.068536,1480.411884,1149.143247
3284.916164,-11769.274478,2294.638420,-612.876398
3284.916502,-10658.965565,1110.308913,-2604.724693
3284.916839,-9326.594869,-1332.370696,-1532.190996
3284.917177,-10140.821405,-3701.029710,2451.505594
3284.917514,-9030.512492,-3552.988522,2834.553343
3284.917851,-8438.347739,-2368.659014,1455.581446
3284.918189,-7994.224174,-1554.432478,1149.143247
3284.918526,-10362.883188,-740.205942,1532.190996
3284.918863,-12065.356855,74.020594,612.876398
3284.919201,-12361.439231,2072.576638,0.000000
3284.919538,-11177.109724,3478.967927,0.000000
3284.919876,-10881.027347,4589.276840,-76.609550
3284.920213,-10436.903782,3997.112087,-2911.162892
3284.920550,-8808.450710,296.082377,-4060.306139
3284.920888,-9252.574275,-2516.700203,-612.876398
3284.921225,-9252.574275,-3034.844362,2221.676944
3284.921563,-7846.182985,-1258.350101,842.705048
3284.921900,-7846.182985,-1036.288319,383.047749
3284.922237,-9770.718434,-1406.391290,459.657299
3284.922575,-9844.739029,-1258.350101,536.266849
3284.922912,-11695.253884,1554.432478,1149.143247
3284.923250,-11473.192101,3552.988522,1991.848295
3284.923587,-11843.295072,5255.462188,842.705048
3284.923924,-11251.130318,2886.803174,-1762.019645
3284.924262,-7920.203579,814.226536,-2221.676944
3284.924599,-9326.594869,-2294.638420,2451.505594
3284.924937,-9844.739029,-2294.638420,3830.477490
3284.925274,-7402.059420,-2294.638420,-153.219100
3284.925611,-9104.533087,-1480.411884,689.485948
3284.925949,-9844.739029,-1850.514855,76.609550
3284.926286,-10362.883188,-1554.432478,-306.438199
3284.926624,-11991.336260,962.267725,-689.485948
3284.926961,-11547.212695,1628.453072,-1149.143247
3284.927298,-11177.109724,2886.803174,-1302.362347
3284.927636,-10881.027347,0.000000,-3217.601092
3284.927973,-8512.368333,-1628.453072,-2911.162892
3284.928311,-9770.718434,-4959.379811,459.657299
3284.928648,-10436.903782,-5033.400406,2757.943793
3284.928985,-8808.450710,-4589.276840,842.705048
3284.929323,-8290.306550,-4589.276840,995.924147
3284.929660,-9474.636058,-3552.988522,1225.752797
3284.929998,-11843.295072,-2442.679609,1685.410096
3284.930335,-12583.501014,1184.329507,2221.676944
3284.930672,-11399.171507,2146.597232,919.314598
3284.931010,-11695.253884,3552.988522,1072.533697
3284.931347,-10881.027347,3034.844362,-1225.752797
3284.931685,-8512.368333,1480.411884,-612.876398
3284.932022,-10807.006753,-1554.432478,2604.724693
3284.932359,-8660.409521,-1924.535449,2604.724693
3284.932697,-7624.121203,-1628.453072,1072.533697
3284.933034,-7624.121203,-666.185348,536.266849
3284.933372,-8882.471304,-518.144159,306.438199
3284.933709,-10288.862594,0.000000,459.657299
3284.934046,-10436.903782,2146.597232,-995.924147
3284.934384,-11251.130318,4663.297435,-1532.190996
3284.934721,-11621.233289,5107.421000,-1685.410096
3284.935059,-10510.924376,2886.803174,-3677.258390
3284.935396,-8290.306550,1480.411884,-2834.553343
3284.935733,-8956.491898,-2146.597232,2221.676944
3284.936071,-9992.780217,-2738.761985,2528.115143
3284.936408,-8216.285956,-3627.009116,1608.800546
3284.936746,-8142.265362,-2664.741391,1225.752797
3284.937083,-9030.512492,-3627.009116,1838.629195
3284.937420,-11843.295072,-1628.453072,2068.457845
3284.937758,-11917.315666,1036.288319,1991.848295
3284.938095,-11103.089130,2812.782580,1149.143247
3284.938433,-11843.295072,4737.318029,459.657299
3284.938770,-11843.295072,3182.885551,-2374.896044
3284.939107,-9844.739029,1998.556043,-3447.429741
3284.939445,-10658.965565,-2738.761985,229.828649
3284.939782,-9178.553681,-4145.153275,1991.848295
3284.940120,-7179.997637,-4145.153275,459.657299
3284.940457,-7920.203579,-4145.153275,612.876398
3284.940794,-8216.285956,-4145.153275,459.657299
3284.941132,-10362.883188,-2590.720797,229.828649
3284.941469,-12213.398043,1406.391290,-229.828649
3284.941807,-12657.521608,2294.638420,-1608.800546
3284.942144,-12583.501014,3034.844362,-1685.410096
3284.942481,-11325.150913,2516.700203,-2681.334243
3284.942819,-8660.409521,444.123565,-2451.505594
3284.943156,-8808.450710,-3330.926739,689.485948
3284.943494,-8290.306550,-4737.318029,2451.505594
3284.943831,-7402.059420,-4737.318029,3907.087040
3284.944168,-8216.285956,-3034.844362,1915.238745
3284.944506,-8216.285956,-2368.659014,3983.696590
3284.944843,-13027.624579,-296.082377,1991.848295
3284.945181,-11991.336260,3256.906145,2221.676944
3284.945518,-11991.336260,5033.400406,766.095498
3284.945855,-12287.418637,5255.462188,0.000000
3284.946193,-11325.150913,6143.709319,-1532.190996
3284.946530,-8586.388927,2590.720797,-1762.019645
3284.946868,-8882.471304,-1184.329507,919.314598
3284.947205,-8586.388927,-2072.576638,3140.991542
3284.947543,-7920.203579,-2220.617826,2298.286494
3284.947880,-7994.224174,-1554.432478,766.095498
3284.948218,-9326.594869,-1924.535449,-536.266849
3284.948555,-10066.800811,-370.102971,-995.924147
3284.948893,-11547.212695,0.000000,-2757.943793
3284.949230,-11399.171507,2516.700203,76.609550
3284.949568,-11473.192101,2516.700203,-612.876398
3284.949905,-10510.924376,1776.494261,-2298.286494
3284.950243,-8438.347739,-222.061783,-2834.553343
3284.950580,-9622.677246,-3997.112087,1532.190996
3284.950918,-9474.636058,-6217.729913,4136.915689
3284.951255,-8216.285956,-5995.668130,2528.115143
3284.951593,-8882.471304,-3627.009116,2145.067394
3284.951930,-10066.800811,-3552.988522,612.876398
3284.952268,-10362.883188,-1924.535449,0.000000
3284.952605,-11843.295072,592.164754,-229.828649
3284.952943,-11991.336260,2664.741391,612.876398
3284.953280,-11917.315666,3552.988522,-306.438199
3284.953618,-11991.336260,2368.659014,-2451.505594
3284.953955,-9474.636058,1702.473667,-2834.553343
3284.954293,-9770.718434,-1554.432478,1302.362347
3284.954631,-10214.842000,-3849.070898,2911.162892
3284.954968,-8142.265362,-3182.885551,919.314598
3284.955306,-8364.327145,-2516.700203,383.047749
3284.955643,-9622.677246,-1924.535449,306.438199
3284.955981,-9918.759623,-1776.494261,-1455.581446
3284.956318,-11251.130318,296.082377,-995.924147
3284.956656,-11399.171507,2664.741391,229.828649
3284.956993,-11547.212695,4071.132681,-383.047749
3284.957331,-11251.130318,4145.153275,-1149.143247
3284.957668,-8512.368333,2516.700203,-2757.943793
3284.958006,-8216.285956,-1850.514855,1838.629195
3284.958343,-9400.615463,-3182.885551,4213.525239
3284.958681,-7846.182985,-1998.556043,3294.210641
3284.959018,-7846.182985,-1258.350101,2451.505594
3284.959356,-9548.656652,-666.185348,536.266849
3284.959693,-10214.842000,-296.082377,842.705048
3284.960031,-11029.068536,2146.597232,842.705048
3284.960368,-11991.336260,4811.338623,1838.629195
3284.960706,-11473.192101,5033.400406,383.047749
3284.961043,-11621.233289,4367.215058,-2451.505594
3284.961381,-9696.697840,2072.576638,-2757.943793
3284.961718,-8808.450710,-740.205942,229.828649
3284.962056,-8956.491898,-2886.803174,1915.238745
3284.962393,-8882.471304,-3478.967927,0.000000
3284.962731,-8290.306550,-2294.638420,-153.219100
3284.963068,-9474.636058,-3330.926739,-1149.143247
3284.963406,-10436.903782,-3108.864956,-842.705048
3284.963743,-11843.295072,-1480.411884,-1762.019645
3284.964081,-11621.233289,1110.308913,1455.581446
3284.964418,-12805.562797,2072.576638,1302.362347
3284.964756,-11547.212695,1110.308913,-1532.190996
3284.965093,-9252.574275,0.000000,-2528.115143
3284.965431,-9844.739029,-1776.494261,2374.896044
3284.965768,-9252.574275,-3552.988522,4366.744339
3284.966106,-9696.697840,-3182.885551,2451.505594
3284.966443,-8364.327145,-2738.761985,1762.019645
3284.966781,-9252.574275,-1998.556043,612.876398
3284.967118,-9252.574275,-1036.288319,842.705048
3284.967456,-11399.171507,1480.411884,842.705048
3284.967793,-12065.356855,2442.679609,1991.848295
3284.968131,-12361.439231,3775.050304,995.924147
3284.968468,-11251.130318,5847.626942,-2145.067394
3284.968806,-9400.615463,3034.844362,-2374.896044
3284.969143,-8660.409521,-592.164754,229.828649
3284.969481,-8956.491898,-2738.761985,2757.943793
3284.969818,-7328.038826,-1850.514855,76.609550
3284.970156,-7772.162391,-1628.453072,-383.047749
3284.970493,-8660.409521,-2368.659014,-612.876398
3284.970831,-9474.636058,-2368.659014,-1302.362347
3284.971168,-11029.068536,518.144159,-689.485948
3284.971506,-11917.315666,2368.659014,766.095498
3284.971843,-11473.192101,2590.720797,766.095498
3284.972181,-12139.377449,3034.844362,-536.266849
3284.972518,-9918.759623,1776.494261,-2528.115143
3284.972856,-9400.615463,-666.185348,689.485948
3284.973193,-9696.697840,-3775.050304,3983.696590
3284.973531,-9178.553681,-3182.885551,2681.334243
3284.973868,-8364.327145,-2368.659014,2068.457845
3284.974206,-9178.553681,-2516.700203,0.000000
3284.974543,-9326.594869,-2368.659014,383.047749
3284.974881,-12139.377449,-592.164754,153.219100
3284.975218,-12879.583391,2368.659014,2528.115143
3284.975556,-11547.212695,2664.741391,-306.438199
3284.975893,-10955.047942,3923.091493,-1762.019645
3284.976231,-10510.924376,814.226536,-3830.477490
3284.976568,-8364.327145,-2072.576638,-1532.190996
3284.976906,-8882.471304,-3923.091493,306.438199
3284.977243,-8068.244768,-4367.215058,1302.362347
3284.977581,-8068.244768,-4071.132681,-1149.143247
3284.977918,-8512.368333,-4293.194464,229.828649
3284.978256,-10732.986159,-3330.926739,-842.705048
3284.978593,-10881.027347,-592.164754,0.000000
3284.978931,-12065.356855,2442.679609,612.876398
3284.979268,-12213.398043,3034.844362,2451.505594
3284.979606,-12583.501014,2960.823768,-612.876398
3284.979944,-10436.903782,2886.803174,-2145.067394
3284.980281,-10140.821405,1406.391290,1762.019645
3284.980619,-9992.780217,-2960.823768,4979.620737
3284.980956,-8956.491898,-1036.288319,3600.648841
3284.981294,-8216.285956,-74.020594,383.047749
3284.981631,-8808.450710,-296.082377,1225.752797
3284.981969,-9844.739029,-1332.370696,2068.457845
3284.982306,-11251.130318,1998.556043,1302.362347
3284.982644,-11917.315666,4293.194464,-306.438199
3284.982981,-11473.192101,4959.379811,-1762.019645
3284.983319,-11547.212695,4811.338623,-3370.820191
3284.983656,-9030.512492,2738.761985,-3983.696590
3284.983994,-6439.791695,-370.102971,-2068.457845
3284.984331,-8438.347739,-3330.926739,1149.143247
3284.984669,-7994.224174,-4071.132681,1915.238745
3284.985006,-7846.182985,-4219.173869,0.000000
3284.985344,-8438.347739,-3923.091493,1072.533697
3284.985681,-10881.027347,-3256.906145,766.095498
3284.986019,-11399.171507,-2146.597232,229.828649
3284.986356,-11695.253884,592.164754,995.924147
3284.986694,-11843.295072,2220.617826,1532.190996
3284.987031,-13027.624579,2368.659014,-229.828649
3284.987369,-10807.006753,1258.350101,-3064.381992
3284.987706,-9400.615463,-148.041188,-1302.362347
3284.988044,-11177.109724,-2886.803174,3064.381992
3284.988381,-9400.615463,-3182.885551,2987.772442
3284.988719,-8660.409521,-1850.514855,766.095498
3284.989056,-8734.430116,-2664.741391,2221.676944
3284.989394,-12065.356855,-2072.576638,1149.143247
3284.989731,-11177.109724,-740.205942,536.266849
3284.990069,-11843.295072,2220.617826,-383.047749
3284.990406,-10584.944971,3034.844362,0.000000
3284.990744,-11769.274478,3034.844362,-1608.800546
3284.991081,-10658.965565,2368.659014,-4366.744339
3284.991419,-8068.244768,296.082377,-2987.772442
3284.991756,-9252.574275,-3330.926739,766.095498
3284.992094,-8364.327145,-3997.112087,2374.896044
3284.992431,-7105.977043,-1924.535449,229.828649
3284.992769,-7328.038826,-2368.659014,1838.629195
3284.993106,-10214.842000,-2294.638420,2068.457845
3284.993444,-10510.924376,-666.185348,1532.190996
3284.993781,-11251.130318,2294.638420,1455.581446
3284.994119,-11991.336260,5847.626942,1455.581446
3284.994456,-12879.583391,5403.503377,-842.705048
3284.994794,-10362.883188,3552.988522,-3447.429741
3284.995131,-8068.244768,1480.411884,-919.314598
3284.995469,-9030.512492,-1184.329507,3064.381992
3284.995806,-8438.347739,-1036.288319,2451.505594
3284.996144,-7402.059420,-1480.411884,-1302.362347
3284.996481,-8586.388927,-666.185348,153.219100
3284.996819,-11029.068536,-1480.411884,-612.876398
3284.997156,-11029.068536,222.061783,-1532.190996
3284.997494,-11769.274478,2294.638420,-1455.581446
3284.997831,-11251.130318,3182.885551,229.828649
3284.998169,-11843.295072,3404.947333,-1608.800546
3284.998506,-10584.944971,370.102971,-3600.648841
3284.998844,-9178.553681,-1554.432478,-2374.896044
3284.999181,-10362.883188,-4737.318029,2145.067394
3284.999519,-9178.553681,-5033.400406,2987.772442
3284.999856,-7698.141797,-4663.297435,612.876398
3285.000194,-7772.162391,-4293.194464,1378.971896
3285.000531,-9844.739029,-4293.194464,1225.752797
3285.000869,-11547.212695,-1998.556043,1072.533697
3285.001206,-11547.212695,1036.288319,2604.724693
3285.001544,-12213.398043,2664.741391,2145.067394
3285.001881,-12583.501014,2960.823768,1149.143247
3285.002219,-10214.842000,1998.556043,-2221.676944
3285.002556,-7624.121203,592.164754,306.438199
3285.002894,-10362.883188,-2146.597232,4136.915689
3285.003231,-9178.553681,-2146.597232,2221.676944
3285.003569,-7402.059420,-962.267725,-383.047749
3285.003906,-8660.409521,-1628.453072,842.705048
3285.004244,-9696.697840,-666.185348,-536.266849
3285.004581,-10214.842000,518.144159,-995.924147
3285.004919,-12139.377449,2812.782580,-689.485948
3285.005257,-11029.068536,4515.256246,-995.924147
3285.005594,-12435.459826,4811.338623,-1532.190996
3285.005932,-10732.986159,1850.514855,-3677.258390
3285.006269,-7476.080014,-740.205942,-1762.019645
3285.006607,-9696.697840,-2664.741391,3140.991542
3285.006944,-8734.430116,-3552.988522,3983.696590
3285.007282,-8068.244768,-2368.659014,1302.362347
3285.007619,-8808.450710,-1924.535449,1838.629195
3285.007957,-10362.883188,-2368.659014,306.438199
3285.008294,-11621.233289,-370.102971,0.000000
3285.008632,-11917.315666,1406.391290,459.657299
3285.008969,-10881.027347,3182.885551,612.876398
3285.009307,-11325.150913,3552.988522,0.000000
3285.009644,-9474.636058,2368.659014,-2987.772442
3285.009982,-8364.327145,-962.267725,-1225.752797
3285.010319,-10732.986159,-3627.009116,2911.162892
3285.010657,-9178.553681,-3923.091493,2604.724693
3285.010994,-8216.285956,-3034.844362,-536.266849
3285.011332,-7994.224174,-3108.864956,0.000000
3285.011669,-9696.697840,-3034.844362,-1149.143247
3285.012007,-10288.862594,-2072.576638,-919.314598
3285.012344,-11103.089130,1406.391290,-1149.143247
3285.012682,-12065.356855,666.185348,76.609550
3285.013019,-13027.624579,2220.617826,-1991.848295
3285.013357,-9474.636058,222.061783,-3524.039291
3285.013694,-9178.553681,-1702.473667,-689.485948
3285.014032,-10807.006753,-3404.947333,4060.306139
3285.014369,-9252.574275,-3849.070898,2681.334243
3285.014707,-8438.347739,-2664.741391,1378.971896
3285.015044,-7994.224174,-2442.679609,1838.629195
3285.015382,-10732.986159,-1258.350101,2145.067394
3285.015719,-12287.418637,444.123565,2068.457845
3285.016057,-11917.315666,3552.988522,1532.190996
3285.016394,-11473.192101,5625.565159,1532.190996
3285.016732,-12361.439231,4959.379811,-612.876398
3285.017069,-10140.821405,4293.194464,-3294.210641
3285.017407,-8142.265362,1776.494261,-383.047749
3285.017744,-9474.636058,-1406.391290,3140.991542
3285.018082,-8438.347739,-2294.638420,3600.648841
3285.018419,-7698.141797,-1036.288319,1378.971896
3285.018757,-8882.471304,-444.123565,842.705048
3285.019094,-8882.471304,-296.082377,-1378.971896
3285.019432,-10436.903782,74.020594,-1838.629195
3285.019769,-11843.295072,1850.514855,-995.924147
3285.020107,-10658.965565,3108.864956,-612.876398
3285.020444,-12139.377449,3478.967927,-1455.581446
3285.020782,-9104.533087,1110.308913,-4596.572988
3285.021119,-8290.306550,-1850.514855,-3064.381992
3285.021457,-10584.944971,-4145.153275,3294.210641
3285.021794,-8660.409521,-5107.421000,4060.306139
3285.022132,-8660.409521,-4145.153275,1685.410096
3285.022469,-8882.471304,-1924.535449,1838.629195
3285.022807,-11547.212695,-2294.638420,0.000000
3285.023144,-11325.150913,-740.205942,229.828649
3285.023482,-12213.398043,1036.288319,689.485948
3285.023819,-12213.398043,1924.535449,2374.896044
3285.024157,-11769.274478,2368.659014,-766.095498
3285.024494,-9474.636058,1184.329507,-3140.991542
3285.024832,-8808.450710,-1480.411884,-1838.629195
3285.025169,-9474.636058,-4071.132681,2681.334243
3285.025507,-9400.615463,-3849.070898,2374.896044
3285.025844,-8586.388927,-2886.803174,229.828649
3285.026182,-8882.471304,-1998.556043,-306.438199
3285.026519,-10214.842000,-1850.514855,-1225.752797
3285.026857,-10658.965565,-1480.411884,-1685.410096
3285.027194,-11621.233289,444.123565,459.657299
3285.027532,-11769.274478,1406.391290,1302.362347
3285.027869,-10510.924376,4293.194464,-766.095498
3285.028207,-9178.553681,1702.473667,-3830.477490
3285.028544,-8808.450710,-740.205942,-1149.143247
3285.028882,-9474.636058,-3182.885551,4519.963438
3285.029219,-8734.430116,-3552.988522,4903.011187
3285.029557,-8438.347739,-1332.370696,2528.115143
3285.029894,-8734.430116,148.041188,689.485948
3285.030232,-11177.109724,740.205942,306.438199
3285.030570,-11769.274478,962.267725,-536.266849
3285.030907,-11547.212695,3775.050304,459.657299
3285.031245,-10955.047942,4071.132681,1608.800546
3285.031582,-11843.295072,5033.400406,-612.876398
3285.031920,-9178.553681,2294.638420,-4136.915689
3285.032257,-8364.327145,0.000000,-2451.505594
3285.032595,-8882.471304,-3256.906145,2911.162892
3285.032932,-9326.594869,-3034.844362,2068.457845
3285.033270,-9104.533087,-2442.679609,-612.876398
3285.033607,-8882.471304,-888.247130,-1685.410096
3285.033945,-8660.409521,-2146.597232,-2834.553343
3285.034282,-10658.965565,-1850.514855,-1915.238745
3285.034620,-11991.336260,-666.185348,842.705048
3285.034957,-11843.295072,1184.329507,1455.581446
3285.035295,-10955.047942,1480.411884,0.000000
3285.035632,-10362.883188,-444.123565,-3753.867940
3285.035970,-8882.471304,-2516.700203,0.000000
3285.036307,-10214.842000,-4885.359217,4443.353888
3285.036645,-9400.615463,-3701.029710,4290.134789
3285.036982,-9104.533087,-2368.659014,1532.190996
3285.037320,-10066.800811,-592.164754,1302.362347
3285.037657,-10658.965565,-592.164754,-459.657299
3285.037995,-10288.862594,666.185348,-459.657299
3285.038332,-11843.295072,1850.514855,1302.362347
3285.038670,-11103.089130,3478.967927,1838.629195
3285.039007,-10658.965565,3627.009116,76.609550
3285.039345,-10214.842000,2072.576638,-3370.820191
3285.039682,-8956.491898,1110.308913,-919.314598
3285.040020,-10066.800811,-3478.967927,2528.115143
3285.040357,-9326.594869,-2442.679609,3447.429741
3285.040695,-7476.080014,-1480.411884,0.000000
3285.041032,-8290.306550,296.082377,0.000000
3285.041370,-9844.739029,-592.164754,-1762.019645
3285.041707,-10807.006753,-296.082377,-1608.800546
3285.042045,-12139.377449,2590.720797,842.705048
3285.042382,-11769.274478,3034.844362,383.047749
3285.042720,-10955.047942,3849.070898,-1302.362347
3285.043057,-8512.368333,1258.350101,-3677.258390
3285.043395,-7772.162391,-1702.473667,306.438199
3285.043732,-9918.759623,-3849.070898,5439.278036
3285.044070,-9474.636058,-3034.844362,4903.011187
3285.044407,-9252.574275,-1776.494261,1685.410096
3285.044745,-10066.800811,-518.144159,536.266849
3285.045082,-9696.697840,-222.061783,-459.657299
3285.045420,-10436.903782,222.061783,-689.485948
3285.045757,-11843.295072,1036.288319,1532.190996
3285.046095,-11399.171507,2294.638420,919.314598
3285.046432,-10362.883188,2886.803174,-1532.190996
3285.046770,-9992.780217,1110.308913,-4366.744339
3285.047107,-9326.594869,-2442.679609,-2681.334243
3285.047445,-9474.636058,-4811.338623,1455.581446
3285.047783,-9178.553681,-4737.318029,1991.848295
3285.048120,-9178.553681,-3849.070898,229.828649
3285.048457,-8734.430116,-2590.720797,-1378.971896
3285.048795,-9918.759623,-2886.803174,-1608.800546
3285.049132,-11325.150913,-1702.473667,-76.609550
3285.049469,-13397.727550,-518.144159,2145.067394
3285.049807,-11251.130318,1554.432478,2145.067394
3285.050144,-10732.986159,1924.535449,0.000000
3285.050482,-9844.739029,1110.308913,-1149.143247
3285.050819,-8734.430116,-888.247130,-459.657299
3285.051156,-10807.006753,-2516.700203,4596.572988
3285.051494,-10066.800811,-3034.844362,3753.867940
3285.051831,-7772.162391,-1110.308913,1991.848295
3285.052168,-8956.491898,814.226536,1685.410096
3285.052506,-9770.718434,1480.411884,-612.876398
3285.052843,-9992.780217,962.267725,-2145.067394
3285.053181,-12065.356855,2368.659014,-306.438199
3285.053518,-10732.986159,4737.318029,919.314598
3285.053855,-10584.944971,4811.338623,-1302.362347
3285.054193,-9474.636058,2368.659014,-2911.162892
3285.054530,-7254.018232,-296.082377,-2757.943793
3285.054867,-9770.718434,-2960.823768,3753.867940
3285.055205,-8882.471304,-3330.926739,3753.867940
3285.055542,-8364.327145,-2220.617826,1532.190996
3285.055880,-9918.759623,-888.247130,153.219100
3285.056217,-10436.903782,148.041188,-1838.629195
3285.056554,-10881.027347,148.041188,-1685.410096
3285.056892,-12287.418637,1036.288319,1378.971896
3285.057229,-11547.212695,1998.556043,2145.067394
3285.057566,-10584.944971,2664.741391,229.828649
3285.057904,-10066.800811,1258.350101,-1991.848295
3285.058241,-9326.594869,-1332.370696,-612.876398
3285.058579,-10362.883188,-3552.988522,3217.601092
3285.058916,-9770.718434,-3404.947333,2681.334243
3285.059253,-8586.388927,-2960.823768,1455.581446
3285.059591,-8882.471304,-1036.288319,459.657299
3285.059928,-9474.636058,-222.061783,-995.924147
3285.060265,-10510.924376,-370.102971,-2145.067394
3285.060603,-12065.356855,518.144159,-536.266849
3285.060940,-10881.027347,1554.432478,0.000000
3285.061278,-9696.697840,2146.597232,-689.485948
3285.061615,-9622.677246,1184.329507,-3753.867940
3285.061952,-8290.306550,-1998.556043,-3140.991542
3285.062290,-9844.739029,-4145.153275,1455.581446
3285.062627,-9474.636058,-4663.297435,3217.601092
3285.062964,-8956.491898,-3627.009116,2451.505594
3285.063302,-8734.430116,-1628.453072,459.657299
3285.063639,-9770.718434,-962.267725,-306.438199
3285.063977,-11547.212695,-444.123565,-689.485948
3285.064314,-12657.521608,888.247130,153.219100
3285.064651,-11473.192101,2590.720797,1608.800546
3285.064989,-10732.986159,4737.318029,383.047749
3285.065326,-10140.821405,2146.597232,-3064.381992
3285.065663,-8956.491898,518.144159,-1225.752797
3285.066001,-9400.615463,-2294.638420,3983.696590
3285.066338,-8882.471304,-2590.720797,5592.497135
3285.066676,-8808.450710,-814.226536,2604.724693
3285.067013,-9992.780217,1184.329507,689.485948
3285.067350,-10214.842000,888.247130,-2068.457845
3285.067688,-10658.965565,740.205942,-2987.772442
3285.068025,-11399.171507,1406.391290,-612.876398
3285.068362,-10658.965565,2590.720797,919.314598
3285.068700,-10140.821405,2738.761985,-1302.362347
3285.069037,-9474.636058,1258.350101,-4596.572988
3285.069375,-8364.327145,-1036.288319,-3983.696590
3285.069712,-9252.574275,-4737.318029,766.095498
3285.070049,-9474.636058,-5477.523971,3370.820191
3285.070387,-8438.347739,-4219.173869,1991.848295
3285.070724,-9252.574275,-1998.556043,919.314598
3285.071061,-10288.862594,-1702.473667,-536.266849
3285.071399,-10881.027347,-1850.514855,-689.485948
3285.071736,-12953.603985,0.000000,2145.067394
3285.072074,-12287.418637,1332.370696,2987.772442
3285.072411,-10807.006753,3108.864956,995.924147
3285.072748,-10807.006753,1702.473667,-1225.752797
3285.073086,-8660.409521,-740.205942,-995.924147
3285.073423,-9474.636058,-2886.803174,1838.629195
3285.073760,-10288.862594,-3256.906145,3983.696590
3285.074098,-9474.636058,-1702.473667,1685.410096
3285.074435,-8364.327145,148.041188,1302.362347
3285.074773,-10584.944971,592.164754,-612.876398
3285.075110,-10214.842000,518.144159,-2221.676944
3285.075447,-11695.253884,592.164754,-1378.971896
3285.075785,-11177.109724,2368.659014,536.266849
3285.076122,-10288.862594,4293.194464,0.000000
3285.076459,-9326.594869,1850.514855,-3294.210641
3285.076797,-7402.059420,148.041188,-2987.772442
3285.077134,-8364.327145,-3404.947333,1378.971896
3285.077472,-9918.759623,-3997.112087,4826.401637
3285.077809,-9030.512492,-2590.720797,2681.334243
3285.078146,-8586.388927,-296.082377,1225.752797
3285.078484,-10362.883188,0.000000,-306.438199
3285.078821,-10955.047942,-296.082377,-1378.971896
3285.079158,-11769.274478,1036.288319,689.485948
3285.079496,-11547.212695,2590.720797,2911.162892
3285.079833,-10658.965565,4145.153275,1762.019645
3285.080171,-10807.006753,2294.638420,-2221.676944
3285.080508,-8882.471304,222.061783,-2757.943793
3285.080845,-9400.615463,-2812.782580,1378.971896
3285.081183,-10658.965565,-3330.926739,4213.525239
3285.081520,-9400.615463,-1924.535449,1532.190996
3285.081857,-8734.430116,-740.205942,76.609550
3285.082195,-10510.924376,-222.061783,-1991.848295
3285.082532,-10362.883188,-666.185348,-3370.820191
3285.082870,-12509.480420,-740.205942,-1225.752797
3285.083207,-11547.212695,296.082377,612.876398
3285.083544,-9844.739029,1924.535449,-153.219100
3285.083882,-10362.883188,1110.308913,-2451.505594
3285.084219,-8068.244768,-1850.514855,-3830.477490
3285.084556,-9326.594869,-4441.235652,766.095498
3285.084894,-10881.027347,-4959.379811,3600.648841
3285.085231,-9178.553681,-3627.009116,1762.019645
3285.085569,-9030.512492,-1332.370696,689.485948
3285.085906,-9918.759623,-740.205942,1072.533697
3285.086243,-10955.047942,-518.144159,76.609550
3285.086581,-11621.233289,444.123565,2068.457845
3285.086918,-10955.047942,2960.823768,2834.553343
3285.087255,-10732.986159,3478.967927,2911.162892
3285.087593,-11029.068536,2960.823768,-1072.533697
3285.087930,-9030.512492,2886.803174,-1991.848295
3285.088268,-9326.594869,-1480.411884,612.876398
3285.088605,-9992.780217,-2072.576638,2834.553343
3285.088942,-8364.327145,-592.164754,995.924147
3285.089280,-8068.244768,444.123565,306.438199
3285.089617,-9844.739029,1332.370696,-1302.362347
3285.089954,-9696.697840,0.000000,-2451.505594
3285.090292,-11177.109724,1036.288319,-1991.848295
3285.090629,-10584.944971,2442.679609,536.266849
3285.090967,-11177.109724,2886.803174,536.266849
3285.091304,-10436.903782,2294.638420,-1378.971896
3285.091641,-8290.306550,0.000000,-3370.820191
3285.091979,-9252.574275,-3182.885551,1302.362347
3285.092316,-10140.821405,-3404.947333,3064.381992
3285.092653,-9474.636058,-3997.112087,2528.115143
3285.092991,-8734.430116,-962.267725,153.219100
3285.093328,-9400.615463,-1184.329507,459.657299
3285.093666,-11325.150913,-1184.329507,306.438199
3285.094003,-11325.150913,74.020594,689.485948
3285.094340,-11621.233289,1406.391290,2221.676944
3285.094678,-11399.171507,2072.576638,2145.067394
3285.095015,-10658.965565,2664.741391,-1302.362347
3285.095352,-7846.182985,518.144159,-2604.724693
3285.095690,-9548.656652,-2442.679609,-766.095498
3285.096027,-9770.718434,-3108.864956,1762.019645
3285.096365,-9696.697840,-2664.741391,-76.609550
3285.096702,-9178.553681,-740.205942,-842.705048
3285.097039,-9918.759623,-1628.453072,-1532.190996
3285.097377,-10658.965565,-1554.432478,-1302.362347
3285.097714,-11621.233289,-1406.391290,-306.438199
3285.098051,-10658.965565,148.041188,1762.019645
3285.098389,-10658.965565,1628.453072,1915.238745
3285.098726,-12139.377449,2664.741391,0.000000
3285.099064,-9178.553681,1480.411884,-1838.629195
3285.099401,-9326.594869,-3034.844362,-306.438199
3285.099738,-9918.759623,-3775.050304,3140.991542
3285.100076,-8364.327145,-3256.906145,2451.505594
3285.100413,-7476.080014,-962.267725,1685.410096
3285.100750,-8512.368333,-666.185348,1149.143247
3285.101088,-10881.027347,-444.123565,689.485948
3285.101425,-11917.315666,1924.535449,1838.629195
3285.101763,-12361.439231,3552.988522,1762.019645
3285.102100,-11547.212695,4737.318029,919.314598
3285.102437,-11103.089130,5107.421000,-2451.505594
3285.102775,-8142.265362,2072.576638,-3983.696590
3285.103112,-7920.203579,-740.205942,-1685.410096
3285.103449,-9252.574275,-2738.761985,766.095498
3285.103787,-8882.471304,-2294.638420,-612.876398
3285.104124,-8290.306550,-1554.432478,-2221.676944
3285.104462,-8882.471304,-2072.576638,-1455.581446
3285.104799,-9548.656652,-2368.659014,-612.876398
3285.105136,-11399.171507,-962.267725,-612.876398
3285.105474,-12065.356855,962.267725,1072.533697
3285.105811,-11621.233289,1332.370696,76.609550
3285.106148,-11843.295072,1998.556043,383.047749
3285.106486,-8956.491898,-592.164754,-1991.848295
3285.106823,-9474.636058,-3108.864956,689.485948
3285.107161,-10288.862594,-4071.132681,4060.306139
3285.107498,-9474.636058,-3701.029710,1915.238745
3285.107835,-9030.512492,-1184.329507,153.219100
3285.108173,-9770.718434,-962.267725,0.000000
3285.108510,-11177.109724,-592.164754,306.438199
3285.108847,-11251.130318,740.205942,766.095498
3285.109185,-11621.233289,1850.514855,3370.820191
3285.109522,-11769.274478,2442.679609,2911.162892
3285.109860,-10732.986159,5033.400406,612.876398
3285.110197,-8882.471304,1036.288319,-3294.210641
3285.110534,-8956.491898,-1036.288319,0.000000
3285.110872,-10288.862594,-888.247130,2374.896044
3285.111209,-8734.430116,-2146.597232,0.000000
3285.111546,-7179.997637,-1036.288319,-1378.971896
3285.111884,-7550.100608,-2072.576638,-1302.362347
3285.112221,-9030.512492,-1332.370696,0.000000
3285.112559,-11547.212695,148.041188,0.000000
3285.112896,-11325.150913,2072.576638,1455.581446
3285.113233,-11843.295072,3775.050304,919.314598
3285.113571,-12139.377449,3775.050304,-383.047749
3285.113908,-8882.471304,1702.473667,-2451.505594
3285.114245,-8660.409521,-814.226536,1532.190996
3285.114583,-9992.780217,-3108.864956,3294.210641
3285.114920,-9030.512492,-1702.473667,2528.115143
3285.115258,-8438.347739,-1184.329507,459.657299
3285.115595,-9548.656652,-888.247130,0.000000
3285.115932,-10362.883188,-1036.288319,-459.657299
3285.116270,-11843.295072,1110.308913,229.828649
3285.116607,-12213.398043,2516.700203,1532.190996
3285.116945,-11103.089130,2516.700203,612.876398
3285.117282,-10584.944971,3256.906145,-459.657299
3285.117619,-9252.574275,444.123565,-3677.258390
3285.117957,-9178.553681,-1850.514855,-1302.362347
3285.118294,-10140.821405,-4293.194464,0.000000
3285.118631,-8142.265362,-4367.215058,-1225.752797
3285.118969,-8142.265362,-3108.864956,-2145.067394
3285.119306,-8808.450710,-3627.009116,-689.485948
3285.119644,-10066.800811,-3627.009116,-1149.143247
3285.119981,-11399.171507,-1850.514855,-229.828649
3285.120318,-12213.398043,370.102971,2068.457845
3285.120656,-11769.274478,814.226536,2911.162892
3285.120993,-12287.418637,888.247130,1838.629195
3285.121330,-9844.739029,1110.308913,383.047749
3285.121668,-9474.636058,-1702.473667,1532.190996
3285.122005,-10288.862594,-2220.617826,3907.087040
3285.122343,-9770.718434,-2072.576638,1838.629195
3285.122680,-7698.141797,-1628.453072,76.609550
3285.123017,-8216.285956,-888.247130,1225.752797
3285.123355,-10362.883188,-74.020594,612.876398
3285.123692,-10881.027347,1850.514855,0.000000
3285.124029,-12731.542202,3997.112087,766.095498
3285.124367,-11695.253884,3923.091493,689.485948
3285.124704,-11029.068536,3923.091493,-1532.190996
3285.125042,-8660.409521,3108.864956,-1838.629195
3285.125379,-7254.018232,-962.267725,-459.657299
3285.125716,-9696.697840,-2960.823768,2145.067394
3285.126054,-8216.285956,-3108.864956,383.047749
3285.126391,-7476.080014,-2664.741391,-689.485948
3285.126728,-8438.347739,-2516.700203,-306.438199
3285.127066,-9474.636058,-2738.761985,-766.095498
3285.127403,-10584.944971,-740.205942,-842.705048
3285.127741,-11251.130318,888.247130,919.314598
3285.128078,-11843.295072,2368.659014,2757.943793
3285.128415,-11843.295072,2368.659014,536.266849
3285.128753,-10066.800811,962.267725,0.000000
3285.129090,-10066.800811,-444.123565,1072.533697
3285.129427,-10658.965565,-3034.844362,2681.334243
3285.129765,-9030.512492,-2738.761985,2298.286494
3285.130102,-9178.553681,-2590.720797,153.219100
3285.130440,-9030.512492,-1480.411884,153.219100
3285.130777,-10288.862594,-370.102971,-2221.676944
3285.131114,-11547.212695,1110.308913,-995.924147
3285.131452,-12657.521608,1554.432478,0.000000
3285.131789,-10881.027347,2516.700203,995.924147
3285.132126,-11177.109724,2072.576638,229.828649
3285.132464,-9474.636058,2368.659014,-1378.971896
3285.132801,-9326.594869,-962.267725,-612.876398
3285.133139,-9474.636058,-3330.926739,1149.143247
3285.133476,-8364.327145,-3330.926739,-306.438199
3285.133813,-7698.141797,-2738.761985,-612.876398
3285.134151,-7846.182985,-3034.844362,0.000000
3285.134488,-8956.491898,-2146.597232,0.000000
3285.134825,-10732.986159,0.000000,459.657299
3285.135163,-12731.542202,1628.453072,1378.971896
3285.135500,-12361.439231,3997.112087,2221.676944
3285.135838,-12287.418637,3997.112087,1838.629195
3285.136175,-10214.842000,3256.906145,229.828649
3285.136512,-8586.388927,1184.329507,995.924147
3285.136850,-9844.739029,-962.267725,3600.648841
3285.137187,-8660.409521,-1924.535449,2374.896044
3285.137524,-8364.327145,-592.164754,459.657299
3285.137862,-9178.553681,148.041188,306.438199
3285.138199,-10436.903782,-370.102971,-1302.362347
3285.138537,-10955.047942,888.247130,-2221.676944
3285.138874,-11917.315666,2664.741391,-766.095498
3285.139211,-10658.965565,3182.885551,-306.438199
3285.139549,-10436.903782,2442.679609,-2145.067394
3285.139886,-9844.739029,1406.391290,-2757.943793
3285.140223,-9178.553681,-1998.556043,-1378.971896
3285.140561,-9992.780217,-4293.194464,1149.143247
3285.140898,-8142.265362,-5551.544565,766.095498
3285.141236,-7772.162391,-4737.318029,-1225.752797
3285.141573,-8364.327145,-4071.132681,-1378.971896
3285.141910,-9548.656652,-3330.926739,-1762.019645
3285.142248,-11029.068536,-1184.329507,-612.876398
3285.142585,-11769.274478,666.185348,1072.533697
3285.142922,-12435.459826,1628.453072,2298.286494
3285.143260,-12213.398043,2294.638420,612.876398
3285.143597,-11029.068536,1110.308913,612.876398
3285.143935,-9622.677246,-962.267725,1991.848295
3285.144272,-9548.656652,-2516.700203,2757.943793
3285.144609,-9474.636058,-3034.844362,2757.943793
3285.144947,-8882.471304,-1406.391290,76.609550
3285.145284,-8142.265362,-1258.350101,-612.876398
3285.145621,-9844.739029,296.082377,-612.876398
3285.145959,-10140.821405,814.226536,-2451.505594
3285.146296,-12657.521608,2368.659014,-1149.143247
3285.146634,-12361.439231,2516.700203,0.000000
3285.146971,-11029.068536,4441.235652,766.095498
3285.147308,-10288.862594,1924.535449,-1455.581446
3285.147646,-8734.430116,-740.205942,-306.438199
3285.147983,-9104.533087,-2220.617826,3217.601092
3285.148320,-8438.347739,-4071.132681,3064.381992
3285.148658,-7698.141797,-2738.761985,1532.190996
3285.148995,-8734.430116,-2220.617826,76.609550
3285.149333,-10214.842000,-888.247130,-153.219100
3285.149670,-10288.862594,-592.164754,-1762.019645
3285.150008,-11695.253884,1776.494261,842.705048
3285.150345,-11399.171507,3701.029710,2451.505594
3285.150683,-11103.089130,3108.864956,1532.190996
3285.151020,-11103.089130,2072.576638,76.609550
3285.151358,-8586.388927,-222.061783,0.000000
3285.151695,-10140.821405,-1776.494261,2374.896044
3285.152033,-9326.594869,-3478.967927,1608.800546
3285.152370,-8512.368333,-2146.597232,-459.657299
3285.152708,-8660.409521,-2146.597232,-229.828649
3285.153045,-9918.759623,-1110.308913,-2068.457845
3285.153383,-9992.780217,-518.144159,-3753.867940
3285.153720,-11917.315666,0.000000,-2757.943793
3285.154058,-11325.150913,148.041188,-229.828649
3285.154395,-10807.006753,222.061783,-306.438199
3285.154733,-11029.068536,222.061783,76.609550
3285.155070,-9696.697840,-1702.473667,0.000000
3285.155408,-10288.862594,-3997.112087,2528.115143
3285.155745,-8808.450710,-4219.173869,2145.067394
3285.156083,-7476.080014,-3849.070898,229.828649
3285.156420,-9474.636058,-3034.844362,995.924147
3285.156757,-9696.697840,-2294.638420,229.828649
3285.157095,-10362.883188,-592.164754,-1608.800546
3285.157432,-12213.398043,2072.576638,919.314598
3285.157770,-12583.501014,3552.988522,2604.724693
3285.158107,-11325.150913,3108.864956,1608.800546
3285.158445,-10807.006753,3108.864956,-459.657299
3285.158782,-9104.533087,2812.782580,1072.533697
3285.159120,-10362.883188,-1258.350101,2221.676944
3285.159457,-9770.718434,-2294.638420,2681.334243
3285.159795,-7254.018232,-740.205942,-919.314598
3285.160132,-7698.141797,0.000000,-919.314598
3285.160470,-8734.430116,148.041188,-1991.848295
3285.160807,-9030.512492,666.185348,-2834.553343
3285.161145,-11177.109724,2516.700203,-1532.190996
3285.161482,-11473.192101,2516.700203,-306.438199
3285.161820,-11843.295072,2812.782580,229.828649
3285.162157,-11251.130318,2368.659014,-306.438199
3285.162495,-8734.430116,0.000000,0.000000
3285.162832,-8882.471304,-3182.885551,3524.039291
3285.163170,-8290.306550,-3701.029710,2145.067394
3285.163507,-9474.636058,-2516.700203,1149.143247
3285.163845,-9844.739029,-1998.556043,0.000000
3285.164182,-10214.842000,-1554.432478,-1378.971896
3285.164520,-10362.883188,-296.082377,-1378.971896
3285.164857,-11843.295072,592.164754,459.657299
3285.165195,-11251.130318,2220.617826,1991.848295
3285.165532,-11547.212695,1554.432478,1532.190996
3285.165869,-10436.903782,1776.494261,0.000000
3285.166207,-9030.512492,296.082377,153.219100
3285.166544,-11251.130318,-3034.844362,2068.457845
3285.166882,-9474.636058,-3256.906145,1532.190996
3285.167219,-8364.327145,-2886.803174,-306.438199
3285.167557,-8438.347739,-1628.453072,0.000000
3285.167894,-9400.615463,-2368.659014,-2145.067394
3285.168232,-9770.718434,-1480.411884,-2145.067394
3285.168569,-10807.006753,-222.061783,-1455.581446
3285.168907,-11325.150913,888.247130,1532.190996
3285.169244,-12361.439231,1332.370696,1225.752797
3285.169582,-11251.130318,1554.432478,-689.485948
3285.169919,-8438.347739,0.000000,-306.438199
3285.170257,-9030.512492,-3182.885551,2451.505594
3285.170594,-9252.574275,-2886.803174,4596.572988
3285.170932,-8808.450710,-2072.576638,1838.629195
3285.171269,-8956.491898,-518.144159,1455.581446
3285.171607,-10140.821405,0.000000,-306.438199
3285.171944,-10362.883188,962.267725,-995.924147
3285.172282,-11621.233289,2590.720797,383.047749
3285.172619,-12509.480420,3034.844362,1838.629195
3285.172957,-10584.944971,4811.338623,612.876398
3285.173294,-10436.903782,2960.823768,-1608.800546
3285.173632,-8438.347739,592.164754,-612.876398
3285.173969,-8660.409521,-2072.576638,1762.019645
3285.174307,-9622.677246,-2516.700203,2068.457845
3285.174644,-8956.491898,-1998.556043,-1225.752797
3285.174981,-8290.306550,-1554.432478,-2145.067394
3285.175319,-8956.491898,-2664.741391,-2374.896044
3285.175656,-8586.388927,-3108.864956,-2757.943793
3285.175994,-10732.986159,-1924.535449,-1302.362347
3285.176331,-11621.233289,518.144159,2145.067394
3285.176669,-11473.192101,222.061783,766.095498
3285.177006,-11843.295072,370.102971,-766.095498
3285.177344,-8586.388927,-1406.391290,-1838.629195
3285.177681,-10140.821405,-3849.070898,1838.629195
3285.178019,-10658.965565,-4515.256246,3064.381992
3285.178356,-9548.656652,-3701.029710,2068.457845
3285.178694,-8290.306550,-1702.473667,-153.219100
3285.179031,-10658.965565,-1776.494261,-383.047749
3285.179369,-11399.171507,-740.205942,76.609550
3285.179706,-11325.150913,518.144159,536.266849
3285.180044,-12583.501014,2072.576638,3294.210641
3285.180381,-11917.315666,3478.967927,2068.457845
3285.180719,-10955.047942,3923.091493,-1225.752797
3285.181056,-9474.636058,740.205942,-3294.210641
3285.181394,-10140.821405,-518.144159,1532.190996
3285.181731,-9548.656652,-1850.514855,2451.505594
3285.182069,-7550.100608,-2590.720797,0.000000
3285.182406,-6069.688724,-666.185348,-383.047749
3285.182744,-9178.553681,-1628.453072,-842.705048
3285.183081,-9474.636058,-1036.288319,-1378.971896
3285.183419,-10955.047942,1036.288319,-1149.143247
3285.183756,-11399.171507,2812.782580,1991.848295
3285.184094,-11103.089130,4071.132681,689.485948
3285.184431,-10510.924376,3034.844362,-995.924147
3285.184768,-7476.080014,1258.350101,-995.924147
3285.185106,-9104.533087,-1850.514855,3140.991542
3285.185443,-10510.924376,-2442.679609,4673.182538
3285.185781,-8882.471304,-370.102971,1838.629195
3285.186118,-9030.512492,222.061783,1455.581446
3285.186456,-10510.924376,-296.082377,-383.047749
3285.186793,-10140.821405,518.144159,-1149.143247
3285.187131,-12213.398043,2368.659014,766.095498
3285.187468,-12139.377449,2960.823768,1915.238745
3285.187806,-11029.068536,3256.906145,-612.876398
3285.188143,-10140.821405,2590.720797,-2221.676944
3285.188481,-8882.471304,-592.164754,-2911.162892
3285.188818,-9844.739029,-3330.926739,766.095498
3285.189156,-9844.739029,-3849.070898,1072.533697
3285.189493,-8364.327145,-3256.906145,-842.705048
3285.189831,-8142.265362,-2442.679609,-1685.410096
3285.190168,-9474.636058,-3034.844362,-1149.143247
3285.190506,-11177.109724,-2960.823768,-766.095498
3285.190843,-11843.295072,-1480.411884,76.609550
3285.191181,-11325.150913,0.000000,2451.505594
3285.191518,-11029.068536,888.247130,2298.286494
3285.191856,-10510.924376,592.164754,0.000000
3285.192193,-9030.512492,-666.185348,-612.876398
3285.192531,-10140.821405,-2812.782580,2451.505594
3285.192868,-10214.842000,-2072.576638,4136.915689
3285.193206,-9252.574275,-1924.535449,1455.581446
3285.193543,-8216.285956,74.020594,612.876398
3285.193880,-9770.718434,-444.123565,536.266849
3285.194218,-10510.924376,148.041188,-536.266849
3285.194555,-10807.006753,1628.453072,842.705048
3285.194893,-12657.521608,3034.844362,2145.067394
3285.195230,-11029.068536,5033.400406,0.000000
3285.195568,-10214.842000,3256.906145,-3524.039291
3285.195905,-8438.347739,1406.391290,-3064.381992
3285.196243,-8734.430116,-2072.576638,76.609550
3285.196580,-9252.574275,-2442.679609,2145.067394
3285.196918,-8438.347739,-2738.761985,0.000000
3285.197255,-8142.265362,-1480.411884,-383.047749
3285.197593,-9622.677246,-1480.411884,-1149.143247
3285.197930,-10881.027347,-1554.432478,-1149.143247
3285.198268,-11917.315666,0.000000,536.266849
3285.198605,-11695.253884,592.164754,919.314598
3285.198943,-11399.171507,1924.535449,1608.800546
3285.199280,-10881.027347,740.205942,-689.485948
3285.199618,-7994.224174,-962.267725,-842.705048
3285.199955,-9178.553681,-2886.803174,1302.362347
3285.200293,-10510.924376,-3627.009116,2374.896044
3285.200630,-9992.780217,-2590.720797,1455.581446
3285.200968,-8808.450710,-1776.494261,-229.828649
3285.201305,-9252.574275,-1110.308913,459.657299
3285.201643,-11103.089130,-740.205942,0.000000
3285.201980,-12657.521608,296.082377,1225.752797
3285.202318,-12139.377449,1776.494261,1302.362347
3285.202655,-10807.006753,1924.535449,919.314598
3285.202992,-10584.944971,1702.473667,-1378.971896
3285.203330,-8512.368333,-444.123565,-2757.943793
3285.203667,-9696.697840,-2886.803174,-766.095498
3285.204005,-9548.656652,-3404.947333,1072.533697
3285.204342,-8290.306550,-2738.761985,459.657299
3285.204680,-7624.121203,-1258.350101,0.000000
3285.205017,-9474.636058,-1554.432478,306.438199
3285.205355,-11103.089130,-666.185348,766.095498
3285.205692,-12361.439231,740.205942,1915.238745
3285.206030,-11843.295072,2442.679609,2374.896044
3285.206367,-10807.006753,3256.906145,995.924147
3285.206705,-10584.944971,3330.926739,536.266849
3285.207042,-8512.368333,2072.576638,0.000000
3285.207380,-8290.306550,-1258.350101,1915.238745
3285.207717,-9474.636058,-1110.308913,4213.525239
3285.208055,-9178.553681,-296.082377,1838.629195
3285.208392,-8586.388927,1554.432478,612.876398
3285.208730,-9992.780217,1776.494261,-1608.800546
3285.209067,-10510.924376,1628.453072,-1685.410096
3285.209405,-12287.418637,1184.329507,0.000000
3285.209742,-10807.006753,2368.659014,0.000000
3285.210080,-10362.883188,2738.761985,153.219100
3285.210417,-10436.903782,1184.329507,-1838.629195
3285.210755,-7624.121203,-740.205942,-3217.601092
3285.211092,-9104.533087,-3627.009116,-383.047749
3285.211430,-10066.800811,-4145.153275,1762.019645
3285.211767,-8956.491898,-3182.885551,-1072.533697
3285.212105,-9326.594869,-2812.782580,-612.876398
3285.212442,-9400.615463,-1776.494261,-1225.752797
3285.212779,-10732.986159,-2368.659014,-842.705048
3285.213117,-12509.480420,-444.123565,766.095498
3285.213454,-11695.253884,888.247130,1762.019645
3285.213792,-11325.150913,814.226536,2451.505594
3285.214129,-11029.068536,1628.453072,0.000000
3285.214467,-8290.306550,-740.205942,-995.924147
3285.214804,-10214.842000,-2220.617826,2528.115143
3285.215142,-10436.903782,-2442.679609,3447.429741
3285.215479,-9474.636058,-1110.308913,536.266849
3285.215817,-9474.636058,444.123565,-76.609550
3285.216154,-9844.739029,666.185348,-1149.143247
3285.216492,-10436.903782,518.144159,0.000000
3285.216829,-12287.418637,814.226536,459.657299
3285.217167,-10658.965565,2812.782580,842.705048
3285.217504,-10362.883188,3849.070898,766.095498
3285.217842,-10288.862594,2220.617826,-1455.581446
3285.218179,-7698.141797,-148.041188,-3140.991542
3285.218517,-7994.224174,-2072.576638,919.314598
3285.218854,-9474.636058,-2664.741391,4060.306139
3285.219192,-8438.347739,-2368.659014,1762.019645
3285.219529,-8586.388927,296.082377,459.657299
3285.219867,-10066.800811,0.000000,-536.266849
3285.220204,-11399.171507,148.041188,383.047749
3285.220542,-11843.295072,740.205942,1149.143247
3285.220879,-10881.027347,2590.720797,2451.505594
3285.221217,-10288.862594,3034.844362,2145.067394
3285.221554,-10955.047942,2294.638420,-536.266849
3285.221891,-8216.285956,148.041188,-2221.676944
3285.222229,-8882.471304,-2220.617826,229.828649
3285.222566,-9770.718434,-2812.782580,2451.505594
3285.222904,-10288.862594,-1480.411884,536.266849
3285.223241,-9326.594869,-1258.350101,-919.314598
3285.223579,-9548.656652,-370.102971,-995.924147
3285.223916,-10066.800811,-1036.288319,-1378.971896
3285.224254,-12583.501014,-222.061783,-383.047749
3285.224591,-12213.398043,0.000000,919.314598
3285.224929,-10658.965565,962.267725,306.438199
3285.225266,-9844.739029,-370.102971,-2374.896044
3285.225604,-8290.306550,-2220.617826,-2757.943793
3285.225941,-9326.594869,-4589.276840,-536.266849
3285.226279,-10658.965565,-5033.400406,2528.115143
3285.226616,-9252.574275,-3849.070898,1455.581446
3285.226954,-8734.430116,-1924.535449,0.000000
3285.227291,-10510.924376,-148.041188,612.876398
3285.227629,-11843.295072,-740.205942,842.705048
3285.227966,-12139.377449,0.000000,2528.115143
3285.228304,-10510.924376,2368.659014,3524.039291
3285.228641,-10732.986159,2368.659014,3140.991542
3285.228979,-11769.274478,3108.864956,-306.438199
3285.229316,-9474.636058,1776.494261,-612.876398
3285.229654,-8734.430116,-1258.350101,0.000000
3285.229991,-9252.574275,-1776.494261,2681.334243
3285.230329,-8586.388927,-370.102971,1302.362347
3285.230666,-8216.285956,1258.350101,536.266849
3285.231003,-9400.615463,1110.308913,-1455.581446
3285.231341,-10066.800811,1924.535449,-2604.724693
3285.231678,-12435.459826,1850.514855,-1838.629195
3285.232016,-11103.089130,1776.494261,76.609550
3285.232353,-9326.594869,2664.741391,0.000000
3285.232691,-9474.636058,1702.473667,0.000000
3285.233028,-7772.162391,74.020594,-2374.896044
3285.233366,-8734.430116,-3923.091493,-766.095498
3285.233703,-9844.739029,-3923.091493,2528.115143
3285.234041,-9770.718434,-3034.844362,919.314598
3285.234378,-9696.697840,-962.267725,76.609550
3285.234716,-10066.800811,0.000000,-383.047749
3285.235053,-9844.739029,-74.020594,-76.609550
3285.235391,-13027.624579,-740.205942,1838.629195
3285.235728,-11991.336260,962.267725,1608.800546
3285.236066,-10584.944971,2590.720797,1838.629195
3285.236403,-11917.315666,814.226536,-612.876398
3285.236741,-8660.409521,0.000000,-2757.943793
3285.237078,-8956.491898,-3108.864956,-612.876398
3285.237416,-10066.800811,-4515.256246,2068.457845
3285.237753,-8734.430116,-2886.803174,383.047749
3285.238091,-9030.512492,-1036.288319,-536.266849
3285.238428,-10288.862594,370.102971,-1072.533697
3285.238766,-10955.047942,-1036.288319,-2145.067394
3285.239103,-12361.439231,222.061783,-383.047749
3285.239441,-11399.171507,0.000000,1762.019645
3285.239778,-9474.636058,1332.370696,1762.019645
3285.240116,-10362.883188,2146.597232,-459.657299
3285.240453,-8660.409521,-296.082377,-1532.190996
3285.240790,-8808.450710,-3182.885551,459.657299
3285.241128,-9918.759623,-3108.864956,4596.572988
3285.241465,-9252.574275,-1776.494261,3447.429741
3285.241803,-8882.471304,444.123565,1302.362347
3285.242140,-9992.780217,1406.391290,1072.533697
3285.242478,-10881.027347,2516.700203,459.657299
3285.242815,-11843.295072,1998.556043,1302.362347
3285.243153,-11695.253884,3775.050304,2987.772442
3285.243490,-10807.006753,3923.091493,2374.896044
3285.243828,-9770.718434,3552.988522,0.000000
3285.244165,-8216.285956,1332.370696,-2987.772442
3285.244503,-7772.162391,-1702.473667,0.000000
3285.244840,-9104.533087,-2960.823768,2298.286494
3285.245178,-9104.533087,-2220.617826,306.438199
3285.245515,-9696.697840,-74.020594,-1302.362347
3285.245853,-9548.656652,148.041188,-3447.429741
3285.246190,-9474.636058,-444.123565,-3524.039291
3285.246528,-11917.315666,-2220.617826,-1915.238745
3285.246865,-11029.068536,370.102971,2068.457845
3285.247203,-10584.944971,592.164754,2451.505594
3285.247540,-11695.253884,-740.205942,-383.047749
3285.247878,-8512.368333,-2516.700203,-3140.991542
3285.248215,-9474.636058,-5477.523971,-919.314598
3285.248553,-10658.965565,-5699.585753,4136.915689
3285.248890,-9178.553681,-3849.070898,2068.457845
3285.249228,-9622.677246,-1258.350101,306.438199
3285.249565,-10362.883188,222.061783,-1532.190996
3285.249902,-11547.212695,0.000000,-766.095498
3285.250240,-12953.603985,-444.123565,1915.238745
3285.250577,-11399.171507,1036.288319,3370.820191
3285.250915,-9770.718434,2812.782580,1915.238745
3285.251252,-10955.047942,3330.926739,0.000000
3285.251589,-9252.574275,518.144159,-3064.381992
3285.251927,-8586.388927,-2146.597232,-1302.362347
3285.252264,-9548.656652,-3108.864956,2145.067394
3285.252602,-9104.533087,-1332.370696,995.924147
3285.252939,-9474.636058,888.247130,-919.314598
3285.253276,-9696.697840,1184.329507,-2221.676944
3285.253614,-8660.409521,0.000000,-2451.505594
3285.253951,-10881.027347,888.247130,76.609550
3285.254288,-11029.068536,1702.473667,2451.505594
3285.254626,-10066.800811,2146.597232,2451.505594
3285.254963,-10584.944971,2738.761985,0.000000
3285.255301,-7920.203579,0.000000,-2451.505594
3285.255638,-7624.121203,-1998.556043,0.000000
3285.255975,-9548.656652,-3478.967927,4213.525239
3285.256313,-9252.574275,-1406.391290,2987.772442
3285.256650,-9548.656652,444.123565,536.266849
3285.256988,-10807.006753,2220.617826,-766.095498
3285.257325,-10732.986159,1480.411884,-689.485948
3285.257662,-12731.542202,1184.329507,0.000000
3285.258000,-11991.336260,1924.535449,2298.286494
3285.258337,-10066.800811,2294.638420,1608.800546
3285.258675,-10436.903782,1924.535449,0.000000
3285.259012,-9104.533087,0.000000,-2834.553343
3285.259349,-9326.594869,-3478.967927,-1455.581446
3285.259687,-10658.965565,-4589.276840,995.924147
3285.260024,-10214.842000,-2812.782580,306.438199
3285.260362,-9178.553681,-1850.514855,-842.705048
3285.260699,-9400.615463,-1184.329507,-2221.676944
3285.261036,-9918.759623,-1702.473667,-2068.457845
3285.261374,-11991.336260,-1628.453072,383.047749
3285.261711,-11547.212695,-296.082377,2757.943793
3285.262048,-10584.944971,222.061783,3294.210641
3285.262386,-11251.130318,1036.288319,2068.457845
3285.262723,-9474.636058,0.000000,-1149.143247
3285.263061,-8512.368333,-2294.638420,0.000000
3285.263398,-10140.821405,-3034.844362,2681.334243
3285.263735,-9474.636058,-1406.391290,2298.286494
3285.264073,-9548.656652,518.144159,229.828649
3285.264410,-9770.718434,2664.741391,-995.924147
3285.264748,-10066.800811,1406.391290,-995.924147
3285.265085,-11103.089130,1628.453072,689.485948
3285.265422,-11251.130318,2664.741391,2145.067394
3285.265760,-9252.574275,3701.029710,2068.457845
3285.266097,-9696.697840,3108.864956,229.828649
3285.266435,-8808.450710,1184.329507,-1685.410096
3285.266772,-7846.182985,-888.247130,-1149.143247
3285.267109,-9992.780217,-2516.700203,1762.019645
3285.267447,-9104.533087,-1554.432478,153.219100
3285.267784,-8734.430116,-1406.391290,-306.438199
3285.268122,-9770.718434,0.000000,-1915.238745
3285.268459,-8586.388927,-370.102971,-2451.505594
3285.268796,-11177.109724,-1036.288319,-306.438199
3285.269134,-11621.233289,296.082377,2145.067394
3285.269471,-11103.089130,296.082377,2834.553343
3285.269808,-11917.315666,1924.535449,1225.752797
3285.270146,-9918.759623,-888.247130,-995.924147
3285.270483,-8660.409521,-3701.029710,-383.047749
3285.270821,-10362.883188,-4811.338623,3140.991542
3285.271158,-10140.821405,-3034.844362,2987.772442
3285.271495,-9474.636058,-1702.473667,76.609550
3285.271833,-9622.677246,-296.082377,-1915.238745
3285.272170,-10436.903782,-592.164754,-1608.800546
3285.272508,-11621.233289,74.020594,153.219100
3285.272845,-11917.315666,-74.020594,2374.896044
3285.273182,-10436.903782,444.123565,1685.410096
3285.273520,-10362.883188,888.247130,229.828649
3285.273857,-9474.636058,-296.082377,-2145.067394
3285.274195,-8290.306550,-1628.453072,-2451.505594
3285.274532,-9622.677246,-3849.070898,76.609550
3285.274869,-9548.656652,-2590.720797,612.876398
3285.275207,-8438.347739,-1702.473667,-1838.629195
3285.275544,-9178.553681,814.226536,-1915.238745
3285.275882,-10436.903782,-370.102971,-919.314598
3285.276219,-11325.150913,148.041188,919.314598
3285.276556,-11473.192101,444.123565,3447.429741
3285.276894,-10584.944971,1924.535449,4366.744339
3285.277231,-11547.212695,3108.864956,2911.162892
3285.277568,-9918.759623,2072.576638,612.876398
3285.277906,-8068.244768,-666.185348,919.314598
3285.278243,-9474.636058,-1850.514855,2681.334243
3285.278581,-9548.656652,0.000000,1762.019645
3285.278918,-9770.718434,814.226536,-459.657299
3285.279255,-8882.471304,2368.659014,-1685.410096
3285.279593,-8438.347739,1332.370696,-2068.457845
3285.279930,-10807.006753,1258.350101,-612.876398
3285.280268,-11695.253884,1258.350101,1072.533697
3285.280605,-10807.006753,1702.473667,1455.581446
3285.280942,-11103.089130,1924.535449,1378.971896
3285.281280,-9030.512492,0.000000,-2145.067394
3285.281617,-7550.100608,-2072.576638,-2451.505594
3285.281955,-9844.739029,-4515.256246,229.828649
3285.282292,-9696.697840,-3701.029710,383.047749
3285.282629,-9474.636058,-2516.700203,-689.485948
3285.282967,-10140.821405,-1110.308913,-1225.752797
3285.283304,-10066.800811,-1924.535449,-2451.505594
3285.283642,-11399.171507,-2146.597232,-306.438199
3285.283979,-12805.562797,-444.123565,3140.991542
3285.284316,-11399.171507,518.144159,4213.525239
3285.284654,-11695.253884,814.226536,2834.553343
3285.284991,-10584.944971,740.205942,383.047749
3285.285328,-8364.327145,-814.226536,-612.876398
3285.285666,-10436.903782,-2368.659014,1455.581446
3285.286003,-9992.780217,-2294.638420,1149.143247
3285.286341,-9030.512492,-814.226536,-1762.019645
3285.286678,-8438.347739,814.226536,-1532.190996
3285.287015,-9178.553681,0.000000,-1225.752797
3285.287353,-10066.800811,592.164754,229.828649
3285.287690,-11251.130318,814.226536,1302.362347
3285.288028,-10140.821405,1406.391290,919.314598
3285.288365,-11621.233289,3034.844362,1532.190996
3285.288702,-9622.677246,1406.391290,-1378.971896
3285.289040,-6883.915261,-1110.308913,-3064.381992
3285.289377,-9474.636058,-2590.720797,1455.581446
3285.289715,-9474.636058,-2368.659014,1455.581446
3285.290052,-8808.450710,-1110.308913,-459.657299
3285.290389,-8364.327145,74.020594,-1762.019645
3285.290727,-9548.656652,74.020594,-1302.362347
3285.291064,-11029.068536,0.000000,0.000000
3285.291402,-12805.562797,1406.391290,2145.067394
3285.291739,-11843.295072,2812.782580,2451.505594
3285.292076,-11251.130318,2294.638420,2298.286494
3285.292414,-9918.759623,2516.700203,0.000000
3285.292751,-8142.265362,0.000000,76.609550
3285.293088,-10214.842000,-2368.659014,1838.629195
3285.293426,-10436.903782,-2442.679609,1072.533697
3285.293763,-10288.862594,-1332.370696,-689.485948
3285.294101,-8512.368333,-444.123565,-2298.286494
3285.294438,-8882.471304,-1184.329507,-1072.533697
3285.294775,-10584.944971,-1554.432478,-919.314598
3285.295113,-11843.295072,296.082377,153.219100
3285.295450,-11843.295072,0.000000,1149.143247
3285.295788,-11399.171507,814.226536,1915.238745
3285.296125,-9918.759623,-666.185348,-995.924147
3285.296462,-7772.162391,-2516.700203,-1685.410096
3285.296800,-9548.656652,-3923.091493,153.219100
3285.297137,-9844.739029,-3478.967927,1608.800546
3285.297475,-9474.636058,-3182.885551,-612.876398
3285.297812,-8882.471304,-1998.556043,-1302.362347
3285.298149,-10066.800811,-1702.473667,-229.828649
3285.298487,-11547.212695,-740.205942,1532.190996
3285.298824,-12583.501014,1184.329507,4213.525239
3285.299162,-11251.130318,3034.844362,3753.867940
3285.299499,-11029.068536,3256.906145,3064.381992
3285.299836,-10807.006753,2664.741391,153.219100
3285.300174,-9400.615463,2812.782580,0.000000
3285.300511,-10214.842000,-888.247130,766.095498
3285.300848,-9992.780217,-592.164754,766.095498
3285.301186,-7624.121203,-888.247130,-1685.410096
3285.301523,-7476.080014,0.000000,-689.485948
3285.301861,-8586.388927,-666.185348,-1302.362347
3285.302198,-10066.800811,888.247130,-1991.848295
3285.302535,-12065.356855,1776.494261,-689.485948
3285.302873,-12583.501014,2738.761985,-766.095498
3285.303210,-10436.903782,1702.473667,306.438199
3285.303548,-9252.574275,1332.370696,-383.047749
3285.303885,-6365.771101,-740.205942,-1225.752797
3285.304222,-9548.656652,-3701.029710,1072.533697
3285.304560,-9622.677246,-4737.318029,2068.457845
3285.304897,-9030.512492,-4737.318029,153.219100
3285.305235,-9326.594869,-2960.823768,689.485948
3285.305572,-10584.944971,-1850.514855,-383.047749
3285.305909,-9918.759623,-740.205942,-306.438199
3285.306247,-12287.418637,0.000000,1455.581446
3285.306584,-12361.439231,2220.617826,2911.162892
3285.306922,-11177.109724,2738.761985,1838.629195
3285.307259,-11843.295072,1998.556043,0.000000
3285.307596,-9548.656652,296.082377,-1302.362347
3285.307934,-10510.924376,-2294.638420,0.000000
3285.308271,-10436.903782,-2812.782580,842.705048
3285.308608,-8660.409521,-3404.947333,-612.876398
3285.308946,-8290.306550,-1998.556043,-612.876398
3285.309283,-9770.718434,-1702.473667,-766.095498
3285.309621,-11029.068536,0.000000,-919.314598
3285.309958,-11769.274478,740.205942,0.000000
3285.310295,-11843.295072,1258.350101,2068.457845
3285.310633,-10584.944971,2072.576638,1455.581446
3285.310970,-9844.739029,2294.638420,0.000000
3285.311308,-8142.265362,1184.329507,-459.657299
3285.311645,-9474.636058,-2368.659014,1149.143247
3285.311982,-9252.574275,-3034.844362,2451.505594
3285.312320,-8290.306550,-2368.659014,1685.410096
3285.312657,-7772.162391,-888.247130,1838.629195
3285.312995,-9474.636058,-444.123565,1149.143247
3285.313332,-10955.047942,370.102971,1072.533697
3285.313669,-11547.212695,3552.988522,2528.115143
3285.314007,-12287.418637,4663.297435,1608.800546
3285.314344,-11695.253884,4959.379811,-459.657299
3285.314682,-10214.842000,4589.276840,-1991.848295
3285.315019,-7994.224174,2294.638420,-2298.286494
3285.315356,-7994.224174,-1184.329507,229.828649
3285.315694,-9178.553681,-2812.782580,766.095498
3285.316031,-8290.306550,-2738.761985,0.000000
3285.316368,-9178.553681,-2664.741391,-536.266849
3285.316706,-9844.739029,-1924.535449,-919.314598
3285.317043,-9992.780217,-1850.514855,-1762.019645
3285.317381,-12213.398043,-888.247130,0.000000
3285.317718,-12139.377449,1258.350101,689.485948
3285.318055,-11325.150913,1480.411884,383.047749
3285.318393,-11103.089130,888.247130,-1532.190996
3285.318730,-8142.265362,-1184.329507,-1991.848295
3285.319068,-9622.677246,-3404.947333,766.095498
3285.319405,-10436.903782,-5699.585753,2374.896044
3285.319742,-8956.491898,-4441.235652,689.485948
3285.320080,-9326.594869,-3034.844362,-306.438199
3285.320417,-10140.821405,-2220.617826,842.705048
3285.320755,-11029.068536,-740.205942,842.705048
3285.321092,-12287.418637,1332.370696,2374.896044
3285.321429,-13249.686362,1924.535449,3677.258390
3285.321767,-11695.253884,2072.576638,766.095498
3285.322104,-10140.821405,3923.091493,-383.047749
3285.322442,-7920.203579,1628.453072,-2298.286494
3285.322779,-8586.388927,-1036.288319,1149.143247
3285.323116,-9474.636058,-2294.638420,1915.238745
3285.323454,-9178.553681,-1628.453072,-1302.362347
3285.323791,-7994.224174,-814.226536,-1608.800546
3285.324128,-9030.512492,-1406.391290,-1608.800546
3285.324466,-9474.636058,-666.185348,-1225.752797
3285.324803,-11325.150913,814.226536,0.000000
3285.325141,-11843.295072,3256.906145,2528.115143
3285.325478,-11695.253884,3182.885551,1455.581446
3285.325815,-11103.089130,3034.844362,-689.485948
3285.326153,-7254.018232,1776.494261,-1378.971896
3285.326490,-7402.059420,-2146.597232,1762.019645
3285.326828,-9844.739029,-3552.988522,3677.258390
3285.327165,-9030.512492,-3182.885551,2221.676944
3285.327502,-9178.553681,-1776.494261,689.485948
3285.327840,-10288.862594,-518.144159,459.657299
3285.328177,-10214.842000,0.000000,-612.876398
3285.328515,-10881.027347,1480.411884,0.000000
3285.328852,-12509.480420,2220.617826,1149.143247
3285.329189,-11769.274478,2368.659014,1149.143247
3285.329527,-10362.883188,1776.494261,-995.924147
3285.329864,-8142.265362,296.082377,-1991.848295
3285.330202,-8956.491898,-2738.761985,0.000000
3285.330539,-10658.965565,-4145.153275,0.000000
3285.330876,-9548.656652,-4071.132681,-766.095498
3285.331214,-8512.368333,-3849.070898,-1608.800546
3285.331551,-8882.471304,-4219.173869,-612.876398
3285.331888,-11103.089130,-2664.741391,-1225.752797
3285.332226,-11325.150913,74.020594,-612.876398
3285.332563,-12953.603985,888.247130,995.924147
3285.332901,-11621.233289,740.205942,1991.848295
3285.333238,-10732.986159,888.247130,536.266849
3285.333575,-7920.203579,666.185348,0.000000
3285.333913,-9252.574275,-1480.411884,3294.210641
3285.334250,-10807.006753,-3182.885551,4060.306139
3285.334588,-10066.800811,-1406.391290,536.266849
3285.334925,-8882.471304,-1110.308913,-1149.143247
3285.335262,-9326.594869,-296.082377,1225.752797
3285.335600,-10658.965565,1258.350101,1455.581446
3285.335937,-10807.006753,3404.947333,766.095498
3285.336275,-11843.295072,4589.276840,689.485948
3285.336612,-12213.398043,4219.173869,-76.609550
3285.336949,-10584.944971,4663.297435,-306.438199
3285.337287,-8068.244768,4145.153275,-383.047749
3285.337624,-7179.997637,0.000000,-153.219100
3285.337962,-9696.697840,-2516.700203,689.485948
3285.338299,-9104.533087,-2738.761985,-459.657299
3285.338636,-7994.224174,-1850.514855,76.609550
3285.338974,-8956.491898,-1628.453072,229.828649
3285.339311,-9548.656652,-1332.370696,-842.705048
3285.339648,-10066.800811,740.205942,-1302.362347
3285.339986,-11917.315666,1406.391290,1072.533697
3285.340323,-11621.233289,1924.535449,1991.848295
3285.340661,-10658.965565,1480.411884,76.609550
3285.340998,-9696.697840,1554.432478,-229.828649
3285.341335,-9252.574275,-2072.576638,1225.752797
3285.341673,-10362.883188,-3182.885551,2374.896044
3285.342010,-9178.553681,-4219.173869,1991.848295
3285.342348,-9104.533087,-2960.823768,76.609550
3285.342685,-9622.677246,-2664.741391,612.876398
3285.343022,-11325.150913,-1258.350101,-766.095498
3285.343360,-10881.027347,962.267725,-995.924147
3285.343697,-12509.480420,2294.638420,-306.438199
3285.344035,-12583.501014,2886.803174,536.266849
3285.344372,-10807.006753,1332.370696,-1608.800546
3285.344709,-8808.450710,1406.391290,-1762.019645
3285.345047,-8956.491898,-1702.473667,536.266849
3285.345384,-8956.491898,-4293.194464,0.000000
3285.345722,-9030.512492,-3330.926739,612.876398
3285.346059,-8660.409521,-4145.153275,-1302.362347
3285.346396,-7920.203579,-2960.823768,0.000000
3285.346734,-10658.965565,-1702.473667,153.219100
3285.347071,-10658.965565,296.082377,76.609550
3285.347408,-11621.233289,1110.308913,995.924147
3285.347746,-12805.562797,2516.700203,2145.067394
3285.348083,-11547.212695,3330.926739,1455.581446
3285.348421,-8364.327145,2368.659014,306.438199
3285.348758,-7772.162391,-444.123565,2757.943793
3285.349095,-9252.574275,-1184.329507,4979.620737
3285.349433,-9326.594869,-2146.597232,2834.553343
3285.349770,-9178.553681,444.123565,-306.438199
3285.350108,-9992.780217,74.020594,-459.657299
3285.350445,-11399.171507,1036.288319,-1915.238745
3285.350782,-10288.862594,2368.659014,-1991.848295
3285.351120,-11991.336260,2368.659014,-612.876398
3285.351457,-11325.150913,2886.803174,0.000000
3285.351795,-10436.903782,1628.453072,-1302.362347
3285.352132,-8734.430116,666.185348,-995.924147
3285.352470,-7846.182985,-1850.514855,0.000000
3285.352807,-10436.903782,-5107.421000,2528.115143
3285.353145,-9770.718434,-4441.235652,0.000000
3285.353482,-9252.574275,-3775.050304,-766.095498
3285.353820,-9622.677246,-3404.947333,689.485948
3285.354157,-9696.697840,-3627.009116,-1225.752797
3285.354495,-8956.491898,-2072.576638,-459.657299
3285.354832,-11547.212695,-518.144159,1915.238745
3285.355170,-11769.274478,962.267725,2451.505594
3285.355507,-11917.315666,1998.556043,1072.533697
3285.355845,-10436.903782,444.123565,-229.828649
3285.356182,-8290.306550,-518.144159,1532.190996
3285.356520,-10807.006753,-2442.679609,3370.820191
3285.356857,-11029.068536,-1480.411884,2374.896044
3285.357195,-9696.697840,-1184.329507,-1225.752797
3285.357532,-9548.656652,-740.205942,-689.485948
3285.357870,-10881.027347,0.000000,-919.314598
3285.358207,-10658.965565,1332.370696,-383.047749
3285.358545,-11029.068536,1258.350101,612.876398
3285.358882,-12139.377449,2516.700203,-229.828649
3285.359220,-11843.295072,4071.132681,-536.266849
3285.359557,-9326.594869,2146.597232,-1608.800546
3285.359894,-7328.038826,-222.061783,-1225.752797
3285.360232,-8512.368333,-2294.638420,1455.581446
3285.360569,-9992.780217,-2368.659014,1685.410096
3285.360907,-8808.450710,-1628.453072,536.266849
3285.361244,-7994.224174,-1628.453072,-306.438199
3285.361582,-9252.574275,-592.164754,-459.657299
3285.361919,-9474.636058,222.061783,-229.828649
3285.362257,-10807.006753,2886.803174,1149.143247
3285.362594,-11769.274478,3182.885551,1532.190996
3285.362932,-11399.171507,3182.885551,459.657299
3285.363269,-8882.471304,2294.638420,-995.924147
3285.363607,-7550.100608,962.267725,612.876398
3285.363944,-9252.574275,-1184.329507,2451.505594
3285.364282,-10510.924376,-1554.432478,153.219100
3285.364619,-10658.965565,-1554.432478,-766.095498
3285.364957,-9918.759623,-592.164754,-689.485948
3285.365294,-10510.924376,-1702.473667,-1608.800546
3285.365632,-10436.903782,0.000000,-1302.362347
3285.365969,-11325.150913,0.000000,-612.876398
3285.366307,-12509.480420,1258.350101,919.314598
3285.366644,-12065.356855,518.144159,0.000000
3285.366982,-8956.491898,-444.123565,-2451.505594
3285.367319,-8438.347739,-1258.350101,689.485948
3285.367657,-10362.883188,-4293.194464,1608.800546
3285.367994,-9918.759623,-3404.947333,1225.752797
3285.368332,-9178.553681,-3627.009116,-76.609550
3285.368669,-9326.594869,-2812.782580,306.438199
3285.369007,-10214.842000,-2812.782580,0.000000
3285.369344,-11251.130318,-222.061783,2374.896044
3285.369682,-10881.027347,1184.329507,2987.772442
3285.370019,-11399.171507,1702.473667,2451.505594
3285.370357,-11769.274478,2664.741391,1455.581446
3285.370694,-9400.615463,3923.091493,-306.438199
3285.371031,-8364.327145,1702.473667,1149.143247
3285.371369,-9474.636058,-1924.535449,2451.505594
3285.371706,-9252.574275,-592.164754,2068.457845
3285.372044,-8068.244768,-1184.329507,-919.314598
3285.372381,-7920.203579,592.164754,-766.095498
3285.372719,-10214.842000,-518.144159,-1838.629195
3285.373056,-9696.697840,1110.308913,-1915.238745
3285.373394,-10732.986159,2368.659014,-2068.457845
3285.373731,-12065.356855,3108.864956,-306.438199
3285.374069,-11399.171507,2368.659014,-766.095498
3285.374406,-9178.553681,1036.288319,-2221.676944
3285.374744,-7105.977043,-1480.411884,-612.876398
3285.375081,-9474.636058,-3108.864956,3140.991542
3285.375419,-9918.759623,-4367.215058,2451.505594
3285.375756,-10066.800811,-2664.741391,459.657299
3285.376094,-9696.697840,-1628.453072,0.000000
3285.376431,-10807.006753,-1850.514855,0.000000
3285.376769,-10362.883188,-592.164754,229.828649
3285.377106,-11695.253884,-74.020594,1762.019645
3285.377444,-12065.356855,2220.617826,2987.772442
3285.377781,-11325.150913,1776.494261,76.609550
3285.378119,-10214.842000,1110.308913,-1302.362347
3285.378456,-8512.368333,-1110.308913,-689.485948
3285.378794,-9918.759623,-2812.782580,2068.457845
3285.379131,-9918.759623,-2960.823768,689.485948
3285.379469,-9548.656652,-2590.720797,-1149.143247
3285.379806,-8438.347739,-2368.659014,-1608.800546
3285.380144,-10436.903782,-2368.659014,-1225.752797
3285.380481,-10214.842000,-666.185348,-153.219100
3285.380819,-11177.109724,0.000000,689.485948
3285.381156,-11621.233289,962.267725,1532.190996
3285.381494,-11621.233289,1406.391290,536.266849
3285.381831,-9030.512492,1406.391290,-1532.190996
3285.382168,-7846.182985,-518.144159,-766.095498
3285.382506,-10066.800811,-3108.864956,2681.334243
3285.382843,-10066.800811,-2442.679609,2757.943793
3285.383181,-9252.574275,-2146.597232,383.047749
3285.383518,-8068.244768,0.000000,306.438199
3285.383856,-10066.800811,-148.041188,995.924147
3285.384193,-11473.192101,1110.308913,2221.676944
3285.384531,-11843.295072,3108.864956,2374.896044
3285.384868,-12213.398043,5181.441594,1532.190996
3285.385206,-12435.459826,4663.297435,-229.828649
3285.385543,-9622.677246,3404.947333,-1608.800546
3285.385881,-7105.977043,1036.288319,-612.876398
3285.386218,-9178.553681,-1480.411884,2451.505594
3285.386556,-9918.759623,-2072.576638,1072.533697
3285.386893,-9474.636058,-1480.411884,-1608.800546
3285.387231,-9030.512492,-1258.350101,-1378.971896
3285.387568,-9252.574275,-1184.329507,-2145.067394
3285.387906,-9030.512492,-444.123565,-2298.286494
3285.388243,-11843.295072,222.061783,-229.828649
3285.388581,-11843.295072,1258.350101,459.657299
3285.388918,-11103.089130,1406.391290,-229.828649
3285.389256,-9178.553681,0.000000,-2068.457845
3285.389593,-7624.121203,-2368.659014,-1225.752797
3285.389931,-9400.615463,-4441.235652,3217.601092
3285.390268,-10436.903782,-4515.256246,3370.820191
3285.390606,-9548.656652,-3478.967927,1225.752797
3285.390943,-9326.594869,-1406.391290,-153.219100
3285.391281,-10955.047942,-1480.411884,689.485948
3285.391618,-11251.130318,148.041188,995.924147
3285.391956,-11843.295072,1776.494261,2145.067394
3285.392293,-11917.315666,3404.947333,2068.457845
3285.392631,-11695.253884,2664.741391,0.000000
3285.392968,-10362.883188,3034.844362,-1838.629195
3285.393305,-8586.388927,0.000000,-1532.190996
3285.393643,-10362.883188,-2146.597232,2681.334243
3285.393980,-9770.718434,-2442.679609,2298.286494
3285.394318,-9178.553681,-1924.535449,-306.438199
3285.394655,-7772.162391,-740.205942,-383.047749
3285.394993,-9622.677246,-1776.494261,-919.314598
3285.395330,-9844.739029,-962.267725,-459.657299
3285.395668,-11769.274478,1184.329507,229.828649
3285.396005,-11473.192101,2146.597232,995.924147
3285.396343,-10881.027347,2960.823768,-383.047749
3285.396680,-8512.368333,592.164754,-2681.334243
3285.397018,-6217.729913,-1110.308913,76.609550
3285.397355,-8438.347739,-3923.091493,4673.182538
3285.397693,-9474.636058,-2590.720797,4749.792088
3285.398030,-10214.842000,-1628.453072,1378.971896
3285.398368,-10732.986159,-222.061783,76.609550
3285.398705,-11177.109724,-518.144159,-612.876398
3285.399043,-10732.986159,740.205942,0.000000
3285.399380,-11695.253884,1776.494261,1225.752797
3285.399718,-10362.883188,2220.617826,153.219100
3285.400055,-10584.944971,2516.700203,-1532.190996
3285.400393,-9992.780217,1184.329507,-2757.943793
3285.400730,-8142.265362,-1184.329507,-2604.724693
3285.401068,-10732.986159,-3256.906145,1608.800546
3285.401405,-10807.006753,-3849.070898,1455.581446
3285.401743,-9326.594869,-2442.679609,-1685.410096
3285.402080,-8808.450710,-3108.864956,-2374.896044
3285.402418,-10288.862594,-2368.659014,-1991.848295
3285.402755,-9992.780217,-2220.617826,-306.438199
3285.403093,-11843.295072,-592.164754,1455.581446
3285.403430,-11843.295072,1554.432478,1378.971896
3285.403768,-11029.068536,814.226536,383.047749
3285.404105,-9548.656652,-296.082377,-919.314598
3285.404442,-7179.997637,-2368.659014,0.000000
3285.404780,-9918.759623,-3478.967927,4366.744339
3285.405117,-9844.739029,-2368.659014,3830.477490
3285.405455,-9844.739029,-1406.391290,153.219100
3285.405792,-8882.471304,370.102971,-459.657299
3285.406130,-10584.944971,444.123565,995.924147
3285.406467,-10732.986159,1702.473667,1762.019645
3285.406805,-11991.336260,2664.741391,1532.190996
3285.407142,-11695.253884,3849.070898,612.876398
3285.407480,-11103.089130,4663.297435,-689.485948
3285.407817,-9400.615463,2590.720797,-2374.896044
3285.408155,-7328.038826,-592.164754,-1915.238745
3285.408492,-7994.224174,-2368.659014,1685.410096
3285.408830,-9696.697840,-1184.329507,1838.629195
3285.409167,-9770.718434,-740.205942,-919.314598
3285.409505,-8956.491898,0.000000,-1532.190996
3285.409842,-10066.800811,-888.247130,-1915.238745
3285.410180,-10510.924376,0.000000,-1225.752797
3285.410517,-11695.253884,1332.370696,1225.752797
3285.410855,-11399.171507,1850.514855,1455.581446
3285.411192,-10288.862594,1480.411884,1302.362347
3285.411530,-9400.615463,0.000000,-1225.752797
3285.411867,-7550.100608,-962.267725,76.609550
3285.412205,-9992.780217,-3552.988522,3447.429741
3285.412542,-11103.089130,-2442.679609,3217.601092
3285.412880,-11029.068536,-962.267725,76.609550
3285.413217,-10436.903782,0.000000,-995.924147
3285.413555,-10066.800811,0.000000,-1378.971896
3285.413892,-9918.759623,0.000000,-536.266849
3285.414230,-11843.295072,1184.329507,1225.752797
3285.414567,-10955.047942,1776.494261,536.266849
3285.414905,-11103.089130,1332.370696,0.000000
3285.415242,-9844.739029,1036.288319,-2451.505594
3285.415579,-7994.224174,-1924.535449,-2145.067394
3285.415917,-9326.594869,-3330.926739,1225.752797
3285.416254,-9770.718434,-3627.009116,919.314598
3285.416592,-9474.636058,-2738.761985,-306.438199
3285.416929,-8660.409521,-1924.535449,-612.876398
3285.417267,-9770.718434,-1924.535449,-612.876398
3285.417604,-10732.986159,0.000000,76.609550
3285.417942,-11843.295072,0.000000,1532.190996
3285.418279,-11177.109724,1702.473667,1685.410096
3285.418617,-10436.903782,2664.741391,1991.848295
3285.418954,-10140.821405,2664.741391,0.000000
3285.419292,-8438.347739,0.000000,0.000000
3285.419629,-9770.718434,-1776.494261,2987.772442
3285.419967,-9696.697840,-2146.597232,3983.696590
3285.420304,-9844.739029,-1110.308913,1532.190996
3285.420642,-9104.533087,444.123565,0.000000
3285.420979,-10066.800811,370.102971,-766.095498
3285.421317,-11103.089130,1850.514855,-306.438199
3285.421654,-11251.130318,2220.617826,0.000000
3285.421992,-11399.171507,3775.050304,536.266849
3285.422329,-11251.130318,2886.803174,-842.705048
3285.422667,-9918.759623,518.144159,-2834.553343
3285.423004,-7846.182985,-1480.411884,-3140.991542
3285.423342,-8068.244768,-4293.194464,0.000000
3285.423679,-9178.553681,-3775.050304,1378.971896
3285.424017,-9696.697840,-3701.029710,-459.657299
3285.424354,-9104.533087,-1554.432478,-995.924147
3285.424692,-11103.089130,-1480.411884,-1378.971896
3285.425029,-10881.027347,-1036.288319,-919.314598
3285.425367,-11695.253884,-296.082377,1072.533697
3285.425704,-11251.130318,888.247130,2757.943793
3285.426042,-10436.903782,1554.432478,2451.505594
3285.426379,-9844.739029,222.061783,0.000000
3285.426716,-8068.244768,-1628.453072,612.876398
3285.427054,-9030.512492,-3627.009116,2757.943793
3285.427391,-10584.944971,-2960.823768,3524.039291
3285.427729,-10955.047942,-1184.329507,0.000000
3285.428066,-9622.677246,0.000000,-1302.362347
3285.428404,-9770.718434,518.144159,229.828649
3285.428741,-10732.986159,74.020594,0.000000
3285.429079,-10807.006753,666.185348,1532.190996
3285.429416,-11325.150913,888.247130,1225.752797
3285.429754,-10436.903782,3182.885551,1991.848295
3285.430091,-10584.944971,1036.288319,-1685.410096
3285.430429,-7624.121203,-1184.329507,-2221.676944
3285.430766,-8586.388927,-2812.782580,2298.286494
3285.431104,-10140.821405,-3404.947333,4136.915689
3285.431441,-9770.718434,-1776.494261,536.266849
3285.431779,-8882.471304,0.000000,-1149.143247
3285.432116,-11029.068536,-1036.288319,-1225.752797
3285.432454,-10510.924376,666.185348,76.609550
3285.432791,-11917.315666,740.205942,2298.286494
3285.433129,-10807.006753,3404.947333,2528.115143
3285.433466,-10881.027347,3478.967927,1378.971896
3285.433804,-10436.903782,2294.638420,0.000000
3285.434141,-7254.018232,-666.185348,-1762.019645
3285.434479,-8808.450710,-2664.741391,2221.676944
3285.434816,-10584.944971,-2072.576638,3830.477490
3285.435154,-10436.903782,-1184.329507,-459.657299
3285.435491,-10140.821405,666.185348,-1838.629195
3285.435829,-9178.553681,74.020594,-2987.772442
3285.436166,-9474.636058,888.247130,-1838.629195
3285.436504,-12065.356855,740.205942,229.828649
3285.436841,-11325.150913,1332.370696,0.000000
3285.437179,-9770.718434,1628.453072,0.000000
3285.437516,-10362.883188,0.000000,-2374.896044
3285.437853,-7476.080014,-1924.535449,-3217.601092
3285.438191,-8956.491898,-4515.256246,-383.047749
3285.438528,-10510.924376,-4145.153275,2681.334243
3285.438866,-9992.780217,-2960.823768,153.219100
3285.439203,-9252.574275,-1258.350101,-766.095498
3285.439541,-9918.759623,-1258.350101,-1838.629195
3285.439878,-9622.677246,-1036.288319,-306.438199
3285.440216,-11547.212695,666.185348,2681.334243
3285.440553,-11325.150913,1998.556043,3753.867940
3285.440891,-10881.027347,2368.659014,2528.115143
3285.441228,-10807.006753,2960.823768,0.000000
3285.441566,-8438.347739,666.185348,-1149.143247
3285.441903,-9252.574275,-2146.597232,1838.629195
3285.442241,-10362.883188,-1480.411884,2757.943793
3285.442578,-10214.842000,-296.082377,919.314598
3285.442916,-9178.553681,592.164754,-919.314598
3285.443253,-9474.636058,1036.288319,-2068.457845
3285.443591,-10066.800811,1184.329507,-1532.190996
3285.443928,-12139.377449,1480.411884,459.657299
3285.444266,-10881.027347,2146.597232,0.000000
3285.444603,-10436.903782,1776.494261,459.657299
3285.444941,-10140.821405,1406.391290,-459.657299
3285.445278,-6291.750507,-2220.617826,-1532.190996
3285.445616,-8216.285956,-3330.926739,1762.019645
3285.445953,-10214.842000,-3552.988522,2987.772442
3285.446291,-10362.883188,-1998.556043,1072.533697
3285.446628,-10362.883188,-1184.329507,-383.047749
3285.446966,-9548.656652,-592.164754,-1608.800546
3285.447303,-9548.656652,74.020594,766.095498
3285.447641,-12361.439231,-222.061783,2681.334243
3285.447978,-11325.150913,2146.597232,2911.162892
3285.448316,-10881.027347,1998.556043,1532.190996
3285.448653,-11029.068536,1628.453072,0.000000
3285.448990,-8808.450710,0.000000,-2298.286494
3285.449328,-9474.636058,-2886.803174,919.314598
3285.449665,-10362.883188,-2738.761985,1685.410096
3285.450003,-10066.800811,-2368.659014,-383.047749
3285.450340,-9252.574275,222.061783,-1455.581446
3285.450678,-10362.883188,-814.226536,-3753.867940
3285.451015,-10436.903782,-592.164754,-1991.848295
3285.451353,-11177.109724,-518.144159,383.047749
3285.451690,-10658.965565,740.205942,1838.629195
3285.452028,-10510.924376,148.041188,1608.800546
3285.452365,-11177.109724,518.144159,-1225.752797
3285.452703,-7624.121203,-1406.391290,-1608.800546
3285.453040,-8290.306550,-2960.823768,995.924147
3285.453378,-9992.780217,-3701.029710,3907.087040
3285.453715,-10658.965565,-1998.556043,1455.581446
3285.454053,-9178.553681,-1036.288319,-612.876398
3285.454390,-9770.718434,740.205942,-1302.362347
3285.454727,-10436.903782,370.102971,459.657299
3285.455065,-10658.965565,1702.473667,2834.553343
3285.455402,-10881.027347,2442.679609,2987.772442
3285.455740,-10436.903782,3256.906145,1302.362347
3285.456077,-10436.903782,3478.967927,-383.047749
3285.456415,-8364.327145,518.144159,-1532.190996
3285.456752,-8364.327145,-1554.432478,1302.362347
3285.457090,-9844.739029,-2590.720797,2834.553343
3285.457427,-10881.027347,-888.247130,536.266849
3285.457765,-9844.739029,222.061783,-2068.457845
3285.458102,-10066.800811,74.020594,-2911.162892
3285.458439,-8956.491898,-370.102971,-2221.676944
3285.458777,-10510.924376,-444.123565,-536.266849
3285.459114,-11399.171507,962.267725,2528.115143
3285.459452,-11177.109724,888.247130,1762.019645
3285.459789,-10658.965565,814.226536,-1149.143247
3285.460127,-7772.162391,-1406.391290,-2834.553343
3285.460464,-8142.265362,-3701.029710,995.924147
3285.460802,-10510.924376,-4293.194464,3677.258390
3285.461139,-10732.986159,-3256.906145,2451.505594
3285.461477,-9326.594869,-1036.288319,-306.438199
3285.461814,-9992.780217,-740.205942,-995.924147
3285.462151,-10658.965565,-592.164754,0.000000
3285.462489,-11029.068536,518.144159,2221.676944
3285.462826,-10881.027347,1702.473667,3064.381992
3285.463164,-10510.924376,2294.638420,1991.848295
3285.463501,-11103.089130,2220.617826,-995.924147
3285.463839,-8068.244768,1258.350101,-2987.772442
3285.464176,-8512.368333,-1776.494261,-689.485948
3285.464514,-10288.862594,-2590.720797,1532.190996
3285.464851,-9992.780217,-1924.535449,0.000000
3285.465189,-8438.347739,-666.185348,-1532.190996
3285.465526,-8734.430116,-592.164754,-1915.238745
3285.465863,-9992.780217,-888.247130,-383.047749
3285.466201,-10955.047942,74.020594,919.314598
3285.466538,-12731.542202,1554.432478,2911.162892
3285.466876,-11769.274478,2664.741391,1991.848295
3285.467213,-10658.965565,2516.700203,-766.095498
3285.467551,-7846.182985,666.185348,-1149.143247
3285.467888,-7550.100608,-2368.659014,1225.752797
3285.468226,-10066.800811,-2886.803174,4136.915689
3285.468563,-10288.862594,-962.267725,1838.629195
3285.468901,-10214.842000,666.185348,306.438199
3285.469238,-10881.027347,962.267725,-306.438199
3285.469575,-10584.944971,0.000000,-1225.752797
3285.469913,-10436.903782,1628.453072,919.314598
3285.470250,-11029.068536,2368.659014,2451.505594
3285.470588,-10214.842000,2664.741391,1685.410096
3285.470925,-9918.759623,1776.494261,-1072.533697
3285.471263,-8290.306550,444.123565,-1072.533697
3285.471600,-8512.368333,-2368.659014,0.000000
3285.471938,-9696.697840,-3627.009116,536.266849
3285.472275,-10436.903782,-3182.885551,-1225.752797
3285.472613,-8364.327145,-2368.659014,-2451.505594
3285.472950,-8512.368333,-2294.638420,-2298.286494
3285.473287,-9548.656652,-2812.782580,-2068.457845
3285.473625,-11177.109724,-1406.391290,76.609550
3285.473962,-11991.336260,-296.082377,1915.238745
3285.474300,-11991.336260,592.164754,2145.067394
3285.474637,-11029.068536,592.164754,153.219100
3285.474975,-8882.471304,-296.082377,-766.095498
3285.475312,-8808.450710,-3034.844362,1378.971896
3285.475650,-10732.986159,-3256.906145,3447.429741
3285.475987,-11029.068536,-1554.432478,2068.457845
3285.476324,-10510.924376,74.020594,-919.314598
3285.476662,-9770.718434,370.102971,-1838.629195
3285.476999,-10807.006753,-296.082377,-536.266849
3285.477337,-10807.006753,1332.370696,1685.410096
3285.477674,-10881.027347,2664.741391,2604.724693
3285.478012,-10807.006753,2516.700203,1532.190996
3285.478349,-10807.006753,3182.885551,-995.924147
3285.478687,-8882.471304,2368.659014,-1455.581446
3285.479024,-8364.327145,-1258.350101,-306.438199
3285.479362,-9622.677246,-3034.844362,2068.457845
3285.479699,-8882.471304,-1776.494261,-919.314598
3285.480036,-8216.285956,-592.164754,-2145.067394
3285.480374,-8512.368333,-1702.473667,-1915.238745
3285.480711,-9252.574275,-1628.453072,-2068.457845
3285.481049,-10140.821405,518.144159,0.000000
3285.481386,-11917.315666,2516.700203,2145.067394
3285.481724,-11325.150913,2738.761985,995.924147
3285.482061,-11103.089130,1184.329507,766.095498
3285.482399,-8586.388927,592.164754,-919.314598
3285.482736,-7846.182985,-2072.576638,1915.238745
3285.483074,-10510.924376,-2738.761985,3753.867940
3285.483411,-10658.965565,-1406.391290,1302.362347
3285.483748,-10732.986159,-592.164754,-229.828649
3285.484086,-10807.006753,-444.123565,-1302.362347
3285.484423,-10066.800811,0.000000,-1149.143247
3285.484761,-11473.192101,1110.308913,536.266849
3285.485098,-11991.336260,1776.494261,1838.629195
3285.485436,-10732.986159,1850.514855,689.485948
3285.485773,-10658.965565,2294.638420,-306.438199
3285.486111,-9030.512492,222.061783,-689.485948
3285.486448,-8364.327145,-1776.494261,76.609550
3285.486786,-10140.821405,-2960.823768,383.047749
3285.487123,-9918.759623,-2738.761985,0.000000
3285.487460,-9178.553681,-2664.741391,-2068.457845
3285.487798,-9178.553681,-2886.803174,-995.924147
3285.488135,-9844.739029,-2442.679609,-383.047749
3285.488473,-9844.739029,-814.226536,306.438199
3285.488810,-11029.068536,74.020594,1838.629195
3285.489148,-10807.006753,962.267725,1455.581446
3285.489485,-10288.862594,2590.720797,2145.067394
3285.489823,-8956.491898,1184.329507,536.266849
3285.490160,-8512.368333,-666.185348,1915.238745
3285.490498,-9696.697840,-1554.432478,2911.162892
3285.490835,-9918.759623,-1332.370696,2528.115143
3285.491172,-9474.636058,-518.144159,229.828649
3285.491510,-9474.636058,222.061783,-1378.971896
3285.491847,-10807.006753,814.226536,-1225.752797
3285.492185,-11843.295072,1554.432478,-766.095498
3285.492522,-11547.212695,3256.906145,-153.219100
3285.492860,-11473.192101,3627.009116,-76.609550
3285.493197,-11399.171507,2590.720797,-76.609550
3285.493535,-9104.533087,814.226536,-1685.410096
3285.493872,-7772.162391,-1850.514855,-536.266849
3285.494210,-9326.594869,-3182.885551,229.828649
3285.494547,-9400.615463,-3701.029710,-459.657299
3285.494884,-9696.697840,-3701.029710,-536.266849
3285.495222,-8956.491898,-3108.864956,-1378.971896
3285.495559,-9474.636058,-3182.885551,-383.047749
3285.495897,-9992.780217,-1406.391290,229.828649
3285.496234,-11029.068536,0.000000,2145.067394
3285.496572,-11547.212695,0.000000,1838.629195
3285.496909,-11251.130318,1184.329507,1455.581446
3285.497247,-9252.574275,0.000000,-153.219100
3285.497584,-8660.409521,-1554.432478,1378.971896
3285.497922,-9770.718434,-2960.823768,2145.067394
3285.498259,-9104.533087,-2220.617826,1302.362347
3285.498596,-9992.780217,-1406.391290,-689.485948
3285.498934,-10066.800811,-888.247130,-536.266849
3285.499271,-11325.150913,-1258.350101,-153.219100
3285.499609,-11547.212695,666.185348,306.438199
3285.499946,-10732.986159,1850.514855,1762.019645
3285.500284,-11547.212695,2516.700203,612.876398
3285.500621,-11029.068536,3627.009116,153.219100
3285.500959,-9844.739029,1998.556043,-1685.410096
3285.501296,-7846.182985,0.000000,-612.876398
3285.501633,-9178.553681,-2146.597232,1225.752797
3285.501971,-9474.636058,-3108.864956,1915.238745
3285.502308,-8808.450710,-2146.597232,0.000000
3285.502646,-8068.244768,-1406.391290,-76.609550
3285.502983,-10732.986159,-1702.473667,0.000000
3285.503321,-10436.903782,0.000000,306.438199
3285.503658,-11251.130318,2442.679609,2911.162892
3285.503996,-11695.253884,3552.988522,2145.067394
3285.504333,-10881.027347,3849.070898,1072.533697
3285.504671,-9844.739029,2664.741391,459.657299
3285.505008,-7476.080014,0.000000,919.314598
3285.505345,-8216.285956,-2220.617826,2145.067394
3285.505683,-9770.718434,-1480.411884,1225.752797
3285.506020,-9104.533087,-1480.411884,-1302.362347
3285.506358,-9548.656652,-1184.329507,-1225.752797
3285.506695,-10362.883188,-592.164754,-1225.752797
3285.507033,-9844.739029,1480.411884,-2604.724693
3285.507370,-11991.336260,1406.391290,-459.657299
3285.507708,-11621.233289,1702.473667,0.000000
3285.508045,-10881.027347,2664.741391,459.657299
3285.508383,-9770.718434,518.144159,-1225.752797
3285.508720,-8216.285956,-2738.761985,-842.705048
3285.509057,-9622.677246,-3923.091493,306.438199
3285.509395,-9326.594869,-4737.318029,842.705048
3285.509732,-9252.574275,-3330.926739,-766.095498
3285.510070,-9252.574275,-3330.926739,-1302.362347
3285.510407,-11029.068536,-2220.617826,-153.219100
3285.510745,-10955.047942,-518.144159,459.657299
3285.511082,-11843.295072,814.226536,2528.115143
3285.511420,-11251.130318,1702.473667,3753.867940
3285.511757,-11103.089130,1776.494261,2911.162892
3285.512095,-10510.924376,2516.700203,2068.457845
3285.512432,-8438.347739,0.000000,1455.581446
3285.512769,-9992.780217,-2146.597232,2757.943793
3285.513107,-9030.512492,-962.267725,1685.410096
3285.513444,-9030.512492,-888.247130,-1838.629195
3285.513782,-9030.512492,-444.123565,-1378.971896
3285.514119,-9474.636058,-814.226536,-2834.553343
3285.514457,-10510.924376,1332.370696,-1225.752797
3285.514794,-11917.315666,1924.535449,-612.876398
3285.515132,-10881.027347,2738.761985,-229.828649
3285.515469,-11029.068536,1776.494261,306.438199
3285.515807,-9326.594869,1924.535449,842.705048
3285.516144,-6587.832884,-592.164754,459.657299
3285.516481,-8734.430116,-3552.988522,2451.505594
3285.516819,-9622.677246,-3478.967927,1378.971896
3285.517156,-9844.739029,-2294.638420,0.000000
3285.517494,-9548.656652,-1110.308913,-995.924147
3285.517831,-10288.862594,-1258.350101,-1762.019645
3285.518169,-9622.677246,0.000000,-689.485948
3285.518506,-11769.274478,1554.432478,1838.629195
3285.518844,-11917.315666,2516.700203,1991.848295
3285.519181,-11621.233289,1628.453072,689.485948
3285.519519,-10214.842000,1406.391290,229.828649
3285.519856,-8068.244768,0.000000,229.828649
3285.520193,-9992.780217,-2368.659014,2681.334243
3285.520531,-9548.656652,-3182.885551,1532.190996
3285.520868,-9474.636058,-2442.679609,-919.314598
3285.521206,-9696.697840,-1776.494261,-1991.848295
3285.521543,-11177.109724,-1258.350101,-1762.019645
3285.521881,-10510.924376,-740.205942,-1991.848295
3285.522218,-10732.986159,666.185348,-689.485948
3285.522556,-11177.109724,740.205942,919.314598
3285.522893,-11029.068536,518.144159,153.219100
3285.523231,-9696.697840,444.123565,-459.657299
3285.523568,-7476.080014,-1184.329507,-383.047749
3285.523905,-9474.636058,-3182.885551,3447.429741
3285.524243,-9770.718434,-3034.844362,2068.457845
3285.524580,-9992.780217,-2368.659014,1762.019645
3285.524918,-9030.512492,-1480.411884,0.000000
3285.525255,-10140.821405,-1480.411884,766.095498
3285.525593,-11029.068536,666.185348,1302.362347
3285.525930,-11473.192101,2368.659014,2374.896044
3285.526268,-12065.356855,4219.173869,2221.676944
3285.526605,-11103.089130,4071.132681,306.438199
3285.526942,-9400.615463,2516.700203,-1225.752797
3285.527280,-7698.141797,1850.514855,1149.143247
3285.527617,-8290.306550,-1184.329507,1991.848295
3285.527955,-9252.574275,-1184.329507,1608.800546
3285.528292,-9770.718434,-1258.350101,-766.095498
3285.528630,-9918.759623,-370.102971,-1532.190996
3285.528967,-10658.965565,-666.185348,-2451.505594
3285.529305,-9696.697840,-444.123565,-2374.896044
3285.529642,-10807.006753,666.185348,-1149.143247
3285.529980,-11325.150913,1184.329507,612.876398
3285.530317,-10881.027347,1924.535449,306.438199
3285.530654,-9622.677246,0.000000,-919.314598
3285.530992,-7254.018232,-1184.329507,-995.924147
3285.531329,-9400.615463,-3701.029710,1838.629195
3285.531667,-10955.047942,-3997.112087,2911.162892
3285.532004,-9252.574275,-3849.070898,1072.533697
3285.532342,-9918.759623,-2072.576638,-459.657299
3285.532679,-11547.212695,-1776.494261,-842.705048
3285.533017,-10584.944971,-592.164754,-995.924147
3285.533354,-10732.986159,148.041188,2451.505594
3285.533692,-11917.315666,1702.473667,3600.648841
3285.534029,-10807.006753,1776.494261,919.314598
3285.534366,-10288.862594,2072.576638,-1378.971896
3285.534704,-8734.430116,296.082377,-1149.143247
3285.535041,-9548.656652,-1998.556043,1685.410096
3285.535379,-9844.739029,-2664.741391,1762.019645
3285.535716,-9474.636058,-1998.556043,-612.876398
3285.536054,-8660.409521,-1258.350101,-1991.848295
3285.536391,-10510.924376,-2146.597232,-1225.752797
3285.536729,-9844.739029,-1184.329507,-1302.362347
3285.537066,-10066.800811,0.000000,0.000000
3285.537404,-11547.212695,1776.494261,2145.067394
3285.537741,-11325.150913,1554.432478,766.095498
3285.538078,-9548.656652,1776.494261,0.000000
3285.538416,-7254.018232,518.144159,0.000000
3285.538753,-7994.224174,-2886.803174,2757.943793
3285.539091,-10066.800811,-2146.597232,4136.915689
3285.539428,-10214.842000,-1702.473667,2834.553343
3285.539766,-9474.636058,74.020594,536.266849
3285.540103,-10881.027347,-592.164754,-612.876398
3285.540441,-10732.986159,444.123565,229.828649
3285.540778,-10436.903782,1998.556043,1225.752797
3285.541116,-11769.274478,4367.215058,2298.286494
3285.541453,-11621.233289,4071.132681,383.047749
3285.541790,-10658.965565,2516.700203,-1762.019645
3285.542128,-8142.265362,888.247130,-1532.190996
3285.542465,-8734.430116,-2146.597232,536.266849
3285.542803,-9548.656652,-2664.741391,1532.190996
3285.543140,-10066.800811,-2368.659014,-383.047749
