#time,accel_x,accel_y,accel_z
3272.161136,-8586.388927,-2294.638420,459.657299
3272.161474,-9252.574275,-1554.432478,1532.190996
3272.161812,-9326.594869,-2442.679609,2757.943793
3272.162150,-9992.780217,-1480.411884,2681.334243
3272.162488,-10732.986159,-1924.535449,2757.943793
3272.162826,-11399.171507,-1850.514855,2451.505594
3272.163164,-10732.986159,-2368.659014,2068.457845
3272.163502,-10214.842000,-2886.803174,2145.067394
3272.163840,-9622.677246,-1924.535449,2834.553343
3272.164178,-9400.615463,-1406.391290,1225.752797
3272.164516,-9844.739029,-1480.411884,689.485948
3272.164854,-10658.965565,-1480.411884,76.609550
3272.165192,-10214.842000,-1924.535449,306.438199
3272.165530,-10732.986159,-1554.432478,1762.019645
3272.165868,-10066.800811,-1480.411884,1762.019645
3272.166206,-9992.780217,-2072.576638,1915.238745
3272.166544,-10362.883188,-1850.514855,1762.019645
3272.166882,-9918.759623,-1924.535449,1072.533697
3272.167220,-10362.883188,-1554.432478,919.314598
3272.167558,-11177.109724,-1332.370696,995.924147
3272.167896,-10288.862594,-2220.617826,0.000000
3272.168234,-9696.697840,-2368.659014,919.314598
3272.168572,-9252.574275,-2516.700203,1915.238745
3272.168910,-9030.512492,-2590.720797,2451.505594
3272.169248,-9844.739029,-3034.844362,3600.648841
3272.169586,-9178.553681,-2072.576638,3907.087040
3272.169924,-10288.862594,-2442.679609,4979.620737
3272.170262,-10658.965565,-1998.556043,5975.544884
3272.170600,-10732.986159,-1480.411884,5362.668486
3272.170938,-10955.047942,-740.205942,5132.839837
3272.171276,-10288.862594,-518.144159,3907.087040
3272.171614,-9548.656652,-1702.473667,3370.820191
3272.171952,-9622.677246,-2146.597232,4290.134789
3272.172290,-8512.368333,-2516.700203,4136.915689
3272.172628,-8956.491898,-2516.700203,4136.915689
3272.172966,-9474.636058,-2220.617826,3600.648841
3272.173304,-9548.656652,-2812.782580,3447.429741
3272.173642,-10807.006753,-3108.864956,3907.087040
3272.173980,-9400.615463,-1850.514855,2374.896044
3272.174318,-9474.636058,-1702.473667,2528.115143
3272.174656,-11473.192101,-3404.947333,2911.162892
3272.174994,-10584.944971,-5033.400406,2451.505594
3272.175332,-10732.986159,-5255.462188,2145.067394
3272.175670,-9770.718434,-4959.379811,1991.848295
3272.176008,-9548.656652,-4811.338623,1149.143247
3272.176346,-10362.883188,-6439.791695,842.705048
3272.176684,-9474.636058,-6957.935855,459.657299
3272.177022,-8142.265362,-5847.626942,1915.238745
3272.177360,-10140.821405,-4441.235652,2911.162892
3272.177698,-11399.171507,-3330.926739,2298.286494
3272.178036,-11251.130318,-3330.926739,1532.190996
3272.178374,-11547.212695,-3256.906145,3447.429741
3272.178712,-11029.068536,-2442.679609,3677.258390
3272.179050,-10732.986159,-2072.576638,2451.505594
3272.179388,-9992.780217,-1110.308913,153.219100
3272.179726,-9548.656652,-3108.864956,-459.657299
3272.180064,-10658.965565,-3775.050304,229.828649
3272.180402,-8660.409521,-3330.926739,306.438199
3272.180740,-7402.059420,-1258.350101,1838.629195
3272.181078,-8438.347739,-592.164754,1149.143247
3272.181416,-11177.109724,-370.102971,995.924147
3272.181754,-11473.192101,-592.164754,1149.143247
3272.182092,-10436.903782,2294.638420,459.657299
3272.182430,-10362.883188,2294.638420,1762.019645
3272.182768,-12287.418637,2368.659014,76.609550
3272.183106,-10807.006753,-1332.370696,-1149.143247
3272.183444,-7698.141797,-2294.638420,995.924147
3272.183782,-5625.565159,-1924.535449,4519.963438
3272.184120,-8882.471304,-1924.535449,5822.325785
3272.184458,-12583.501014,-296.082377,2528.115143
3272.184795,-11029.068536,1776.494261,-229.828649
3272.185133,-9326.594869,3627.009116,306.438199
3272.185471,-10584.944971,3849.070898,2528.115143
3272.185809,-10140.821405,2368.659014,2221.676944
3272.186146,-10214.842000,888.247130,2374.896044
3272.186484,-10881.027347,814.226536,4213.525239
3272.186822,-10510.924376,-370.102971,3370.820191
3272.187160,-10140.821405,-444.123565,3600.648841
3272.187498,-9992.780217,-1924.535449,612.876398
3272.187835,-9400.615463,-3034.844362,-1072.533697
3272.188173,-8660.409521,-1406.391290,-612.876398
3272.188511,-8216.285956,-1332.370696,1762.019645
3272.188849,-9992.780217,0.000000,1302.362347
3272.189187,-11917.315666,-740.205942,-2145.067394
3272.189524,-12879.583391,518.144159,-3600.648841
3272.189862,-11547.212695,-222.061783,-1915.238745
3272.190200,-9622.677246,-2294.638420,1072.533697
3272.190538,-8216.285956,-3775.050304,2068.457845
3272.190875,-9030.512492,-3775.050304,2451.505594
3272.191213,-11325.150913,-2812.782580,2068.457845
3272.191551,-12509.480420,-1850.514855,612.876398
3272.191889,-10881.027347,-1480.411884,-306.438199
3272.192227,-9474.636058,-740.205942,-1072.533697
3272.192564,-8956.491898,814.226536,459.657299
3272.192902,-8734.430116,1850.514855,1915.238745
3272.193240,-11251.130318,2072.576638,995.924147
3272.193578,-11843.295072,1184.329507,-995.924147
3272.193915,-10214.842000,1184.329507,-1302.362347
3272.194253,-9844.739029,148.041188,1838.629195
3272.194591,-8956.491898,-592.164754,2374.896044
3272.194929,-7550.100608,-592.164754,2145.067394
3272.195267,-8142.265362,0.000000,1455.581446
3272.195604,-9252.574275,74.020594,-383.047749
3272.195942,-11547.212695,962.267725,-2145.067394
3272.196280,-11843.295072,1480.411884,-3140.991542
3272.196618,-9474.636058,-148.041188,-4060.306139
3272.196956,-9252.574275,-1110.308913,-1762.019645
3272.197293,-9474.636058,-1110.308913,842.705048
3272.197631,-8660.409521,-1184.329507,0.000000
3272.197969,-9400.615463,-2146.597232,76.609550
3272.198307,-10658.965565,-2146.597232,919.314598
3272.198644,-11251.130318,-3034.844362,1072.533697
3272.198982,-10658.965565,-2368.659014,3217.601092
3272.199320,-9844.739029,-2294.638420,3677.258390
3272.199658,-10510.924376,-814.226536,2451.505594
3272.199996,-11103.089130,-222.061783,-612.876398
3272.200333,-11473.192101,-444.123565,-766.095498
3272.200671,-10584.944971,-962.267725,-383.047749
3272.201009,-10066.800811,-2146.597232,536.266849
3272.201347,-10658.965565,-1850.514855,1991.848295
3272.201684,-8956.491898,-2590.720797,383.047749
3272.202022,-8660.409521,-2294.638420,-536.266849
3272.202360,-9178.553681,-1924.535449,-995.924147
3272.202698,-10436.903782,-2220.617826,-1302.362347
3272.203036,-10066.800811,-1628.453072,-612.876398
3272.203373,-10510.924376,-1184.329507,1149.143247
3272.203711,-10807.006753,0.000000,1225.752797
3272.204049,-11325.150913,0.000000,-689.485948
3272.204387,-10881.027347,-296.082377,-995.924147
3272.204724,-9770.718434,-518.144159,-766.095498
3272.205062,-9178.553681,-1628.453072,995.924147
3272.205400,-9770.718434,-1184.329507,3217.601092
3272.205738,-10214.842000,-74.020594,3140.991542
3272.206076,-10510.924376,1258.350101,1915.238745
3272.206413,-10288.862594,1850.514855,76.609550
3272.206751,-9844.739029,1998.556043,-383.047749
3272.207089,-9992.780217,2442.679609,1762.019645
3272.207427,-9474.636058,2590.720797,2451.505594
3272.207765,-10066.800811,3034.844362,2911.162892
3272.208102,-11325.150913,3775.050304,842.705048
3272.208440,-10732.986159,2886.803174,-1302.362347
3272.208778,-9696.697840,1332.370696,-1685.410096
3272.209116,-7772.162391,0.000000,-612.876398
3272.209453,-7402.059420,-1184.329507,689.485948
3272.209791,-8364.327145,0.000000,995.924147
3272.210129,-10066.800811,518.144159,-1149.143247
3272.210467,-11177.109724,518.144159,-3447.429741
3272.210805,-10658.965565,222.061783,-3524.039291
3272.211142,-9918.759623,-666.185348,-2221.676944
3272.211480,-9918.759623,-2146.597232,536.266849
3272.211818,-9474.636058,-1554.432478,1455.581446
3272.212156,-10214.842000,-1554.432478,1378.971896
3272.212493,-11103.089130,-2220.617826,459.657299
3272.212831,-11695.253884,-2368.659014,-689.485948
3272.213169,-10955.047942,-2664.741391,76.609550
3272.213507,-9400.615463,-2516.700203,995.924147
3272.213845,-9548.656652,-1258.350101,2987.772442
3272.214182,-11103.089130,-222.061783,2068.457845
3272.214520,-11177.109724,74.020594,-842.705048
3272.214858,-11103.089130,370.102971,-1915.238745
3272.215196,-11473.192101,-296.082377,-536.266849
3272.215534,-9918.759623,-962.267725,766.095498
3272.215871,-9400.615463,-1480.411884,1991.848295
3272.216209,-9400.615463,-740.205942,1302.362347
3272.216547,-9474.636058,-666.185348,-766.095498
3272.216885,-11029.068536,-296.082377,-1532.190996
3272.217222,-10362.883188,-814.226536,-2374.896044
3272.217560,-8808.450710,-1184.329507,-1762.019645
3272.217898,-8808.450710,-666.185348,1149.143247
3272.218236,-9548.656652,-814.226536,1608.800546
3272.218574,-10214.842000,592.164754,0.000000
3272.218911,-9844.739029,518.144159,-1225.752797
3272.219249,-9992.780217,-296.082377,306.438199
3272.219587,-9474.636058,0.000000,1991.848295
3272.219925,-9252.574275,-1184.329507,4136.915689
3272.220262,-9548.656652,-592.164754,4749.792088
3272.220600,-9104.533087,296.082377,1685.410096
3272.220938,-11029.068536,1628.453072,766.095498
3272.221276,-11473.192101,888.247130,383.047749
3272.221614,-9992.780217,296.082377,76.609550
3272.221951,-9696.697840,0.000000,459.657299
3272.222289,-9030.512492,1036.288319,1455.581446
3272.222627,-10658.965565,74.020594,459.657299
3272.222965,-9992.780217,-814.226536,-1762.019645
3272.223303,-9252.574275,-1184.329507,-2221.676944
3272.223640,-8956.491898,-2368.659014,-612.876398
3272.223978,-9918.759623,-2960.823768,1838.629195
3272.224316,-10140.821405,-1924.535449,1072.533697
3272.224654,-10436.903782,-1702.473667,-229.828649
3272.224991,-10732.986159,-1998.556043,-1685.410096
3272.225329,-11325.150913,-2590.720797,-2221.676944
3272.225667,-10807.006753,-2664.741391,-1532.190996
3272.226005,-9326.594869,-3330.926739,-153.219100
3272.226343,-9104.533087,-3108.864956,1532.190996
3272.226680,-9844.739029,-2146.597232,612.876398
3272.227018,-11029.068536,-1998.556043,0.000000
3272.227356,-10362.883188,-1036.288319,-919.314598
3272.227694,-10362.883188,-1184.329507,383.047749
3272.228031,-9918.759623,-592.164754,2604.724693
3272.228369,-9844.739029,0.000000,3447.429741
3272.228707,-10732.986159,1554.432478,3217.601092
3272.229045,-11695.253884,2368.659014,612.876398
3272.229383,-11695.253884,1702.473667,-383.047749
3272.229720,-10881.027347,2220.617826,-383.047749
3272.230058,-9178.553681,962.267725,76.609550
3272.230396,-8586.388927,814.226536,536.266849
3272.230734,-8808.450710,1036.288319,0.000000
3272.231072,-9844.739029,2072.576638,-1455.581446
3272.231409,-9474.636058,2220.617826,-3064.381992
3272.231747,-9030.512492,1110.308913,-2451.505594
3272.232085,-9992.780217,592.164754,-153.219100
3272.232423,-8956.491898,222.061783,612.876398
3272.232760,-9622.677246,1702.473667,1378.971896
3272.233098,-10955.047942,888.247130,536.266849
3272.233436,-10732.986159,222.061783,-306.438199
3272.233774,-10436.903782,-444.123565,-153.219100
3272.234112,-9474.636058,-1628.453072,306.438199
3272.234449,-9030.512492,-1036.288319,2221.676944
3272.234787,-10214.842000,-592.164754,2681.334243
3272.235125,-9992.780217,0.000000,766.095498
3272.235463,-9696.697840,518.144159,-995.924147
3272.235800,-10658.965565,74.020594,-536.266849
3272.236138,-10658.965565,-444.123565,76.609550
3272.236476,-9992.780217,-592.164754,1302.362347
3272.236814,-10214.842000,-370.102971,1915.238745
3272.237152,-10584.944971,-592.164754,1378.971896
3272.237489,-11177.109724,-1332.370696,-76.609550
3272.237827,-10955.047942,-2146.597232,-1532.190996
3272.238165,-9326.594869,-2368.659014,-1532.190996
3272.238503,-8734.430116,-2516.700203,153.219100
3272.238841,-9474.636058,-2442.679609,842.705048
3272.239178,-10140.821405,-1998.556043,-383.047749
3272.239516,-10214.842000,-1776.494261,-1991.848295
3272.239854,-10214.842000,-518.144159,-842.705048
3272.240192,-10658.965565,-1110.308913,459.657299
3272.240529,-10362.883188,-2146.597232,2298.286494
3272.240867,-10066.800811,-1480.411884,3600.648841
3272.241205,-9474.636058,-740.205942,3217.601092
3272.241543,-11251.130318,888.247130,2528.115143
3272.241881,-11917.315666,148.041188,2298.286494
3272.242218,-10066.800811,0.000000,459.657299
3272.242556,-8216.285956,0.000000,1455.581446
3272.242894,-8734.430116,1110.308913,2987.772442
3272.243232,-9474.636058,1628.453072,2145.067394
3272.243569,-9844.739029,2590.720797,-995.924147
3272.243907,-9918.759623,2812.782580,-1915.238745
3272.244245,-10066.800811,2072.576638,-1838.629195
3272.244583,-9104.533087,1110.308913,0.000000
3272.244921,-9104.533087,-370.102971,1225.752797
3272.245258,-8808.450710,814.226536,766.095498
3272.245596,-10510.924376,518.144159,-1149.143247
3272.245934,-10658.965565,-592.164754,-2145.067394
3272.246272,-10066.800811,-1554.432478,-2681.334243
3272.246610,-9178.553681,-2294.638420,-1685.410096
3272.246947,-8808.450710,-1924.535449,0.000000
3272.247285,-9992.780217,-1554.432478,1072.533697
3272.247623,-11177.109724,-1332.370696,153.219100
3272.247961,-10584.944971,-1998.556043,-1608.800546
3272.248298,-10288.862594,-1036.288319,0.000000
3272.248636,-10881.027347,-1850.514855,2068.457845
3272.248974,-10881.027347,-2072.576638,2681.334243
3272.249312,-10732.986159,-1628.453072,2911.162892
3272.249650,-9844.739029,-592.164754,1072.533697
3272.249987,-11029.068536,-814.226536,0.000000
3272.250325,-11177.109724,-814.226536,-536.266849
3272.250663,-9548.656652,-370.102971,-1378.971896
3272.251001,-9474.636058,-444.123565,0.000000
3272.251338,-9104.533087,-148.041188,995.924147
3272.251676,-9844.739029,0.000000,842.705048
3272.252014,-10658.965565,0.000000,0.000000
3272.252352,-9474.636058,962.267725,-919.314598
3272.252690,-10584.944971,370.102971,0.000000
3272.253027,-10214.842000,-148.041188,1149.143247
3272.253365,-9770.718434,148.041188,2068.457845
3272.253703,-10288.862594,0.000000,2221.676944
3272.254041,-10140.821405,888.247130,459.657299
3272.254379,-10732.986159,666.185348,-536.266849
3272.254716,-10140.821405,592.164754,76.609550
3272.255054,-7624.121203,74.020594,459.657299
3272.255392,-8956.491898,666.185348,2681.334243
3272.255730,-10140.821405,1850.514855,2451.505594
3272.256067,-10436.903782,2738.761985,76.609550
3272.256405,-9992.780217,2738.761985,536.266849
3272.256743,-9770.718434,1850.514855,1225.752797
3272.257081,-9918.759623,1924.535449,1762.019645
3272.257419,-10066.800811,666.185348,2528.115143
3272.257756,-9918.759623,1776.494261,2374.896044
3272.258094,-10140.821405,1184.329507,76.609550
3272.258432,-11399.171507,814.226536,-1302.362347
3272.258770,-10140.821405,0.000000,-2221.676944
3272.259107,-8808.450710,-1702.473667,-2374.896044
3272.259445,-8364.327145,-1332.370696,-766.095498
3272.259783,-9548.656652,-1554.432478,536.266849
3272.260121,-10510.924376,-1110.308913,-1149.143247
3272.260459,-10214.842000,-1332.370696,-2451.505594
3272.260796,-11103.089130,-1702.473667,-1378.971896
3272.261134,-11029.068536,-2368.659014,153.219100
3272.261472,-10584.944971,-2368.659014,1455.581446
3272.261810,-10214.842000,-2442.679609,2604.724693
3272.262148,-10807.006753,-1480.411884,1762.019645
3272.262485,-11103.089130,-2368.659014,612.876398
3272.262823,-11991.336260,-1184.329507,-612.876398
3272.263161,-9918.759623,-1998.556043,-76.609550
3272.263499,-9178.553681,-1406.391290,1455.581446
3272.263836,-9326.594869,-740.205942,2757.943793
3272.264174,-9770.718434,296.082377,995.924147
3272.264512,-9770.718434,1332.370696,306.438199
3272.264850,-10214.842000,1406.391290,-766.095498
3272.265188,-10584.944971,1332.370696,0.000000
3272.265525,-10807.006753,740.205942,1455.581446
3272.265863,-9548.656652,888.247130,1608.800546
3272.266201,-9474.636058,962.267725,1225.752797
3272.266539,-10140.821405,1036.288319,-153.219100
3272.266876,-10140.821405,444.123565,-2298.286494
3272.267214,-9252.574275,148.041188,-1685.410096
3272.267552,-8512.368333,-666.185348,-1378.971896
3272.267890,-8290.306550,-740.205942,842.705048
3272.268228,-9770.718434,518.144159,1302.362347
3272.268565,-10436.903782,740.205942,-76.609550
3272.268903,-9696.697840,1406.391290,-1149.143247
3272.269241,-10658.965565,148.041188,536.266849
3272.269579,-10288.862594,0.000000,2068.457845
3272.269917,-9696.697840,-1332.370696,3064.381992
3272.270254,-10584.944971,-370.102971,3370.820191
3272.270592,-10214.842000,-296.082377,1532.190996
3272.270930,-10288.862594,-814.226536,76.609550
3272.271268,-9844.739029,-444.123565,-919.314598
3272.271605,-9474.636058,-962.267725,-1072.533697
3272.271943,-8660.409521,-1480.411884,536.266849
3272.272281,-9252.574275,-666.185348,766.095498
3272.272619,-10732.986159,-296.082377,153.219100
3272.272957,-10510.924376,-222.061783,-2221.676944
3272.273294,-10214.842000,-666.185348,-1915.238745
3272.273632,-10362.883188,-1776.494261,0.000000
3272.273970,-9696.697840,-1998.556043,919.314598
3272.274308,-10362.883188,-1924.535449,1302.362347
3272.274645,-10658.965565,-1702.473667,229.828649
3272.274983,-10362.883188,-1628.453072,-1378.971896
3272.275321,-11177.109724,-1406.391290,-1608.800546
3272.275659,-9844.739029,-1554.432478,-1608.800546
3272.275997,-8586.388927,-666.185348,-536.266849
3272.276334,-9474.636058,-666.185348,2145.067394
3272.276672,-10658.965565,370.102971,2068.457845
3272.277010,-10584.944971,1480.411884,766.095498
3272.277348,-11103.089130,1554.432478,1149.143247
3272.277685,-10732.986159,1406.391290,1378.971896
3272.278023,-9918.759623,1036.288319,2604.724693
3272.278361,-9474.636058,1924.535449,4596.572988
3272.278699,-9474.636058,2220.617826,2757.943793
3272.279037,-9696.697840,2368.659014,153.219100
3272.279374,-10955.047942,2072.576638,-1608.800546
3272.279712,-9474.636058,1998.556043,-2451.505594
3272.280050,-8512.368333,1110.308913,-1915.238745
3272.280388,-8290.306550,1036.288319,0.000000
3272.280726,-9400.615463,1258.350101,-306.438199
3272.281063,-9918.759623,1554.432478,-1838.629195
3272.281401,-9844.739029,962.267725,-2374.896044
3272.281739,-9918.759623,-592.164754,-1225.752797
3272.282077,-9918.759623,-2072.576638,766.095498
3272.282414,-9622.677246,-1850.514855,2221.676944
3272.282752,-10214.842000,-1184.329507,2528.115143
3272.283090,-10362.883188,-888.247130,383.047749
3272.283428,-11621.233289,-1406.391290,-766.095498
3272.283766,-10955.047942,-1480.411884,-1378.971896
3272.284103,-9474.636058,-2146.597232,-766.095498
3272.284441,-9326.594869,-1924.535449,1378.971896
3272.284779,-9622.677246,-1258.350101,2068.457845
3272.285117,-10584.944971,-740.205942,842.705048
3272.285454,-10732.986159,74.020594,-1378.971896
3272.285791,-10510.924376,-296.082377,-1149.143247
3272.286129,-10732.986159,-1184.329507,306.438199
3272.286466,-10807.006753,-1554.432478,1149.143247
3272.286804,-9474.636058,-444.123565,1685.410096
3272.287141,-10214.842000,222.061783,536.266849
3272.287478,-11103.089130,0.000000,-1302.362347
3272.287816,-10066.800811,-518.144159,-3217.601092
3272.288153,-9992.780217,-1110.308913,-2374.896044
3272.288490,-8734.430116,-1480.411884,-689.485948
3272.288828,-8882.471304,-1036.288319,1302.362347
3272.289165,-10140.821405,-370.102971,1149.143247
3272.289502,-10140.821405,222.061783,-1225.752797
3272.289840,-9844.739029,740.205942,-1149.143247
3272.290177,-10214.842000,74.020594,153.219100
3272.290515,-9474.636058,-370.102971,2451.505594
3272.290852,-9252.574275,148.041188,4060.306139
3272.291189,-9474.636058,1406.391290,3753.867940
3272.291527,-10881.027347,1924.535449,1685.410096
3272.291864,-10658.965565,1554.432478,0.000000
3272.292201,-9918.759623,1702.473667,-536.266849
3272.292539,-8808.450710,962.267725,842.705048
3272.292876,-8586.388927,1184.329507,2145.067394
3272.293214,-10214.842000,1554.432478,1991.848295
3272.293551,-10436.903782,1554.432478,-1685.410096
3272.293888,-9622.677246,1406.391290,-2604.724693
3272.294226,-9548.656652,296.082377,-1378.971896
3272.294563,-9696.697840,-1184.329507,459.657299
3272.294900,-9252.574275,-1850.514855,1378.971896
3272.295238,-10214.842000,-888.247130,1608.800546
3272.295575,-10658.965565,-370.102971,-689.485948
3272.295912,-11843.295072,-1628.453072,-1302.362347
3272.296250,-11473.192101,-2442.679609,-2068.457845
3272.296587,-9178.553681,-2590.720797,-1532.190996
3272.296925,-8660.409521,-2590.720797,1302.362347
3272.297262,-9474.636058,-2590.720797,1608.800546
3272.297599,-10362.883188,-1924.535449,153.219100
3272.297937,-10658.965565,-1036.288319,-1302.362347
3272.298274,-10584.944971,-1036.288319,-612.876398
3272.298611,-10732.986159,-1184.329507,229.828649
3272.298949,-10214.842000,-962.267725,2221.676944
3272.299286,-9770.718434,-148.041188,3983.696590
3272.299623,-9918.759623,370.102971,1685.410096
3272.299961,-10955.047942,962.267725,306.438199
3272.300298,-11251.130318,444.123565,-1608.800546
3272.300636,-9548.656652,-592.164754,-1762.019645
3272.300973,-8808.450710,444.123565,383.047749
3272.301310,-9030.512492,74.020594,1991.848295
3272.301648,-9548.656652,1036.288319,0.000000
3272.301985,-9844.739029,1184.329507,-1991.848295
3272.302322,-9992.780217,2294.638420,-2604.724693
3272.302660,-10436.903782,444.123565,-1608.800546
3272.302997,-10214.842000,-740.205942,536.266849
3272.303335,-9104.533087,0.000000,2221.676944
3272.303672,-8808.450710,370.102971,2451.505594
3272.304009,-9770.718434,666.185348,689.485948
3272.304347,-11103.089130,222.061783,-689.485948
3272.304684,-10362.883188,-518.144159,-1225.752797
3272.305021,-9326.594869,-1036.288319,459.657299
3272.305359,-9474.636058,-222.061783,2528.115143
3272.305696,-9992.780217,222.061783,2068.457845
3272.306033,-10066.800811,518.144159,-383.047749
3272.306371,-9548.656652,370.102971,-1378.971896
3272.306708,-9770.718434,222.061783,-689.485948
3272.307046,-10214.842000,-740.205942,1225.752797
3272.307383,-9844.739029,-1036.288319,1762.019645
3272.307720,-10288.862594,-518.144159,1838.629195
3272.308058,-10436.903782,-222.061783,459.657299
3272.308395,-11473.192101,-518.144159,-1838.629195
3272.308732,-10732.986159,-1110.308913,-2374.896044
3272.309070,-9474.636058,-2368.659014,-1608.800546
3272.309407,-9252.574275,-2220.617826,536.266849
3272.309745,-9622.677246,-1850.514855,766.095498
3272.310082,-10584.944971,-1702.473667,0.000000
3272.310419,-10584.944971,-1554.432478,-1072.533697
3272.310757,-10140.821405,-1332.370696,-1225.752797
3272.311094,-10658.965565,-1480.411884,766.095498
3272.311431,-9918.759623,-2294.638420,2987.772442
3272.311769,-9770.718434,-1554.432478,4213.525239
3272.312106,-10807.006753,-296.082377,3217.601092
3272.312443,-10807.006753,370.102971,766.095498
3272.312781,-11325.150913,962.267725,-612.876398
3272.313118,-10214.842000,0.000000,0.000000
3272.313456,-7994.224174,592.164754,1455.581446
3272.313793,-8586.388927,888.247130,2604.724693
3272.314130,-9548.656652,1628.453072,919.314598
3272.314468,-9992.780217,1924.535449,-1685.410096
3272.314805,-10584.944971,2812.782580,-1608.800546
3272.315142,-9178.553681,1258.350101,-689.485948
3272.315480,-8956.491898,740.205942,995.924147
3272.315817,-9622.677246,962.267725,2911.162892
3272.316154,-9400.615463,1036.288319,1072.533697
3272.316492,-10362.883188,1480.411884,-842.705048
3272.316829,-11695.253884,0.000000,-2451.505594
3272.317167,-10140.821405,-962.267725,-2604.724693
3272.317504,-8734.430116,-1924.535449,-1608.800546
3272.317841,-8660.409521,-2368.659014,76.609550
3272.318179,-9326.594869,-1332.370696,153.219100
3272.318516,-9474.636058,-1406.391290,-1762.019645
3272.318853,-10066.800811,-592.164754,-1302.362347
3272.319191,-10732.986159,-1332.370696,-229.828649
3272.319528,-10955.047942,-1628.453072,2451.505594
3272.319866,-11177.109724,-1110.308913,4213.525239
3272.320203,-10955.047942,-592.164754,3370.820191
3272.320540,-11251.130318,0.000000,1455.581446
3272.320878,-11621.233289,-74.020594,-536.266849
3272.321215,-11177.109724,-666.185348,-919.314598
3272.321552,-9844.739029,-962.267725,-536.266849
3272.321890,-9474.636058,-1184.329507,1149.143247
3272.322227,-9844.739029,-1332.370696,306.438199
3272.322564,-9548.656652,-666.185348,-1838.629195
3272.322902,-9696.697840,296.082377,-2374.896044
3272.323239,-9252.574275,-444.123565,-1302.362347
3272.323577,-9992.780217,-740.205942,-229.828649
3272.323914,-9844.739029,-962.267725,1838.629195
3272.324251,-9548.656652,-148.041188,2834.553343
3272.324589,-9844.739029,0.000000,842.705048
3272.324926,-11103.089130,-370.102971,0.000000
3272.325263,-10362.883188,-148.041188,-919.314598
3272.325601,-8734.430116,-666.185348,0.000000
3272.325938,-8216.285956,-370.102971,1991.848295
3272.326276,-8586.388927,0.000000,1915.238745
3272.326613,-10214.842000,1776.494261,842.705048
3272.326950,-10584.944971,2294.638420,-1685.410096
3272.327288,-9918.759623,1998.556043,-1149.143247
3272.327625,-10510.924376,1554.432478,995.924147
3272.327962,-10140.821405,592.164754,2451.505594
3272.328300,-9622.677246,1850.514855,3370.820191
3272.328637,-10288.862594,1332.370696,1762.019645
3272.328974,-11769.274478,1406.391290,-459.657299
3272.329312,-11769.274478,-370.102971,-2068.457845
3272.329649,-9548.656652,-962.267725,-2451.505594
3272.329987,-8512.368333,-1850.514855,-1225.752797
3272.330324,-8512.368333,-2294.638420,-76.609550
3272.330661,-8956.491898,-1480.411884,-1072.533697
3272.330999,-10140.821405,-1850.514855,-2604.724693
3272.331336,-9770.718434,-1184.329507,-3064.381992
3272.331673,-10362.883188,-2368.659014,-1149.143247
3272.332011,-11621.233289,-3478.967927,1762.019645
3272.332348,-9326.594869,-2960.823768,2451.505594
3272.332685,-10214.842000,-3108.864956,2911.162892
3272.333023,-10807.006753,-2368.659014,2145.067394
3272.333360,-11177.109724,-2146.597232,0.000000
3272.333698,-11325.150913,-2146.597232,459.657299
3272.334035,-9844.739029,-1924.535449,536.266849
3272.334372,-9030.512492,-2072.576638,2374.896044
3272.334710,-10362.883188,-888.247130,2757.943793
3272.335047,-9844.739029,0.000000,0.000000
3272.335384,-9696.697840,814.226536,-919.314598
3272.335722,-10807.006753,740.205942,-306.438199
3272.336059,-10732.986159,592.164754,689.485948
3272.336397,-10066.800811,0.000000,1838.629195
3272.336734,-10140.821405,740.205942,2987.772442
3272.337071,-10288.862594,1480.411884,919.314598
3272.337409,-10955.047942,222.061783,-1532.190996
3272.337746,-10140.821405,444.123565,-1991.848295
3272.338083,-8660.409521,-888.247130,-2451.505594
3272.338421,-8660.409521,-888.247130,0.000000
3272.338758,-8956.491898,74.020594,459.657299
3272.339095,-9474.636058,0.000000,0.000000
3272.339433,-9696.697840,888.247130,-1685.410096
3272.339770,-9474.636058,962.267725,-1532.190996
3272.340108,-10510.924376,-296.082377,766.095498
3272.340445,-9622.677246,-1406.391290,2221.676944
3272.340782,-9326.594869,148.041188,4060.306139
3272.341120,-10066.800811,814.226536,2757.943793
3272.341457,-11251.130318,370.102971,459.657299
3272.341794,-10955.047942,0.000000,-1225.752797
3272.342132,-10510.924376,0.000000,-1149.143247
3272.342469,-8882.471304,-814.226536,0.000000
3272.342806,-9844.739029,-592.164754,1072.533697
3272.343144,-9622.677246,0.000000,-612.876398
3272.343481,-10066.800811,296.082377,-2221.676944
3272.343819,-10955.047942,-518.144159,-1838.629195
3272.344156,-10658.965565,-518.144159,-1455.581446
3272.344493,-10955.047942,-1702.473667,229.828649
3272.344831,-10362.883188,-1628.453072,2068.457845
3272.345168,-9548.656652,-1332.370696,1455.581446
3272.345505,-11103.089130,-592.164754,536.266849
3272.345843,-11917.315666,-1998.556043,-1149.143247
3272.346180,-10658.965565,-1628.453072,-1378.971896
3272.346518,-9474.636058,-1332.370696,0.000000
3272.346855,-9030.512492,-2146.597232,919.314598
3272.347192,-9548.656652,-962.267725,2374.896044
3272.347530,-9696.697840,-666.185348,0.000000
3272.347867,-9104.533087,518.144159,-766.095498
3272.348204,-9992.780217,1110.308913,0.000000
3272.348542,-10436.903782,148.041188,1838.629195
3272.348879,-9622.677246,740.205942,2451.505594
3272.349216,-9622.677246,1036.288319,3983.696590
3272.349554,-10214.842000,2590.720797,2221.676944
3272.349891,-10807.006753,1554.432478,-612.876398
3272.350229,-10807.006753,1628.453072,-1149.143247
3272.350566,-9030.512492,592.164754,-1838.629195
3272.350903,-8290.306550,222.061783,76.609550
3272.351241,-9104.533087,1036.288319,536.266849
3272.351578,-9918.759623,1110.308913,-995.924147
3272.351915,-10288.862594,962.267725,-2911.162892
3272.352253,-9696.697840,814.226536,-3064.381992
3272.352590,-10288.862594,-222.061783,-766.095498
3272.352928,-10436.903782,-962.267725,1455.581446
3272.353265,-9178.553681,-1258.350101,2145.067394
3272.353602,-9918.759623,-592.164754,2987.772442
3272.353940,-11103.089130,-1480.411884,153.219100
3272.354277,-11325.150913,-1258.350101,-536.266849
3272.354614,-10658.965565,-2294.638420,76.609550
3272.354952,-9400.615463,-2072.576638,766.095498
3272.355289,-9474.636058,-1850.514855,1532.190996
3272.355626,-9918.759623,-1628.453072,1149.143247
3272.355964,-9696.697840,-814.226536,0.000000
3272.356301,-9696.697840,-1110.308913,-1225.752797
3272.356639,-10066.800811,-814.226536,-612.876398
3272.356976,-9548.656652,-1554.432478,459.657299
3272.357313,-10362.883188,-1480.411884,2298.286494
3272.357651,-10362.883188,-888.247130,1915.238745
3272.357988,-10584.944971,-592.164754,459.657299
3272.358325,-11251.130318,-1184.329507,-536.266849
3272.358663,-10807.006753,-1702.473667,-1455.581446
3272.359000,-9326.594869,-1776.494261,-995.924147
3272.359337,-9548.656652,-2368.659014,612.876398
3272.359675,-9252.574275,-1036.288319,919.314598
3272.360012,-9770.718434,-1036.288319,-919.314598
3272.360350,-10510.924376,222.061783,-1225.752797
3272.360687,-9992.780217,-148.041188,-1149.143247
3272.361024,-10140.821405,0.000000,689.485948
3272.361362,-9696.697840,-296.082377,2145.067394
3272.361699,-9696.697840,-222.061783,3907.087040
3272.362036,-10436.903782,518.144159,3753.867940
3272.362374,-10584.944971,1628.453072,1608.800546
3272.362711,-11473.192101,740.205942,842.705048
3272.363049,-9400.615463,740.205942,459.657299
3272.363386,-8660.409521,296.082377,1378.971896
3272.363723,-9844.739029,1628.453072,1762.019645
3272.364061,-9918.759623,1258.350101,-995.924147
3272.364398,-9844.739029,1554.432478,-2374.896044
3272.364735,-9474.636058,1036.288319,-3064.381992
3272.365073,-8882.471304,222.061783,-2221.676944
3272.365410,-9400.615463,-592.164754,-842.705048
3272.365747,-9030.512492,-1702.473667,612.876398
3272.366085,-9474.636058,-370.102971,383.047749
3272.366422,-11103.089130,-1184.329507,-689.485948
3272.366760,-11325.150913,-962.267725,-1378.971896
3272.367097,-10436.903782,-1924.535449,-995.924147
3272.367434,-10214.842000,-2516.700203,76.609550
3272.367772,-9252.574275,-2294.638420,1225.752797
3272.368109,-10214.842000,-1998.556043,536.266849
3272.368446,-10214.842000,-1480.411884,-153.219100
3272.368784,-10436.903782,-1258.350101,-995.924147
3272.369121,-11029.068536,-1406.391290,306.438199
3272.369459,-10584.944971,-1036.288319,1149.143247
3272.369796,-10214.842000,-666.185348,2834.553343
3272.370133,-10658.965565,148.041188,3064.381992
3272.370471,-10955.047942,888.247130,1225.752797
3272.370808,-11251.130318,1184.329507,-306.438199
3272.371145,-11029.068536,592.164754,-536.266849
3272.371483,-9844.739029,0.000000,-383.047749
3272.371820,-9252.574275,0.000000,919.314598
3272.372157,-8808.450710,1110.308913,536.266849
3272.372495,-9252.574275,370.102971,-1225.752797
3272.372832,-9622.677246,1258.350101,-2451.505594
3272.373170,-9770.718434,740.205942,-1915.238745
3272.373507,-9696.697840,-148.041188,-536.266849
3272.373844,-9030.512492,-74.020594,1378.971896
3272.374182,-8956.491898,370.102971,2681.334243
3272.374519,-10140.821405,444.123565,2145.067394
3272.374856,-10362.883188,370.102971,612.876398
3272.375194,-10214.842000,518.144159,0.000000
3272.375531,-9474.636058,74.020594,229.828649
3272.375868,-9622.677246,-962.267725,2068.457845
3272.376206,-10288.862594,0.000000,2987.772442
3272.376543,-10066.800811,296.082377,229.828649
3272.376881,-9770.718434,1332.370696,-995.924147
3272.377218,-10140.821405,740.205942,-766.095498
3272.377555,-9770.718434,74.020594,-383.047749
3272.377893,-9770.718434,0.000000,842.705048
3272.378230,-10436.903782,-74.020594,2681.334243
3272.378567,-10732.986159,222.061783,1225.752797
3272.378905,-11547.212695,0.000000,-459.657299
3272.379242,-11769.274478,74.020594,-1149.143247
3272.379580,-10362.883188,-888.247130,-2451.505594
3272.379917,-9918.759623,-2146.597232,-153.219100
3272.380254,-9400.615463,-2442.679609,995.924147
3272.380592,-9326.594869,-2516.700203,-459.657299
3272.380929,-9992.780217,-1702.473667,-2145.067394
3272.381266,-10214.842000,-1998.556043,-1991.848295
3272.381604,-10510.924376,-1998.556043,-842.705048
3272.381941,-9474.636058,-2812.782580,1302.362347
3272.382278,-8734.430116,-1554.432478,2834.553343
3272.382616,-10140.821405,-1406.391290,3830.477490
3272.382953,-10955.047942,-740.205942,3064.381992
3272.383290,-11843.295072,0.000000,1455.581446
3272.383628,-10732.986159,666.185348,153.219100
3272.383965,-9474.636058,-222.061783,766.095498
3272.384302,-9474.636058,-518.144159,3140.991542
3272.384639,-9548.656652,222.061783,3447.429741
3272.384977,-9474.636058,1776.494261,-76.609550
3272.385314,-9918.759623,1998.556043,-1838.629195
3272.385651,-11325.150913,1702.473667,-766.095498
3272.385989,-10436.903782,814.226536,229.828649
3272.386326,-9030.512492,1110.308913,1608.800546
3272.386663,-9252.574275,1480.411884,1838.629195
3272.387000,-10362.883188,1554.432478,0.000000
3272.387338,-10955.047942,888.247130,-2298.286494
3272.387675,-9844.739029,0.000000,-2451.505594
3272.388012,-9326.594869,-1406.391290,-1302.362347
3272.388349,-9104.533087,-1850.514855,842.705048
3272.388687,-9030.512492,-1258.350101,1762.019645
3272.389024,-9326.594869,-666.185348,-383.047749
3272.389361,-9918.759623,-888.247130,-2145.067394
3272.389698,-9770.718434,-222.061783,-2374.896044
3272.390036,-10436.903782,-962.267725,0.000000
3272.390373,-10140.821405,-2072.576638,1762.019645
3272.390710,-9400.615463,-148.041188,2681.334243
3272.391047,-10732.986159,0.000000,1838.629195
3272.391385,-11029.068536,-222.061783,-306.438199
3272.391722,-10510.924376,-888.247130,-1378.971896
3272.392059,-10288.862594,-1184.329507,0.000000
3272.392396,-9326.594869,-1184.329507,842.705048
3272.392734,-9992.780217,-1258.350101,1149.143247
3272.393071,-10362.883188,-1110.308913,612.876398
3272.393408,-10362.883188,444.123565,-2221.676944
3272.393745,-11251.130318,814.226536,-1762.019645
3272.394083,-10658.965565,0.000000,-1532.190996
3272.394420,-9178.553681,-962.267725,-459.657299
3272.394757,-9622.677246,-1110.308913,1991.848295
3272.395094,-10214.842000,74.020594,2068.457845
3272.395432,-11473.192101,518.144159,842.705048
3272.395769,-12287.418637,518.144159,-383.047749
3272.396106,-10955.047942,0.000000,-383.047749
3272.396444,-9104.533087,-444.123565,842.705048
3272.396781,-8734.430116,-518.144159,3140.991542
3272.397118,-9252.574275,296.082377,4366.744339
3272.397455,-10140.821405,814.226536,1225.752797
3272.397793,-10732.986159,1924.535449,-153.219100
3272.398130,-10658.965565,2664.741391,0.000000
3272.398467,-9474.636058,1258.350101,1608.800546
3272.398804,-8586.388927,740.205942,3064.381992
3272.399142,-8808.450710,1036.288319,3447.429741
3272.399479,-9474.636058,2368.659014,2068.457845
3272.399816,-11177.109724,1850.514855,-612.876398
3272.400153,-11029.068536,370.102971,-2604.724693
3272.400491,-8956.491898,-592.164754,-2145.067394
3272.400828,-8216.285956,-1110.308913,306.438199
3272.401165,-8438.347739,-740.205942,1685.410096
3272.401502,-9104.533087,-1036.288319,-995.924147
3272.401840,-10140.821405,-296.082377,-3140.991542
3272.402177,-10807.006753,-1258.350101,-3140.991542
3272.402514,-11103.089130,-1702.473667,-459.657299
3272.402851,-11029.068536,-2516.700203,1378.971896
3272.403189,-9918.759623,-2294.638420,2987.772442
3272.403526,-10066.800811,-1702.473667,1302.362347
3272.403863,-11917.315666,-814.226536,153.219100
3272.404200,-11991.336260,-1406.391290,-383.047749
3272.404538,-11325.150913,-2146.597232,-766.095498
3272.404875,-10362.883188,-2220.617826,1685.410096
3272.405212,-9918.759623,-666.185348,2757.943793
3272.405549,-9918.759623,-666.185348,1762.019645
3272.405887,-10288.862594,-370.102971,-536.266849
3272.406224,-9992.780217,370.102971,-1455.581446
3272.406561,-10436.903782,222.061783,0.000000
3272.406899,-9992.780217,-740.205942,1072.533697
3272.407236,-9326.594869,-962.267725,2604.724693
3272.407573,-9474.636058,222.061783,1838.629195
3272.407910,-9918.759623,518.144159,-842.705048
3272.408248,-10214.842000,740.205942,-2834.553343
3272.408585,-9474.636058,-740.205942,-2451.505594
3272.408922,-8364.327145,-740.205942,-383.047749
3272.409259,-7624.121203,-666.185348,1378.971896
3272.409597,-9400.615463,296.082377,1378.971896
3272.409934,-10436.903782,1184.329507,-536.266849
3272.410271,-10658.965565,1480.411884,-1378.971896
3272.410608,-10214.842000,2072.576638,-306.438199
3272.410946,-10732.986159,296.082377,2145.067394
3272.411283,-10658.965565,1036.288319,3677.258390
3272.411620,-9918.759623,1110.308913,2757.943793
3272.411957,-11177.109724,1702.473667,1455.581446
3272.412295,-11251.130318,2072.576638,-612.876398
3272.412632,-11251.130318,444.123565,-995.924147
3272.412969,-9992.780217,0.000000,306.438199
3272.413306,-8586.388927,370.102971,1149.143247
3272.413644,-9474.636058,592.164754,2528.115143
3272.413981,-10584.944971,370.102971,-536.266849
3272.414318,-9918.759623,296.082377,-2911.162892
3272.414655,-10732.986159,-370.102971,-1762.019645
3272.414993,-10140.821405,-1184.329507,-306.438199
3272.415330,-9178.553681,-2072.576638,1455.581446
3272.415667,-9104.533087,-2146.597232,2145.067394
3272.416004,-9252.574275,-1850.514855,229.828649
3272.416342,-10658.965565,-2368.659014,-1838.629195
3272.416679,-11251.130318,-2146.597232,-1455.581446
3272.417016,-9918.759623,-2960.823768,-1302.362347
3272.417354,-8808.450710,-3182.885551,459.657299
3272.417691,-8956.491898,-2220.617826,2451.505594
3272.418028,-9622.677246,-1406.391290,1685.410096
3272.418365,-10658.965565,74.020594,612.876398
3272.418703,-10881.027347,296.082377,-612.876398
3272.419040,-11251.130318,592.164754,536.266849
3272.419377,-11325.150913,148.041188,2451.505594
3272.419714,-11251.130318,1036.288319,4443.353888
3272.420052,-10732.986159,1184.329507,3064.381992
3272.420389,-10214.842000,1776.494261,0.000000
3272.420726,-11029.068536,1776.494261,-1149.143247
3272.421063,-10436.903782,888.247130,-766.095498
3272.421401,-9178.553681,592.164754,459.657299
3272.421738,-8512.368333,0.000000,1302.362347
3272.422075,-9474.636058,1332.370696,459.657299
3272.422412,-9770.718434,1628.453072,-1762.019645
3272.422750,-11103.089130,1184.329507,-3677.258390
3272.423087,-8290.306550,518.144159,-2987.772442
3272.423424,-8734.430116,-1258.350101,536.266849
3272.423761,-9696.697840,-1406.391290,3294.210641
3272.424099,-8808.450710,-666.185348,1762.019645
3272.424436,-9326.594869,-740.205942,842.705048
3272.424773,-11029.068536,-1110.308913,-995.924147
3272.425110,-10510.924376,-1554.432478,-1149.143247
3272.425448,-9474.636058,-666.185348,-229.828649
3272.425785,-8882.471304,-1850.514855,1762.019645
3272.426122,-9474.636058,-296.082377,2681.334243
3272.426459,-11325.150913,666.185348,229.828649
3272.426797,-11251.130318,222.061783,-1838.629195
3272.427134,-11325.150913,-296.082377,-459.657299
3272.427471,-10881.027347,-1036.288319,306.438199
3272.427809,-9770.718434,-666.185348,2221.676944
3272.428146,-9918.759623,-888.247130,1915.238745
3272.428483,-10362.883188,-444.123565,995.924147
3272.428820,-11325.150913,-962.267725,-1762.019645
3272.429158,-11621.233289,-666.185348,-995.924147
3272.429495,-10658.965565,-1258.350101,-1225.752797
3272.429832,-9474.636058,-2368.659014,-306.438199
3272.430169,-8364.327145,-1850.514855,1225.752797
3272.430507,-9252.574275,-1776.494261,306.438199
3272.430844,-9474.636058,-888.247130,-995.924147
3272.431181,-9474.636058,-592.164754,-1532.190996
3272.431518,-10658.965565,-148.041188,0.000000
3272.431856,-10362.883188,-1406.391290,1685.410096
3272.432193,-9474.636058,-444.123565,3753.867940
3272.432530,-9400.615463,518.144159,3830.477490
3272.432867,-10140.821405,1184.329507,1455.581446
3272.433205,-10510.924376,1406.391290,-459.657299
3272.433542,-10140.821405,888.247130,-612.876398
3272.433879,-9400.615463,1184.329507,1532.190996
3272.434216,-8808.450710,1628.453072,2451.505594
3272.434554,-9770.718434,1554.432478,2145.067394
3272.434891,-10584.944971,3256.906145,-1378.971896
3272.435228,-10584.944971,1850.514855,-2221.676944
3272.435565,-10288.862594,1850.514855,-1608.800546
3272.435903,-9474.636058,222.061783,-459.657299
3272.436240,-9844.739029,0.000000,1762.019645
3272.436577,-9770.718434,740.205942,1302.362347
3272.436914,-10288.862594,74.020594,-1608.800546
3272.437252,-11103.089130,0.000000,-2451.505594
3272.437589,-10955.047942,-1480.411884,-1915.238745
3272.437926,-9548.656652,-1776.494261,-459.657299
3272.438264,-9104.533087,-2146.597232,766.095498
3272.438601,-9474.636058,-1850.514855,1302.362347
3272.438938,-10140.821405,-1702.473667,-306.438199
3272.439275,-10658.965565,-1702.473667,-995.924147
3272.439613,-9844.739029,-1184.329507,-689.485948
3272.439950,-10066.800811,-2516.700203,1225.752797
3272.440287,-9770.718434,-1998.556043,2681.334243
3272.440624,-9326.594869,-1184.329507,3064.381992
3272.440962,-10732.986159,-444.123565,1991.848295
3272.441299,-10881.027347,-296.082377,0.000000
3272.441636,-11103.089130,-518.144159,-612.876398
3272.441973,-10140.821405,-1110.308913,0.000000
3272.442311,-8586.388927,-666.185348,766.095498
3272.442648,-9178.553681,-666.185348,1915.238745
3272.442985,-9918.759623,0.000000,76.609550
3272.443322,-10214.842000,814.226536,-1838.629195
3272.443660,-10881.027347,1036.288319,-2451.505594
3272.443997,-10436.903782,148.041188,-1455.581446
3272.444334,-10066.800811,-962.267725,1072.533697
3272.444671,-9548.656652,-1036.288319,2068.457845
3272.445009,-9326.594869,0.000000,2145.067394
3272.445346,-10732.986159,444.123565,459.657299
3272.445683,-11473.192101,0.000000,-766.095498
3272.446020,-10436.903782,0.000000,459.657299
3272.446358,-9548.656652,-962.267725,1455.581446
3272.446695,-8660.409521,518.144159,2451.505594
3272.447032,-10214.842000,740.205942,2298.286494
3272.447369,-10955.047942,1480.411884,-459.657299
3272.447707,-9548.656652,1184.329507,-1991.848295
3272.448044,-9770.718434,1036.288319,-229.828649
3272.448381,-9104.533087,-518.144159,1302.362347
3272.448719,-9030.512492,-888.247130,1991.848295
3272.449056,-9400.615463,0.000000,1532.190996
3272.449393,-9770.718434,0.000000,-229.828649
3272.449730,-11029.068536,-148.041188,-1225.752797
3272.450068,-11029.068536,-740.205942,-2298.286494
3272.450405,-9326.594869,-1332.370696,-2451.505594
3272.450742,-8586.388927,-1628.453072,-1302.362347
3272.451079,-9030.512492,-2072.576638,306.438199
3272.451417,-9696.697840,-1924.535449,-766.095498
3272.451754,-10362.883188,-2368.659014,-1991.848295
3272.452091,-10955.047942,-740.205942,-1225.752797
3272.452428,-11843.295072,-2146.597232,612.876398
3272.452766,-11029.068536,-2146.597232,1685.410096
3272.453103,-9992.780217,-1776.494261,2068.457845
3272.453440,-10881.027347,-1184.329507,2681.334243
3272.453777,-11325.150913,-592.164754,1532.190996
3272.454115,-11843.295072,-518.144159,306.438199
3272.454452,-10955.047942,-814.226536,383.047749
3272.454789,-8882.471304,-370.102971,1149.143247
3272.455126,-9326.594869,444.123565,2604.724693
3272.455464,-10066.800811,814.226536,842.705048
3272.455801,-9622.677246,1332.370696,-995.924147
3272.456138,-10066.800811,1406.391290,-995.924147
3272.456475,-10214.842000,1110.308913,153.219100
3272.456813,-9622.677246,-148.041188,1149.143247
3272.457150,-9178.553681,0.000000,2068.457845
3272.457487,-8808.450710,666.185348,689.485948
3272.457824,-9326.594869,1036.288319,-1225.752797
3272.458162,-10214.842000,370.102971,-1532.190996
3272.458499,-9474.636058,-296.082377,-1762.019645
3272.458836,-9178.553681,-592.164754,-689.485948
3272.459174,-9548.656652,0.000000,1149.143247
3272.459511,-9844.739029,0.000000,-153.219100
3272.459848,-10288.862594,370.102971,-1149.143247
3272.460185,-9770.718434,370.102971,-995.924147
3272.460523,-9918.759623,-370.102971,-306.438199
3272.460860,-10288.862594,-370.102971,1915.238745
3272.461197,-10807.006753,-814.226536,3370.820191
3272.461534,-11177.109724,370.102971,2451.505594
3272.461872,-11251.130318,592.164754,842.705048
3272.462209,-11769.274478,814.226536,-153.219100
3272.462546,-11177.109724,74.020594,-306.438199
3272.462883,-9474.636058,-740.205942,-612.876398
3272.463221,-8364.327145,-1036.288319,229.828649
3272.463558,-9400.615463,-592.164754,995.924147
3272.463895,-10140.821405,0.000000,-766.095498
3272.464232,-10362.883188,-1184.329507,-2451.505594
3272.464570,-9770.718434,-962.267725,-1685.410096
3272.464907,-9844.739029,-1702.473667,229.828649
3272.465244,-9770.718434,-2368.659014,1915.238745
3272.465581,-8956.491898,-2072.576638,1991.848295
3272.465919,-9844.739029,-1258.350101,1072.533697
3272.466256,-11325.150913,-1332.370696,-153.219100
3272.466593,-11325.150913,-888.247130,-1302.362347
3272.466930,-10140.821405,-1554.432478,-842.705048
3272.467268,-8808.450710,-2072.576638,1302.362347
3272.467605,-8734.430116,-740.205942,2528.115143
3272.467942,-9474.636058,74.020594,1455.581446
3272.468279,-10955.047942,1110.308913,0.000000
3272.468617,-10510.924376,2072.576638,0.000000
3272.468954,-10955.047942,1850.514855,1149.143247
3272.469291,-10881.027347,1110.308913,2834.553343
3272.469629,-9696.697840,1406.391290,3064.381992
3272.469966,-9548.656652,1628.453072,1302.362347
3272.470303,-10362.883188,740.205942,0.000000
3272.470640,-10436.903782,1332.370696,-2145.067394
3272.470978,-9844.739029,0.000000,-1915.238745
3272.471315,-9178.553681,-962.267725,-1378.971896
3272.471652,-7994.224174,-1184.329507,-842.705048
3272.471989,-9178.553681,-814.226536,-612.876398
3272.472327,-9252.574275,-518.144159,-2757.943793
3272.472664,-9252.574275,-1184.329507,-2374.896044
3272.473001,-10288.862594,-1628.453072,-153.219100
3272.473338,-10510.924376,-962.267725,1762.019645
3272.473676,-10584.944971,-1924.535449,3064.381992
3272.474013,-10658.965565,-962.267725,2068.457845
3272.474350,-10362.883188,-1554.432478,76.609550
3272.474687,-11547.212695,-1554.432478,383.047749
3272.475025,-10658.965565,-1554.432478,-383.047749
3272.475362,-9474.636058,-1480.411884,229.828649
3272.475699,-9030.512492,-1406.391290,1762.019645
3272.476036,-9474.636058,-666.185348,2298.286494
3272.476374,-10436.903782,444.123565,-383.047749
3272.476711,-10288.862594,962.267725,-1532.190996
3272.477048,-10436.903782,962.267725,536.266849
3272.477385,-11177.109724,222.061783,1991.848295
3272.477723,-10658.965565,148.041188,2451.505594
3272.478060,-10140.821405,666.185348,2221.676944
3272.478397,-10066.800811,444.123565,1378.971896
3272.478734,-10955.047942,222.061783,-383.047749
3272.479072,-11029.068536,-296.082377,-1378.971896
3272.479409,-9252.574275,-592.164754,-1455.581446
3272.479746,-8290.306550,-888.247130,-153.219100
3272.480084,-8660.409521,-592.164754,536.266849
3272.480421,-9844.739029,0.000000,-995.924147
3272.480758,-10214.842000,1628.453072,-2604.724693
3272.481095,-9474.636058,962.267725,-1838.629195
3272.481433,-9178.553681,74.020594,0.000000
3272.481770,-9474.636058,-518.144159,2451.505594
3272.482107,-9326.594869,-592.164754,4213.525239
3272.482444,-9992.780217,370.102971,3294.210641
3272.482782,-11325.150913,518.144159,1455.581446
3272.483119,-11695.253884,592.164754,0.000000
3272.483456,-10362.883188,-296.082377,-536.266849
3272.483793,-9474.636058,-296.082377,0.000000
3272.484131,-8364.327145,-296.082377,536.266849
3272.484468,-8512.368333,0.000000,-306.438199
3272.484805,-9992.780217,296.082377,-1915.238745
3272.485143,-10066.800811,592.164754,-3064.381992
3272.485480,-10214.842000,444.123565,-1915.238745
3272.485818,-11251.130318,-1406.391290,76.609550
3272.486155,-10955.047942,-1554.432478,1302.362347
3272.486493,-10436.903782,-1110.308913,766.095498
3272.486830,-10584.944971,-962.267725,-612.876398
3272.487168,-11399.171507,-1702.473667,-995.924147
3272.487505,-11177.109724,-2146.597232,-919.314598
3272.487842,-10140.821405,-2368.659014,153.219100
3272.488180,-9178.553681,-1850.514855,995.924147
3272.488517,-9844.739029,-1480.411884,2221.676944
3272.488855,-10288.862594,-740.205942,1225.752797
3272.489192,-10436.903782,148.041188,536.266849
3272.489530,-10436.903782,888.247130,919.314598
3272.489867,-10288.862594,-74.020594,2681.334243
3272.490205,-9992.780217,-666.185348,4443.353888
3272.490542,-9696.697840,518.144159,4136.915689
3272.490879,-10066.800811,1776.494261,2681.334243
3272.491217,-10362.883188,888.247130,0.000000
3272.491554,-10881.027347,814.226536,-1915.238745
3272.491892,-9178.553681,-74.020594,-1302.362347
3272.492229,-7624.121203,0.000000,0.000000
3272.492567,-8068.244768,0.000000,842.705048
3272.492904,-9844.739029,592.164754,-919.314598
3272.493242,-10288.862594,1924.535449,-3140.991542
3272.493579,-9770.718434,1406.391290,-3447.429741
3272.493916,-10658.965565,-148.041188,-1378.971896
3272.494254,-9696.697840,-1332.370696,1302.362347
3272.494591,-10066.800811,-1258.350101,3524.039291
3272.494929,-10214.842000,74.020594,1225.752797
3272.495266,-11251.130318,0.000000,-1149.143247
3272.495604,-12953.603985,-740.205942,-919.314598
3272.495941,-11177.109724,-1332.370696,-766.095498
3272.496278,-8882.471304,-1850.514855,-229.828649
3272.496616,-8438.347739,-888.247130,2145.067394
3272.496953,-9696.697840,-666.185348,766.095498
3272.497291,-10807.006753,370.102971,-1225.752797
3272.497628,-10658.965565,222.061783,-1608.800546
3272.497966,-10881.027347,-222.061783,-842.705048
3272.498303,-10584.944971,-1184.329507,995.924147
3272.498641,-9622.677246,-1258.350101,2451.505594
3272.498978,-9326.594869,-666.185348,1838.629195
3272.499315,-9770.718434,-592.164754,-536.266849
3272.499653,-10955.047942,-148.041188,-1915.238745
3272.499990,-10658.965565,-1850.514855,-2451.505594
3272.500328,-8882.471304,-2146.597232,-1991.848295
3272.500665,-7624.121203,-2146.597232,-229.828649
3272.501003,-9030.512492,-1554.432478,1302.362347
3272.501340,-9992.780217,-370.102971,-383.047749
3272.501678,-10436.903782,0.000000,-1378.971896
3272.502015,-11103.089130,518.144159,459.657299
3272.502352,-10658.965565,-222.061783,1455.581446
3272.502690,-11029.068536,-1184.329507,4290.134789
3272.503027,-10510.924376,296.082377,4673.182538
3272.503365,-9918.759623,1332.370696,3447.429741
3272.503702,-11621.233289,1332.370696,1838.629195
3272.504040,-11325.150913,814.226536,0.000000
3272.504377,-9474.636058,222.061783,459.657299
3272.504715,-9030.512492,1110.308913,2451.505594
3272.505052,-8956.491898,1332.370696,2987.772442
3272.505389,-10436.903782,2368.659014,766.095498
3272.505727,-10140.821405,1850.514855,-1838.629195
3272.506064,-9104.533087,2368.659014,-3140.991542
3272.506402,-9326.594869,222.061783,-1532.190996
3272.506739,-9548.656652,-592.164754,612.876398
3272.507077,-8734.430116,-888.247130,1608.800546
3272.507414,-9400.615463,-740.205942,153.219100
3272.507751,-10362.883188,-888.247130,-1915.238745
3272.508089,-10807.006753,-1776.494261,-2911.162892
3272.508426,-10066.800811,-2368.659014,-1685.410096
3272.508764,-8734.430116,-2960.823768,-306.438199
3272.509101,-8956.491898,-1924.535449,1532.190996
3272.509439,-10510.924376,-1332.370696,229.828649
3272.509776,-11177.109724,-1110.308913,-1762.019645
3272.510114,-10584.944971,-1036.288319,-1532.190996
3272.510451,-11029.068536,-1332.370696,306.438199
3272.510788,-10807.006753,-1702.473667,1532.190996
3272.511126,-10362.883188,-1628.453072,2911.162892
3272.511463,-10955.047942,518.144159,2911.162892
3272.511801,-11473.192101,0.000000,306.438199
3272.512138,-12435.459826,1036.288319,-1608.800546
3272.512476,-11621.233289,-444.123565,-1608.800546
3272.512813,-9622.677246,-222.061783,-306.438199
3272.513151,-8216.285956,-444.123565,1149.143247
3272.513488,-8956.491898,666.185348,995.924147
3272.513825,-10584.944971,1184.329507,-919.314598
3272.514163,-10288.862594,1036.288319,-3753.867940
3272.514500,-10362.883188,444.123565,-2145.067394
3272.514838,-9770.718434,0.000000,0.000000
3272.515175,-9030.512492,-1406.391290,2681.334243
3272.515513,-8882.471304,-370.102971,3370.820191
3272.515850,-8956.491898,0.000000,2068.457845
3272.516188,-10214.842000,0.000000,459.657299
3272.516525,-10510.924376,0.000000,-153.219100
3272.516862,-8882.471304,-1258.350101,919.314598
3272.517200,-8216.285956,-222.061783,2451.505594
3272.517537,-9104.533087,296.082377,3370.820191
3272.517875,-10066.800811,2146.597232,612.876398
3272.518212,-11029.068536,2072.576638,-1532.190996
3272.518550,-10510.924376,1554.432478,-1225.752797
3272.518887,-10066.800811,740.205942,459.657299
3272.519224,-10066.800811,-74.020594,2834.553343
3272.519562,-9252.574275,222.061783,3370.820191
3272.519899,-10066.800811,296.082377,1608.800546
3272.520237,-11547.212695,592.164754,-153.219100
3272.520574,-12435.459826,-222.061783,-2068.457845
3272.520912,-10881.027347,-74.020594,-1991.848295
3272.521249,-9474.636058,-1776.494261,-1072.533697
3272.521587,-8882.471304,-1702.473667,536.266849
3272.521924,-9400.615463,-2146.597232,-153.219100
3272.522261,-9474.636058,-740.205942,-2604.724693
3272.522599,-9770.718434,-1924.535449,-2757.943793
3272.522936,-10140.821405,-2664.741391,-1378.971896
3272.523274,-10066.800811,-2368.659014,995.924147
3272.523611,-10214.842000,-2738.761985,3294.210641
3272.523949,-9770.718434,-1480.411884,3753.867940
3272.524286,-10881.027347,-1258.350101,1991.848295
3272.524624,-11843.295072,-370.102971,459.657299
3272.524961,-10584.944971,222.061783,-612.876398
3272.525298,-9992.780217,-592.164754,1532.190996
3272.525636,-9252.574275,-740.205942,2834.553343
3272.525973,-9178.553681,814.226536,2451.505594
3272.526311,-10362.883188,1628.453072,0.000000
3272.526648,-10658.965565,2812.782580,-2374.896044
3272.526986,-10214.842000,1998.556043,-1838.629195
3272.527323,-10214.842000,1110.308913,229.828649
3272.527660,-9400.615463,1036.288319,842.705048
3272.527998,-9104.533087,1554.432478,2145.067394
3272.528335,-9844.739029,1036.288319,76.609550
3272.528673,-10362.883188,1332.370696,-2068.457845
3272.529010,-9992.780217,222.061783,-2604.724693
3272.529348,-9104.533087,-888.247130,-1072.533697
3272.529685,-9030.512492,-1184.329507,919.314598
3272.530023,-9622.677246,-222.061783,1302.362347
3272.530360,-10140.821405,148.041188,0.000000
3272.530697,-10140.821405,592.164754,-2298.286494
3272.531035,-9918.759623,0.000000,-1378.971896
3272.531372,-10288.862594,-1332.370696,689.485948
3272.531710,-9844.739029,-1850.514855,2911.162892
3272.532047,-9696.697840,296.082377,4136.915689
3272.532385,-10584.944971,-222.061783,2604.724693
3272.532722,-11473.192101,518.144159,153.219100
3272.533060,-11991.336260,-814.226536,-1225.752797
3272.533397,-10436.903782,-370.102971,-919.314598
3272.533734,-8808.450710,-1110.308913,76.609550
3272.534072,-9104.533087,-1184.329507,1685.410096
3272.534409,-9844.739029,-740.205942,306.438199
3272.534747,-9770.718434,-518.144159,-2451.505594
3272.535084,-10214.842000,-296.082377,-2911.162892
3272.535422,-10955.047942,-814.226536,-1302.362347
3272.535759,-9918.759623,-1406.391290,0.000000
3272.536097,-9326.594869,-1702.473667,1608.800546
3272.536434,-10584.944971,-370.102971,2528.115143
3272.536771,-10658.965565,-592.164754,153.219100
3272.537109,-11843.295072,-814.226536,-689.485948
3272.537446,-10658.965565,-888.247130,-919.314598
3272.537784,-9030.512492,-1554.432478,919.314598
3272.538121,-9326.594869,-962.267725,3524.039291
3272.538459,-10066.800811,-962.267725,2757.943793
3272.538796,-10140.821405,1332.370696,919.314598
3272.539133,-10362.883188,2220.617826,-383.047749
3272.539471,-10732.986159,1850.514855,76.609550
3272.539808,-10066.800811,666.185348,1455.581446
3272.540146,-9474.636058,1776.494261,2987.772442
3272.540483,-8808.450710,1850.514855,1991.848295
3272.540821,-9030.512492,2146.597232,459.657299
3272.541158,-10955.047942,2072.576638,-1072.533697
3272.541496,-10584.944971,1406.391290,-1915.238745
3272.541833,-8734.430116,0.000000,-1685.410096
3272.542170,-8808.450710,222.061783,153.219100
3272.542508,-9474.636058,-518.144159,842.705048
3272.542845,-9696.697840,0.000000,-1685.410096
3272.543183,-9104.533087,-370.102971,-3677.258390
3272.543520,-9770.718434,-814.226536,-2374.896044
3272.543858,-10362.883188,-962.267725,-612.876398
3272.544195,-10140.821405,-2368.659014,1225.752797
3272.544533,-9918.759623,-1332.370696,2374.896044
3272.544870,-10584.944971,-1406.391290,766.095498
3272.545207,-11843.295072,-1406.391290,153.219100
3272.545545,-12213.398043,-1406.391290,-842.705048
3272.545882,-10140.821405,-1924.535449,-306.438199
3272.546220,-9622.677246,-1998.556043,1149.143247
3272.546557,-9548.656652,-1702.473667,3064.381992
3272.546895,-10066.800811,-814.226536,2145.067394
3272.547232,-10881.027347,-518.144159,-536.266849
3272.547570,-10362.883188,444.123565,-919.314598
3272.547907,-10658.965565,-370.102971,0.000000
3272.548244,-10288.862594,-740.205942,1915.238745
3272.548582,-8956.491898,-1258.350101,2145.067394
3272.548919,-9400.615463,444.123565,1838.629195
3272.549257,-10807.006753,444.123565,229.828649
3272.549594,-11177.109724,0.000000,-2681.334243
3272.549932,-10510.924376,0.000000,-2221.676944
3272.550269,-8808.450710,-1776.494261,-306.438199
3272.550606,-7920.203579,-1406.391290,919.314598
3272.550944,-9030.512492,-296.082377,1225.752797
3272.551281,-9992.780217,74.020594,-306.438199
3272.551619,-10066.800811,444.123565,-1532.190996
3272.551956,-9918.759623,-222.061783,-842.705048
3272.552294,-10214.842000,1036.288319,2068.457845
3272.552631,-9844.739029,-222.061783,3753.867940
3272.552969,-9548.656652,814.226536,4443.353888
3272.553306,-10140.821405,2294.638420,2374.896044
3272.553643,-11399.171507,1480.411884,689.485948
3272.553981,-11399.171507,888.247130,-536.266849
3272.554318,-9918.759623,0.000000,-536.266849
3272.554656,-9400.615463,222.061783,1302.362347
3272.554993,-9844.739029,296.082377,842.705048
3272.555331,-9770.718434,74.020594,-689.485948
3272.555668,-8734.430116,74.020594,-2451.505594
3272.556006,-9770.718434,74.020594,-2298.286494
3272.556343,-10214.842000,-444.123565,-1838.629195
3272.556680,-9918.759623,-1554.432478,-76.609550
3272.557018,-9622.677246,-1184.329507,1532.190996
3272.557355,-10510.924376,-1850.514855,0.000000
3272.557693,-10807.006753,-1554.432478,-1532.190996
3272.558030,-10436.903782,-1998.556043,-2528.115143
3272.558368,-9696.697840,-2664.741391,-1608.800546
3272.558705,-9178.553681,-2960.823768,0.000000
3272.559043,-9696.697840,-2516.700203,1915.238745
3272.559380,-9696.697840,-1776.494261,1838.629195
3272.559717,-10584.944971,-1184.329507,-153.219100
3272.560055,-10288.862594,-296.082377,153.219100
3272.560392,-10066.800811,-296.082377,1149.143247
3272.560730,-10288.862594,74.020594,2757.943793
3272.561067,-10510.924376,444.123565,4596.572988
3272.561405,-10584.944971,592.164754,3524.039291
3272.561742,-11473.192101,2220.617826,1072.533697
3272.562079,-12065.356855,1850.514855,-612.876398
3272.562417,-9918.759623,1406.391290,-1532.190996
3272.562754,-8216.285956,0.000000,-536.266849
3272.563092,-8512.368333,0.000000,1915.238745
3272.563429,-9178.553681,592.164754,459.657299
3272.563767,-10214.842000,1332.370696,-1225.752797
3272.564104,-10214.842000,1258.350101,-2528.115143
3272.564442,-9400.615463,592.164754,-1532.190996
3272.564779,-9696.697840,0.000000,383.047749
3272.565116,-9178.553681,-666.185348,2604.724693
3272.565454,-8882.471304,0.000000,3370.820191
3272.565791,-10214.842000,0.000000,1455.581446
3272.566129,-11251.130318,-518.144159,0.000000
3272.566466,-10732.986159,-592.164754,0.000000
3272.566804,-9548.656652,-1332.370696,536.266849
3272.567141,-8956.491898,-1628.453072,1685.410096
3272.567479,-9474.636058,-518.144159,1762.019645
3272.567816,-10214.842000,0.000000,153.219100
3272.568153,-9992.780217,148.041188,-1915.238745
3272.568491,-9992.780217,0.000000,-919.314598
3272.568828,-11103.089130,74.020594,612.876398
3272.569166,-10584.944971,-592.164754,1378.971896
3272.569503,-10362.883188,0.000000,1915.238745
3272.569841,-10362.883188,0.000000,0.000000
3272.570178,-11103.089130,-370.102971,-1915.238745
3272.570516,-10362.883188,-1110.308913,-3830.477490
3272.570853,-9548.656652,-1628.453072,-2834.553343
3272.571190,-9474.636058,-2368.659014,-1378.971896
3272.571528,-8956.491898,-1924.535449,-229.828649
3272.571865,-9622.677246,-2294.638420,-153.219100
3272.572203,-10288.862594,-888.247130,-1149.143247
3272.572540,-10362.883188,-1036.288319,-842.705048
3272.572878,-10362.883188,-962.267725,612.876398
3272.573215,-10214.842000,-1554.432478,1762.019645
3272.573552,-10214.842000,-666.185348,4596.572988
3272.573890,-10658.965565,-148.041188,4519.963438
3272.574227,-10584.944971,518.144159,1991.848295
3272.574565,-11251.130318,592.164754,153.219100
3272.574902,-10288.862594,962.267725,-153.219100
3272.575240,-8216.285956,148.041188,0.000000
3272.575577,-8660.409521,1110.308913,2451.505594
3272.575915,-9622.677246,2146.597232,919.314598
3272.576252,-10140.821405,1924.535449,-919.314598
3272.576589,-10807.006753,2664.741391,-2068.457845
3272.576927,-10140.821405,1480.411884,-1302.362347
3272.577264,-9770.718434,1110.308913,-306.438199
3272.577602,-8808.450710,222.061783,1455.581446
3272.577939,-9400.615463,74.020594,2451.505594
3272.578277,-10066.800811,0.000000,153.219100
3272.578614,-10955.047942,-74.020594,-2451.505594
3272.578952,-10066.800811,-444.123565,-2528.115143
3272.579289,-9548.656652,-2368.659014,-1149.143247
3272.579626,-9178.553681,-1554.432478,1072.533697
3272.579964,-10214.842000,-2072.576638,1608.800546
3272.580301,-10214.842000,-1184.329507,689.485948
3272.580639,-10510.924376,-962.267725,-689.485948
3272.580976,-11251.130318,-962.267725,306.438199
3272.581314,-10955.047942,-1850.514855,766.095498
3272.581651,-9918.759623,-1850.514855,3294.210641
3272.581988,-10288.862594,-1480.411884,4596.572988
3272.582326,-10288.862594,148.041188,2451.505594
3272.582663,-11547.212695,-962.267725,0.000000
3272.583001,-11177.109724,-296.082377,-1532.190996
3272.583338,-9622.677246,-148.041188,-1149.143247
3272.583676,-9326.594869,-1258.350101,842.705048
3272.584013,-8660.409521,-1332.370696,1072.533697
3272.584351,-9252.574275,-888.247130,153.219100
3272.584688,-10066.800811,0.000000,-1378.971896
3272.585025,-10066.800811,74.020594,-2374.896044
3272.585363,-10658.965565,-444.123565,-1302.362347
3272.585700,-10140.821405,-1924.535449,612.876398
3272.586038,-9178.553681,-962.267725,2374.896044
3272.586375,-9474.636058,0.000000,2757.943793
3272.586713,-10584.944971,592.164754,536.266849
3272.587050,-10510.924376,370.102971,-612.876398
3272.587388,-10362.883188,0.000000,-1072.533697
3272.587725,-9252.574275,-296.082377,229.828649
3272.588063,-9104.533087,222.061783,2374.896044
3272.588400,-9696.697840,1332.370696,2451.505594
3272.588738,-10732.986159,1776.494261,0.000000
3272.589075,-10288.862594,2368.659014,-1532.190996
3272.589412,-10436.903782,1184.329507,-76.609550
3272.589750,-10214.842000,444.123565,1302.362347
3272.590087,-8956.491898,0.000000,2451.505594
3272.590425,-9400.615463,592.164754,2604.724693
3272.590762,-9992.780217,740.205942,-76.609550
3272.591100,-10288.862594,-296.082377,-2451.505594
3272.591437,-10214.842000,74.020594,-2911.162892
3272.591775,-9178.553681,-1406.391290,-1532.190996
3272.592112,-8882.471304,-1258.350101,76.609550
3272.592450,-9474.636058,-1850.514855,459.657299
3272.592787,-10362.883188,-1554.432478,-536.266849
3272.593125,-10510.924376,-1998.556043,-2451.505594
3272.593462,-10140.821405,-1332.370696,-1225.752797
3272.593799,-10584.944971,-2664.741391,612.876398
3272.594137,-10214.842000,-2886.803174,2145.067394
3272.594474,-9918.759623,-2368.659014,3677.258390
3272.594812,-11325.150913,-888.247130,2451.505594
3272.595149,-11621.233289,-148.041188,689.485948
3272.595487,-12065.356855,-222.061783,0.000000
3272.595824,-10066.800811,-666.185348,229.828649
3272.596162,-9326.594869,-666.185348,2068.457845
3272.596499,-9918.759623,-370.102971,4136.915689
3272.596837,-10362.883188,222.061783,1608.800546
3272.597174,-10140.821405,1702.473667,-1225.752797
3272.597512,-10658.965565,1702.473667,-1532.190996
3272.597849,-9992.780217,1036.288319,-1302.362347
3272.598186,-9326.594869,74.020594,612.876398
3272.598524,-8734.430116,0.000000,2451.505594
3272.598861,-8956.491898,1184.329507,1302.362347
3272.599199,-10066.800811,1406.391290,-842.705048
3272.599536,-10510.924376,814.226536,-3064.381992
3272.599874,-9252.574275,-814.226536,-2451.505594
3272.600211,-8438.347739,-1110.308913,0.000000
3272.600549,-8660.409521,-444.123565,2298.286494
3272.600886,-10066.800811,0.000000,1915.238745
3272.601224,-10584.944971,518.144159,-1532.190996
3272.601561,-11251.130318,1184.329507,-1991.848295
3272.601899,-10881.027347,-444.123565,-1225.752797
3272.602236,-9844.739029,-370.102971,766.095498
3272.602573,-9622.677246,-1702.473667,4136.915689
3272.602911,-10066.800811,148.041188,4213.525239
3272.603248,-10510.924376,1258.350101,306.438199
3272.603586,-12065.356855,296.082377,-1225.752797
3272.603923,-11621.233289,518.144159,-2145.067394
3272.604261,-10362.883188,-740.205942,-689.485948
3272.604598,-9178.553681,-1036.288319,1455.581446
3272.604936,-9030.512492,-370.102971,1455.581446
3272.605273,-10807.006753,-444.123565,76.609550
3272.605611,-10658.965565,-666.185348,-2681.334243
3272.605948,-9696.697840,-740.205942,-2528.115143
3272.606285,-9992.780217,-2072.576638,-459.657299
3272.606623,-9474.636058,-3182.885551,1072.533697
3272.606960,-8882.471304,-2442.679609,3217.601092
3272.607298,-9844.739029,-1998.556043,1762.019645
3272.607635,-10881.027347,-814.226536,-459.657299
3272.607973,-11325.150913,-1184.329507,-1072.533697
3272.608310,-10362.883188,-1776.494261,-919.314598
3272.608648,-9326.594869,-1850.514855,1225.752797
3272.608985,-8808.450710,-1406.391290,3524.039291
3272.609323,-10140.821405,296.082377,3064.381992
3272.609660,-10955.047942,888.247130,229.828649
3272.609998,-11251.130318,1924.535449,0.000000
3272.610335,-10436.903782,1406.391290,459.657299
3272.610672,-10510.924376,1110.308913,2987.772442
3272.611010,-9770.718434,1480.411884,3677.258390
3272.611347,-9400.615463,1702.473667,1532.190996
3272.611685,-9696.697840,1850.514855,383.047749
3272.612022,-10584.944971,2072.576638,-1991.848295
3272.612360,-9992.780217,1036.288319,-1608.800546
3272.612697,-9326.594869,222.061783,-1302.362347
3272.613035,-9030.512492,-518.144159,-306.438199
3272.613372,-9844.739029,444.123565,229.828649
3272.613710,-9474.636058,-592.164754,-1915.238745
3272.614047,-9326.594869,-518.144159,-2298.286494
3272.614385,-9252.574275,-1702.473667,-1225.752797
3272.614722,-9548.656652,-2146.597232,536.266849
3272.615059,-9622.677246,-2220.617826,2604.724693
3272.615397,-10807.006753,-1332.370696,2757.943793
3272.615734,-10362.883188,-1184.329507,0.000000
3272.616072,-11177.109724,-1332.370696,-1378.971896
3272.616409,-11103.089130,-740.205942,-612.876398
3272.616747,-9548.656652,-1332.370696,-306.438199
3272.617084,-9400.615463,-1036.288319,2451.505594
3272.617422,-10140.821405,-592.164754,2068.457845
3272.617759,-10955.047942,-370.102971,0.000000
3272.618097,-11325.150913,518.144159,-1991.848295
3272.618434,-10658.965565,-518.144159,-1455.581446
3272.618772,-9548.656652,74.020594,0.000000
3272.619109,-9474.636058,-1036.288319,2221.676944
3272.619446,-9844.739029,0.000000,2221.676944
3272.619784,-10584.944971,222.061783,383.047749
3272.620121,-11843.295072,740.205942,-1378.971896
3272.620459,-11547.212695,592.164754,-2911.162892
3272.620796,-9696.697840,-888.247130,-2374.896044
3272.621134,-8734.430116,-1554.432478,306.438199
3272.621471,-8512.368333,-1702.473667,1991.848295
3272.621809,-9474.636058,0.000000,1685.410096
3272.622146,-10066.800811,518.144159,-612.876398
3272.622484,-10732.986159,0.000000,-612.876398
3272.622821,-10140.821405,296.082377,306.438199
3272.623159,-9104.533087,-814.226536,3064.381992
3272.623496,-9400.615463,296.082377,5592.497135
3272.623833,-9400.615463,1702.473667,3753.867940
3272.624171,-9992.780217,1998.556043,842.705048
3272.624508,-11251.130318,2146.597232,-229.828649
3272.624846,-10214.842000,1184.329507,-842.705048
3272.625183,-9548.656652,592.164754,612.876398
3272.625521,-8956.491898,0.000000,1225.752797
3272.625858,-9474.636058,740.205942,995.924147
3272.626196,-9696.697840,814.226536,-1302.362347
3272.626533,-10066.800811,814.226536,-2681.334243
3272.626871,-10140.821405,-518.144159,-2298.286494
3272.627208,-10584.944971,-1332.370696,0.000000
3272.627546,-9696.697840,-962.267725,919.314598
3272.627883,-10362.883188,-1776.494261,1302.362347
3272.628220,-10732.986159,-1258.350101,0.000000
3272.628558,-10436.903782,-1924.535449,-2528.115143
3272.628895,-10436.903782,-1628.453072,-2145.067394
3272.629233,-10214.842000,-2812.782580,-612.876398
3272.629570,-9252.574275,-2960.823768,1378.971896
3272.629908,-9770.718434,-2664.741391,1685.410096
3272.630245,-10955.047942,-1850.514855,536.266849
3272.630583,-10510.924376,-444.123565,-1455.581446
3272.630920,-10140.821405,-518.144159,-306.438199
3272.631258,-10288.862594,-962.267725,1762.019645
3272.631595,-9770.718434,-1332.370696,3217.601092
3272.631933,-10362.883188,-296.082377,3983.696590
3272.632270,-10140.821405,1406.391290,1915.238745
3272.632607,-11547.212695,592.164754,-995.924147
3272.632945,-11251.130318,1184.329507,-1838.629195
3272.633282,-9474.636058,-148.041188,-1455.581446
3272.633620,-7920.203579,-444.123565,995.924147
3272.633957,-8586.388927,0.000000,1685.410096
3272.634295,-9770.718434,814.226536,153.219100
3272.634632,-10510.924376,666.185348,-2068.457845
3272.634970,-10807.006753,370.102971,-2681.334243
3272.635307,-9918.759623,0.000000,-536.266849
3272.635645,-8882.471304,-814.226536,1915.238745
3272.635982,-9400.615463,0.000000,3677.258390
3272.636320,-10288.862594,444.123565,1838.629195
3272.636657,-10807.006753,518.144159,-153.219100
3272.636994,-11547.212695,-296.082377,-383.047749
3272.637332,-10955.047942,-1036.288319,0.000000
3272.637669,-9326.594869,-296.082377,1608.800546
3272.638007,-9400.615463,-370.102971,2145.067394
3272.638344,-10066.800811,74.020594,1762.019645
3272.638682,-10066.800811,666.185348,-1225.752797
3272.639019,-10140.821405,370.102971,-1608.800546
3272.639357,-10436.903782,296.082377,-536.266849
3272.639694,-10214.842000,-1036.288319,1378.971896
3272.640032,-9992.780217,-814.226536,2221.676944
3272.640369,-9400.615463,-740.205942,1302.362347
3272.640707,-9844.739029,0.000000,-919.314598
3272.641044,-11177.109724,-740.205942,-1991.848295
3272.641381,-10214.842000,-1184.329507,-3064.381992
3272.641719,-9252.574275,-1554.432478,-2298.286494
3272.642056,-9104.533087,-2368.659014,229.828649
3272.642394,-9252.574275,-1924.535449,689.485948
3272.642731,-9992.780217,-1850.514855,-536.266849
3272.643069,-10436.903782,-888.247130,-842.705048
3272.643406,-9844.739029,-666.185348,-766.095498
3272.643744,-10140.821405,-1332.370696,842.705048
3272.644081,-10955.047942,-1258.350101,3447.429741
3272.644419,-10362.883188,-518.144159,4443.353888
3272.644756,-10658.965565,1332.370696,2298.286494
3272.645094,-11251.130318,1184.329507,459.657299
3272.645431,-11177.109724,1480.411884,-689.485948
3272.645768,-9548.656652,222.061783,-153.219100
3272.646106,-8512.368333,444.123565,2145.067394
3272.646443,-9104.533087,962.267725,2911.162892
3272.646781,-10584.944971,1480.411884,1149.143247
3272.647118,-10362.883188,2738.761985,-1225.752797
3272.647456,-9992.780217,2072.576638,-1455.581446
3272.647793,-9622.677246,1406.391290,0.000000
3272.648131,-9178.553681,222.061783,1149.143247
3272.648468,-8882.471304,0.000000,1608.800546
3272.648806,-9770.718434,370.102971,536.266849
3272.649143,-10584.944971,-370.102971,-1685.410096
3272.649481,-10362.883188,-1036.288319,-3907.087040
3272.649818,-9252.574275,-2146.597232,-2604.724693
3272.650155,-8364.327145,-2146.597232,0.000000
3272.650493,-8438.347739,-2072.576638,1532.190996
3272.650830,-10436.903782,-1184.329507,1685.410096
3272.651168,-11621.233289,-962.267725,-383.047749
3272.651505,-11177.109724,-444.123565,-919.314598
3272.651843,-10510.924376,-370.102971,612.876398
3272.652180,-10732.986159,-740.205942,2374.896044
3272.652518,-10140.821405,-1850.514855,3830.477490
3272.652855,-10362.883188,-444.123565,2757.943793
3272.653193,-10288.862594,74.020594,306.438199
3272.653530,-11991.336260,518.144159,-1378.971896
3272.653868,-12287.418637,-592.164754,-2068.457845
3272.654205,-9548.656652,-740.205942,-2145.067394
3272.654542,-8660.409521,-1332.370696,1149.143247
3272.654880,-9252.574275,-592.164754,2451.505594
3272.655217,-9548.656652,0.000000,0.000000
3272.655555,-10658.965565,222.061783,-1685.410096
3272.655892,-11029.068536,74.020594,-1378.971896
3272.656230,-10288.862594,-962.267725,0.000000
3272.656567,-9696.697840,-666.185348,1915.238745
3272.656905,-9474.636058,-962.267725,2834.553343
3272.657242,-9474.636058,0.000000,459.657299
3272.657580,-10066.800811,444.123565,-1455.581446
3272.657917,-10214.842000,74.020594,-1608.800546
3272.658255,-8956.491898,-592.164754,-229.828649
3272.658592,-8512.368333,-296.082377,1991.848295
3272.658929,-9178.553681,1480.411884,3217.601092
3272.659267,-10584.944971,1110.308913,2068.457845
3272.659604,-10807.006753,2590.720797,76.609550
3272.659942,-10362.883188,1702.473667,0.000000
3272.660279,-10214.842000,1554.432478,919.314598
3272.660617,-9918.759623,666.185348,1455.581446
3272.660954,-9992.780217,592.164754,2068.457845
3272.661292,-9178.553681,888.247130,0.000000
3272.661629,-9918.759623,444.123565,-2757.943793
3272.661967,-10881.027347,-296.082377,-3217.601092
3272.662304,-8882.471304,0.000000,-3983.696590
3272.662642,-8882.471304,-2072.576638,-1608.800546
3272.662979,-9252.574275,-1406.391290,842.705048
3272.663316,-9770.718434,-1258.350101,383.047749
3272.663654,-11473.192101,-1480.411884,-842.705048
3272.663991,-10955.047942,-1850.514855,-1991.848295
3272.664329,-9918.759623,-2220.617826,-383.047749
3272.664666,-10362.883188,-2886.803174,1378.971896
3272.665004,-9548.656652,-3182.885551,1762.019645
3272.665341,-9696.697840,-2220.617826,1915.238745
3272.665679,-10658.965565,-1924.535449,536.266849
3272.666016,-11399.171507,-518.144159,-995.924147
3272.666354,-10955.047942,-888.247130,-459.657299
3272.666691,-9548.656652,-814.226536,153.219100
3272.667029,-8512.368333,-1110.308913,2604.724693
3272.667366,-10140.821405,0.000000,3677.258390
3272.667703,-10510.924376,1110.308913,1762.019645
3272.668041,-11029.068536,1110.308913,-536.266849
3272.668378,-10881.027347,1406.391290,0.000000
3272.668716,-10214.842000,666.185348,1149.143247
3272.669053,-9622.677246,666.185348,1608.800546
3272.669391,-9474.636058,592.164754,1532.190996
3272.669728,-9252.574275,1110.308913,-153.219100
3272.670066,-9844.739029,518.144159,-2221.676944
3272.670403,-10436.903782,444.123565,-1608.800546
3272.670741,-9474.636058,0.000000,-1149.143247
3272.671078,-8142.265362,-814.226536,689.485948
3272.671415,-9474.636058,592.164754,2451.505594
3272.671753,-10436.903782,814.226536,1685.410096
3272.672090,-10658.965565,814.226536,-612.876398
3272.672428,-9696.697840,148.041188,153.219100
3272.672765,-10732.986159,-296.082377,2451.505594
3272.673103,-10066.800811,-1110.308913,3217.601092
3272.673440,-9696.697840,-666.185348,2987.772442
3272.673778,-9770.718434,222.061783,1685.410096
3272.674115,-10214.842000,296.082377,-919.314598
3272.674453,-10362.883188,0.000000,-1532.190996
3272.674790,-10510.924376,0.000000,-2298.286494
3272.675128,-9178.553681,-518.144159,-1149.143247
3272.675465,-9474.636058,-592.164754,0.000000
3272.675802,-10140.821405,-1110.308913,76.609550
3272.676140,-9992.780217,-592.164754,-1302.362347
3272.676477,-10362.883188,-518.144159,-1991.848295
3272.676815,-10214.842000,-1628.453072,-1608.800546
3272.677152,-10510.924376,-1924.535449,0.000000
3272.677490,-10510.924376,-2812.782580,1225.752797
3272.677827,-10066.800811,-1110.308913,306.438199
3272.678165,-10436.903782,-666.185348,-1149.143247
3272.678502,-11029.068536,-1110.308913,-2298.286494
3272.678840,-10436.903782,-1480.411884,-2528.115143
3272.679177,-9474.636058,-1628.453072,-383.047749
3272.679515,-8808.450710,-962.267725,2911.162892
3272.679852,-9992.780217,-1406.391290,3524.039291
3272.680189,-10732.986159,222.061783,1838.629195
3272.680527,-10584.944971,1332.370696,0.000000
3272.680864,-11177.109724,1406.391290,306.438199
3272.681202,-10214.842000,1332.370696,2221.676944
3272.681539,-9844.739029,1332.370696,2987.772442
3272.681877,-9474.636058,1110.308913,2911.162892
3272.682214,-9104.533087,2368.659014,306.438199
3272.682552,-10288.862594,1480.411884,-766.095498
3272.682889,-10214.842000,1036.288319,-1532.190996
3272.683227,-8438.347739,740.205942,-2221.676944
3272.683564,-8956.491898,222.061783,689.485948
3272.683902,-9548.656652,518.144159,1378.971896
3272.684239,-10140.821405,370.102971,-306.438199
3272.684576,-10140.821405,592.164754,-1685.410096
3272.684914,-9400.615463,0.000000,-1532.190996
3272.685251,-9918.759623,-1258.350101,689.485948
3272.685589,-10288.862594,-1850.514855,2298.286494
3272.685926,-9918.759623,-1554.432478,3370.820191
3272.686264,-10510.924376,-1184.329507,2298.286494
3272.686601,-10955.047942,-1036.288319,76.609550
3272.686939,-11547.212695,-1184.329507,-689.485948
3272.687276,-10807.006753,-1184.329507,-536.266849
3272.687613,-9326.594869,-1480.411884,536.266849
3272.687951,-9104.533087,-1702.473667,2221.676944
3272.688288,-10732.986159,-1036.288319,2221.676944
3272.688626,-10510.924376,-444.123565,-76.609550
3272.688963,-10140.821405,0.000000,-1455.581446
3272.689301,-10658.965565,-370.102971,0.000000
3272.689638,-10066.800811,-1850.514855,842.705048
3272.689975,-9696.697840,-2146.597232,1762.019645
3272.690313,-9252.574275,-444.123565,1072.533697
3272.690650,-9992.780217,-370.102971,-1149.143247
3272.690988,-11325.150913,-74.020594,-2528.115143
3272.691325,-10955.047942,-592.164754,-3753.867940
3272.691662,-8882.471304,-1702.473667,-2757.943793
3272.692000,-8290.306550,-1258.350101,0.000000
3272.692337,-9252.574275,-962.267725,1532.190996
3272.692675,-10362.883188,222.061783,-153.219100
3272.693012,-10510.924376,296.082377,-1149.143247
3272.693350,-10732.986159,1258.350101,306.438199
3272.693687,-10732.986159,518.144159,1225.752797
3272.694024,-10510.924376,-370.102971,3217.601092
3272.694362,-10066.800811,740.205942,4443.353888
3272.694699,-9400.615463,1850.514855,2757.943793
3272.695037,-10214.842000,2146.597232,0.000000
3272.695374,-11473.192101,1480.411884,-766.095498
3272.695711,-10066.800811,1036.288319,-1149.143247
3272.696049,-9400.615463,1184.329507,306.438199
3272.696386,-9400.615463,1480.411884,2145.067394
3272.696724,-9918.759623,814.226536,0.000000
3272.697061,-9622.677246,518.144159,-1762.019645
3272.697398,-9178.553681,148.041188,-1991.848295
3272.697736,-9400.615463,-1036.288319,-229.828649
3272.698073,-9770.718434,-1406.391290,1838.629195
3272.698411,-9548.656652,-2368.659014,2298.286494
3272.698748,-9474.636058,-1110.308913,766.095498
3272.699086,-10658.965565,-1480.411884,-1378.971896
3272.699423,-11325.150913,-1924.535449,-2451.505594
3272.699760,-9474.636058,-2220.617826,-2221.676944
3272.700098,-9030.512492,-2738.761985,0.000000
3272.700435,-9104.533087,-2738.761985,2068.457845
3272.700773,-10436.903782,-1850.514855,1838.629195
3272.701110,-11325.150913,-444.123565,612.876398
3272.701447,-11177.109724,-148.041188,-383.047749
3272.701785,-10732.986159,0.000000,-306.438199
3272.702122,-10881.027347,-370.102971,2221.676944
3272.702460,-10881.027347,-962.267725,4903.011187
3272.702797,-10510.924376,222.061783,3983.696590
3272.703134,-10288.862594,1110.308913,842.705048
3272.703472,-11991.336260,1406.391290,-689.485948
3272.703809,-11547.212695,1258.350101,-2451.505594
3272.704147,-9030.512492,-296.082377,-1838.629195
3272.704484,-7772.162391,74.020594,-612.876398
3272.704822,-8660.409521,370.102971,689.485948
3272.705159,-9622.677246,888.247130,-1378.971896
3272.705496,-9326.594869,1332.370696,-3294.210641
3272.705834,-9400.615463,1184.329507,-1532.190996
3272.706171,-9770.718434,-518.144159,766.095498
3272.706509,-9252.574275,-888.247130,2681.334243
3272.706846,-9178.553681,0.000000,3370.820191
3272.707183,-9770.718434,592.164754,1991.848295
3272.707521,-10436.903782,814.226536,-766.095498
3272.707858,-10955.047942,0.000000,-1532.190996
3272.708196,-9844.739029,0.000000,-306.438199
3272.708533,-8808.450710,-962.267725,842.705048
3272.708870,-9400.615463,222.061783,2451.505594
3272.709208,-10214.842000,518.144159,919.314598
3272.709545,-9992.780217,592.164754,-1225.752797
3272.709883,-10214.842000,148.041188,-1149.143247
3272.710220,-10510.924376,0.000000,1455.581446
3272.710558,-10066.800811,-370.102971,1838.629195
3272.710895,-10732.986159,-74.020594,3677.258390
3272.711232,-10955.047942,0.000000,2374.896044
3272.711570,-10732.986159,-888.247130,-1455.581446
3272.711907,-11621.233289,-1628.453072,-2451.505594
3272.712245,-9770.718434,-1406.391290,-2528.115143
3272.712582,-8364.327145,-3108.864956,-1149.143247
3272.712919,-8438.347739,-2960.823768,612.876398
3272.713257,-9622.677246,-2442.679609,0.000000
3272.713594,-10362.883188,-1776.494261,-995.924147
3272.713932,-10510.924376,-1332.370696,-2145.067394
3272.714269,-10140.821405,-1702.473667,-612.876398
3272.714607,-9770.718434,-1850.514855,2068.457845
3272.714944,-9918.759623,-1480.411884,4596.572988
3272.715281,-10436.903782,-1184.329507,5439.278036
3272.715619,-10732.986159,0.000000,2604.724693
3272.715956,-11621.233289,888.247130,459.657299
3272.716294,-10955.047942,296.082377,-1915.238745
3272.716631,-9030.512492,370.102971,-383.047749
3272.716968,-8216.285956,148.041188,2681.334243
3272.717306,-9400.615463,1258.350101,2298.286494
3272.717643,-9844.739029,3108.864956,-689.485948
3272.717981,-10807.006753,2146.597232,-2757.943793
3272.718318,-10436.903782,2072.576638,-1685.410096
3272.718655,-9474.636058,1184.329507,0.000000
3272.718993,-9622.677246,222.061783,2451.505594
3272.719330,-9474.636058,1110.308913,2604.724693
3272.719668,-9696.697840,814.226536,0.000000
3272.720005,-11325.150913,444.123565,-2451.505594
3272.720343,-11177.109724,-740.205942,-3600.648841
3272.720680,-9548.656652,-1480.411884,-2451.505594
3272.721017,-8216.285956,-1850.514855,0.000000
3272.721355,-7920.203579,-2146.597232,1378.971896
3272.721692,-9696.697840,-1036.288319,995.924147
3272.722030,-10658.965565,-222.061783,-766.095498
3272.722367,-10807.006753,0.000000,-1225.752797
3272.722704,-11399.171507,-1110.308913,919.314598
3272.723042,-10732.986159,-1998.556043,3830.477490
3272.723379,-9474.636058,-1110.308913,4519.963438
3272.723717,-9326.594869,-666.185348,2681.334243
3272.724054,-10584.944971,-666.185348,0.000000
3272.724391,-11769.274478,-296.082377,-1991.848295
3272.724729,-10658.965565,-370.102971,-2298.286494
3272.725066,-9770.718434,-1258.350101,-919.314598
3272.725404,-8660.409521,-1184.329507,1225.752797
3272.725741,-9844.739029,-666.185348,766.095498
3272.726079,-10510.924376,518.144159,-1455.581446
3272.726416,-10362.883188,296.082377,-1838.629195
3272.726753,-10362.883188,-740.205942,-536.266849
3272.727091,-10584.944971,-1554.432478,2145.067394
3272.727428,-10658.965565,-1036.288319,3753.867940
3272.727766,-10881.027347,0.000000,3983.696590
3272.728103,-10807.006753,222.061783,153.219100
3272.728440,-10732.986159,0.000000,-1225.752797
3272.728778,-9770.718434,0.000000,-1608.800546
3272.729115,-7772.162391,-1258.350101,-306.438199
3272.729453,-7550.100608,-222.061783,2451.505594
3272.729790,-9548.656652,296.082377,2911.162892
3272.730127,-9992.780217,2368.659014,153.219100
3272.730465,-10214.842000,2368.659014,-1991.848295
3272.730802,-10214.842000,2072.576638,0.000000
3272.731140,-9770.718434,370.102971,1762.019645
3272.731477,-9252.574275,222.061783,3677.258390
3272.731815,-9400.615463,1036.288319,3600.648841
3272.732152,-10732.986159,518.144159,919.314598
3272.732489,-11473.192101,74.020594,-1685.410096
3272.732827,-10955.047942,74.020594,-3830.477490
3272.733164,-9030.512492,-1184.329507,-2834.553343
3272.733502,-8586.388927,-1184.329507,-919.314598
3272.733839,-9104.533087,-1628.453072,153.219100
3272.734176,-9326.594869,-1184.329507,-1378.971896
3272.734514,-11029.068536,-1480.411884,-2221.676944
3272.734851,-11695.253884,-814.226536,-1532.190996
3272.735189,-10807.006753,-2220.617826,-383.047749
3272.735526,-10362.883188,-2960.823768,2681.334243
3272.735864,-9844.739029,-2738.761985,4136.915689
3272.736201,-10140.821405,-1184.329507,3140.991542
3272.736538,-11399.171507,-222.061783,612.876398
3272.736876,-12361.439231,-1406.391290,-1685.410096
3272.737213,-10955.047942,-518.144159,-1302.362347
3272.737551,-8660.409521,-1702.473667,0.000000
3272.737888,-8882.471304,-1258.350101,3140.991542
3272.738225,-9844.739029,0.000000,3370.820191
3272.738563,-9844.739029,518.144159,-612.876398
3272.738900,-10140.821405,1702.473667,-1762.019645
3272.739238,-10955.047942,74.020594,0.000000
3272.739575,-10658.965565,518.144159,2068.457845
3272.739912,-9474.636058,-592.164754,2374.896044
3272.740250,-9178.553681,888.247130,1915.238745
3272.740587,-9548.656652,1332.370696,-995.924147
3272.740925,-10807.006753,666.185348,-1685.410096
3272.741262,-9252.574275,-370.102971,-2757.943793
3272.741600,-7994.224174,-1036.288319,-1149.143247
3272.741937,-8586.388927,-740.205942,1608.800546
3272.742274,-9474.636058,1628.453072,1225.752797
3272.742612,-11177.109724,518.144159,0.000000
3272.742949,-10584.944971,1480.411884,-1532.190996
3272.743287,-10436.903782,814.226536,-306.438199
3272.743624,-10288.862594,888.247130,2451.505594
3272.743961,-9548.656652,-666.185348,3753.867940
3272.744299,-9622.677246,148.041188,3983.696590
3272.744636,-10362.883188,1110.308913,1455.581446
3272.744974,-11325.150913,370.102971,-1378.971896
3272.745311,-11473.192101,74.020594,-1532.190996
3272.745648,-9844.739029,-888.247130,-919.314598
3272.745986,-8882.471304,148.041188,306.438199
3272.746323,-9474.636058,-962.267725,1149.143247
3272.746661,-10436.903782,0.000000,0.000000
3272.746998,-9992.780217,-370.102971,-2681.334243
3272.747336,-10510.924376,-296.082377,-1915.238745
3272.747673,-9474.636058,-1480.411884,-766.095498
3272.748010,-9844.739029,-2960.823768,1302.362347
3272.748348,-9622.677246,-1924.535449,2757.943793
3272.748685,-9992.780217,-1702.473667,1378.971896
3272.749023,-10658.965565,-666.185348,-612.876398
3272.749360,-11917.315666,-1258.350101,-1762.019645
3272.749697,-10584.944971,-1480.411884,-1302.362347
3272.750035,-8882.471304,-1998.556043,306.438199
3272.750372,-9178.553681,-1332.370696,2911.162892
3272.750710,-10066.800811,222.061783,2451.505594
3272.751047,-10658.965565,592.164754,0.000000
3272.751384,-10732.986159,1554.432478,-459.657299
3272.751722,-10584.944971,740.205942,1072.533697
3272.752059,-10732.986159,1036.288319,3370.820191
3272.752397,-10066.800811,1036.288319,3524.039291
3272.752734,-9844.739029,1702.473667,1991.848295
3272.753072,-9474.636058,1776.494261,-383.047749
3272.753409,-10658.965565,1776.494261,-1455.581446
3272.753746,-10214.842000,888.247130,-1762.019645
3272.754084,-8142.265362,-222.061783,-1685.410096
3272.754421,-8068.244768,-592.164754,153.219100
3272.754759,-9548.656652,666.185348,76.609550
3272.755096,-9474.636058,0.000000,-2298.286494
3272.755433,-9992.780217,296.082377,-2528.115143
3272.755771,-9178.553681,-1036.288319,-2145.067394
3272.756108,-9548.656652,-1480.411884,919.314598
3272.756446,-9474.636058,-2146.597232,3064.381992
3272.756783,-9844.739029,-1850.514855,2987.772442
3272.757121,-10584.944971,-740.205942,1378.971896
3272.757458,-11621.233289,-1184.329507,-536.266849
3272.757795,-11473.192101,-666.185348,-1455.581446
3272.758133,-10436.903782,-1554.432478,-383.047749
3272.758470,-9400.615463,-1776.494261,1991.848295
3272.758808,-9326.594869,-1036.288319,2298.286494
3272.759145,-10881.027347,0.000000,919.314598
3272.759482,-10732.986159,74.020594,-1608.800546
3272.759820,-10288.862594,-814.226536,-612.876398
3272.760157,-10436.903782,-962.267725,1225.752797
3272.760495,-10140.821405,-1332.370696,2068.457845
3272.760832,-9918.759623,-592.164754,2298.286494
3272.761169,-9770.718434,-740.205942,536.266849
3272.761507,-10732.986159,0.000000,-1225.752797
3272.761844,-10584.944971,-518.144159,-1915.238745
3272.762182,-10066.800811,-592.164754,-1532.190996
3272.762519,-8734.430116,-1924.535449,229.828649
3272.762857,-9178.553681,-814.226536,919.314598
3272.763194,-9844.739029,0.000000,612.876398
3272.763531,-10732.986159,148.041188,-459.657299
3272.763869,-9474.636058,1036.288319,-766.095498
3272.764206,-9844.739029,296.082377,536.266849
3272.764544,-10362.883188,-296.082377,3524.039291
3272.764881,-9622.677246,222.061783,4519.963438
3272.765218,-10288.862594,1554.432478,4366.744339
3272.765556,-10436.903782,2072.576638,1302.362347
3272.765893,-10732.986159,1924.535449,0.000000
3272.766231,-10066.800811,1258.350101,-383.047749
3272.766568,-8586.388927,1110.308913,229.828649
3272.766905,-8734.430116,222.061783,612.876398
3272.767243,-9326.594869,1110.308913,306.438199
3272.767580,-9474.636058,592.164754,-2221.676944
3272.767918,-10066.800811,962.267725,-2911.162892
3272.768255,-9474.636058,74.020594,-2374.896044
3272.768593,-9548.656652,-1110.308913,-919.314598
3272.768930,-9622.677246,-1554.432478,1149.143247
3272.769267,-9770.718434,-1480.411884,1608.800546
3272.769605,-9918.759623,-1184.329507,229.828649
3272.769942,-11399.171507,-1924.535449,-1608.800546
3272.770280,-11547.212695,-1628.453072,-1915.238745
3272.770617,-10140.821405,-2072.576638,-1302.362347
3272.770954,-9474.636058,-2738.761985,0.000000
3272.771292,-9844.739029,-2516.700203,919.314598
3272.771629,-10362.883188,-1998.556043,0.000000
3272.771967,-10288.862594,-740.205942,-1225.752797
3272.772304,-10955.047942,-1036.288319,383.047749
3272.772641,-10214.842000,-740.205942,919.314598
3272.772979,-9622.677246,-1628.453072,3217.601092
3272.773316,-9992.780217,-370.102971,5362.668486
3272.773654,-10510.924376,740.205942,3524.039291
3272.773991,-11251.130318,814.226536,1072.533697
3272.774329,-12139.377449,888.247130,-612.876398
3272.774666,-10214.842000,370.102971,-995.924147
3272.775003,-8734.430116,296.082377,0.000000
3272.775341,-9178.553681,0.000000,1072.533697
3272.775678,-9178.553681,518.144159,-689.485948
3272.776016,-9104.533087,962.267725,-2604.724693
3272.776353,-9918.759623,962.267725,-2604.724693
3272.776690,-9844.739029,-148.041188,-689.485948
3272.777028,-9548.656652,-592.164754,1225.752797
3272.777365,-9030.512492,-296.082377,3140.991542
3272.777703,-9252.574275,296.082377,3370.820191
3272.778040,-10436.903782,370.102971,1991.848295
3272.778378,-10955.047942,-148.041188,229.828649
3272.778715,-10214.842000,-296.082377,229.828649
3272.779052,-9548.656652,0.000000,1149.143247
3272.779390,-9696.697840,-888.247130,1149.143247
3272.779727,-9548.656652,222.061783,689.485948
3272.780065,-9844.739029,666.185348,-689.485948
3272.780402,-9770.718434,592.164754,-1915.238745
3272.780739,-9474.636058,740.205942,-1455.581446
3272.781077,-10288.862594,-370.102971,306.438199
3272.781414,-10510.924376,-1258.350101,1838.629195
3272.781752,-9770.718434,-1110.308913,1378.971896
3272.782089,-10584.944971,-222.061783,76.609550
3272.782426,-10658.965565,-1258.350101,-1608.800546
3272.782764,-10955.047942,-1332.370696,-2145.067394
3272.783101,-9622.677246,-1850.514855,-1838.629195
3272.783439,-9622.677246,-2738.761985,-995.924147
3272.783776,-9696.697840,-2146.597232,0.000000
3272.784114,-10436.903782,-1924.535449,-1225.752797
3272.784451,-9992.780217,-888.247130,-2374.896044
3272.784788,-9992.780217,-1184.329507,-1225.752797
3272.785126,-9548.656652,-1850.514855,459.657299
3272.785463,-9474.636058,-1554.432478,2528.115143
3272.785800,-10584.944971,-1480.411884,4979.620737
3272.786138,-11473.192101,222.061783,3830.477490
3272.786475,-11547.212695,888.247130,1608.800546
3272.786812,-11843.295072,1554.432478,229.828649
3272.787150,-10436.903782,1036.288319,229.828649
3272.787487,-9104.533087,1036.288319,1302.362347
3272.787824,-8956.491898,1184.329507,1685.410096
3272.788162,-9622.677246,1850.514855,306.438199
3272.788499,-9548.656652,1924.535449,-2068.457845
3272.788836,-10140.821405,2368.659014,-1762.019645
3272.789174,-9918.759623,1628.453072,-612.876398
3272.789511,-9474.636058,740.205942,153.219100
3272.789848,-9030.512492,296.082377,2374.896044
3272.790186,-9252.574275,740.205942,2604.724693
3272.790523,-10140.821405,814.226536,383.047749
3272.790860,-11103.089130,148.041188,-689.485948
3272.791198,-10881.027347,-888.247130,-995.924147
3272.791535,-8956.491898,-1924.535449,0.000000
3272.791872,-9178.553681,-1924.535449,1762.019645
3272.792210,-9252.574275,-962.267725,689.485948
3272.792547,-9548.656652,-1184.329507,-1225.752797
3272.792884,-10510.924376,-666.185348,-1838.629195
3272.793222,-10362.883188,-74.020594,-1149.143247
3272.793559,-10807.006753,-1184.329507,2068.457845
3272.793896,-10807.006753,-1332.370696,3830.477490
3272.794234,-10288.862594,-370.102971,3600.648841
3272.794571,-10807.006753,0.000000,1532.190996
3272.794908,-11177.109724,0.000000,-229.828649
3272.795246,-11103.089130,-1110.308913,-842.705048
3272.795583,-10362.883188,-740.205942,-1302.362347
3272.795921,-8882.471304,-1850.514855,0.000000
3272.796258,-9548.656652,-1406.391290,229.828649
3272.796595,-9770.718434,-666.185348,-1302.362347
3272.796933,-9326.594869,-148.041188,-3370.820191
3272.797270,-9918.759623,-518.144159,-2757.943793
3272.797607,-9918.759623,-1258.350101,-842.705048
3272.797945,-9548.656652,-1702.473667,1149.143247
3272.798282,-9696.697840,-1332.370696,2987.772442
3272.798619,-10362.883188,-148.041188,2757.943793
3272.798957,-10881.027347,-222.061783,612.876398
3272.799294,-10658.965565,74.020594,-536.266849
3272.799631,-9918.759623,-666.185348,-383.047749
3272.799969,-9104.533087,-1184.329507,1685.410096
3272.800306,-9104.533087,-296.082377,3217.601092
3272.800643,-10066.800811,888.247130,2145.067394
3272.800981,-10362.883188,2442.679609,-536.266849
3272.801318,-10362.883188,2294.638420,-1532.190996
3272.801655,-10436.903782,2294.638420,0.000000
3272.801993,-9992.780217,1036.288319,1915.238745
3272.802330,-9474.636058,1480.411884,2757.943793
3272.802667,-9548.656652,592.164754,2068.457845
3272.803005,-11029.068536,814.226536,0.000000
3272.803342,-10658.965565,814.226536,-2374.896044
3272.803679,-9622.677246,-814.226536,-2451.505594
3272.804017,-8808.450710,-1998.556043,-1532.190996
3272.804354,-8142.265362,-2294.638420,0.000000
3272.804691,-8882.471304,-2368.659014,0.000000
3272.805029,-9474.636058,-1332.370696,-1532.190996
3272.805366,-10288.862594,-1554.432478,-2068.457845
3272.805703,-11029.068536,-1554.432478,-995.924147
3272.806041,-10362.883188,-2220.617826,229.828649
3272.806378,-9622.677246,-2812.782580,2834.553343
3272.806715,-10214.842000,-2442.679609,3600.648841
3272.807053,-10584.944971,-1998.556043,1608.800546
3272.807390,-10955.047942,-1332.370696,306.438199
3272.807727,-11843.295072,-888.247130,0.000000
3272.808065,-10288.862594,-1036.288319,-459.657299
3272.808402,-9770.718434,-1554.432478,1991.848295
3272.808739,-10140.821405,-296.082377,2987.772442
3272.809077,-10362.883188,518.144159,689.485948
3272.809414,-10732.986159,1628.453072,-1608.800546
3272.809751,-10362.883188,1406.391290,-2068.457845
3272.810089,-9696.697840,296.082377,0.000000
3272.810426,-9474.636058,0.000000,1149.143247
3272.810763,-9474.636058,370.102971,2451.505594
3272.811101,-9844.739029,962.267725,1378.971896
3272.811438,-10288.862594,1628.453072,-1072.533697
3272.811775,-10584.944971,444.123565,-1455.581446
3272.812113,-9252.574275,-222.061783,-1915.238745
3272.812450,-8364.327145,-1480.411884,766.095498
3272.812787,-9252.574275,-296.082377,3064.381992
3272.813125,-9474.636058,740.205942,1378.971896
3272.813462,-9992.780217,1406.391290,-612.876398
3272.813800,-11177.109724,1258.350101,-1302.362347
3272.814137,-9548.656652,1110.308913,0.000000
3272.814474,-9770.718434,0.000000,2451.505594
3272.814812,-9918.759623,0.000000,3983.696590
3272.815149,-9474.636058,444.123565,2451.505594
3272.815486,-10732.986159,962.267725,229.828649
3272.815824,-11325.150913,148.041188,-919.314598
3272.816161,-10584.944971,0.000000,-1149.143247
3272.816498,-9844.739029,-222.061783,0.000000
3272.816836,-9400.615463,-1184.329507,536.266849
3272.817173,-9918.759623,-444.123565,919.314598
3272.817510,-9992.780217,-74.020594,-1455.581446
3272.817848,-10288.862594,-222.061783,-2987.772442
3272.818185,-10510.924376,-740.205942,-2451.505594
3272.818522,-10214.842000,-1998.556043,-1225.752797
3272.818860,-9474.636058,-2516.700203,995.924147
3272.819197,-9918.759623,-2812.782580,1762.019645
3272.819534,-10214.842000,-1110.308913,-153.219100
3272.819872,-11251.130318,-2072.576638,-1915.238745
3272.820209,-10732.986159,-1628.453072,-1915.238745
3272.820546,-9622.677246,-2072.576638,-536.266849
3272.820884,-9548.656652,-2368.659014,2298.286494
3272.821221,-10140.821405,-1554.432478,4060.306139
3272.821558,-10066.800811,-74.020594,1532.190996
3272.821896,-11251.130318,814.226536,0.000000
3272.822233,-10732.986159,1924.535449,-766.095498
3272.822570,-10955.047942,296.082377,2221.676944
3272.822908,-10066.800811,444.123565,2911.162892
3272.823245,-9400.615463,592.164754,3294.210641
3272.823582,-9918.759623,2368.659014,1991.848295
3272.823920,-9844.739029,1776.494261,-1608.800546
3272.824257,-9474.636058,1702.473667,-1838.629195
3272.824594,-9178.553681,1036.288319,-1302.362347
3272.824932,-8364.327145,666.185348,76.609550
3272.825269,-9474.636058,666.185348,1072.533697
3272.825606,-10066.800811,296.082377,0.000000
3272.825944,-9696.697840,1036.288319,-2298.286494
3272.826281,-9844.739029,592.164754,-2298.286494
3272.826618,-9474.636058,296.082377,-766.095498
3272.826956,-9548.656652,-1480.411884,1762.019645
3272.827293,-9844.739029,-1480.411884,2911.162892
3272.827630,-9326.594869,-740.205942,1991.848295
3272.827968,-9918.759623,-592.164754,0.000000
3272.828305,-11103.089130,0.000000,-229.828649
3272.828642,-10881.027347,-1036.288319,-842.705048
3272.828980,-9918.759623,-814.226536,536.266849
3272.829317,-9548.656652,-1554.432478,2451.505594
3272.829654,-10066.800811,-370.102971,1838.629195
3272.829992,-10436.903782,370.102971,-383.047749
3272.830329,-10807.006753,370.102971,-2298.286494
3272.830667,-10362.883188,0.000000,-1532.190996
3272.831004,-10214.842000,-1332.370696,-383.047749
3272.831341,-10140.821405,-1850.514855,1991.848295
3272.831679,-10140.821405,-1776.494261,2298.286494
3272.832016,-10066.800811,-518.144159,-689.485948
3272.832353,-11177.109724,0.000000,-2298.286494
3272.832691,-11029.068536,-1184.329507,-2298.286494
3272.833028,-9104.533087,-2516.700203,-1378.971896
3272.833365,-8882.471304,-2220.617826,689.485948
3272.833703,-9622.677246,-1924.535449,2681.334243
3272.834040,-10214.842000,-814.226536,76.609550
3272.834377,-10214.842000,-592.164754,-1378.971896
3272.834715,-10066.800811,296.082377,-1838.629195
3272.835052,-9252.574275,-370.102971,229.828649
3272.835389,-10066.800811,-962.267725,3677.258390
3272.835727,-9770.718434,-148.041188,4443.353888
3272.836064,-10066.800811,1628.453072,3370.820191
3272.836401,-10584.944971,1406.391290,306.438199
3272.836739,-10584.944971,1702.473667,-612.876398
3272.837076,-9770.718434,1554.432478,0.000000
3272.837413,-9178.553681,370.102971,1685.410096
3272.837751,-8956.491898,1258.350101,1838.629195
3272.838088,-10362.883188,1406.391290,842.705048
3272.838425,-11029.068536,1554.432478,-1532.190996
3272.838763,-10288.862594,1554.432478,-2834.553343
3272.839100,-9548.656652,0.000000,-1378.971896
3272.839437,-9622.677246,-962.267725,306.438199
3272.839775,-9030.512492,-2294.638420,2451.505594
3272.840112,-9252.574275,-518.144159,2068.457845
3272.840449,-10288.862594,-1406.391290,-766.095498
3272.840787,-11399.171507,-296.082377,-1608.800546
3272.841124,-11251.130318,-1850.514855,-1532.190996
3272.841461,-9992.780217,-2220.617826,229.828649
3272.841799,-8364.327145,-2960.823768,2221.676944
3272.842136,-9548.656652,-1924.535449,2298.286494
3272.842473,-10140.821405,-1184.329507,306.438199
3272.842811,-10510.924376,-148.041188,-1608.800546
3272.843148,-10066.800811,-814.226536,-612.876398
3272.843485,-10362.883188,-666.185348,842.705048
3272.843823,-10140.821405,-1036.288319,2528.115143
3272.844160,-9474.636058,-370.102971,2145.067394
3272.844497,-9622.677246,296.082377,306.438199
3272.844835,-10214.842000,888.247130,-1225.752797
3272.845172,-11103.089130,222.061783,-2528.115143
3272.845509,-10066.800811,-222.061783,-1762.019645
3272.845847,-9474.636058,-444.123565,-459.657299
3272.846184,-9696.697840,-296.082377,1455.581446
3272.846521,-9696.697840,1036.288319,-1072.533697
3272.846859,-9474.636058,148.041188,-3140.991542
3272.847196,-9844.739029,370.102971,-1685.410096
3272.847533,-9548.656652,-888.247130,-383.047749
3272.847871,-9992.780217,-1036.288319,2451.505594
3272.848208,-10288.862594,-74.020594,3753.867940
3272.848546,-9844.739029,296.082377,2374.896044
3272.848883,-10140.821405,888.247130,229.828649
3272.849220,-10881.027347,222.061783,0.000000
3272.849558,-10140.821405,518.144159,612.876398
3272.849895,-9918.759623,-296.082377,2068.457845
3272.850232,-9918.759623,370.102971,2528.115143
3272.850570,-9770.718434,814.226536,995.924147
3272.850907,-9992.780217,1406.391290,-766.095498
3272.851244,-9548.656652,1036.288319,-459.657299
3272.851582,-9622.677246,74.020594,459.657299
3272.851919,-9918.759623,0.000000,1608.800546
3272.852256,-10288.862594,-740.205942,2451.505594
3272.852594,-10214.842000,222.061783,1608.800546
3272.852931,-10807.006753,296.082377,-689.485948
3272.853268,-11251.130318,0.000000,-1915.238745
3272.853606,-9918.759623,-962.267725,-2298.286494
3272.853943,-9696.697840,-1998.556043,-1225.752797
3272.854280,-9696.697840,-2146.597232,1302.362347
3272.854618,-9992.780217,-2368.659014,689.485948
3272.854955,-10732.986159,-1332.370696,-383.047749
3272.855292,-10732.986159,-1480.411884,-1838.629195
3272.855630,-9326.594869,-1332.370696,-612.876398
3272.855967,-9918.759623,-2146.597232,1685.410096
3272.856304,-10584.944971,-2220.617826,3447.429741
3272.856642,-10362.883188,-518.144159,3983.696590
3272.856979,-9918.759623,-518.144159,1685.410096
3272.857316,-10732.986159,222.061783,306.438199
3272.857654,-10881.027347,296.082377,-766.095498
3272.857991,-10066.800811,-740.205942,306.438199
3272.858328,-9400.615463,-518.144159,1608.800546
3272.858666,-9474.636058,148.041188,1991.848295
3272.859003,-9548.656652,1998.556043,0.000000
3272.859340,-10140.821405,666.185348,-3217.601092
3272.859678,-9770.718434,888.247130,-2145.067394
3272.860015,-9326.594869,74.020594,-842.705048
3272.860352,-9104.533087,-1258.350101,766.095498
3272.860690,-9178.553681,74.020594,1302.362347
3272.861027,-9622.677246,296.082377,-229.828649
3272.861364,-10362.883188,592.164754,-2221.676944
3272.861702,-9918.759623,-666.185348,-2451.505594
3272.862039,-9992.780217,-814.226536,-995.924147
3272.862376,-9474.636058,-1480.411884,612.876398
3272.862714,-9696.697840,-1406.391290,1225.752797
3272.863051,-9992.780217,-1184.329507,536.266849
3272.863388,-9992.780217,0.000000,-766.095498
3272.863726,-9918.759623,370.102971,0.000000
3272.864063,-11029.068536,-666.185348,995.924147
3272.864400,-10881.027347,-814.226536,2757.943793
3272.864738,-11325.150913,-444.123565,3447.429741
3272.865075,-10436.903782,444.123565,2145.067394
3272.865413,-10362.883188,1036.288319,0.000000
3272.865750,-11621.233289,0.000000,-1149.143247
3272.866087,-10510.924376,-518.144159,-995.924147
3272.866425,-9252.574275,-1110.308913,-383.047749
3272.866762,-9030.512492,-1554.432478,1455.581446
3272.867099,-9770.718434,-1332.370696,766.095498
3272.867437,-9622.677246,-592.164754,-919.314598
3272.867774,-9770.718434,74.020594,-1991.848295
3272.868111,-9622.677246,-740.205942,-919.314598
3272.868449,-9844.739029,-1628.453072,1072.533697
3272.868786,-10510.924376,-2072.576638,2374.896044
3272.869123,-9992.780217,-1258.350101,2604.724693
3272.869461,-9696.697840,-296.082377,0.000000
3272.869798,-10362.883188,0.000000,-459.657299
3272.870135,-11103.089130,-888.247130,0.000000
3272.870473,-9992.780217,-666.185348,76.609550
3272.870810,-9252.574275,0.000000,2068.457845
3272.871147,-9622.677246,0.000000,2451.505594
3272.871485,-10066.800811,1702.473667,383.047749
3272.871822,-9770.718434,1776.494261,-459.657299
3272.872159,-10732.986159,2442.679609,-306.438199
3272.872497,-10288.862594,1480.411884,842.705048
3272.872834,-10658.965565,1036.288319,1915.238745
3272.873171,-9770.718434,1480.411884,995.924147
3272.873509,-9474.636058,1036.288319,0.000000
3272.873846,-10881.027347,1110.308913,-1532.190996
3272.874183,-9844.739029,-296.082377,-2911.162892
3272.874521,-9474.636058,-666.185348,-1991.848295
3272.874858,-8364.327145,-962.267725,-1225.752797
3272.875195,-8290.306550,-1924.535449,0.000000
3272.875533,-10140.821405,-1110.308913,0.000000
3272.875870,-10436.903782,-1480.411884,-1608.800546
3272.876207,-9770.718434,-518.144159,-1302.362347
3272.876545,-10140.821405,-888.247130,0.000000
3272.876882,-10066.800811,-2368.659014,1762.019645
3272.877219,-10288.862594,-2516.700203,3064.381992
3272.877557,-10288.862594,-1332.370696,2451.505594
3272.877894,-10732.986159,-518.144159,383.047749
3272.878231,-11843.295072,-592.164754,-306.438199
3272.878569,-11103.089130,-1036.288319,-229.828649
3272.878906,-9326.594869,-1332.370696,459.657299
3272.879243,-9400.615463,-518.144159,2834.553343
3272.879581,-10584.944971,296.082377,2528.115143
3272.879918,-10658.965565,518.144159,-612.876398
3272.880255,-10584.944971,1036.288319,-766.095498
3272.880593,-10732.986159,296.082377,153.219100
3272.880930,-10066.800811,0.000000,1532.190996
3272.881267,-10214.842000,-518.144159,2374.896044
3272.881605,-10362.883188,814.226536,2068.457845
3272.881942,-9474.636058,74.020594,-766.095498
3272.882280,-10214.842000,888.247130,-2528.115143
3272.882617,-9548.656652,-962.267725,-2221.676944
3272.882954,-8734.430116,-1480.411884,-842.705048
3272.883292,-7846.182985,-592.164754,536.266849
3272.883629,-8956.491898,-518.144159,1915.238745
3272.883966,-9992.780217,0.000000,689.485948
3272.884304,-9918.759623,444.123565,-919.314598
3272.884641,-10584.944971,222.061783,459.657299
3272.884978,-10140.821405,740.205942,1838.629195
3272.885316,-10362.883188,-592.164754,3447.429741
3272.885653,-10288.862594,222.061783,2987.772442
3272.885990,-9400.615463,740.205942,229.828649
3272.886328,-10510.924376,814.226536,-689.485948
3272.886665,-10881.027347,1110.308913,-1532.190996
3272.887002,-9178.553681,74.020594,-2145.067394
3272.887340,-9030.512492,0.000000,-842.705048
3272.887677,-9622.677246,-296.082377,0.000000
3272.888014,-10066.800811,74.020594,-689.485948
3272.888352,-10066.800811,222.061783,-1072.533697
3272.888689,-10584.944971,444.123565,-1532.190996
3272.889026,-10214.842000,-370.102971,-1225.752797
3272.889364,-10436.903782,-2368.659014,536.266849
3272.889701,-10362.883188,-1628.453072,2451.505594
3272.890038,-9992.780217,-2072.576638,1838.629195
3272.890376,-10658.965565,-1184.329507,-229.828649
3272.890713,-10955.047942,-1184.329507,-1915.238745
3272.891050,-10362.883188,-1924.535449,-1378.971896
3272.891388,-8882.471304,-2294.638420,0.000000
3272.891725,-8586.388927,-2294.638420,2374.896044
3272.892062,-10066.800811,-740.205942,2604.724693
3272.892400,-10807.006753,370.102971,1149.143247
3272.892737,-10807.006753,740.205942,536.266849
3272.893074,-10288.862594,592.164754,1455.581446
3272.893412,-10807.006753,148.041188,3140.991542
3272.893749,-10732.986159,74.020594,3677.258390
3272.894086,-9992.780217,740.205942,2451.505594
3272.894424,-9770.718434,1480.411884,306.438199
3272.894761,-10658.965565,1036.288319,-1991.848295
3272.895099,-10362.883188,0.000000,-2604.724693
3272.895436,-9104.533087,74.020594,-1838.629195
3272.895773,-8660.409521,-666.185348,-459.657299
3272.896111,-9104.533087,0.000000,612.876398
3272.896448,-10362.883188,74.020594,-536.266849
3272.896785,-9696.697840,592.164754,-1762.019645
3272.897123,-9992.780217,0.000000,-229.828649
3272.897460,-10658.965565,-370.102971,1225.752797
3272.897797,-10288.862594,-1998.556043,2451.505594
3272.898135,-10140.821405,-1850.514855,3064.381992
3272.898472,-9474.636058,-1184.329507,1532.190996
3272.898809,-10436.903782,-814.226536,-306.438199
3272.899147,-10955.047942,0.000000,-1149.143247
3272.899484,-10214.842000,-148.041188,-1685.410096
3272.899821,-9326.594869,-888.247130,-383.047749
3272.900159,-9622.677246,-444.123565,842.705048
3272.900496,-10214.842000,148.041188,306.438199
3272.900833,-10436.903782,444.123565,-919.314598
3272.901171,-10362.883188,666.185348,-536.266849
3272.901508,-9770.718434,370.102971,153.219100
3272.901845,-10510.924376,-1628.453072,1915.238745
3272.902183,-10955.047942,-370.102971,2451.505594
3272.902520,-10658.965565,-888.247130,766.095498
3272.902857,-9992.780217,0.000000,-1302.362347
3272.903195,-10288.862594,-666.185348,-2451.505594
3272.903532,-10066.800811,-962.267725,-1838.629195
3272.903869,-8512.368333,-1628.453072,-1455.581446
3272.904207,-8808.450710,-1850.514855,1225.752797
3272.904544,-10214.842000,-1480.411884,1762.019645
3272.904882,-10140.821405,74.020594,-229.828649
3272.905219,-10066.800811,444.123565,-919.314598
3272.905556,-9992.780217,0.000000,766.095498
3272.905894,-9992.780217,-1110.308913,3064.381992
3272.906231,-10658.965565,-740.205942,4979.620737
3272.906568,-10140.821405,740.205942,4290.134789
3272.906906,-9918.759623,1406.391290,1608.800546
3272.907243,-11325.150913,1480.411884,-536.266849
3272.907580,-10955.047942,1628.453072,-1149.143247
3272.907918,-9474.636058,1036.288319,-689.485948
3272.908255,-9104.533087,888.247130,1072.533697
3272.908592,-9548.656652,814.226536,842.705048
3272.908930,-10214.842000,1406.391290,-1608.800546
3272.909267,-10362.883188,1628.453072,-1915.238745
3272.909604,-9622.677246,814.226536,-1991.848295
3272.909942,-10066.800811,-666.185348,-383.047749
3272.910279,-9918.759623,-1776.494261,1302.362347
3272.910616,-9474.636058,-1554.432478,1225.752797
3272.910954,-9400.615463,-1110.308913,0.000000
3272.911291,-10584.944971,-962.267725,-1915.238745
3272.911628,-10436.903782,-1036.288319,-2604.724693
3272.911966,-9474.636058,-1776.494261,-2145.067394
3272.912303,-9030.512492,-1554.432478,0.000000
3272.912640,-9770.718434,-2516.700203,1838.629195
3272.912978,-10658.965565,-1184.329507,689.485948
3272.913315,-10214.842000,0.000000,-612.876398
3272.913652,-10658.965565,148.041188,0.000000
3272.913990,-10214.842000,-444.123565,612.876398
3272.914327,-10288.862594,-1258.350101,3370.820191
3272.914665,-10881.027347,-666.185348,3830.477490
3272.915002,-10214.842000,444.123565,2374.896044
3272.915339,-11177.109724,1036.288319,-229.828649
3272.915677,-11177.109724,1110.308913,-2221.676944
3272.916014,-9992.780217,518.144159,-1991.848295
3272.916351,-9104.533087,-666.185348,-995.924147
3272.916689,-8956.491898,-666.185348,919.314598
3272.917026,-9770.718434,0.000000,766.095498
3272.917363,-10066.800811,0.000000,-1762.019645
3272.917701,-9178.553681,888.247130,-1915.238745
3272.918038,-9844.739029,0.000000,-383.047749
3272.918375,-10066.800811,-962.267725,1762.019645
3272.918713,-9622.677246,-1702.473667,3217.601092
3272.919050,-9992.780217,-296.082377,3830.477490
3272.919387,-9918.759623,370.102971,1149.143247
3272.919725,-10288.862594,444.123565,-306.438199
3272.920062,-10288.862594,666.185348,-536.266849
3272.920399,-9474.636058,-666.185348,0.000000
3272.920737,-9252.574275,74.020594,1685.410096
3272.921074,-10214.842000,444.123565,2298.286494
3272.921411,-10658.965565,814.226536,153.219100
3272.921749,-9770.718434,888.247130,-1608.800546
3272.922086,-10140.821405,1184.329507,-612.876398
3272.922423,-9844.739029,-296.082377,1072.533697
3272.922761,-9918.759623,-1184.329507,1991.848295
3272.923098,-9918.759623,-1406.391290,2987.772442
3272.923435,-10214.842000,444.123565,459.657299
3272.923773,-11251.130318,0.000000,-842.705048
3272.924110,-11325.150913,-740.205942,-3217.601092
3272.924448,-9104.533087,-1924.535449,-3140.991542
3272.924785,-8734.430116,-2368.659014,-919.314598
3272.925122,-9104.533087,-3330.926739,689.485948
3272.925460,-10140.821405,-1776.494261,-306.438199
3272.925797,-10288.862594,-962.267725,-1915.238745
3272.926134,-10436.903782,-1110.308913,-1762.019645
3272.926472,-10436.903782,-1036.288319,-153.219100
3272.926809,-10510.924376,-2960.823768,2298.286494
3272.927146,-10510.924376,-1480.411884,4903.011187
3272.927484,-10214.842000,-370.102971,3524.039291
3272.927821,-10881.027347,518.144159,1762.019645
3272.928158,-12139.377449,740.205942,-306.438199
3272.928496,-10955.047942,0.000000,-766.095498
3272.928833,-9474.636058,296.082377,1149.143247
3272.929170,-8808.450710,0.000000,2451.505594
3272.929508,-9770.718434,1258.350101,1762.019645
3272.929845,-10066.800811,1628.453072,-1838.629195
3272.930182,-9622.677246,1850.514855,-2757.943793
3272.930520,-9400.615463,1480.411884,-1072.533697
3272.930857,-9992.780217,740.205942,766.095498
3272.931194,-9548.656652,-296.082377,2298.286494
3272.931532,-9178.553681,444.123565,2681.334243
3272.931869,-9326.594869,592.164754,459.657299
3272.932206,-11251.130318,444.123565,-995.924147
3272.932544,-10214.842000,296.082377,-1915.238745
3272.932881,-9548.656652,-814.226536,-689.485948
3272.933218,-9770.718434,-1332.370696,612.876398
3272.933556,-9252.574275,-592.164754,766.095498
3272.933893,-9474.636058,148.041188,-612.876398
3272.934231,-9622.677246,222.061783,-1532.190996
3272.934568,-9622.677246,666.185348,-1608.800546
3272.934905,-10214.842000,-296.082377,1378.971896
3272.935243,-10732.986159,-148.041188,2987.772442
3272.935580,-10658.965565,-518.144159,3983.696590
3272.935917,-10658.965565,370.102971,1302.362347
3272.936255,-10436.903782,296.082377,-1302.362347
3272.936592,-10807.006753,666.185348,-1608.800546
3272.936929,-9992.780217,-444.123565,-1608.800546
3272.937267,-8808.450710,-1924.535449,-612.876398
3272.937604,-9844.739029,-1332.370696,0.000000
3272.937941,-10362.883188,-814.226536,-842.705048
3272.938279,-9400.615463,0.000000,-2911.162892
3272.938616,-9844.739029,-518.144159,-2374.896044
3272.938953,-9696.697840,-666.185348,-766.095498
3272.939291,-10362.883188,-2886.803174,1532.190996
3272.939628,-9844.739029,-1998.556043,4596.572988
3272.939965,-10436.903782,-1480.411884,2681.334243
3272.940303,-9992.780217,-1110.308913,689.485948
3272.940640,-10807.006753,-296.082377,-689.485948
3272.940977,-10362.883188,-1110.308913,-306.438199
3272.941315,-9104.533087,-1258.350101,1378.971896
3272.941652,-8956.491898,-1480.411884,2681.334243
3272.941989,-10584.944971,444.123565,2911.162892
3272.942327,-10066.800811,2072.576638,-459.657299
3272.942664,-10362.883188,1554.432478,-1762.019645
3272.943001,-10066.800811,2294.638420,612.876398
3272.943339,-9770.718434,1480.411884,2451.505594
3272.943676,-10436.903782,740.205942,4519.963438
3272.944014,-11251.130318,1406.391290,2911.162892
3272.944351,-10214.842000,1924.535449,689.485948
3272.944688,-11991.336260,1554.432478,-1072.533697
3272.945026,-10732.986159,518.144159,-2528.115143
3272.945363,-9104.533087,-592.164754,-1991.848295
3272.945700,-8808.450710,-1776.494261,-612.876398
3272.946038,-8586.388927,-1702.473667,0.000000
3272.946375,-9104.533087,-1036.288319,-1685.410096
3272.946712,-9548.656652,-740.205942,-2145.067394
3272.947050,-9474.636058,-444.123565,-1532.190996
3272.947387,-10362.883188,-1554.432478,-383.047749
3272.947724,-9844.739029,-2146.597232,2221.676944
3272.948062,-9474.636058,-2368.659014,3447.429741
3272.948399,-9918.759623,-1480.411884,3064.381992
3272.948736,-10881.027347,-1332.370696,-459.657299
3272.949074,-10584.944971,-1184.329507,-995.924147
3272.949411,-9770.718434,-1332.370696,-1762.019645
3272.949748,-9326.594869,-1110.308913,842.705048
3272.950086,-9844.739029,-1480.411884,1455.581446
3272.950423,-9770.718434,-222.061783,-689.485948
3272.950760,-10362.883188,1332.370696,-2757.943793
3272.951098,-9992.780217,592.164754,-2221.676944
3272.951435,-9992.780217,0.000000,0.000000
3272.951772,-10584.944971,-1480.411884,2145.067394
3272.952110,-10955.047942,-296.082377,3064.381992
3272.952447,-10584.944971,592.164754,1762.019645
3272.952784,-11547.212695,296.082377,-689.485948
3272.953122,-10807.006753,-444.123565,-2068.457845
3272.953459,-9474.636058,-1258.350101,-1302.362347
3272.953797,-8734.430116,-1332.370696,689.485948
3272.954134,-8882.471304,-1258.350101,1762.019645
3272.954471,-10140.821405,0.000000,1608.800546
3272.954809,-10658.965565,1480.411884,-1378.971896
3272.955146,-9474.636058,1332.370696,-1149.143247
3272.955483,-10140.821405,1406.391290,1838.629195
3272.955821,-9992.780217,0.000000,3600.648841
3272.956158,-9844.739029,518.144159,4826.401637
3272.956495,-9992.780217,1628.453072,4213.525239
3272.956833,-10436.903782,962.267725,1302.362347
3272.957170,-11029.068536,1110.308913,76.609550
3272.957507,-10140.821405,740.205942,-1072.533697
3272.957845,-8586.388927,592.164754,-229.828649
3272.958182,-9030.512492,0.000000,76.609550
3272.958519,-9474.636058,-222.061783,-383.047749
3272.958857,-9474.636058,666.185348,-2528.115143
3272.959194,-9696.697840,518.144159,-2757.943793
3272.959531,-9918.759623,888.247130,-2451.505594
3272.959869,-10658.965565,-1036.288319,-1532.190996
3272.960206,-10584.944971,-1850.514855,1991.848295
3272.960543,-9622.677246,-1998.556043,2451.505594
3272.960881,-9844.739029,-1036.288319,919.314598
3272.961218,-11251.130318,-1332.370696,-1225.752797
3272.961555,-11843.295072,-1332.370696,-1455.581446
3272.961893,-10436.903782,-2368.659014,-689.485948
3272.962230,-8956.491898,-1702.473667,919.314598
3272.962567,-10066.800811,-1628.453072,2298.286494
3272.962905,-10732.986159,-592.164754,766.095498
3272.963242,-9992.780217,666.185348,-1762.019645
3272.963580,-10214.842000,740.205942,-306.438199
3272.963917,-10436.903782,0.000000,1455.581446
3272.964254,-10436.903782,-370.102971,2451.505594
3272.964592,-10732.986159,-518.144159,3064.381992
3272.964929,-9918.759623,888.247130,1608.800546
3272.965266,-9844.739029,222.061783,-766.095498
3272.965604,-10436.903782,444.123565,-766.095498
3272.965941,-8660.409521,0.000000,-1608.800546
3272.966278,-8512.368333,-962.267725,-459.657299
3272.966616,-9696.697840,-518.144159,0.000000
3272.966953,-9696.697840,-148.041188,-612.876398
3272.967290,-9548.656652,222.061783,-1991.848295
3272.967628,-9474.636058,0.000000,-1762.019645
3272.967965,-9770.718434,0.000000,-306.438199
3272.968302,-10066.800811,-1110.308913,1225.752797
3272.968640,-10288.862594,-1258.350101,3294.210641
3272.968977,-9844.739029,-518.144159,3600.648841
3272.969314,-10807.006753,-666.185348,1915.238745
3272.969652,-11399.171507,814.226536,383.047749
3272.969989,-10955.047942,0.000000,-689.485948
3272.970326,-9992.780217,74.020594,612.876398
3272.970664,-10066.800811,-370.102971,1072.533697
3272.971001,-10140.821405,370.102971,1072.533697
3272.971338,-10436.903782,814.226536,-842.705048
3272.971676,-9992.780217,296.082377,-1915.238745
3272.972013,-9992.780217,0.000000,-1225.752797
3272.972351,-9474.636058,-666.185348,0.000000
3272.972688,-10066.800811,-1924.535449,2068.457845
3272.973025,-9844.739029,-1258.350101,2068.457845
3272.973363,-10214.842000,-666.185348,459.657299
3272.973700,-10658.965565,-370.102971,-1225.752797
3272.974037,-10732.986159,-1406.391290,-2374.896044
3272.974375,-9178.553681,-2146.597232,-1149.143247
3272.974712,-8808.450710,-2812.782580,-306.438199
3272.975049,-8882.471304,-2294.638420,995.924147
3272.975387,-9696.697840,-1036.288319,-229.828649
3272.975724,-9252.574275,-1110.308913,-1455.581446
3272.976061,-9844.739029,-444.123565,-229.828649
3272.976399,-11103.089130,-740.205942,1455.581446
3272.976736,-10436.903782,-74.020594,2987.772442
3272.977073,-10807.006753,0.000000,4903.011187
3272.977411,-10510.924376,1702.473667,3600.648841
3272.977748,-10140.821405,1702.473667,842.705048
3272.978085,-11473.192101,1998.556043,-229.828649
3272.978423,-10214.842000,1554.432478,-612.876398
3272.978760,-9252.574275,592.164754,153.219100
3272.979097,-9992.780217,1554.432478,919.314598
3272.979435,-9918.759623,1554.432478,-995.924147
3272.979772,-9844.739029,1924.535449,-1915.238745
3272.980109,-10140.821405,1554.432478,-2298.286494
3272.980447,-9622.677246,962.267725,-1608.800546
3272.980784,-9252.574275,0.000000,-306.438199
3272.981121,-9622.677246,-592.164754,2145.067394
3272.981459,-9696.697840,-814.226536,2374.896044
3272.981796,-9622.677246,-814.226536,0.000000
3272.982134,-10436.903782,-222.061783,-689.485948
3272.982471,-10362.883188,-1184.329507,-689.485948
3272.982808,-9474.636058,-1702.473667,-842.705048
