#time,accel_x,accel_y,accel_z
2988.226312,-9770.718434,-592.164754,-995.924147
2988.226650,-9622.677246,-1480.411884,-689.485948
2988.226988,-10214.842000,-1702.473667,689.485948
2988.227326,-10066.800811,-1628.453072,689.485948
2988.227663,-9474.636058,-148.041188,1072.533697
2988.228001,-10066.800811,296.082377,1225.752797
2988.228339,-10807.006753,74.020594,383.047749
2988.228677,-11325.150913,-518.144159,842.705048
2988.229014,-10510.924376,444.123565,842.705048
2988.229352,-9178.553681,666.185348,459.657299
2988.229690,-9992.780217,1406.391290,919.314598
2988.230028,-9918.759623,740.205942,-995.924147
2988.230366,-10510.924376,0.000000,-995.924147
2988.230703,-9178.553681,666.185348,-689.485948
2988.231041,-9252.574275,592.164754,-919.314598
2988.231379,-9918.759623,888.247130,-1072.533697
2988.231717,-10362.883188,-888.247130,-1991.848295
2988.232055,-9548.656652,-740.205942,-1685.410096
2988.232392,-9548.656652,-962.267725,-1608.800546
2988.232730,-9992.780217,-1258.350101,-2068.457845
2988.233068,-10362.883188,-2146.597232,-2911.162892
2988.233406,-9252.574275,-3404.947333,-2374.896044
2988.233743,-8882.471304,-3478.967927,-995.924147
2988.234081,-8586.388927,-3627.009116,306.438199
2988.234419,-10436.903782,-2072.576638,229.828649
2988.234757,-11843.295072,-1998.556043,-2068.457845
2988.235095,-10955.047942,-2146.597232,-3140.991542
2988.235432,-10510.924376,-2960.823768,-1149.143247
2988.235770,-10288.862594,-2442.679609,459.657299
2988.236108,-9918.759623,-2294.638420,306.438199
2988.236446,-10732.986159,-1258.350101,-995.924147
2988.236784,-10288.862594,-1998.556043,-1149.143247
2988.237121,-9844.739029,-2072.576638,-766.095498
2988.237459,-10807.006753,-1924.535449,229.828649
2988.237797,-11325.150913,-666.185348,-2145.067394
2988.238135,-11177.109724,-1332.370696,-3600.648841
2988.238472,-10288.862594,-1850.514855,-4366.744339
2988.238810,-8216.285956,-3478.967927,-3140.991542
2988.239148,-8068.244768,-3478.967927,-1762.019645
2988.239486,-8364.327145,-3034.844362,-919.314598
2988.239824,-9326.594869,-2368.659014,-1991.848295
2988.240161,-9918.759623,-1702.473667,-2374.896044
2988.240499,-10436.903782,-2368.659014,-2145.067394
2988.240837,-10140.821405,-2072.576638,-2757.943793
2988.241175,-9770.718434,-3997.112087,-3140.991542
2988.241513,-9992.780217,-4441.235652,-1072.533697
2988.241850,-9696.697840,-4737.318029,-1302.362347
2988.242188,-7550.100608,-4737.318029,-689.485948
2988.242526,-8290.306550,-3478.967927,-459.657299
2988.242864,-9622.677246,-2812.782580,0.000000
2988.243202,-10881.027347,-1480.411884,-842.705048
2988.243539,-11399.171507,-370.102971,-2221.676944
2988.243877,-10955.047942,-740.205942,-2911.162892
2988.244215,-11399.171507,-2146.597232,-1685.410096
2988.244553,-11103.089130,-2960.823768,-1225.752797
2988.244890,-9770.718434,-2960.823768,-1532.190996
2988.245228,-9548.656652,-2886.803174,-1685.410096
2988.245566,-9178.553681,-3478.967927,-2221.676944
2988.245904,-8882.471304,-4737.318029,-2911.162892
2988.246242,-9400.615463,-3997.112087,-2145.067394
2988.246579,-9918.759623,-2590.720797,-1378.971896
2988.246917,-10658.965565,-1258.350101,-1685.410096
2988.247255,-11695.253884,-1332.370696,-2911.162892
2988.247593,-11991.336260,-2886.803174,-3907.087040
2988.247931,-10362.883188,-4441.235652,-3447.429741
2988.248268,-9474.636058,-4811.338623,-1378.971896
2988.248606,-9474.636058,-4589.276840,-689.485948
2988.248944,-8216.285956,-4515.256246,-2221.676944
2988.249282,-9474.636058,-4811.338623,-2145.067394
2988.249619,-10362.883188,-2960.823768,-1762.019645
2988.249957,-9548.656652,-1036.288319,-689.485948
2988.250295,-9474.636058,222.061783,-689.485948
2988.250633,-10510.924376,592.164754,-766.095498
2988.250971,-12879.583391,740.205942,0.000000
2988.251308,-11843.295072,814.226536,-1149.143247
2988.251646,-8808.450710,-148.041188,-459.657299
2988.251984,-8512.368333,-1036.288319,919.314598
2988.252322,-10288.862594,-1332.370696,995.924147
2988.252660,-9252.574275,0.000000,-1915.238745
2988.252997,-8364.327145,-518.144159,-2834.553343
2988.253335,-9400.615463,-740.205942,-1685.410096
2988.253673,-11621.233289,-740.205942,-3677.258390
2988.254011,-10955.047942,296.082377,-4979.620737
2988.254348,-9252.574275,-592.164754,-3830.477490
2988.254686,-7920.203579,-1776.494261,-1532.190996
2988.255024,-9400.615463,-2146.597232,-1532.190996
2988.255362,-10510.924376,-2664.741391,-995.924147
2988.255700,-10140.821405,-2738.761985,-1685.410096
2988.256037,-8808.450710,-3627.009116,-612.876398
2988.256375,-9696.697840,-2812.782580,0.000000
2988.256713,-10584.944971,-3330.926739,612.876398
2988.257051,-10658.965565,-2220.617826,-1685.410096
2988.257389,-10732.986159,-2516.700203,-2528.115143
2988.257726,-10732.986159,-2664.741391,-2757.943793
2988.258064,-9770.718434,-2664.741391,-2834.553343
2988.258402,-9918.759623,-3256.906145,-2374.896044
2988.258740,-9178.553681,-3034.844362,-2911.162892
2988.259078,-9622.677246,-3256.906145,-2987.772442
2988.259415,-10288.862594,-3256.906145,-1532.190996
2988.259753,-9696.697840,-2738.761985,-1608.800546
2988.260091,-9918.759623,-2738.761985,-612.876398
2988.260429,-11473.192101,-2146.597232,-842.705048
2988.260766,-11177.109724,-1258.350101,-2374.896044
2988.261104,-12139.377449,-1924.535449,-3064.381992
2988.261442,-10881.027347,-3182.885551,-4903.011187
2988.261780,-9696.697840,-4515.256246,-4290.134789
2988.262118,-8956.491898,-4589.276840,-3600.648841
2988.262455,-8364.327145,-4737.318029,-3064.381992
2988.262793,-9252.574275,-5255.462188,-2528.115143
2988.263131,-8586.388927,-4293.194464,-2681.334243
2988.263469,-9548.656652,-2812.782580,689.485948
2988.263807,-10510.924376,-592.164754,383.047749
2988.264144,-11177.109724,-74.020594,612.876398
2988.264482,-12139.377449,-370.102971,842.705048
2988.264820,-10658.965565,-1258.350101,76.609550
2988.265158,-11547.212695,-2072.576638,153.219100
2988.265495,-9030.512492,-3330.926739,-766.095498
2988.265833,-7698.141797,-3701.029710,-1225.752797
2988.266171,-7476.080014,-4589.276840,-1302.362347
2988.266509,-8586.388927,-2442.679609,-1762.019645
2988.266847,-8438.347739,-1184.329507,-2068.457845
2988.267184,-10584.944971,0.000000,-2451.505594
2988.267522,-10732.986159,592.164754,-3064.381992
2988.267860,-13693.809927,222.061783,-2987.772442
2988.268198,-12361.439231,-1554.432478,-3830.477490
2988.268536,-9252.574275,-4589.276840,-3524.039291
2988.268873,-8216.285956,-5773.606348,0.000000
2988.269211,-7254.018232,-6365.771101,383.047749
2988.269549,-8586.388927,-5699.585753,76.609550
2988.269887,-9548.656652,-4145.153275,-1455.581446
2988.270224,-10732.986159,-3256.906145,-3600.648841
2988.270562,-11991.336260,-2220.617826,-4673.182538
2988.270900,-11843.295072,-1258.350101,-4903.011187
2988.271238,-10362.883188,-1702.473667,-3830.477490
2988.271576,-9622.677246,-2812.782580,-1455.581446
2988.271913,-9548.656652,-2812.782580,1225.752797
2988.272251,-10362.883188,-2146.597232,1378.971896
2988.272589,-11029.068536,-1924.535449,1532.190996
2988.272927,-11547.212695,-2368.659014,-153.219100
2988.273265,-11029.068536,-1480.411884,-2451.505594
2988.273602,-10140.821405,-1480.411884,-2757.943793
2988.273940,-7846.182985,-1110.308913,-2068.457845
2988.274278,-8364.327145,-370.102971,-1225.752797
2988.274616,-9992.780217,666.185348,-1685.410096
2988.274954,-10584.944971,444.123565,-2221.676944
2988.275291,-11177.109724,222.061783,-1225.752797
2988.275629,-10955.047942,-740.205942,-919.314598
2988.275967,-10214.842000,-1036.288319,-612.876398
2988.276305,-9548.656652,-3404.947333,153.219100
2988.276642,-7179.997637,-2516.700203,995.924147
2988.276980,-8068.244768,-2072.576638,1838.629195
2988.277318,-9992.780217,592.164754,1685.410096
2988.277656,-11843.295072,1332.370696,-1225.752797
2988.277994,-12583.501014,814.226536,-2451.505594
2988.278331,-10214.842000,370.102971,-1991.848295
2988.278669,-8438.347739,518.144159,919.314598
2988.279007,-9178.553681,888.247130,3140.991542
2988.279345,-8438.347739,1480.411884,919.314598
2988.279683,-10881.027347,74.020594,306.438199
2988.280020,-11695.253884,-1480.411884,1072.533697
2988.280358,-10510.924376,-888.247130,919.314598
2988.280696,-10658.965565,-148.041188,1685.410096
2988.281033,-10288.862594,-592.164754,-459.657299
2988.281371,-8290.306550,-1184.329507,-2298.286494
2988.281708,-8438.347739,-1036.288319,-1302.362347
2988.282046,-9030.512492,-962.267725,-689.485948
2988.282383,-10584.944971,-888.247130,-1838.629195
2988.282721,-11399.171507,-1110.308913,-2374.896044
2988.283058,-10510.924376,-2368.659014,-1302.362347
2988.283396,-9696.697840,-2812.782580,995.924147
2988.283733,-10066.800811,-3182.885551,1762.019645
2988.284071,-10510.924376,-3552.988522,1225.752797
2988.284408,-10066.800811,-3775.050304,-766.095498
2988.284746,-9770.718434,-2960.823768,-1225.752797
2988.285083,-9400.615463,-1850.514855,-459.657299
2988.285421,-9548.656652,-888.247130,1378.971896
2988.285758,-10362.883188,444.123565,306.438199
2988.286096,-11325.150913,1184.329507,1072.533697
2988.286433,-11547.212695,2072.576638,306.438199
2988.286771,-10658.965565,1406.391290,2298.286494
2988.287108,-11917.315666,518.144159,2221.676944
2988.287446,-11103.089130,-296.082377,995.924147
2988.287783,-10288.862594,-296.082377,1225.752797
2988.288121,-8808.450710,370.102971,1149.143247
2988.288458,-7772.162391,0.000000,0.000000
2988.288796,-7772.162391,740.205942,-919.314598
2988.289133,-8882.471304,1184.329507,-1532.190996
2988.289471,-10214.842000,888.247130,-919.314598
2988.289808,-10658.965565,1480.411884,-1072.533697
2988.290146,-10066.800811,1110.308913,0.000000
2988.290483,-9918.759623,888.247130,995.924147
2988.290821,-9770.718434,222.061783,1149.143247
2988.291158,-9474.636058,-1258.350101,306.438199
2988.291496,-9252.574275,-3330.926739,1608.800546
2988.291833,-8956.491898,-3034.844362,2834.553343
2988.292171,-9326.594869,-1702.473667,1685.410096
2988.292508,-10807.006753,0.000000,1149.143247
2988.292846,-10955.047942,444.123565,-383.047749
2988.293183,-11251.130318,888.247130,-1608.800546
2988.293521,-10658.965565,518.144159,153.219100
2988.293858,-10658.965565,222.061783,1608.800546
2988.294196,-10807.006753,0.000000,1838.629195
2988.294533,-10732.986159,-592.164754,1149.143247
2988.294871,-11029.068536,-740.205942,842.705048
2988.295208,-10436.903782,-2072.576638,-842.705048
2988.295546,-9474.636058,-2442.679609,-1072.533697
2988.295883,-8808.450710,-2590.720797,-1072.533697
2988.296221,-9548.656652,-1332.370696,-153.219100
2988.296558,-9326.594869,222.061783,-1532.190996
2988.296896,-11029.068536,-74.020594,-1838.629195
2988.297233,-10881.027347,-370.102971,-1378.971896
2988.297571,-10362.883188,-814.226536,-1762.019645
2988.297908,-10140.821405,-1776.494261,842.705048
2988.298246,-8808.450710,-3330.926739,1762.019645
2988.298583,-8216.285956,-2812.782580,2221.676944
2988.298921,-9622.677246,-1480.411884,2068.457845
2988.299258,-10510.924376,518.144159,459.657299
2988.299596,-11177.109724,518.144159,-1225.752797
2988.299933,-10288.862594,222.061783,-995.924147
2988.300271,-9696.697840,1036.288319,919.314598
2988.300608,-9474.636058,2220.617826,1378.971896
2988.300946,-10362.883188,2442.679609,842.705048
2988.301283,-11029.068536,2294.638420,766.095498
2988.301621,-10807.006753,1480.411884,229.828649
2988.301958,-9844.739029,1332.370696,995.924147
2988.302296,-9104.533087,0.000000,1991.848295
2988.302633,-9992.780217,-222.061783,1838.629195
2988.302970,-10584.944971,222.061783,-383.047749
2988.303308,-9622.677246,1036.288319,-1532.190996
2988.303645,-9696.697840,1998.556043,-1685.410096
2988.303983,-9548.656652,888.247130,-2374.896044
2988.304320,-10066.800811,-814.226536,-2374.896044
2988.304658,-9696.697840,-1850.514855,-306.438199
2988.304995,-9326.594869,-2146.597232,229.828649
2988.305333,-9178.553681,-1850.514855,1915.238745
2988.305670,-11029.068536,-1554.432478,2834.553343
2988.306008,-10214.842000,-1924.535449,1149.143247
2988.306345,-9696.697840,-2516.700203,0.000000
2988.306683,-10436.903782,-1332.370696,1762.019645
2988.307020,-10732.986159,-1850.514855,1225.752797
2988.307358,-10288.862594,-1554.432478,306.438199
2988.307695,-9918.759623,-962.267725,459.657299
2988.308033,-9844.739029,148.041188,842.705048
2988.308370,-9918.759623,370.102971,153.219100
2988.308708,-10436.903782,-222.061783,1072.533697
2988.309045,-10732.986159,-296.082377,1072.533697
2988.309383,-10732.986159,-814.226536,76.609550
2988.309720,-10584.944971,-740.205942,0.000000
2988.310058,-10214.842000,-1406.391290,536.266849
2988.310395,-10288.862594,-888.247130,-383.047749
2988.310733,-8882.471304,0.000000,-1608.800546
2988.311070,-8438.347739,0.000000,-536.266849
2988.311408,-9474.636058,0.000000,842.705048
2988.311745,-10881.027347,-518.144159,-459.657299
2988.312083,-11029.068536,296.082377,0.000000
2988.312420,-10066.800811,0.000000,842.705048
2988.312758,-9326.594869,-814.226536,2068.457845
2988.313095,-9178.553681,0.000000,2374.896044
2988.313433,-9030.512492,148.041188,2374.896044
2988.313770,-10066.800811,0.000000,1685.410096
2988.314108,-10066.800811,0.000000,536.266849
2988.314445,-10807.006753,1406.391290,995.924147
2988.314783,-9918.759623,1184.329507,229.828649
2988.315120,-9474.636058,1332.370696,0.000000
2988.315458,-9400.615463,1184.329507,229.828649
2988.315795,-9326.594869,740.205942,229.828649
2988.316133,-9400.615463,148.041188,1455.581446
2988.316470,-10288.862594,370.102971,612.876398
2988.316808,-10510.924376,-1036.288319,-459.657299
2988.317145,-11325.150913,-740.205942,-1302.362347
2988.317483,-9770.718434,-1332.370696,-1225.752797
2988.317820,-8808.450710,-370.102971,-1991.848295
2988.318158,-9548.656652,-1332.370696,-2221.676944
2988.318495,-10881.027347,-1998.556043,-1991.848295
2988.318833,-9770.718434,-2072.576638,-1532.190996
2988.319170,-9992.780217,-1406.391290,0.000000
2988.319508,-10066.800811,-1998.556043,229.828649
2988.319845,-10658.965565,-1628.453072,612.876398
2988.320183,-10955.047942,-2368.659014,459.657299
2988.320520,-10955.047942,-2738.761985,229.828649
2988.320858,-9696.697840,-1036.288319,1532.190996
2988.321195,-10140.821405,-1332.370696,1532.190996
2988.321533,-10214.842000,-518.144159,1762.019645
2988.321870,-9844.739029,74.020594,919.314598
2988.322208,-9696.697840,148.041188,1225.752797
2988.322545,-10140.821405,814.226536,2145.067394
2988.322883,-10436.903782,814.226536,1532.190996
2988.323220,-10807.006753,1406.391290,766.095498
2988.323558,-10214.842000,1406.391290,-229.828649
2988.323895,-9770.718434,1554.432478,0.000000
2988.324233,-9548.656652,1036.288319,459.657299
2988.324570,-9326.594869,0.000000,-306.438199
2988.324908,-9030.512492,518.144159,0.000000
2988.325245,-9104.533087,370.102971,-612.876398
2988.325583,-8882.471304,296.082377,0.000000
2988.325920,-8882.471304,666.185348,76.609550
2988.326258,-9992.780217,1628.453072,0.000000
2988.326595,-10214.842000,888.247130,-459.657299
2988.326933,-10362.883188,-296.082377,-153.219100
2988.327270,-9770.718434,-296.082377,1378.971896
2988.327608,-9400.615463,-962.267725,3064.381992
2988.327945,-10510.924376,-370.102971,2604.724693
2988.328283,-10214.842000,-592.164754,842.705048
2988.328620,-9622.677246,-148.041188,-612.876398
2988.328958,-9474.636058,-518.144159,76.609550
2988.329295,-10510.924376,-444.123565,1532.190996
2988.329633,-10288.862594,518.144159,0.000000
2988.329970,-10732.986159,148.041188,0.000000
2988.330308,-11251.130318,370.102971,0.000000
2988.330645,-10955.047942,222.061783,-842.705048
2988.330983,-10658.965565,-592.164754,-536.266849
2988.331320,-9696.697840,-1998.556043,-689.485948
2988.331657,-9326.594869,-2664.741391,0.000000
2988.331995,-9400.615463,-1628.453072,-536.266849
2988.332332,-10288.862594,-1776.494261,-1225.752797
2988.332670,-10066.800811,-1258.350101,-1762.019645
2988.333007,-10140.821405,-1554.432478,-1838.629195
2988.333345,-10288.862594,-888.247130,-766.095498
2988.333682,-10066.800811,-962.267725,-306.438199
2988.334020,-9400.615463,-518.144159,766.095498
2988.334357,-9770.718434,-666.185348,1685.410096
2988.334695,-10066.800811,-518.144159,2221.676944
2988.335032,-10510.924376,1184.329507,1838.629195
2988.335370,-10732.986159,814.226536,1532.190996
2988.335707,-10140.821405,962.267725,1378.971896
2988.336045,-10436.903782,740.205942,1225.752797
2988.336382,-10510.924376,1332.370696,1532.190996
2988.336720,-9474.636058,2368.659014,1762.019645
2988.337057,-9770.718434,2590.720797,153.219100
2988.337395,-10510.924376,2368.659014,-459.657299
2988.337732,-10214.842000,1480.411884,-766.095498
2988.338070,-9178.553681,592.164754,536.266849
2988.338407,-9252.574275,814.226536,1225.752797
2988.338745,-9844.739029,444.123565,1838.629195
2988.339082,-10214.842000,592.164754,-229.828649
2988.339420,-9326.594869,-1110.308913,-2604.724693
2988.339757,-9474.636058,-1776.494261,-1302.362347
2988.340095,-8882.471304,-2072.576638,306.438199
2988.340432,-8882.471304,-1776.494261,229.828649
2988.340770,-9474.636058,-1258.350101,0.000000
2988.341107,-10140.821405,-962.267725,0.000000
2988.341445,-9770.718434,148.041188,-536.266849
2988.341782,-10288.862594,-888.247130,229.828649
2988.342120,-10732.986159,-1702.473667,1302.362347
2988.342457,-10510.924376,-2072.576638,842.705048
2988.342795,-10658.965565,-2072.576638,2068.457845
2988.343132,-11177.109724,-1184.329507,1532.190996
2988.343470,-10436.903782,-740.205942,995.924147
2988.343807,-11103.089130,518.144159,-919.314598
2988.344145,-11103.089130,-740.205942,-1225.752797
2988.344482,-9770.718434,0.000000,-995.924147
2988.344820,-8660.409521,-740.205942,-1072.533697
2988.345157,-9844.739029,0.000000,229.828649
2988.345495,-11103.089130,-518.144159,229.828649
2988.345832,-11399.171507,148.041188,-612.876398
2988.346170,-10288.862594,-148.041188,0.000000
2988.346507,-10066.800811,74.020594,0.000000
2988.346845,-10066.800811,-962.267725,1149.143247
2988.347182,-9548.656652,-888.247130,459.657299
2988.347520,-8660.409521,148.041188,536.266849
2988.347857,-9622.677246,814.226536,0.000000
2988.348195,-9326.594869,666.185348,0.000000
2988.348532,-8734.430116,592.164754,-306.438199
2988.348870,-9326.594869,1184.329507,1991.848295
2988.349207,-10510.924376,2294.638420,2298.286494
2988.349545,-10955.047942,2368.659014,2221.676944
2988.349882,-11177.109724,3034.844362,1762.019645
2988.350220,-10658.965565,2146.597232,153.219100
2988.350557,-10288.862594,962.267725,612.876398
2988.350895,-9474.636058,1406.391290,1762.019645
2988.351232,-8882.471304,148.041188,919.314598
2988.351570,-9474.636058,1110.308913,1762.019645
2988.351907,-9844.739029,1480.411884,383.047749
2988.352245,-10658.965565,1406.391290,-919.314598
2988.352582,-10955.047942,592.164754,-1608.800546
2988.352920,-10584.944971,-1036.288319,-1532.190996
2988.353257,-10140.821405,-518.144159,-1532.190996
2988.353595,-9474.636058,-2220.617826,-689.485948
2988.353932,-8216.285956,-1776.494261,0.000000
2988.354270,-9474.636058,-2812.782580,153.219100
2988.354607,-10214.842000,-1998.556043,0.000000
2988.354945,-10510.924376,-2516.700203,0.000000
2988.355282,-10288.862594,-2812.782580,383.047749
2988.355620,-10436.903782,-2664.741391,1149.143247
2988.355957,-10807.006753,-1850.514855,2145.067394
2988.356295,-10658.965565,-962.267725,1608.800546
2988.356632,-10140.821405,0.000000,995.924147
2988.356970,-10807.006753,-370.102971,1225.752797
2988.357307,-10658.965565,-222.061783,1532.190996
2988.357645,-9622.677246,-222.061783,995.924147
2988.357982,-10214.842000,370.102971,2374.896044
2988.358320,-10658.965565,740.205942,1302.362347
2988.358657,-10140.821405,814.226536,0.000000
2988.358995,-10658.965565,740.205942,-612.876398
2988.359332,-8734.430116,1628.453072,-459.657299
2988.359669,-10510.924376,1776.494261,842.705048
2988.360007,-11547.212695,1258.350101,-76.609550
2988.360344,-10140.821405,2146.597232,-1378.971896
2988.360682,-9178.553681,222.061783,-1225.752797
2988.361019,-9252.574275,-740.205942,-153.219100
2988.361357,-8068.244768,-1036.288319,689.485948
2988.361694,-8216.285956,-1406.391290,1378.971896
2988.362032,-9474.636058,-740.205942,995.924147
2988.362369,-10214.842000,444.123565,383.047749
2988.362707,-10732.986159,1480.411884,76.609550
2988.363044,-10436.903782,888.247130,-612.876398
2988.363382,-10807.006753,962.267725,-459.657299
2988.363719,-10362.883188,0.000000,-306.438199
2988.364057,-8586.388927,-518.144159,919.314598
2988.364394,-8364.327145,-1184.329507,2528.115143
2988.364732,-9252.574275,148.041188,2987.772442
2988.365069,-11103.089130,740.205942,766.095498
2988.365407,-13027.624579,0.000000,-766.095498
2988.365744,-11917.315666,0.000000,-2374.896044
2988.366082,-9400.615463,-1184.329507,-1915.238745
2988.366419,-8882.471304,-518.144159,-383.047749
2988.366757,-8660.409521,-888.247130,76.609550
2988.367094,-9918.759623,0.000000,-1225.752797
2988.367432,-10436.903782,-962.267725,-2757.943793
2988.367769,-11251.130318,-1924.535449,-1762.019645
2988.368107,-9844.739029,-2368.659014,0.000000
2988.368444,-9918.759623,-4071.132681,1149.143247
2988.368782,-9474.636058,-2664.741391,2987.772442
2988.369119,-9622.677246,-370.102971,2221.676944
2988.369457,-9918.759623,-666.185348,536.266849
2988.369794,-11621.233289,0.000000,-76.609550
2988.370132,-10436.903782,-148.041188,-459.657299
2988.370469,-9918.759623,74.020594,1455.581446
2988.370807,-9548.656652,-296.082377,2911.162892
2988.371144,-9030.512492,1480.411884,2757.943793
2988.371482,-9770.718434,1850.514855,1762.019645
2988.371819,-11251.130318,1702.473667,766.095498
2988.372157,-10362.883188,1924.535449,459.657299
2988.372494,-9992.780217,1628.453072,536.266849
2988.372832,-9178.553681,962.267725,383.047749
2988.373169,-8882.471304,888.247130,689.485948
2988.373507,-9030.512492,2220.617826,306.438199
2988.373844,-9844.739029,1554.432478,-1149.143247
2988.374182,-10288.862594,888.247130,-1072.533697
2988.374519,-9696.697840,666.185348,-1149.143247
2988.374857,-9844.739029,-962.267725,-1225.752797
2988.375194,-9474.636058,-1480.411884,0.000000
2988.375532,-9474.636058,-1406.391290,1225.752797
2988.375869,-9622.677246,-1036.288319,612.876398
2988.376207,-9474.636058,-1036.288319,-306.438199
2988.376544,-10288.862594,-1332.370696,-459.657299
2988.376882,-10584.944971,-1998.556043,536.266849
2988.377219,-9622.677246,-2368.659014,536.266849
2988.377557,-10807.006753,-444.123565,1838.629195
2988.377894,-10955.047942,0.000000,689.485948
2988.378232,-10658.965565,-74.020594,842.705048
2988.378569,-10584.944971,-370.102971,612.876398
2988.378907,-11177.109724,-1184.329507,1455.581446
2988.379244,-11103.089130,-1110.308913,1685.410096
2988.379582,-11103.089130,-1110.308913,1149.143247
2988.379919,-10807.006753,-592.164754,0.000000
2988.380257,-10066.800811,0.000000,-1072.533697
2988.380594,-9326.594869,-222.061783,-1225.752797
2988.380932,-9326.594869,-666.185348,-1608.800546
2988.381269,-9548.656652,-1258.350101,-1455.581446
2988.381607,-9844.739029,-1406.391290,-306.438199
2988.381944,-9992.780217,-444.123565,306.438199
2988.382282,-9622.677246,148.041188,0.000000
2988.382619,-10066.800811,0.000000,612.876398
2988.382956,-9548.656652,74.020594,689.485948
2988.383294,-10288.862594,-518.144159,766.095498
2988.383631,-9696.697840,-592.164754,1455.581446
2988.383969,-8882.471304,-592.164754,1685.410096
2988.384306,-9622.677246,-444.123565,2145.067394
2988.384644,-10436.903782,1628.453072,1378.971896
2988.384981,-9474.636058,1850.514855,0.000000
2988.385319,-9770.718434,1850.514855,0.000000
2988.385656,-10288.862594,592.164754,612.876398
2988.385993,-9844.739029,1110.308913,459.657299
2988.386331,-10436.903782,962.267725,919.314598
2988.386668,-10881.027347,1628.453072,995.924147
2988.387006,-10584.944971,592.164754,0.000000
2988.387343,-9622.677246,222.061783,-842.705048
2988.387681,-9400.615463,-444.123565,-689.485948
2988.388018,-9252.574275,-1480.411884,-229.828649
2988.388356,-10881.027347,-1554.432478,-536.266849
2988.388693,-10066.800811,0.000000,-1991.848295
2988.389031,-9696.697840,-370.102971,-2068.457845
2988.389368,-9548.656652,-814.226536,-1225.752797
2988.389705,-10140.821405,-1924.535449,-919.314598
2988.390043,-9474.636058,-2368.659014,0.000000
2988.390380,-9178.553681,-1702.473667,1072.533697
2988.390718,-10140.821405,-1998.556043,689.485948
2988.391055,-11621.233289,-1924.535449,153.219100
2988.391393,-11251.130318,-2220.617826,0.000000
2988.391730,-9474.636058,-1480.411884,153.219100
2988.392068,-9696.697840,-962.267725,2528.115143
2988.392405,-10214.842000,-296.082377,3600.648841
2988.392742,-10732.986159,0.000000,2451.505594
2988.393080,-11325.150913,1184.329507,1685.410096
2988.393417,-10881.027347,1628.453072,536.266849
2988.393755,-11103.089130,740.205942,76.609550
2988.394092,-9992.780217,296.082377,153.219100
2988.394430,-9252.574275,-370.102971,306.438199
2988.394767,-9104.533087,370.102971,306.438199
2988.395105,-9178.553681,666.185348,-306.438199
2988.395442,-10362.883188,962.267725,0.000000
2988.395780,-9918.759623,518.144159,-1302.362347
2988.396117,-9326.594869,-370.102971,-919.314598
2988.396454,-9622.677246,444.123565,383.047749
2988.396792,-8660.409521,-296.082377,612.876398
2988.397129,-8364.327145,222.061783,1455.581446
2988.397467,-9474.636058,74.020594,919.314598
2988.397804,-10066.800811,444.123565,153.219100
2988.398142,-11399.171507,-592.164754,383.047749
2988.398479,-11177.109724,-1998.556043,383.047749
2988.398817,-9622.677246,-962.267725,919.314598
2988.399154,-9400.615463,-666.185348,1532.190996
2988.399491,-8660.409521,-592.164754,1378.971896
2988.399829,-9474.636058,148.041188,1455.581446
2988.400166,-11251.130318,-518.144159,1378.971896
2988.400504,-11991.336260,0.000000,-153.219100
2988.400841,-11621.233289,0.000000,0.000000
2988.401179,-11251.130318,-370.102971,-612.876398
2988.401516,-9770.718434,-1184.329507,-842.705048
2988.401854,-9252.574275,-1258.350101,-612.876398
2988.402191,-8808.450710,-1554.432478,-1378.971896
2988.402529,-9622.677246,-2368.659014,-1455.581446
2988.402866,-10362.883188,-2812.782580,-1915.238745
2988.403203,-10881.027347,-2664.741391,-1149.143247
2988.403541,-9696.697840,-1702.473667,-919.314598
2988.403878,-9400.615463,-1924.535449,0.000000
2988.404216,-10510.924376,-1332.370696,1532.190996
2988.404553,-9548.656652,-1110.308913,153.219100
2988.404891,-9548.656652,-1480.411884,536.266849
2988.405228,-10658.965565,-1258.350101,2528.115143
2988.405566,-10807.006753,-962.267725,2528.115143
2988.405903,-10881.027347,592.164754,842.705048
2988.406240,-10214.842000,1480.411884,536.266849
2988.406578,-9474.636058,1628.453072,153.219100
2988.406915,-9474.636058,1036.288319,306.438199
2988.407253,-10288.862594,1110.308913,1455.581446
2988.407590,-9844.739029,1850.514855,1762.019645
2988.407928,-10881.027347,1628.453072,1455.581446
2988.408265,-10658.965565,2368.659014,842.705048
2988.408603,-9622.677246,1850.514855,0.000000
2988.408940,-8586.388927,1480.411884,0.000000
2988.409278,-9622.677246,518.144159,153.219100
2988.409615,-9770.718434,592.164754,-1378.971896
2988.409952,-10140.821405,518.144159,-2145.067394
2988.410290,-9326.594869,-740.205942,-2451.505594
2988.410627,-8956.491898,-666.185348,-1685.410096
2988.410965,-8660.409521,-518.144159,-459.657299
2988.411302,-9104.533087,-1332.370696,-459.657299
2988.411640,-9622.677246,-1110.308913,0.000000
2988.411977,-10510.924376,-1332.370696,-76.609550
2988.412315,-11325.150913,-1924.535449,459.657299
2988.412652,-11029.068536,-1480.411884,2145.067394
2988.412989,-9992.780217,-1036.288319,2451.505594
2988.413327,-10214.842000,-1332.370696,1608.800546
2988.413664,-11251.130318,-1258.350101,2374.896044
2988.414002,-10658.965565,-740.205942,0.000000
2988.414339,-10140.821405,-1036.288319,-766.095498
2988.414677,-10436.903782,-592.164754,-306.438199
2988.415014,-10436.903782,-74.020594,0.000000
2988.415352,-10140.821405,-888.247130,0.000000
2988.415689,-9252.574275,-518.144159,76.609550
2988.416026,-10214.842000,-740.205942,536.266849
2988.416364,-11547.212695,-962.267725,612.876398
2988.416701,-11029.068536,-592.164754,-995.924147
2988.417039,-9992.780217,-666.185348,-536.266849
2988.417376,-8956.491898,-962.267725,-842.705048
2988.417714,-8660.409521,-888.247130,-1149.143247
2988.418051,-9770.718434,-1480.411884,536.266849
2988.418389,-9474.636058,-518.144159,153.219100
2988.418726,-9030.512492,-370.102971,383.047749
2988.419064,-10584.944971,444.123565,1225.752797
2988.419401,-10214.842000,74.020594,919.314598
2988.419738,-10362.883188,0.000000,1838.629195
2988.420076,-9844.739029,370.102971,2145.067394
2988.420413,-9696.697840,740.205942,2604.724693
2988.420751,-10140.821405,888.247130,2145.067394
2988.421088,-9844.739029,0.000000,1302.362347
2988.421426,-10214.842000,1258.350101,1532.190996
2988.421763,-10732.986159,666.185348,1378.971896
2988.422101,-10288.862594,444.123565,766.095498
2988.422438,-9622.677246,222.061783,0.000000
2988.422775,-8882.471304,-148.041188,-766.095498
2988.423113,-8808.450710,-444.123565,-1302.362347
2988.423450,-9030.512492,-1258.350101,-1225.752797
2988.423788,-10066.800811,-962.267725,-1915.238745
2988.424125,-11325.150913,-1406.391290,-2451.505594
2988.424463,-9104.533087,-2072.576638,-919.314598
2988.424800,-10362.883188,-1998.556043,-306.438199
2988.425138,-10584.944971,-1924.535449,1149.143247
2988.425475,-10658.965565,-2886.803174,919.314598
2988.425813,-11325.150913,-2146.597232,1149.143247
2988.426150,-11399.171507,-2368.659014,1302.362347
2988.426487,-11029.068536,-592.164754,-612.876398
2988.426825,-11251.130318,-1480.411884,229.828649
2988.427162,-10658.965565,-518.144159,229.828649
2988.427500,-9770.718434,-962.267725,536.266849
2988.427837,-9696.697840,-1184.329507,1225.752797
2988.428175,-9326.594869,-666.185348,1915.238745
2988.428512,-10066.800811,-740.205942,919.314598
2988.428850,-10955.047942,222.061783,1225.752797
2988.429187,-9622.677246,1184.329507,-459.657299
2988.429524,-10140.821405,518.144159,-842.705048
2988.429862,-9992.780217,962.267725,-766.095498
2988.430199,-9178.553681,1036.288319,-2298.286494
2988.430537,-9474.636058,666.185348,-1302.362347
2988.430874,-8882.471304,0.000000,0.000000
2988.431212,-8956.491898,0.000000,-383.047749
2988.431549,-10807.006753,0.000000,536.266849
2988.431887,-10140.821405,-148.041188,0.000000
2988.432224,-9770.718434,-370.102971,536.266849
2988.432562,-10362.883188,-222.061783,1225.752797
2988.432899,-9400.615463,-1036.288319,1072.533697
2988.433236,-10436.903782,148.041188,1532.190996
2988.433574,-10881.027347,518.144159,1532.190996
2988.433911,-9844.739029,0.000000,76.609550
2988.434249,-9178.553681,-666.185348,306.438199
2988.434586,-9622.677246,740.205942,919.314598
2988.434924,-9992.780217,666.185348,459.657299
2988.435261,-10732.986159,0.000000,536.266849
2988.435599,-10436.903782,296.082377,689.485948
2988.435936,-11473.192101,-592.164754,842.705048
2988.436273,-10584.944971,-296.082377,842.705048
2988.436611,-9178.553681,-296.082377,536.266849
2988.436948,-10214.842000,-1036.288319,1149.143247
2988.437286,-9548.656652,-740.205942,-536.266849
2988.437623,-9474.636058,296.082377,-1608.800546
2988.437961,-10510.924376,-222.061783,-1532.190996
2988.438298,-9474.636058,-1924.535449,-2528.115143
2988.438636,-10214.842000,-2442.679609,-1532.190996
2988.438973,-9770.718434,-2146.597232,-766.095498
2988.439311,-8586.388927,-2146.597232,536.266849
2988.439648,-9696.697840,-1776.494261,1762.019645
2988.439985,-10362.883188,-370.102971,1149.143247
2988.440323,-10584.944971,-888.247130,842.705048
2988.440660,-11843.295072,-2072.576638,1991.848295
2988.440998,-9770.718434,-1406.391290,2374.896044
2988.441335,-9770.718434,0.000000,2987.772442
2988.441673,-10214.842000,148.041188,3217.601092
2988.442010,-10066.800811,1850.514855,383.047749
2988.442348,-10584.944971,2220.617826,-1149.143247
2988.442685,-10584.944971,1924.535449,-689.485948
2988.443022,-10288.862594,1184.329507,-383.047749
2988.443360,-10214.842000,1184.329507,153.219100
2988.443697,-9400.615463,518.144159,229.828649
2988.444035,-8660.409521,1184.329507,383.047749
2988.444372,-9474.636058,962.267725,-306.438199
2988.444710,-10510.924376,296.082377,612.876398
2988.445047,-10658.965565,222.061783,-536.266849
2988.445385,-10732.986159,-222.061783,-612.876398
2988.445722,-10214.842000,-962.267725,-842.705048
2988.446060,-9326.594869,-1628.453072,-842.705048
2988.446397,-8660.409521,-1258.350101,-842.705048
2988.446734,-8808.450710,-1628.453072,-689.485948
2988.447072,-9548.656652,-2590.720797,-383.047749
2988.447409,-9918.759623,-2220.617826,612.876398
2988.447747,-11399.171507,-1850.514855,842.705048
2988.448084,-10955.047942,-1184.329507,1378.971896
2988.448422,-10732.986159,-296.082377,153.219100
2988.448759,-9844.739029,-518.144159,612.876398
2988.449097,-10510.924376,-666.185348,1149.143247
2988.449434,-10881.027347,-444.123565,995.924147
2988.449771,-10955.047942,-222.061783,459.657299
2988.450109,-9770.718434,-296.082377,306.438199
2988.450446,-10955.047942,74.020594,919.314598
2988.450784,-10881.027347,814.226536,-229.828649
2988.451121,-9696.697840,-444.123565,-919.314598
2988.451459,-9844.739029,-962.267725,153.219100
2988.451796,-10288.862594,-370.102971,-536.266849
2988.452134,-9548.656652,444.123565,-689.485948
2988.452471,-10584.944971,0.000000,-229.828649
2988.452808,-10584.944971,222.061783,0.000000
2988.453146,-9770.718434,0.000000,-995.924147
2988.453483,-9400.615463,-962.267725,689.485948
2988.453821,-7994.224174,-1406.391290,1072.533697
2988.454158,-8956.491898,-1110.308913,2298.286494
2988.454496,-9918.759623,-148.041188,2145.067394
2988.454833,-10658.965565,222.061783,2068.457845
2988.455171,-10584.944971,592.164754,1455.581446
2988.455508,-9770.718434,814.226536,1302.362347
2988.455846,-9252.574275,962.267725,995.924147
2988.456183,-9696.697840,1406.391290,1302.362347
2988.456520,-9770.718434,1036.288319,1608.800546
2988.456858,-10066.800811,1702.473667,306.438199
2988.457195,-9770.718434,1628.453072,-383.047749
2988.457533,-10584.944971,1554.432478,229.828649
2988.457870,-10436.903782,74.020594,-536.266849
2988.458208,-10140.821405,-592.164754,-842.705048
2988.458545,-9844.739029,-888.247130,0.000000
2988.458883,-10214.842000,-296.082377,76.609550
2988.459220,-9918.759623,0.000000,-1378.971896
2988.459557,-10436.903782,-666.185348,-2528.115143
2988.459895,-9104.533087,-1258.350101,-1838.629195
2988.460232,-9474.636058,-2442.679609,-766.095498
2988.460570,-9844.739029,-2664.741391,612.876398
2988.460907,-9992.780217,-1924.535449,1378.971896
2988.461245,-11251.130318,-962.267725,766.095498
2988.461582,-11251.130318,0.000000,-766.095498
2988.461920,-11103.089130,-814.226536,-306.438199
2988.462257,-10584.944971,-2146.597232,1149.143247
2988.462595,-9696.697840,-2590.720797,1608.800546
2988.462932,-9178.553681,-444.123565,2757.943793
2988.463269,-9992.780217,666.185348,2145.067394
2988.463607,-10436.903782,1184.329507,1455.581446
2988.463944,-11251.130318,1924.535449,76.609550
2988.464282,-10807.006753,1036.288319,0.000000
2988.464619,-10732.986159,1036.288319,536.266849
2988.464957,-9252.574275,1036.288319,-229.828649
2988.465294,-9474.636058,1406.391290,1072.533697
2988.465632,-9474.636058,296.082377,153.219100
2988.465969,-9770.718434,888.247130,-1225.752797
2988.466306,-10436.903782,518.144159,0.000000
2988.466644,-9770.718434,148.041188,-229.828649
2988.466981,-8882.471304,-1924.535449,0.000000
2988.467319,-7994.224174,-1480.411884,842.705048
2988.467656,-7772.162391,0.000000,1455.581446
2988.467994,-9696.697840,-370.102971,766.095498
2988.468331,-10881.027347,-1110.308913,689.485948
2988.468669,-9844.739029,222.061783,-306.438199
2988.469006,-9622.677246,-888.247130,1608.800546
2988.469344,-10584.944971,-518.144159,3064.381992
2988.469681,-10140.821405,74.020594,1991.848295
2988.470018,-11029.068536,1036.288319,919.314598
2988.470356,-11473.192101,962.267725,-689.485948
2988.470693,-10732.986159,-740.205942,-995.924147
2988.471031,-9844.739029,296.082377,536.266849
2988.471368,-9918.759623,148.041188,76.609550
2988.471706,-10955.047942,1184.329507,153.219100
2988.472043,-11029.068536,1480.411884,-536.266849
2988.472381,-11473.192101,296.082377,-1532.190996
2988.472718,-10510.924376,-148.041188,-842.705048
2988.473055,-9844.739029,-962.267725,-689.485948
2988.473393,-9992.780217,-1628.453072,-383.047749
2988.473730,-9178.553681,-2812.782580,-1072.533697
2988.474068,-8808.450710,-1332.370696,-995.924147
2988.474405,-9992.780217,-1924.535449,-1532.190996
2988.474743,-10214.842000,-888.247130,-1302.362347
2988.475080,-9770.718434,-592.164754,-1608.800546
2988.475418,-9474.636058,-1406.391290,76.609550
2988.475755,-8956.491898,-2146.597232,1378.971896
2988.476093,-8808.450710,-1258.350101,1838.629195
2988.476430,-10510.924376,0.000000,2374.896044
2988.476767,-10214.842000,518.144159,1685.410096
2988.477105,-10807.006753,370.102971,1455.581446
2988.477442,-10584.944971,962.267725,1302.362347
2988.477780,-10066.800811,0.000000,1762.019645
2988.478117,-10732.986159,592.164754,2911.162892
2988.478455,-9918.759623,1628.453072,995.924147
2988.478792,-9548.656652,1628.453072,0.000000
2988.479130,-10658.965565,1998.556043,0.000000
2988.479467,-9918.759623,518.144159,-612.876398
2988.479804,-10214.842000,0.000000,153.219100
2988.480142,-9918.759623,148.041188,1455.581446
2988.480479,-9844.739029,1110.308913,536.266849
2988.480816,-10510.924376,74.020594,-536.266849
2988.481153,-10436.903782,-296.082377,-1378.971896
2988.481490,-9548.656652,-1480.411884,-919.314598
2988.481828,-10288.862594,-2072.576638,0.000000
2988.482165,-8290.306550,-2072.576638,536.266849
2988.482502,-8882.471304,-2220.617826,1532.190996
2988.482839,-10362.883188,-1110.308913,2145.067394
2988.483176,-10732.986159,-962.267725,919.314598
2988.483513,-11177.109724,296.082377,1225.752797
2988.483851,-11399.171507,-962.267725,459.657299
2988.484188,-9770.718434,-814.226536,459.657299
2988.484525,-9252.574275,0.000000,1532.190996
2988.484862,-10140.821405,370.102971,1072.533697
2988.485199,-9474.636058,148.041188,-229.828649
2988.485537,-9770.718434,666.185348,-995.924147
2988.485874,-10658.965565,1776.494261,-766.095498
2988.486211,-10214.842000,-74.020594,0.000000
2988.486548,-10214.842000,-444.123565,0.000000
2988.486885,-10584.944971,-814.226536,1378.971896
2988.487222,-10362.883188,592.164754,995.924147
2988.487560,-9844.739029,370.102971,-612.876398
2988.487897,-10362.883188,-148.041188,-919.314598
2988.488234,-10066.800811,-1036.288319,-919.314598
2988.488571,-9474.636058,-1110.308913,-229.828649
2988.488908,-9474.636058,-962.267725,766.095498
2988.489246,-9622.677246,518.144159,153.219100
2988.489583,-9918.759623,296.082377,-689.485948
2988.489920,-10510.924376,1110.308913,-229.828649
2988.490257,-10140.821405,962.267725,0.000000
2988.490594,-10510.924376,-666.185348,612.876398
2988.490932,-9548.656652,0.000000,2145.067394
2988.491269,-8660.409521,74.020594,2987.772442
2988.491606,-9622.677246,1850.514855,3140.991542
2988.491943,-10658.965565,1850.514855,1608.800546
2988.492280,-10584.944971,1702.473667,-306.438199
2988.492617,-10584.944971,370.102971,-766.095498
2988.492955,-9992.780217,518.144159,-306.438199
2988.493292,-8882.471304,814.226536,-306.438199
2988.493629,-9104.533087,0.000000,0.000000
2988.493966,-9548.656652,-222.061783,-919.314598
2988.494303,-10658.965565,0.000000,-1838.629195
2988.494641,-10288.862594,0.000000,-1838.629195
2988.494978,-9918.759623,-2146.597232,-1072.533697
2988.495315,-9770.718434,-1998.556043,536.266849
2988.495652,-9918.759623,-1184.329507,842.705048
2988.495989,-10584.944971,-740.205942,76.609550
2988.496326,-10584.944971,-2220.617826,-153.219100
2988.496664,-10140.821405,-1480.411884,-459.657299
2988.497001,-10955.047942,-2294.638420,766.095498
2988.497338,-10066.800811,-1998.556043,1608.800546
2988.497675,-10066.800811,-962.267725,1838.629195
2988.498012,-10362.883188,-1258.350101,1225.752797
2988.498350,-10066.800811,-740.205942,1685.410096
2988.498687,-10584.944971,666.185348,1225.752797
2988.499024,-10732.986159,888.247130,612.876398
2988.499361,-10584.944971,444.123565,1378.971896
2988.499698,-11325.150913,370.102971,1378.971896
2988.500035,-9844.739029,1036.288319,612.876398
2988.500373,-8882.471304,1702.473667,-459.657299
2988.500710,-9844.739029,222.061783,766.095498
2988.501047,-9770.718434,0.000000,-842.705048
2988.501384,-9474.636058,-222.061783,-1532.190996
2988.501721,-9474.636058,-370.102971,0.000000
2988.502059,-8956.491898,-370.102971,153.219100
2988.502396,-9622.677246,0.000000,-229.828649
2988.502733,-9918.759623,962.267725,-383.047749
2988.503070,-9252.574275,666.185348,-612.876398
2988.503407,-9178.553681,-1184.329507,-153.219100
2988.503745,-9326.594869,-1184.329507,1225.752797
2988.504082,-8734.430116,-222.061783,1685.410096
2988.504419,-10140.821405,0.000000,1532.190996
2988.504756,-10732.986159,0.000000,612.876398
2988.505093,-10658.965565,74.020594,153.219100
2988.505430,-10658.965565,-296.082377,306.438199
2988.505768,-9770.718434,-222.061783,229.828649
2988.506105,-9474.636058,-370.102971,536.266849
2988.506442,-10140.821405,740.205942,383.047749
2988.506779,-10955.047942,-296.082377,229.828649
2988.507116,-9400.615463,888.247130,-842.705048
2988.507454,-10436.903782,-74.020594,-536.266849
2988.507791,-11917.315666,-1110.308913,0.000000
2988.508128,-9844.739029,-592.164754,-536.266849
2988.508465,-10140.821405,-888.247130,-306.438199
2988.508802,-9992.780217,-1998.556043,0.000000
2988.509139,-10658.965565,-2368.659014,-689.485948
2988.509477,-10658.965565,-2072.576638,0.000000
2988.509814,-9326.594869,-2664.741391,-612.876398
2988.510151,-8808.450710,-1776.494261,229.828649
2988.510488,-9400.615463,-1184.329507,536.266849
2988.510825,-9622.677246,-888.247130,0.000000
2988.511163,-9770.718434,-962.267725,229.828649
2988.511500,-10214.842000,-518.144159,1072.533697
2988.511837,-10436.903782,0.000000,2451.505594
2988.512174,-11325.150913,74.020594,2834.553343
2988.512511,-10510.924376,1036.288319,2451.505594
2988.512848,-10140.821405,1628.453072,1455.581446
2988.513186,-10214.842000,1406.391290,1072.533697
2988.513523,-10066.800811,1776.494261,842.705048
2988.513860,-9326.594869,2146.597232,-1072.533697
2988.514197,-9178.553681,2072.576638,-229.828649
2988.514534,-10288.862594,2072.576638,536.266849
2988.514872,-10288.862594,2146.597232,76.609550
2988.515209,-10658.965565,2220.617826,0.000000
2988.515546,-10436.903782,1110.308913,229.828649
2988.515883,-10214.842000,1036.288319,-766.095498
2988.516220,-9474.636058,-962.267725,-995.924147
2988.516558,-9474.636058,-666.185348,0.000000
2988.516895,-9104.533087,-1554.432478,-306.438199
2988.517232,-8734.430116,-518.144159,-919.314598
2988.517569,-8882.471304,-666.185348,-153.219100
2988.517906,-9474.636058,-666.185348,-383.047749
2988.518243,-9696.697840,-814.226536,-689.485948
2988.518581,-10658.965565,-1332.370696,-229.828649
2988.518918,-10955.047942,-888.247130,1072.533697
2988.519255,-11399.171507,-962.267725,612.876398
2988.519592,-9622.677246,-1850.514855,1225.752797
2988.519929,-8882.471304,-666.185348,2374.896044
2988.520267,-10066.800811,-444.123565,1302.362347
2988.520604,-11621.233289,-1036.288319,842.705048
2988.520941,-11473.192101,-222.061783,-383.047749
2988.521278,-11399.171507,0.000000,-383.047749
2988.521615,-10362.883188,0.000000,-1378.971896
2988.521952,-9918.759623,148.041188,-306.438199
2988.522290,-9992.780217,-666.185348,-459.657299
2988.522627,-9252.574275,-740.205942,-919.314598
2988.522964,-9252.574275,0.000000,-766.095498
2988.523301,-10362.883188,-666.185348,-995.924147
2988.523638,-11251.130318,-1406.391290,-383.047749
2988.523976,-9770.718434,-1258.350101,-383.047749
2988.524313,-9770.718434,-1332.370696,2145.067394
2988.524650,-9178.553681,-1258.350101,2451.505594
2988.524987,-7994.224174,-1258.350101,2528.115143
2988.525324,-10140.821405,-296.082377,3370.820191
2988.525661,-10510.924376,0.000000,2221.676944
2988.525999,-9918.759623,1036.288319,612.876398
2988.526336,-9844.739029,370.102971,995.924147
2988.526673,-8438.347739,1036.288319,536.266849
2988.527010,-8438.347739,666.185348,766.095498
2988.527347,-9474.636058,740.205942,1838.629195
2988.527685,-9770.718434,2146.597232,0.000000
2988.528022,-11325.150913,1184.329507,-306.438199
2988.528359,-10658.965565,1184.329507,0.000000
2988.528696,-9844.739029,74.020594,-306.438199
2988.529033,-10066.800811,-370.102971,612.876398
2988.529371,-9400.615463,0.000000,612.876398
2988.529708,-9770.718434,-296.082377,-229.828649
2988.530045,-10807.006753,-370.102971,-1455.581446
2988.530382,-11473.192101,-1480.411884,-1762.019645
2988.530719,-10288.862594,-1776.494261,-1302.362347
2988.531056,-9400.615463,-1998.556043,-842.705048
2988.531394,-9548.656652,-1702.473667,0.000000
2988.531731,-9992.780217,-1776.494261,-766.095498
2988.532068,-9252.574275,-1998.556043,-1378.971896
2988.532405,-9622.677246,-2220.617826,-766.095498
2988.532742,-10362.883188,-2146.597232,536.266849
2988.533080,-10881.027347,-1480.411884,2145.067394
2988.533417,-11325.150913,-1924.535449,1455.581446
2988.533754,-9770.718434,-1258.350101,2145.067394
2988.534091,-9992.780217,-592.164754,3064.381992
2988.534428,-11029.068536,-1110.308913,2451.505594
2988.534765,-9992.780217,-222.061783,689.485948
2988.535103,-9992.780217,0.000000,-689.485948
2988.535440,-9548.656652,666.185348,-1455.581446
2988.535777,-9178.553681,814.226536,-1762.019645
2988.536114,-9770.718434,1184.329507,-229.828649
2988.536451,-10140.821405,1036.288319,-995.924147
2988.536789,-10510.924376,1036.288319,-1991.848295
2988.537126,-10732.986159,1110.308913,-766.095498
2988.537463,-9844.739029,-666.185348,536.266849
2988.537800,-9622.677246,-814.226536,1302.362347
2988.538137,-10066.800811,-296.082377,1532.190996
2988.538474,-9548.656652,0.000000,1149.143247
2988.538812,-9252.574275,370.102971,153.219100
2988.539149,-10066.800811,148.041188,76.609550
2988.539486,-9474.636058,666.185348,0.000000
2988.539823,-9622.677246,-148.041188,459.657299
2988.540160,-10140.821405,592.164754,1149.143247
2988.540498,-10066.800811,1036.288319,689.485948
2988.540835,-9918.759623,74.020594,766.095498
2988.541172,-9844.739029,-444.123565,919.314598
2988.541509,-9770.718434,-444.123565,919.314598
2988.541846,-10066.800811,0.000000,919.314598
2988.542184,-10066.800811,0.000000,919.314598
2988.542521,-9696.697840,444.123565,0.000000
2988.542858,-10436.903782,74.020594,-766.095498
2988.543195,-10881.027347,-444.123565,-1225.752797
2988.543532,-9918.759623,-1036.288319,0.000000
2988.543869,-9474.636058,-814.226536,-459.657299
2988.544207,-9918.759623,-1110.308913,-919.314598
2988.544544,-10955.047942,-1036.288319,-612.876398
2988.544881,-11325.150913,-740.205942,-995.924147
2988.545218,-11399.171507,-2072.576638,-995.924147
2988.545555,-10881.027347,-1850.514855,306.438199
2988.545893,-9622.677246,-1924.535449,919.314598
2988.546230,-9178.553681,-2516.700203,2145.067394
2988.546567,-8956.491898,-1258.350101,2068.457845
2988.546904,-10140.821405,-1184.329507,2451.505594
2988.547241,-10732.986159,148.041188,1685.410096
2988.547578,-10807.006753,296.082377,306.438199
2988.547916,-11103.089130,0.000000,1608.800546
2988.548253,-9548.656652,518.144159,842.705048
2988.548590,-8956.491898,518.144159,1532.190996
2988.548927,-9918.759623,1776.494261,1838.629195
2988.549264,-9770.718434,1924.535449,-306.438199
2988.549602,-9400.615463,296.082377,-689.485948
2988.549939,-8734.430116,0.000000,-153.219100
2988.550276,-9252.574275,814.226536,766.095498
2988.550613,-9918.759623,296.082377,459.657299
2988.550950,-10362.883188,370.102971,-459.657299
2988.551287,-10436.903782,1332.370696,-1302.362347
2988.551625,-10584.944971,-296.082377,-536.266849
2988.551962,-9992.780217,-518.144159,-306.438199
2988.552299,-9326.594869,-2146.597232,-306.438199
2988.552636,-10066.800811,-1776.494261,459.657299
2988.552973,-10066.800811,-1480.411884,-536.266849
2988.553311,-9400.615463,-1406.391290,0.000000
2988.553648,-9844.739029,-1776.494261,459.657299
2988.553985,-10436.903782,-1480.411884,1072.533697
2988.554322,-11621.233289,-1776.494261,612.876398
2988.554659,-10510.924376,-1184.329507,229.828649
2988.554997,-9400.615463,-1184.329507,229.828649
2988.555334,-9474.636058,-740.205942,1532.190996
2988.555671,-9992.780217,-592.164754,1225.752797
2988.556008,-11029.068536,-740.205942,536.266849
2988.556345,-11177.109724,-740.205942,0.000000
2988.556682,-10214.842000,-370.102971,-766.095498
2988.557020,-10584.944971,-888.247130,-842.705048
2988.557357,-9474.636058,0.000000,-536.266849
2988.557694,-10436.903782,814.226536,-1225.752797
2988.558031,-10732.986159,-296.082377,-1915.238745
2988.558368,-9252.574275,-296.082377,-1532.190996
2988.558706,-9474.636058,-296.082377,-383.047749
2988.559043,-10140.821405,-1480.411884,612.876398
2988.559380,-9548.656652,-888.247130,1378.971896
2988.559717,-10732.986159,-296.082377,1838.629195
2988.560054,-10288.862594,296.082377,612.876398
2988.560391,-9696.697840,296.082377,995.924147
2988.560729,-10288.862594,444.123565,1838.629195
2988.561066,-10066.800811,74.020594,1838.629195
2988.561403,-10288.862594,1110.308913,2528.115143
2988.561740,-10214.842000,2294.638420,2068.457845
2988.562077,-9696.697840,2072.576638,1072.533697
2988.562415,-9400.615463,1924.535449,0.000000
2988.562752,-9400.615463,1184.329507,459.657299
2988.563089,-9326.594869,2368.659014,459.657299
2988.563426,-9770.718434,814.226536,766.095498
2988.563763,-10955.047942,1480.411884,919.314598
2988.564100,-10066.800811,888.247130,-306.438199
2988.564438,-9918.759623,814.226536,-1302.362347
2988.564775,-9696.697840,0.000000,-689.485948
2988.565112,-9030.512492,-1258.350101,-2145.067394
2988.565449,-9178.553681,-1702.473667,-1225.752797
2988.565786,-9326.594869,-1258.350101,-919.314598
2988.566124,-9622.677246,-1554.432478,-766.095498
2988.566461,-10584.944971,-1628.453072,-1149.143247
2988.566798,-11029.068536,-2072.576638,-612.876398
2988.567135,-11621.233289,-2368.659014,-612.876398
2988.567472,-10732.986159,-3182.885551,-612.876398
2988.567810,-9400.615463,-3330.926739,1072.533697
2988.568147,-9252.574275,-2516.700203,2298.286494
2988.568484,-10881.027347,-1332.370696,2068.457845
2988.568821,-11473.192101,-1184.329507,306.438199
2988.569158,-11251.130318,-962.267725,0.000000
2988.569495,-9770.718434,-1480.411884,383.047749
2988.569833,-9548.656652,-888.247130,1149.143247
2988.570170,-10066.800811,592.164754,1378.971896
2988.570507,-11177.109724,814.226536,306.438199
2988.570844,-10881.027347,222.061783,-1149.143247
2988.571181,-9622.677246,0.000000,-306.438199
2988.571519,-9918.759623,0.000000,1225.752797
2988.571856,-9696.697840,-1036.288319,1302.362347
2988.572193,-9992.780217,-518.144159,842.705048
2988.572530,-9030.512492,1036.288319,842.705048
2988.572867,-9474.636058,1036.288319,-919.314598
2988.573204,-9918.759623,370.102971,-612.876398
2988.573542,-10066.800811,-1184.329507,0.000000
2988.573879,-10066.800811,0.000000,0.000000
2988.574216,-8734.430116,148.041188,459.657299
2988.574553,-9548.656652,370.102971,2451.505594
2988.574890,-9918.759623,444.123565,1072.533697
2988.575228,-10732.986159,-74.020594,689.485948
2988.575565,-10288.862594,444.123565,1225.752797
2988.575902,-9844.739029,444.123565,1225.752797
2988.576239,-9992.780217,-666.185348,1378.971896
2988.576576,-9548.656652,962.267725,1225.752797
2988.576913,-10510.924376,444.123565,919.314598
2988.577251,-10807.006753,1184.329507,76.609550
2988.577588,-10584.944971,740.205942,-995.924147
2988.577925,-10436.903782,148.041188,-459.657299
2988.578262,-9992.780217,-1332.370696,-1455.581446
2988.578599,-8808.450710,-1258.350101,-995.924147
2988.578937,-8882.471304,-370.102971,-1149.143247
2988.579274,-10362.883188,0.000000,-1378.971896
2988.579611,-10807.006753,-1258.350101,-2221.676944
2988.579948,-11251.130318,-2072.576638,-2451.505594
2988.580285,-10658.965565,-2590.720797,-1072.533697
2988.580623,-9992.780217,-3849.070898,842.705048
2988.580960,-9326.594869,-2368.659014,2298.286494
2988.581297,-9474.636058,-1776.494261,2068.457845
2988.581634,-10955.047942,-1924.535449,919.314598
2988.581971,-10881.027347,-1406.391290,919.314598
2988.582308,-10066.800811,-1406.391290,766.095498
2988.582645,-10214.842000,-370.102971,1532.190996
2988.582983,-10066.800811,1184.329507,1762.019645
2988.583320,-10584.944971,1332.370696,1149.143247
2988.583657,-9844.739029,1036.288319,76.609550
2988.583994,-10362.883188,1480.411884,153.219100
2988.584331,-10807.006753,1998.556043,459.657299
2988.584668,-9992.780217,518.144159,229.828649
2988.585005,-9548.656652,148.041188,1225.752797
2988.585343,-9104.533087,1628.453072,1532.190996
2988.585680,-9030.512492,2072.576638,459.657299
2988.586017,-10362.883188,1332.370696,-612.876398
2988.586354,-10955.047942,1258.350101,-995.924147
2988.586691,-10362.883188,666.185348,-1378.971896
2988.587028,-9918.759623,-296.082377,-1072.533697
2988.587365,-9474.636058,222.061783,689.485948
2988.587702,-8882.471304,0.000000,229.828649
2988.588040,-9844.739029,-666.185348,-689.485948
2988.588377,-9696.697840,-592.164754,-153.219100
2988.588714,-9548.656652,-1184.329507,-766.095498
2988.589051,-9918.759623,-1258.350101,612.876398
2988.589388,-10732.986159,-1702.473667,1915.238745
2988.589725,-10066.800811,592.164754,2298.286494
2988.590062,-10510.924376,0.000000,2145.067394
2988.590400,-11029.068536,74.020594,1149.143247
2988.590737,-9844.739029,-370.102971,76.609550
2988.591074,-9918.759623,-1036.288319,459.657299
2988.591411,-9918.759623,0.000000,1532.190996
2988.591748,-10584.944971,0.000000,459.657299
2988.592085,-10436.903782,222.061783,-229.828649
2988.592422,-9548.656652,-592.164754,-1302.362347
2988.592760,-9992.780217,-370.102971,-689.485948
2988.593097,-10807.006753,-962.267725,0.000000
2988.593434,-10436.903782,-1628.453072,0.000000
2988.593771,-9474.636058,-1332.370696,-76.609550
2988.594108,-9696.697840,-1110.308913,383.047749
2988.594445,-9770.718434,-1184.329507,229.828649
2988.594782,-9548.656652,-1998.556043,0.000000
2988.595120,-10214.842000,-1480.411884,612.876398
2988.595457,-10362.883188,-1924.535449,612.876398
2988.595794,-9548.656652,-444.123565,536.266849
2988.596131,-10510.924376,-1110.308913,1455.581446
2988.596468,-10214.842000,-888.247130,1149.143247
2988.596805,-8956.491898,-444.123565,1149.143247
2988.597142,-9178.553681,888.247130,1532.190996
2988.597480,-9474.636058,0.000000,1149.143247
2988.597817,-9326.594869,-296.082377,1225.752797
2988.598154,-11621.233289,0.000000,2145.067394
2988.598491,-11325.150913,2516.700203,459.657299
2988.598828,-10140.821405,2220.617826,-612.876398
2988.599165,-10362.883188,2294.638420,-689.485948
2988.599502,-9474.636058,666.185348,-1762.019645
2988.599839,-10807.006753,-74.020594,-1608.800546
2988.600177,-9474.636058,-1036.288319,-995.924147
2988.600514,-8956.491898,-1184.329507,-1225.752797
2988.600851,-9326.594869,-296.082377,-612.876398
2988.601188,-10881.027347,-1036.288319,-766.095498
2988.601525,-10436.903782,-666.185348,-842.705048
2988.601862,-9770.718434,-1406.391290,-612.876398
2988.602199,-10066.800811,-1480.411884,1302.362347
2988.602537,-10658.965565,-1036.288319,1072.533697
2988.602874,-11325.150913,-1406.391290,842.705048
2988.603211,-10955.047942,-592.164754,0.000000
2988.603548,-9918.759623,-1702.473667,153.219100
2988.603885,-9178.553681,-814.226536,306.438199
2988.604222,-8364.327145,-1554.432478,689.485948
2988.604559,-9326.594869,0.000000,1608.800546
2988.604897,-10214.842000,592.164754,2068.457845
2988.605234,-11251.130318,962.267725,1608.800546
2988.605571,-11103.089130,1110.308913,1149.143247
2988.605908,-10214.842000,2072.576638,0.000000
2988.606245,-9548.656652,814.226536,536.266849
2988.606582,-8956.491898,1036.288319,1072.533697
2988.606919,-9770.718434,740.205942,1762.019645
2988.607257,-10436.903782,1702.473667,1149.143247
2988.607594,-10584.944971,1628.453072,-229.828649
2988.607931,-10436.903782,1184.329507,-383.047749
2988.608268,-10066.800811,-148.041188,-1225.752797
2988.608605,-8956.491898,-370.102971,76.609550
2988.608942,-8216.285956,-148.041188,1225.752797
2988.609279,-8808.450710,222.061783,995.924147
2988.609617,-10436.903782,814.226536,536.266849
2988.609954,-11325.150913,296.082377,153.219100
2988.610291,-9696.697840,1036.288319,0.000000
2988.610628,-9252.574275,-1184.329507,995.924147
2988.610965,-9622.677246,-74.020594,2374.896044
2988.611302,-9770.718434,0.000000,1455.581446
2988.611639,-10732.986159,0.000000,766.095498
2988.611976,-10214.842000,370.102971,-383.047749
2988.612314,-9326.594869,-148.041188,-689.485948
2988.612651,-10214.842000,-370.102971,0.000000
2988.612988,-9918.759623,-1036.288319,612.876398
2988.613325,-10436.903782,-148.041188,0.000000
2988.613662,-10288.862594,-1110.308913,0.000000
2988.613999,-9844.739029,-814.226536,-459.657299
2988.614336,-10066.800811,-1332.370696,-1302.362347
2988.614674,-11547.212695,-1480.411884,-919.314598
2988.615011,-10732.986159,-2590.720797,-1838.629195
2988.615348,-9844.739029,-2960.823768,-1532.190996
2988.615685,-9326.594869,-2072.576638,0.000000
2988.616022,-10288.862594,-2072.576638,-306.438199
2988.616359,-10955.047942,-1036.288319,-995.924147
2988.616696,-10658.965565,-1110.308913,-1532.190996
2988.617034,-10955.047942,-1998.556043,76.609550
2988.617371,-10066.800811,-2146.597232,1532.190996
2988.617708,-9030.512492,-1184.329507,2451.505594
2988.618045,-9622.677246,-370.102971,3217.601092
2988.618382,-11177.109724,962.267725,2987.772442
2988.618719,-11177.109724,814.226536,1532.190996
2988.619056,-10807.006753,592.164754,383.047749
2988.619394,-9400.615463,0.000000,1072.533697
2988.619731,-9252.574275,1406.391290,1225.752797
2988.620068,-8956.491898,1628.453072,459.657299
2988.620405,-8882.471304,1702.473667,0.000000
2988.620742,-9104.533087,1924.535449,-1225.752797
2988.621079,-9104.533087,740.205942,-1762.019645
2988.621416,-9622.677246,1184.329507,-229.828649
2988.621754,-9918.759623,74.020594,306.438199
2988.622091,-9400.615463,444.123565,0.000000
2988.622428,-9252.574275,74.020594,-153.219100
2988.622765,-9992.780217,1110.308913,229.828649
2988.623102,-10288.862594,0.000000,-1608.800546
2988.623439,-10510.924376,-1702.473667,-919.314598
2988.623776,-9844.739029,-1776.494261,0.000000
2988.624114,-9178.553681,-1480.411884,612.876398
2988.624451,-9770.718434,-222.061783,1072.533697
2988.624788,-10140.821405,-962.267725,612.876398
2988.625125,-10732.986159,-296.082377,-689.485948
2988.625462,-10881.027347,-148.041188,-306.438199
2988.625799,-11029.068536,148.041188,919.314598
2988.626136,-9918.759623,-740.205942,1915.238745
2988.626473,-10732.986159,-518.144159,995.924147
2988.626811,-10955.047942,-444.123565,1378.971896
2988.627148,-11177.109724,-222.061783,459.657299
2988.627485,-10658.965565,-1554.432478,0.000000
2988.627822,-9696.697840,-1850.514855,76.609550
2988.628159,-9474.636058,-592.164754,0.000000
2988.628496,-9622.677246,-148.041188,-612.876398
2988.628833,-10066.800811,-592.164754,-1225.752797
2988.629171,-10214.842000,0.000000,-1608.800546
2988.629508,-10362.883188,-740.205942,-1685.410096
2988.629845,-10140.821405,-1036.288319,-1225.752797
2988.630182,-9178.553681,-370.102971,229.828649
2988.630519,-9474.636058,-1110.308913,1608.800546
2988.630856,-9696.697840,-148.041188,1685.410096
2988.631193,-10288.862594,592.164754,1378.971896
2988.631531,-10881.027347,370.102971,1378.971896
2988.631868,-10807.006753,518.144159,1072.533697
2988.632205,-10066.800811,1184.329507,1838.629195
2988.632542,-9622.677246,1850.514855,2528.115143
2988.632879,-9252.574275,1184.329507,1685.410096
2988.633216,-9696.697840,2220.617826,1685.410096
2988.633553,-10955.047942,3034.844362,1532.190996
2988.633891,-10658.965565,2368.659014,-459.657299
2988.634228,-10066.800811,888.247130,-536.266849
2988.634565,-9918.759623,962.267725,153.219100
2988.634902,-8882.471304,296.082377,229.828649
2988.635239,-8956.491898,148.041188,0.000000
2988.635576,-9104.533087,-148.041188,-229.828649
2988.635913,-9548.656652,-1332.370696,-383.047749
2988.636251,-10510.924376,-1184.329507,-766.095498
2988.636588,-9844.739029,-1406.391290,459.657299
2988.636925,-10066.800811,-1332.370696,76.609550
2988.637262,-10214.842000,-1998.556043,-536.266849
2988.637599,-9992.780217,-1776.494261,0.000000
2988.637936,-10362.883188,-2146.597232,0.000000
2988.638273,-9770.718434,-2516.700203,-536.266849
2988.638610,-10140.821405,-2886.803174,459.657299
2988.638948,-10658.965565,-3034.844362,919.314598
2988.639285,-9104.533087,-2442.679609,1378.971896
2988.639622,-10066.800811,-1036.288319,1838.629195
2988.639959,-10140.821405,-222.061783,1302.362347
2988.640296,-11991.336260,-888.247130,2145.067394
2988.640633,-12139.377449,-740.205942,689.485948
2988.640970,-10584.944971,0.000000,689.485948
2988.641308,-10288.862594,296.082377,919.314598
2988.641645,-10140.821405,1110.308913,-459.657299
2988.641982,-9548.656652,370.102971,-1225.752797
2988.642319,-10362.883188,0.000000,-1532.190996
2988.642656,-9474.636058,-814.226536,-1915.238745
2988.642993,-8364.327145,444.123565,0.000000
2988.643330,-9252.574275,0.000000,0.000000
2988.643668,-10214.842000,-1258.350101,-383.047749
2988.644005,-10214.842000,0.000000,-919.314598
2988.644342,-9400.615463,-370.102971,-306.438199
2988.644679,-9474.636058,-1110.308913,1455.581446
2988.645016,-8660.409521,0.000000,1455.581446
2988.645353,-9474.636058,444.123565,995.924147
2988.645690,-10510.924376,370.102971,1072.533697
2988.646028,-9844.739029,74.020594,0.000000
2988.646365,-9548.656652,666.185348,153.219100
2988.646702,-9474.636058,592.164754,229.828649
2988.647039,-9918.759623,814.226536,0.000000
2988.647376,-10807.006753,814.226536,76.609550
2988.647713,-10288.862594,518.144159,536.266849
2988.648050,-10584.944971,740.205942,229.828649
2988.648388,-10732.986159,518.144159,766.095498
2988.648725,-10362.883188,1036.288319,-612.876398
2988.649062,-10584.944971,-592.164754,-306.438199
2988.649399,-10066.800811,74.020594,0.000000
2988.649736,-10140.821405,222.061783,-689.485948
2988.650073,-10436.903782,-814.226536,-1302.362347
2988.650410,-10214.842000,-1850.514855,-1838.629195
2988.650748,-9770.718434,-1406.391290,-1685.410096
2988.651085,-9252.574275,-1554.432478,-459.657299
2988.651422,-9474.636058,-2516.700203,1302.362347
2988.651759,-10140.821405,-2368.659014,1532.190996
2988.652096,-9326.594869,-1776.494261,919.314598
2988.652433,-9770.718434,-740.205942,1685.410096
2988.652770,-11103.089130,-1184.329507,2757.943793
2988.653107,-11251.130318,-592.164754,2374.896044
2988.653445,-10066.800811,0.000000,2451.505594
2988.653782,-9326.594869,370.102971,2451.505594
2988.654119,-9992.780217,814.226536,2757.943793
2988.654456,-10510.924376,592.164754,1532.190996
2988.654793,-10140.821405,1184.329507,1225.752797
2988.655130,-9474.636058,1036.288319,1149.143247
2988.655467,-9252.574275,1110.308913,766.095498
2988.655805,-9622.677246,1628.453072,612.876398
2988.656142,-10584.944971,1406.391290,919.314598
2988.656479,-10066.800811,1850.514855,-766.095498
2988.656816,-9474.636058,1332.370696,-995.924147
2988.657153,-9770.718434,592.164754,76.609550
2988.657490,-9622.677246,518.144159,-459.657299
2988.657827,-9474.636058,-592.164754,-612.876398
2988.658165,-10658.965565,0.000000,-306.438199
2988.658502,-10436.903782,-962.267725,-766.095498
2988.658839,-10288.862594,-1554.432478,-689.485948
2988.659176,-8882.471304,-1850.514855,0.000000
2988.659513,-9400.615463,-1776.494261,0.000000
2988.659850,-10881.027347,-1702.473667,76.609550
2988.660187,-10732.986159,-1480.411884,689.485948
2988.660525,-9770.718434,-1480.411884,76.609550
2988.660862,-10732.986159,-740.205942,459.657299
2988.661199,-10732.986159,-666.185348,153.219100
2988.661536,-10214.842000,-1480.411884,0.000000
2988.661873,-10584.944971,-2146.597232,459.657299
2988.662210,-9696.697840,-1628.453072,229.828649
2988.662547,-9622.677246,-518.144159,-459.657299
2988.662885,-10066.800811,-444.123565,-1149.143247
2988.663222,-10881.027347,-1406.391290,-2145.067394
2988.663559,-10584.944971,-962.267725,-1915.238745
2988.663896,-9104.533087,-1332.370696,-1991.848295
2988.664233,-8956.491898,-592.164754,-1378.971896
2988.664570,-9622.677246,-888.247130,-842.705048
2988.664907,-11103.089130,-222.061783,-842.705048
2988.665244,-10658.965565,-888.247130,-229.828649
2988.665582,-11029.068536,-1184.329507,1225.752797
2988.665919,-9696.697840,-296.082377,1455.581446
2988.666256,-9770.718434,-1184.329507,2068.457845
2988.666593,-9918.759623,222.061783,1915.238745
2988.666930,-9696.697840,518.144159,842.705048
2988.667267,-10288.862594,518.144159,842.705048
2988.667604,-8882.471304,370.102971,1455.581446
2988.667942,-9474.636058,1110.308913,1685.410096
2988.668279,-9844.739029,2072.576638,995.924147
2988.668616,-9474.636058,1776.494261,1225.752797
2988.668953,-9252.574275,1628.453072,2298.286494
2988.669290,-10436.903782,2368.659014,1072.533697
2988.669627,-10288.862594,2072.576638,-536.266849
2988.669964,-9474.636058,1110.308913,76.609550
2988.670302,-9178.553681,-1036.288319,919.314598
2988.670639,-9474.636058,-1554.432478,919.314598
2988.670976,-9548.656652,74.020594,1149.143247
2988.671313,-9474.636058,0.000000,-459.657299
2988.671650,-10066.800811,0.000000,-2145.067394
2988.671987,-9696.697840,-1036.288319,-2145.067394
2988.672324,-9770.718434,-1110.308913,-1762.019645
2988.672662,-9770.718434,-1628.453072,-536.266849
2988.672999,-10732.986159,-962.267725,0.000000
2988.673336,-11251.130318,-1184.329507,0.000000
2988.673673,-11103.089130,-2220.617826,1149.143247
2988.674010,-10584.944971,-2072.576638,1915.238745
2988.674347,-11103.089130,-2220.617826,2528.115143
2988.674684,-10807.006753,-2220.617826,2451.505594
2988.675022,-10436.903782,-1332.370696,2451.505594
2988.675359,-10584.944971,-148.041188,1455.581446
2988.675696,-10658.965565,0.000000,689.485948
2988.676033,-10140.821405,-148.041188,-153.219100
2988.676370,-10140.821405,0.000000,-766.095498
2988.676707,-9474.636058,740.205942,-842.705048
2988.677044,-9622.677246,592.164754,-1225.752797
2988.677382,-10066.800811,444.123565,-536.266849
2988.677719,-9252.574275,1184.329507,-536.266849
2988.678056,-10510.924376,-148.041188,-766.095498
2988.678393,-10214.842000,296.082377,-842.705048
2988.678730,-8734.430116,0.000000,-76.609550
2988.679067,-9474.636058,-666.185348,995.924147
2988.679404,-9474.636058,-444.123565,1378.971896
2988.679741,-10214.842000,1480.411884,612.876398
2988.680079,-10584.944971,1036.288319,-76.609550
2988.680416,-9844.739029,444.123565,-919.314598
2988.680753,-9474.636058,296.082377,153.219100
2988.681090,-8882.471304,-592.164754,919.314598
2988.681427,-8808.450710,-296.082377,2298.286494
2988.681764,-10584.944971,666.185348,1838.629195
2988.682101,-10288.862594,1480.411884,536.266849
2988.682439,-10807.006753,1036.288319,0.000000
2988.682776,-10732.986159,0.000000,1149.143247
2988.683113,-10214.842000,-444.123565,919.314598
2988.683450,-9474.636058,-888.247130,1378.971896
2988.683787,-10362.883188,370.102971,2068.457845
2988.684124,-10955.047942,740.205942,76.609550
2988.684462,-10807.006753,74.020594,-1991.848295
2988.684799,-9474.636058,-1258.350101,-1762.019645
2988.685136,-9474.636058,-2368.659014,-1302.362347
2988.685473,-8734.430116,-3182.885551,-919.314598
2988.685810,-8364.327145,-2590.720797,153.219100
2988.686147,-10658.965565,-2738.761985,459.657299
2988.686485,-10658.965565,-1850.514855,-1838.629195
2988.686822,-11473.192101,-2368.659014,-689.485948
2988.687159,-10955.047942,-1998.556043,-689.485948
2988.687496,-8956.491898,-3256.906145,766.095498
2988.687833,-9326.594869,-2664.741391,2528.115143
2988.688170,-9474.636058,-1258.350101,2068.457845
2988.688507,-10732.986159,-370.102971,1608.800546
2988.688845,-11991.336260,-518.144159,536.266849
2988.689182,-11251.130318,-518.144159,0.000000
2988.689519,-10362.883188,222.061783,306.438199
2988.689856,-9178.553681,0.000000,1072.533697
2988.690193,-9178.553681,666.185348,1455.581446
2988.690530,-10140.821405,740.205942,229.828649
2988.690868,-10658.965565,1850.514855,-612.876398
2988.691205,-10288.862594,888.247130,-766.095498
2988.691542,-10436.903782,962.267725,0.000000
2988.691879,-9252.574275,740.205942,-229.828649
2988.692216,-8586.388927,1258.350101,229.828649
2988.692553,-9770.718434,1850.514855,995.924147
2988.692891,-10510.924376,1184.329507,-995.924147
2988.693228,-10288.862594,1332.370696,-1838.629195
2988.693565,-10362.883188,-518.144159,-995.924147
2988.693902,-9104.533087,-1036.288319,-612.876398
2988.694239,-9030.512492,-1480.411884,-153.219100
2988.694576,-8882.471304,-1258.350101,842.705048
2988.694914,-8290.306550,-592.164754,383.047749
2988.695251,-9844.739029,0.000000,766.095498
2988.695588,-11769.274478,518.144159,1225.752797
2988.695925,-11621.233289,-592.164754,612.876398
2988.696262,-10658.965565,-666.185348,1838.629195
2988.696599,-10362.883188,74.020594,2451.505594
2988.696937,-9992.780217,-666.185348,1838.629195
2988.697274,-9030.512492,-370.102971,689.485948
2988.697611,-8882.471304,-222.061783,0.000000
2988.697948,-10658.965565,-444.123565,0.000000
2988.698285,-10510.924376,-444.123565,-2145.067394
2988.698622,-10658.965565,-1184.329507,-689.485948
2988.698959,-10584.944971,-148.041188,-459.657299
2988.699297,-9696.697840,-962.267725,0.000000
2988.699634,-11251.130318,148.041188,229.828649
2988.699971,-9770.718434,-740.205942,0.000000
2988.700308,-9696.697840,-1554.432478,842.705048
2988.700645,-10732.986159,-2072.576638,2145.067394
2988.700982,-10807.006753,-1480.411884,2374.896044
2988.701320,-11399.171507,0.000000,1762.019645
2988.701657,-11843.295072,-592.164754,306.438199
2988.701994,-9474.636058,-74.020594,-383.047749
2988.702331,-8882.471304,-592.164754,153.219100
2988.702668,-8734.430116,-74.020594,1685.410096
2988.703005,-8882.471304,444.123565,1838.629195
2988.703343,-10510.924376,1702.473667,1915.238745
2988.703680,-10807.006753,1628.453072,76.609550
2988.704017,-10732.986159,1776.494261,153.219100
2988.704354,-9474.636058,1480.411884,383.047749
2988.704691,-8882.471304,-222.061783,689.485948
2988.705028,-9030.512492,518.144159,536.266849
2988.705366,-8956.491898,296.082377,-459.657299
2988.705703,-10140.821405,0.000000,-919.314598
2988.706040,-9992.780217,-592.164754,-2298.286494
2988.706377,-9326.594869,-444.123565,-2604.724693
2988.706714,-8808.450710,-1332.370696,-1378.971896
2988.707051,-9474.636058,-1628.453072,-1072.533697
2988.707388,-9252.574275,-1702.473667,-459.657299
2988.707726,-10362.883188,-814.226536,0.000000
2988.708063,-11843.295072,-888.247130,76.609550
2988.708400,-12805.562797,-888.247130,-459.657299
2988.708737,-11177.109724,-1406.391290,-995.924147
2988.709074,-10436.903782,-2516.700203,0.000000
2988.709411,-9548.656652,-2516.700203,1608.800546
2988.709749,-9548.656652,-1554.432478,1838.629195
2988.710086,-10362.883188,-814.226536,1302.362347
2988.710423,-11695.253884,-518.144159,1225.752797
2988.710760,-11103.089130,962.267725,0.000000
2988.711097,-10732.986159,148.041188,229.828649
2988.711434,-10214.842000,148.041188,1532.190996
2988.711772,-9474.636058,-666.185348,1149.143247
2988.712109,-9548.656652,0.000000,842.705048
2988.712446,-9844.739029,444.123565,536.266849
2988.712783,-9326.594869,222.061783,-459.657299
2988.713120,-9252.574275,-74.020594,0.000000
2988.713457,-9474.636058,-1776.494261,-306.438199
2988.713795,-8808.450710,0.000000,0.000000
2988.714132,-8734.430116,148.041188,76.609550
2988.714469,-9918.759623,444.123565,76.609550
2988.714806,-10288.862594,296.082377,-689.485948
2988.715143,-10807.006753,814.226536,0.000000
2988.715480,-9992.780217,518.144159,459.657299
2988.715817,-9178.553681,222.061783,1225.752797
2988.716155,-9696.697840,518.144159,1915.238745
2988.716492,-11029.068536,0.000000,1608.800546
2988.716829,-10955.047942,814.226536,1302.362347
2988.717166,-11103.089130,1184.329507,612.876398
2988.717503,-10288.862594,962.267725,1225.752797
2988.717840,-9548.656652,370.102971,1532.190996
2988.718178,-10214.842000,814.226536,1072.533697
2988.718515,-9918.759623,1480.411884,-842.705048
2988.718852,-9474.636058,1110.308913,-1072.533697
2988.719189,-9918.759623,0.000000,-229.828649
2988.719526,-10140.821405,0.000000,-1225.752797
2988.719863,-9622.677246,-1332.370696,-1225.752797
2988.720201,-9844.739029,-2368.659014,536.266849
2988.720538,-9474.636058,-2368.659014,842.705048
2988.720875,-9326.594869,-2146.597232,766.095498
2988.721212,-10066.800811,-2146.597232,995.924147
2988.721549,-10807.006753,-1776.494261,-766.095498
2988.721886,-10584.944971,-1998.556043,-1915.238745
2988.722224,-10584.944971,-2220.617826,-536.266849
2988.722561,-9844.739029,-2072.576638,-536.266849
2988.722898,-9696.697840,-1998.556043,0.000000
2988.723235,-9548.656652,-740.205942,306.438199
2988.723572,-10436.903782,-1036.288319,153.219100
2988.723909,-11695.253884,444.123565,1302.362347
2988.724247,-11547.212695,-74.020594,766.095498
2988.724584,-10955.047942,-666.185348,1608.800546
2988.724921,-9474.636058,888.247130,2451.505594
2988.725258,-10881.027347,1554.432478,2528.115143
2988.725595,-11103.089130,1850.514855,1378.971896
2988.725932,-9844.739029,1184.329507,-306.438199
2988.726269,-10140.821405,1036.288319,306.438199
2988.726607,-9400.615463,666.185348,306.438199
2988.726944,-9104.533087,740.205942,306.438199
2988.727281,-9770.718434,370.102971,229.828649
2988.727618,-9252.574275,518.144159,-995.924147
2988.727955,-8956.491898,296.082377,-1149.143247
2988.728292,-9844.739029,-518.144159,-1608.800546
2988.728630,-8142.265362,-1036.288319,-459.657299
2988.728967,-9474.636058,-888.247130,229.828649
2988.729304,-9252.574275,-296.082377,-76.609550
2988.729641,-9474.636058,0.000000,153.219100
2988.729978,-11547.212695,0.000000,919.314598
2988.730315,-10732.986159,-444.123565,0.000000
2988.730653,-10436.903782,-814.226536,306.438199
2988.730990,-9770.718434,-1258.350101,1915.238745
2988.731327,-9252.574275,-1036.288319,1915.238745
2988.731664,-10066.800811,-962.267725,1532.190996
2988.732001,-10510.924376,74.020594,1378.971896
2988.732338,-10881.027347,74.020594,0.000000
2988.732676,-11473.192101,592.164754,-229.828649
2988.733013,-11029.068536,0.000000,-306.438199
2988.733350,-10140.821405,-444.123565,536.266849
2988.733687,-9770.718434,-370.102971,229.828649
2988.734024,-9696.697840,-444.123565,383.047749
2988.734361,-10288.862594,-1332.370696,-612.876398
2988.734698,-10436.903782,-1850.514855,-1149.143247
2988.735036,-10214.842000,-1184.329507,-612.876398
2988.735373,-9474.636058,-2294.638420,-1225.752797
2988.735710,-9548.656652,-1554.432478,-306.438199
2988.736047,-9252.574275,-1184.329507,76.609550
2988.736384,-10436.903782,148.041188,0.000000
2988.736721,-10066.800811,-370.102971,-459.657299
2988.737059,-10140.821405,-740.205942,0.000000
2988.737396,-9178.553681,-666.185348,842.705048
2988.737733,-9696.697840,-666.185348,1762.019645
2988.738070,-10140.821405,296.082377,2604.724693
2988.738407,-10732.986159,592.164754,1149.143247
2988.738744,-10436.903782,1406.391290,2068.457845
2988.739082,-9918.759623,1406.391290,842.705048
2988.739419,-9178.553681,1776.494261,1149.143247
2988.739756,-9622.677246,1850.514855,1072.533697
2988.740093,-10510.924376,1480.411884,0.000000
2988.740430,-10214.842000,1924.535449,-919.314598
2988.740767,-9844.739029,2072.576638,-1149.143247
2988.741105,-9770.718434,222.061783,-1455.581446
2988.741442,-9622.677246,148.041188,0.000000
2988.741779,-9844.739029,-222.061783,76.609550
2988.742116,-9548.656652,-518.144159,-383.047749
2988.742453,-9844.739029,-74.020594,-919.314598
2988.742790,-10436.903782,-1332.370696,0.000000
2988.743127,-11177.109724,-1184.329507,-612.876398
2988.743465,-9696.697840,-1850.514855,0.000000
2988.743802,-8956.491898,-1184.329507,306.438199
2988.744139,-9400.615463,-2146.597232,0.000000
2988.744476,-10436.903782,-1702.473667,1072.533697
2988.744813,-10362.883188,-1332.370696,1378.971896
2988.745150,-10584.944971,-740.205942,1762.019645
2988.745488,-10658.965565,-1480.411884,995.924147
2988.745825,-10807.006753,-518.144159,1455.581446
2988.746162,-9400.615463,-1480.411884,1762.019645
2988.746499,-9104.533087,-888.247130,1225.752797
2988.746836,-10066.800811,-296.082377,919.314598
2988.747173,-9770.718434,-592.164754,536.266849
2988.747511,-10362.883188,-74.020594,383.047749
2988.747848,-10510.924376,296.082377,536.266849
2988.748185,-10140.821405,518.144159,-689.485948
2988.748522,-9770.718434,0.000000,0.000000
2988.748859,-11177.109724,-814.226536,536.266849
2988.749196,-9992.780217,-148.041188,-842.705048
2988.749534,-9474.636058,-592.164754,-1072.533697
2988.749871,-9326.594869,-1406.391290,0.000000
2988.750208,-9030.512492,-1110.308913,-229.828649
2988.750545,-9474.636058,-296.082377,-459.657299
2988.750882,-10140.821405,148.041188,0.000000
2988.751219,-10436.903782,-74.020594,-229.828649
2988.751556,-10584.944971,0.000000,459.657299
2988.751894,-10510.924376,74.020594,766.095498
2988.752231,-9474.636058,962.267725,1378.971896
2988.752568,-10362.883188,370.102971,1072.533697
2988.752905,-10140.821405,0.000000,1149.143247
2988.753242,-9548.656652,148.041188,1762.019645
2988.753579,-10658.965565,0.000000,1378.971896
2988.753917,-10436.903782,962.267725,459.657299
2988.754254,-10584.944971,666.185348,-1149.143247
2988.754591,-10362.883188,1406.391290,-689.485948
2988.754928,-8956.491898,740.205942,-1915.238745
2988.755265,-9400.615463,1110.308913,-1532.190996
2988.755602,-10288.862594,296.082377,-1455.581446
2988.755940,-10510.924376,-1110.308913,-1762.019645
2988.756277,-11029.068536,-518.144159,-1455.581446
2988.756614,-9696.697840,-1110.308913,-612.876398
2988.756951,-9770.718434,-1406.391290,306.438199
2988.757288,-10066.800811,-1776.494261,-306.438199
2988.757625,-9622.677246,-1406.391290,0.000000
2988.757963,-9992.780217,-888.247130,536.266849
2988.758300,-10362.883188,-2146.597232,612.876398
2988.758637,-9918.759623,-1406.391290,1532.190996
2988.758974,-9770.718434,-518.144159,1072.533697
2988.759311,-9252.574275,-666.185348,1532.190996
2988.759648,-10066.800811,444.123565,1915.238745
2988.759986,-10140.821405,370.102971,1608.800546
2988.760323,-10807.006753,888.247130,2145.067394
2988.760660,-11251.130318,518.144159,1838.629195
2988.760997,-10658.965565,1332.370696,1149.143247
2988.761334,-10362.883188,370.102971,1455.581446
2988.761671,-9474.636058,888.247130,1378.971896
2988.762008,-8808.450710,1110.308913,842.705048
2988.762346,-9918.759623,222.061783,0.000000
2988.762683,-10214.842000,444.123565,76.609550
2988.763020,-10362.883188,740.205942,229.828649
2988.763357,-10658.965565,962.267725,-229.828649
2988.763694,-9770.718434,-74.020594,-1685.410096
2988.764031,-9400.615463,-740.205942,-383.047749
2988.764369,-8956.491898,-1480.411884,0.000000
2988.764706,-8956.491898,-1776.494261,0.000000
2988.765043,-9548.656652,-740.205942,1455.581446
2988.765380,-10066.800811,-592.164754,153.219100
2988.765717,-10881.027347,-296.082377,0.000000
2988.766054,-10510.924376,-814.226536,612.876398
2988.766392,-10658.965565,-1258.350101,1838.629195
2988.766729,-11103.089130,-1332.370696,2604.724693
2988.767066,-9474.636058,-888.247130,2145.067394
2988.767403,-9548.656652,0.000000,2834.553343
2988.767740,-9992.780217,0.000000,995.924147
2988.768077,-10732.986159,222.061783,-995.924147
2988.768415,-11695.253884,-222.061783,-842.705048
2988.768752,-10658.965565,-814.226536,-1685.410096
2988.769089,-9326.594869,-370.102971,-2451.505594
2988.769426,-9104.533087,0.000000,-612.876398
2988.769763,-9474.636058,370.102971,-842.705048
2988.770100,-10881.027347,-296.082377,-2374.896044
2988.770437,-10732.986159,-444.123565,-2451.505594
2988.770775,-10140.821405,-1702.473667,-1532.190996
2988.771112,-10732.986159,-2590.720797,612.876398
2988.771449,-9844.739029,-1554.432478,1302.362347
2988.771786,-9326.594869,-370.102971,1378.971896
2988.772123,-10362.883188,518.144159,612.876398
2988.772460,-10436.903782,-740.205942,229.828649
2988.772798,-10658.965565,0.000000,229.828649
2988.773135,-9696.697840,-592.164754,536.266849
2988.773472,-9326.594869,-444.123565,1608.800546
2988.773809,-9400.615463,1406.391290,1685.410096
2988.774146,-10066.800811,1258.350101,1072.533697
2988.774483,-9770.718434,1258.350101,612.876398
2988.774821,-8586.388927,814.226536,459.657299
2988.775158,-9548.656652,1554.432478,1838.629195
2988.775495,-10807.006753,518.144159,1225.752797
2988.775832,-9992.780217,1702.473667,689.485948
2988.776169,-9918.759623,1258.350101,0.000000
2988.776506,-10436.903782,1184.329507,-919.314598
2988.776844,-10288.862594,0.000000,-1225.752797
2988.777181,-8882.471304,-666.185348,-995.924147
2988.777518,-7846.182985,-1332.370696,-689.485948
2988.777855,-9548.656652,-1258.350101,459.657299
2988.778192,-11177.109724,-296.082377,0.000000
2988.778529,-11103.089130,-666.185348,-1302.362347
2988.778866,-10881.027347,-1628.453072,-612.876398
2988.779204,-10140.821405,-1480.411884,383.047749
2988.779541,-10214.842000,-2146.597232,995.924147
2988.779878,-9400.615463,-2368.659014,2451.505594
2988.780215,-10214.842000,-1480.411884,2604.724693
2988.780552,-10732.986159,-1110.308913,1149.143247
2988.780890,-11177.109724,-370.102971,229.828649
2988.781227,-10881.027347,-1110.308913,1072.533697
2988.781564,-9918.759623,-1258.350101,1455.581446
2988.781901,-9844.739029,-1702.473667,1302.362347
2988.782239,-9622.677246,666.185348,1838.629195
2988.782576,-9104.533087,740.205942,536.266849
2988.782913,-10807.006753,592.164754,-459.657299
2988.783250,-10955.047942,296.082377,-689.485948
2988.783588,-9992.780217,-518.144159,-689.485948
2988.783925,-9474.636058,-148.041188,76.609550
2988.784262,-9770.718434,-148.041188,0.000000
2988.784599,-9992.780217,74.020594,229.828649
2988.784937,-9474.636058,-74.020594,-229.828649
2988.785274,-10436.903782,-296.082377,153.219100
2988.785611,-10066.800811,0.000000,0.000000
2988.785948,-9770.718434,-592.164754,-536.266849
2988.786285,-9696.697840,0.000000,306.438199
2988.786623,-9400.615463,0.000000,306.438199
2988.786960,-9548.656652,666.185348,612.876398
2988.787297,-9992.780217,0.000000,689.485948
2988.787634,-10066.800811,1110.308913,1378.971896
2988.787972,-11029.068536,740.205942,1072.533697
2988.788309,-10288.862594,0.000000,76.609550
2988.788646,-9548.656652,518.144159,1838.629195
2988.788983,-10362.883188,1036.288319,2145.067394
2988.789321,-10807.006753,740.205942,153.219100
2988.789658,-10807.006753,962.267725,-995.924147
2988.789995,-9918.759623,-518.144159,-995.924147
2988.790332,-8512.368333,-666.185348,0.000000
2988.790670,-9030.512492,-888.247130,76.609550
2988.791007,-10066.800811,-518.144159,0.000000
2988.791344,-10362.883188,-888.247130,-1915.238745
2988.791681,-10658.965565,-1258.350101,-2374.896044
2988.792019,-9622.677246,-1924.535449,-2145.067394
2988.792356,-9104.533087,-2516.700203,-689.485948
2988.792693,-9104.533087,-3478.967927,306.438199
2988.793030,-10214.842000,-2368.659014,1532.190996
2988.793367,-9918.759623,-1480.411884,766.095498
2988.793705,-10584.944971,-2368.659014,76.609550
2988.794042,-10732.986159,-1036.288319,842.705048
2988.794379,-10288.862594,-1406.391290,383.047749
2988.794716,-10140.821405,-1480.411884,1608.800546
2988.795054,-10140.821405,-222.061783,2757.943793
2988.795391,-10066.800811,444.123565,2298.286494
2988.795728,-10881.027347,1258.350101,2221.676944
2988.796065,-11547.212695,740.205942,1838.629195
2988.796403,-10955.047942,1406.391290,0.000000
2988.796740,-10362.883188,370.102971,0.000000
2988.797077,-9844.739029,1036.288319,919.314598
2988.797414,-9474.636058,1554.432478,0.000000
2988.797752,-9030.512492,2294.638420,-1072.533697
2988.798089,-9992.780217,1480.411884,-1685.410096
2988.798426,-10362.883188,592.164754,-1685.410096
2988.798763,-9178.553681,0.000000,-842.705048
2988.799100,-9400.615463,-1554.432478,0.000000
2988.799438,-8586.388927,-592.164754,1302.362347
2988.799775,-9400.615463,-296.082377,1838.629195
2988.800112,-10955.047942,0.000000,229.828649
2988.800449,-10066.800811,370.102971,-306.438199
2988.800787,-10807.006753,-592.164754,-689.485948
2988.801124,-10288.862594,-1036.288319,-229.828649
2988.801461,-9326.594869,-888.247130,459.657299
2988.801798,-9992.780217,-518.144159,1608.800546
2988.802136,-9548.656652,518.144159,1149.143247
2988.802473,-10288.862594,1258.350101,306.438199
2988.802810,-11177.109724,370.102971,-306.438199
2988.803147,-10436.903782,-740.205942,-1072.533697
2988.803485,-10066.800811,-370.102971,0.000000
2988.803822,-9622.677246,444.123565,1149.143247
2988.804159,-10658.965565,-296.082377,1378.971896
2988.804496,-11399.171507,0.000000,919.314598
2988.804834,-9992.780217,370.102971,-766.095498
2988.805171,-10807.006753,-888.247130,0.000000
2988.805508,-10066.800811,-1924.535449,-383.047749
2988.805845,-9030.512492,-2146.597232,-229.828649
2988.806182,-9696.697840,-2516.700203,0.000000
2988.806520,-9178.553681,-1036.288319,76.609550
2988.806857,-9548.656652,-1332.370696,306.438199
2988.807194,-9918.759623,-1776.494261,0.000000
2988.807531,-9696.697840,-1702.473667,-383.047749
2988.807869,-10362.883188,-1924.535449,1762.019645
2988.808206,-10362.883188,-592.164754,2145.067394
2988.808543,-9622.677246,-666.185348,1762.019645
2988.808880,-10362.883188,0.000000,2374.896044
2988.809218,-9252.574275,814.226536,1225.752797
2988.809555,-10214.842000,0.000000,1149.143247
2988.809892,-9474.636058,-592.164754,1532.190996
2988.810229,-9252.574275,666.185348,1915.238745
2988.810567,-10214.842000,1480.411884,1915.238745
2988.810904,-11103.089130,1258.350101,-229.828649
2988.811241,-11769.274478,1554.432478,-1378.971896
2988.811578,-9696.697840,296.082377,-2451.505594
2988.811915,-8364.327145,-814.226536,-2911.162892
2988.812253,-8512.368333,0.000000,-459.657299
2988.812590,-8956.491898,-888.247130,-612.876398
2988.812927,-9992.780217,-1110.308913,-1302.362347
2988.813264,-10436.903782,-1702.473667,-1455.581446
2988.813602,-9770.718434,-814.226536,-612.876398
2988.813939,-10955.047942,-2146.597232,1149.143247
2988.814276,-10658.965565,-2146.597232,919.314598
2988.814613,-10436.903782,-1480.411884,842.705048
2988.814951,-9844.739029,-888.247130,919.314598
2988.815288,-10436.903782,-740.205942,0.000000
2988.815625,-11399.171507,-444.123565,-919.314598
2988.815962,-10140.821405,-1184.329507,-689.485948
2988.816300,-9400.615463,148.041188,-383.047749
2988.816637,-9622.677246,74.020594,1455.581446
2988.816974,-9844.739029,1332.370696,995.924147
2988.817311,-10584.944971,296.082377,383.047749
2988.817649,-11399.171507,1184.329507,1149.143247
2988.817986,-10510.924376,888.247130,-536.266849
2988.818323,-9622.677246,148.041188,842.705048
2988.818660,-9548.656652,74.020594,1991.848295
2988.818997,-9992.780217,1110.308913,306.438199
2988.819335,-9770.718434,1406.391290,-919.314598
2988.819672,-10288.862594,666.185348,-1225.752797
2988.820009,-9548.656652,148.041188,-1072.533697
2988.820346,-9326.594869,-888.247130,-995.924147
2988.820684,-9178.553681,0.000000,536.266849
2988.821021,-9030.512492,0.000000,536.266849
2988.821358,-10658.965565,74.020594,1455.581446
2988.821695,-10066.800811,148.041188,689.485948
2988.822033,-8956.491898,-296.082377,919.314598
2988.822370,-10732.986159,296.082377,2374.896044
2988.822707,-10584.944971,-1184.329507,1991.848295
2988.823044,-9918.759623,296.082377,1762.019645
2988.823382,-10288.862594,814.226536,2221.676944
2988.823719,-10362.883188,222.061783,76.609550
2988.824056,-10066.800811,444.123565,76.609550
2988.824393,-9622.677246,-222.061783,-459.657299
2988.824730,-9178.553681,-814.226536,-306.438199
2988.825068,-9252.574275,-296.082377,536.266849
2988.825405,-10436.903782,74.020594,229.828649
2988.825742,-11029.068536,-962.267725,-536.266849
2988.826079,-10288.862594,-888.247130,-536.266849
2988.826417,-10140.821405,-148.041188,0.000000
2988.826754,-11103.089130,-1258.350101,0.000000
2988.827091,-9400.615463,-1480.411884,-1608.800546
2988.827428,-9992.780217,-2368.659014,-766.095498
2988.827766,-10066.800811,-2368.659014,0.000000
2988.828103,-9548.656652,-1998.556043,-459.657299
2988.828440,-10436.903782,-1628.453072,-383.047749
2988.828777,-10140.821405,-888.247130,0.000000
2988.829115,-11029.068536,-1924.535449,-306.438199
2988.829452,-10658.965565,-1628.453072,919.314598
2988.829789,-9400.615463,-1702.473667,2451.505594
2988.830126,-9770.718434,-296.082377,3064.381992
2988.830464,-10436.903782,666.185348,2604.724693
2988.830801,-11251.130318,370.102971,995.924147
2988.831138,-11251.130318,-148.041188,689.485948
2988.831475,-9400.615463,-370.102971,1072.533697
2988.831812,-9030.512492,1480.411884,1149.143247
2988.832150,-9474.636058,1628.453072,536.266849
2988.832487,-10140.821405,1924.535449,-153.219100
2988.832824,-9696.697840,1110.308913,-2298.286494
2988.833161,-9548.656652,222.061783,-1838.629195
2988.833499,-9178.553681,222.061783,0.000000
2988.833836,-9030.512492,148.041188,-229.828649
2988.834173,-9770.718434,370.102971,-229.828649
2988.834510,-9844.739029,-444.123565,-229.828649
2988.834848,-9696.697840,0.000000,-612.876398
2988.835185,-10140.821405,-444.123565,0.000000
2988.835522,-11029.068536,-592.164754,536.266849
2988.835859,-10510.924376,-444.123565,536.266849
2988.836197,-10510.924376,-888.247130,842.705048
2988.836534,-10214.842000,-518.144159,766.095498
2988.836871,-9548.656652,-1184.329507,459.657299
2988.837208,-8956.491898,-1998.556043,306.438199
2988.837546,-9474.636058,-296.082377,76.609550
2988.837883,-9474.636058,-74.020594,229.828649
2988.838220,-10881.027347,148.041188,536.266849
2988.838557,-11029.068536,-370.102971,153.219100
2988.838894,-10214.842000,74.020594,612.876398
2988.839232,-10066.800811,592.164754,766.095498
2988.839569,-10807.006753,0.000000,536.266849
2988.839906,-10510.924376,-962.267725,76.609550
2988.840243,-10658.965565,-1110.308913,-612.876398
2988.840581,-9918.759623,-296.082377,-1072.533697
2988.840918,-9548.656652,-740.205942,-995.924147
2988.841255,-10140.821405,-296.082377,0.000000
2988.841592,-9992.780217,-1554.432478,-995.924147
2988.841930,-9474.636058,-1406.391290,-459.657299
2988.842267,-10066.800811,-962.267725,229.828649
2988.842604,-9918.759623,-1036.288319,842.705048
2988.842941,-10955.047942,0.000000,995.924147
2988.843279,-10362.883188,0.000000,1455.581446
2988.843616,-9548.656652,296.082377,1302.362347
2988.843953,-10140.821405,0.000000,1532.190996
2988.844290,-10140.821405,222.061783,1225.752797
2988.844627,-8956.491898,1184.329507,919.314598
2988.844965,-9252.574275,962.267725,689.485948
2988.845302,-10140.821405,666.185348,1915.238745
2988.845639,-9844.739029,1110.308913,1378.971896
2988.845976,-9400.615463,2220.617826,842.705048
2988.846314,-9622.677246,1776.494261,612.876398
2988.846651,-10732.986159,2590.720797,-306.438199
2988.846988,-10288.862594,1554.432478,-612.876398
2988.847325,-10510.924376,518.144159,0.000000
2988.847663,-9844.739029,1332.370696,0.000000
2988.848000,-9696.697840,444.123565,-383.047749
2988.848337,-10066.800811,-888.247130,-995.924147
2988.848674,-9252.574275,-1628.453072,-766.095498
2988.849012,-9252.574275,-1702.473667,-459.657299
2988.849349,-9918.759623,-888.247130,-383.047749
2988.849686,-9918.759623,-1110.308913,0.000000
2988.850023,-10362.883188,-666.185348,-229.828649
2988.850361,-10214.842000,-1258.350101,459.657299
2988.850698,-10214.842000,-2072.576638,1608.800546
2988.851035,-10362.883188,-1554.432478,2451.505594
2988.851372,-10066.800811,-1332.370696,2145.067394
2988.851709,-10881.027347,-740.205942,1532.190996
2988.852047,-10658.965565,-1628.453072,1991.848295
2988.852384,-10140.821405,-1554.432478,766.095498
2988.852721,-9622.677246,-1850.514855,612.876398
2988.853058,-9326.594869,-518.144159,842.705048
2988.853396,-9844.739029,-888.247130,153.219100
2988.853733,-10362.883188,-592.164754,-1072.533697
2988.854070,-9326.594869,-444.123565,-842.705048
2988.854407,-10288.862594,-444.123565,459.657299
2988.854745,-10732.986159,-1184.329507,-459.657299
2988.855082,-10881.027347,-370.102971,-612.876398
2988.855419,-9696.697840,-370.102971,-383.047749
2988.855756,-9474.636058,-1110.308913,0.000000
2988.856094,-10066.800811,-962.267725,459.657299
2988.856431,-9622.677246,0.000000,-919.314598
2988.856768,-10140.821405,-888.247130,-612.876398
2988.857105,-10288.862594,-370.102971,306.438199
2988.857442,-10436.903782,0.000000,229.828649
2988.857780,-10214.842000,518.144159,919.314598
2988.858117,-9918.759623,0.000000,153.219100
2988.858454,-8734.430116,962.267725,229.828649
2988.858791,-9992.780217,814.226536,919.314598
2988.859129,-10436.903782,222.061783,689.485948
2988.859466,-9992.780217,444.123565,459.657299
2988.859803,-10510.924376,370.102971,1225.752797
2988.860140,-10288.862594,740.205942,919.314598
2988.860478,-9252.574275,740.205942,0.000000
2988.860815,-9548.656652,518.144159,0.000000
2988.861152,-9252.574275,-740.205942,-1072.533697
2988.861489,-10140.821405,-518.144159,-919.314598
2988.861827,-10214.842000,518.144159,-689.485948
2988.862164,-10214.842000,-222.061783,-1685.410096
2988.862501,-10658.965565,-888.247130,-1532.190996
2988.862838,-10362.883188,-444.123565,-1225.752797
2988.863176,-9770.718434,-518.144159,-459.657299
2988.863513,-10288.862594,-666.185348,306.438199
2988.863850,-11251.130318,-518.144159,0.000000
2988.864187,-11621.233289,-1554.432478,-459.657299
2988.864524,-9992.780217,-1258.350101,536.266849
2988.864862,-9474.636058,-1554.432478,1608.800546
2988.865199,-10510.924376,-962.267725,3294.210641
2988.865536,-9622.677246,-296.082377,2374.896044
2988.865873,-9548.656652,148.041188,2451.505594
2988.866211,-11029.068536,962.267725,2451.505594
2988.866548,-10362.883188,1036.288319,1225.752797
2988.866885,-11325.150913,74.020594,1149.143247
2988.867222,-9548.656652,814.226536,459.657299
2988.867560,-8956.491898,666.185348,76.609550
2988.867897,-9474.636058,666.185348,766.095498
2988.868234,-8660.409521,74.020594,-612.876398
2988.868571,-8660.409521,-296.082377,-306.438199
2988.868909,-9474.636058,740.205942,612.876398
2988.869246,-9474.636058,296.082377,0.000000
2988.869583,-11029.068536,148.041188,229.828649
2988.869920,-10510.924376,-592.164754,-306.438199
2988.870257,-9474.636058,592.164754,-306.438199
2988.870595,-10140.821405,222.061783,689.485948
2988.870932,-10510.924376,-1036.288319,383.047749
2988.871269,-9844.739029,-444.123565,459.657299
2988.871606,-10214.842000,-1702.473667,612.876398
2988.871944,-10066.800811,-962.267725,1378.971896
2988.872281,-10288.862594,0.000000,766.095498
2988.872618,-10955.047942,-592.164754,1685.410096
2988.872955,-11103.089130,-444.123565,-229.828649
2988.873293,-9844.739029,518.144159,153.219100
2988.873630,-9770.718434,0.000000,229.828649
2988.873967,-9918.759623,-1258.350101,1225.752797
2988.874304,-9992.780217,-296.082377,536.266849
2988.874642,-9918.759623,370.102971,-766.095498
2988.874979,-10214.842000,-518.144159,-919.314598
2988.875316,-10436.903782,-962.267725,-995.924147
2988.875653,-10955.047942,-1036.288319,-1149.143247
2988.875991,-9622.677246,-1850.514855,-1225.752797
2988.876328,-8216.285956,-1406.391290,-766.095498
2988.876665,-9178.553681,-1332.370696,383.047749
2988.877002,-10066.800811,-1184.329507,-1149.143247
2988.877339,-9548.656652,-1332.370696,-2374.896044
2988.877677,-10584.944971,-666.185348,-689.485948
2988.878014,-11177.109724,-444.123565,919.314598
2988.878351,-10288.862594,-518.144159,229.828649
2988.878688,-10288.862594,-1036.288319,1532.190996
2988.879026,-9548.656652,444.123565,1455.581446
2988.879363,-9622.677246,-370.102971,1072.533697
2988.879700,-10658.965565,-370.102971,1991.848295
2988.880037,-9474.636058,296.082377,1378.971896
2988.880375,-10955.047942,518.144159,1378.971896
2988.880712,-10807.006753,1776.494261,1532.190996
2988.881049,-9400.615463,1850.514855,76.609550
2988.881387,-9992.780217,1776.494261,459.657299
2988.881724,-10066.800811,2146.597232,612.876398
2988.882062,-9178.553681,2146.597232,-919.314598
2988.882399,-9918.759623,0.000000,383.047749
2988.882736,-11325.150913,-740.205942,689.485948
2988.883074,-9992.780217,296.082377,-536.266849
2988.883411,-8956.491898,-148.041188,-1838.629195
2988.883748,-7994.224174,-1110.308913,-1915.238745
2988.884085,-9178.553681,-2294.638420,-1225.752797
2988.884423,-9474.636058,-1628.453072,-536.266849
2988.884760,-10066.800811,-2072.576638,-306.438199
2988.885097,-10807.006753,-592.164754,536.266849
2988.885435,-10214.842000,-666.185348,-229.828649
2988.885772,-10510.924376,-1184.329507,383.047749
2988.886109,-10214.842000,-1850.514855,1608.800546
2988.886446,-9548.656652,-1554.432478,1762.019645
2988.886784,-10140.821405,-2368.659014,2068.457845
2988.887121,-10807.006753,-666.185348,1838.629195
2988.887458,-11473.192101,0.000000,1302.362347
2988.887795,-11547.212695,-148.041188,0.000000
2988.888133,-9696.697840,-592.164754,0.000000
2988.888470,-9252.574275,0.000000,766.095498
2988.888807,-9696.697840,0.000000,1302.362347
2988.889145,-10436.903782,74.020594,689.485948
2988.889482,-11547.212695,370.102971,-306.438199
2988.889819,-10510.924376,1110.308913,-919.314598
2988.890156,-10362.883188,814.226536,-842.705048
2988.890494,-10288.862594,-666.185348,-153.219100
2988.890831,-8808.450710,-888.247130,-1378.971896
2988.891168,-7772.162391,-1406.391290,-536.266849
2988.891506,-8364.327145,-740.205942,842.705048
2988.891843,-9992.780217,0.000000,1378.971896
2988.892180,-10732.986159,296.082377,612.876398
2988.892517,-10288.862594,592.164754,612.876398
2988.892855,-9770.718434,74.020594,1532.190996
2988.893192,-10288.862594,592.164754,3294.210641
2988.893529,-9696.697840,592.164754,2987.772442
2988.893867,-10732.986159,1554.432478,1455.581446
2988.894204,-10807.006753,1998.556043,0.000000
2988.894541,-10807.006753,888.247130,-459.657299
2988.894878,-9548.656652,592.164754,536.266849
2988.895216,-9252.574275,74.020594,383.047749
2988.895553,-8956.491898,592.164754,229.828649
2988.895890,-9474.636058,1110.308913,-612.876398
2988.896228,-10584.944971,1110.308913,-1378.971896
2988.896565,-10732.986159,222.061783,-2221.676944
2988.896902,-9474.636058,-888.247130,-2221.676944
2988.897239,-9548.656652,-740.205942,-842.705048
2988.897577,-9474.636058,-1776.494261,-306.438199
2988.897914,-10066.800811,-1332.370696,0.000000
2988.898251,-9696.697840,-1776.494261,-229.828649
2988.898589,-10436.903782,-3182.885551,0.000000
2988.898926,-10214.842000,-2220.617826,-306.438199
2988.899263,-10807.006753,-2442.679609,689.485948
2988.899600,-10510.924376,-3404.947333,919.314598
2988.899938,-9474.636058,-3330.926739,1149.143247
2988.900275,-9918.759623,-1776.494261,995.924147
2988.900612,-10510.924376,-444.123565,1149.143247
2988.900949,-10288.862594,-592.164754,689.485948
2988.901287,-10807.006753,-740.205942,306.438199
2988.901624,-10066.800811,-740.205942,842.705048
2988.901961,-9770.718434,-666.185348,1685.410096
2988.902299,-10584.944971,222.061783,2451.505594
2988.902636,-10140.821405,1776.494261,76.609550
2988.902973,-11177.109724,1554.432478,-459.657299
2988.903310,-10510.924376,1258.350101,0.000000
2988.903648,-8808.450710,74.020594,-995.924147
2988.903985,-9326.594869,0.000000,919.314598
2988.904322,-9548.656652,444.123565,1072.533697
2988.904660,-9474.636058,1110.308913,-306.438199
2988.904997,-11103.089130,1998.556043,-1532.190996
2988.905334,-10732.986159,888.247130,-1225.752797
2988.905671,-9622.677246,296.082377,-1302.362347
2988.906009,-8438.347739,-740.205942,0.000000
2988.906346,-9030.512492,592.164754,1762.019645
2988.906683,-9844.739029,-444.123565,766.095498
2988.907021,-10066.800811,222.061783,0.000000
2988.907358,-9548.656652,296.082377,0.000000
2988.907695,-9918.759623,370.102971,-383.047749
2988.908032,-9400.615463,0.000000,612.876398
2988.908370,-9400.615463,-962.267725,1072.533697
2988.908707,-9474.636058,0.000000,1991.848295
2988.909044,-9252.574275,1258.350101,1378.971896
2988.909382,-10955.047942,222.061783,536.266849
2988.909719,-11251.130318,814.226536,229.828649
2988.910056,-10881.027347,-148.041188,-229.828649
2988.910393,-10288.862594,-1258.350101,-612.876398
2988.910731,-8660.409521,-592.164754,459.657299
2988.911068,-9474.636058,-1184.329507,689.485948
2988.911405,-10288.862594,-888.247130,-766.095498
2988.911743,-11103.089130,-592.164754,-1302.362347
2988.912080,-10807.006753,-666.185348,-1915.238745
2988.912417,-10362.883188,-1776.494261,-1072.533697
2988.912754,-10510.924376,-2146.597232,995.924147
2988.913092,-10140.821405,-962.267725,1225.752797
2988.913429,-10362.883188,-962.267725,1149.143247
2988.913766,-10584.944971,-1110.308913,459.657299
2988.914104,-10510.924376,-1480.411884,1149.143247
2988.914441,-10510.924376,-1850.514855,1532.190996
2988.914778,-9252.574275,-1702.473667,2145.067394
2988.915115,-9548.656652,-592.164754,3677.258390
2988.915453,-9770.718434,740.205942,2681.334243
2988.915790,-10436.903782,2072.576638,842.705048
2988.916127,-10584.944971,1628.453072,306.438199
2988.916464,-9622.677246,1628.453072,-612.876398
2988.916802,-9326.594869,0.000000,0.000000
2988.917139,-9252.574275,666.185348,1378.971896
2988.917476,-8660.409521,1406.391290,306.438199
2988.917814,-10362.883188,592.164754,76.609550
2988.918151,-11103.089130,444.123565,-842.705048
2988.918488,-9326.594869,0.000000,-2221.676944
2988.918825,-9178.553681,-666.185348,-383.047749
2988.919163,-9918.759623,-1110.308913,-1532.190996
2988.919500,-9622.677246,-814.226536,-842.705048
2988.919837,-9326.594869,-740.205942,0.000000
2988.920175,-9844.739029,-518.144159,-1072.533697
2988.920512,-11103.089130,-666.185348,-766.095498
2988.920849,-10214.842000,-1332.370696,-1378.971896
2988.921186,-9474.636058,-1924.535449,459.657299
2988.921524,-9918.759623,-370.102971,1685.410096
2988.921861,-11325.150913,0.000000,842.705048
2988.922198,-12361.439231,-518.144159,0.000000
2988.922536,-11547.212695,-518.144159,459.657299
2988.922873,-9770.718434,-740.205942,1072.533697
2988.923210,-9030.512492,-962.267725,1608.800546
2988.923547,-9992.780217,-666.185348,1608.800546
2988.923885,-9178.553681,0.000000,1532.190996
2988.924222,-9548.656652,0.000000,-995.924147
2988.924559,-10214.842000,0.000000,-459.657299
2988.924897,-11325.150913,-888.247130,-1378.971896
2988.925234,-7772.162391,-1110.308913,-919.314598
2988.925571,-7105.977043,-814.226536,-459.657299
2988.925908,-9400.615463,-888.247130,1608.800546
2988.926246,-9992.780217,-1554.432478,-383.047749
2988.926583,-9696.697840,-666.185348,-1302.362347
2988.926920,-10066.800811,148.041188,0.000000
2988.927258,-9400.615463,-1258.350101,612.876398
2988.927595,-10066.800811,-962.267725,689.485948
2988.927932,-10955.047942,148.041188,1991.848295
2988.928269,-10510.924376,148.041188,766.095498
2988.928607,-10510.924376,666.185348,2221.676944
2988.928944,-11695.253884,1258.350101,2298.286494
2988.929281,-10881.027347,1776.494261,689.485948
2988.929618,-11399.171507,222.061783,766.095498
2988.929956,-10066.800811,222.061783,1149.143247
2988.930293,-9770.718434,592.164754,919.314598
2988.930630,-10436.903782,962.267725,1532.190996
2988.930968,-10066.800811,1110.308913,-229.828649
2988.931305,-9548.656652,1036.288319,-689.485948
2988.931642,-9992.780217,0.000000,-766.095498
2988.931979,-9474.636058,-592.164754,-383.047749
2988.932317,-9474.636058,-740.205942,-306.438199
2988.932654,-8808.450710,-962.267725,-689.485948
2988.932991,-9474.636058,-370.102971,-1608.800546
2988.933329,-10140.821405,-518.144159,-1608.800546
2988.933666,-9178.553681,-1406.391290,-1685.410096
2988.934003,-9474.636058,-2886.803174,-306.438199
2988.934340,-9622.677246,-2220.617826,919.314598
2988.934678,-9844.739029,-1258.350101,842.705048
2988.935015,-10510.924376,-1184.329507,383.047749
2988.935352,-10881.027347,-1036.288319,1149.143247
2988.935690,-11177.109724,-592.164754,919.314598
2988.936027,-10066.800811,-1110.308913,1455.581446
2988.936364,-10214.842000,444.123565,2374.896044
2988.936701,-10658.965565,-296.082377,2528.115143
2988.937039,-10732.986159,740.205942,1762.019645
2988.937376,-10584.944971,1110.308913,536.266849
2988.937713,-11769.274478,592.164754,459.657299
2988.938051,-9992.780217,1480.411884,-153.219100
2988.938388,-9326.594869,296.082377,76.609550
2988.938725,-9918.759623,296.082377,1302.362347
2988.939062,-8734.430116,592.164754,229.828649
2988.939400,-9918.759623,-592.164754,536.266849
2988.939737,-10288.862594,296.082377,229.828649
2988.940074,-10066.800811,444.123565,-1225.752797
2988.940412,-10214.842000,0.000000,-1302.362347
2988.940749,-8882.471304,-592.164754,-383.047749
2988.941086,-8512.368333,-1628.453072,0.000000
2988.941423,-8808.450710,-1628.453072,536.266849
2988.941761,-9030.512492,-592.164754,459.657299
2988.942098,-10658.965565,-1332.370696,0.000000
2988.942435,-10807.006753,-1628.453072,0.000000
2988.942772,-9844.739029,-740.205942,-383.047749
2988.943110,-9104.533087,0.000000,2374.896044
2988.943447,-9696.697840,-666.185348,1532.190996
2988.943784,-10658.965565,0.000000,1149.143247
2988.944122,-11177.109724,148.041188,766.095498
2988.944459,-11251.130318,-444.123565,0.000000
2988.944796,-10732.986159,-370.102971,-459.657299
2988.945133,-10436.903782,0.000000,0.000000
2988.945471,-9770.718434,0.000000,-306.438199
2988.945808,-9548.656652,-444.123565,-306.438199
2988.946145,-10584.944971,148.041188,-612.876398
2988.946483,-10584.944971,296.082377,-842.705048
2988.946820,-11251.130318,-1036.288319,-842.705048
2988.947157,-10066.800811,-888.247130,-536.266849
2988.947494,-10658.965565,-1480.411884,-306.438199
2988.947832,-10658.965565,-1924.535449,459.657299
2988.948169,-9326.594869,-1110.308913,536.266849
2988.948506,-9474.636058,-888.247130,766.095498
2988.948844,-9844.739029,-740.205942,0.000000
2988.949181,-9622.677246,-444.123565,-229.828649
2988.949518,-10732.986159,-814.226536,1302.362347
2988.949855,-8956.491898,0.000000,1455.581446
2988.950193,-9548.656652,888.247130,1762.019645
2988.950530,-10881.027347,1480.411884,1915.238745
2988.950867,-9770.718434,1702.473667,459.657299
2988.951205,-10140.821405,962.267725,1762.019645
2988.951542,-9474.636058,592.164754,2451.505594
2988.951879,-8734.430116,814.226536,2374.896044
2988.952216,-9326.594869,962.267725,1072.533697
2988.952554,-9178.553681,1258.350101,842.705048
2988.952891,-9770.718434,2738.761985,-1532.190996
2988.953228,-9844.739029,1332.370696,-612.876398
2988.953566,-11843.295072,814.226536,-766.095498
2988.953903,-8586.388927,444.123565,0.000000
2988.954240,-9252.574275,222.061783,-1532.190996
2988.954577,-10140.821405,-370.102971,-306.438199
2988.954915,-10066.800811,-2146.597232,0.000000
2988.955252,-10066.800811,-1776.494261,383.047749
2988.955589,-10955.047942,-1332.370696,229.828649
2988.955926,-10288.862594,-1110.308913,-612.876398
2988.956264,-11325.150913,-1406.391290,306.438199
2988.956601,-10881.027347,-1702.473667,1685.410096
2988.956938,-10658.965565,-962.267725,1455.581446
2988.957276,-10140.821405,-1332.370696,1225.752797
2988.957613,-10807.006753,-1554.432478,1225.752797
2988.957950,-11325.150913,-888.247130,1378.971896
2988.958287,-10584.944971,-592.164754,306.438199
2988.958625,-10362.883188,-666.185348,766.095498
2988.958962,-9474.636058,-592.164754,153.219100
2988.959299,-9252.574275,-1406.391290,0.000000
2988.959637,-9548.656652,-666.185348,153.219100
2988.959974,-8660.409521,-962.267725,0.000000
2988.960311,-9178.553681,-1184.329507,0.000000
2988.960648,-9548.656652,-1036.288319,383.047749
2988.960986,-9474.636058,-592.164754,-306.438199
2988.961323,-10066.800811,888.247130,-612.876398
2988.961660,-9622.677246,296.082377,-1762.019645
2988.961998,-10732.986159,-74.020594,-1302.362347
2988.962335,-10510.924376,-592.164754,-153.219100
2988.962672,-8956.491898,-1776.494261,-76.609550
2988.963009,-9326.594869,-592.164754,1532.190996
2988.963347,-10510.924376,-518.144159,2068.457845
2988.963684,-10658.965565,-444.123565,842.705048
2988.964021,-10807.006753,74.020594,842.705048
2988.964359,-10658.965565,1332.370696,1685.410096
2988.964696,-10732.986159,1258.350101,766.095498
2988.965033,-10807.006753,1406.391290,153.219100
2988.965370,-10658.965565,1258.350101,0.000000
2988.965708,-9696.697840,740.205942,-919.314598
2988.966045,-9474.636058,-592.164754,-306.438199
2988.966382,-9622.677246,-444.123565,842.705048
2988.966720,-9104.533087,-1998.556043,919.314598
2988.967057,-8734.430116,0.000000,153.219100
2988.967394,-9474.636058,-222.061783,-689.485948
2988.967731,-9770.718434,-370.102971,-1149.143247
2988.968069,-10658.965565,-1110.308913,-1378.971896
2988.968406,-10140.821405,-962.267725,-1685.410096
2988.968743,-9696.697840,-1184.329507,-1455.581446
2988.969081,-9178.553681,-2072.576638,153.219100
2988.969418,-9696.697840,-2590.720797,383.047749
2988.969755,-9400.615463,-1924.535449,-229.828649
2988.970092,-10140.821405,-1110.308913,0.000000
2988.970430,-10658.965565,-1850.514855,0.000000
2988.970767,-10881.027347,-888.247130,995.924147
2988.971104,-10955.047942,-666.185348,1072.533697
2988.971441,-11177.109724,-370.102971,1378.971896
2988.971779,-10807.006753,370.102971,2145.067394
2988.972116,-10214.842000,814.226536,1915.238745
2988.972453,-10510.924376,1110.308913,2757.943793
2988.972791,-10584.944971,1332.370696,1838.629195
2988.973128,-11177.109724,1850.514855,995.924147
2988.973465,-10732.986159,1998.556043,-612.876398
2988.973802,-9844.739029,1406.391290,-536.266849
2988.974140,-9918.759623,2072.576638,306.438199
2988.974477,-8660.409521,1184.329507,-306.438199
2988.974814,-8956.491898,74.020594,-229.828649
2988.975152,-9770.718434,0.000000,612.876398
2988.975489,-8808.450710,370.102971,76.609550
2988.975826,-8438.347739,0.000000,-689.485948
2988.976163,-9030.512492,0.000000,842.705048
2988.976501,-9104.533087,0.000000,766.095498
2988.976838,-10140.821405,-518.144159,536.266849
2988.977175,-10436.903782,222.061783,842.705048
2988.977513,-9622.677246,-222.061783,-536.266849
2988.977850,-10066.800811,-1110.308913,-383.047749
2988.978187,-9992.780217,-1258.350101,766.095498
2988.978524,-9326.594869,-740.205942,1762.019645
2988.978862,-9252.574275,-296.082377,1915.238745
2988.979199,-10362.883188,-74.020594,2068.457845
2988.979536,-11325.150913,592.164754,995.924147
2988.979874,-12139.377449,518.144159,995.924147
2988.980211,-11843.295072,0.000000,536.266849
2988.980548,-11103.089130,-370.102971,76.609550
2988.980885,-9992.780217,-740.205942,536.266849
2988.981223,-9326.594869,-1036.288319,-383.047749
2988.981560,-10288.862594,-740.205942,-689.485948
2988.981897,-10881.027347,-666.185348,-1608.800546
2988.982235,-10955.047942,-1406.391290,-3217.601092
2988.982572,-9474.636058,-1406.391290,-2221.676944
2988.982909,-9252.574275,-1998.556043,-1762.019645
2988.983246,-9030.512492,-2368.659014,-689.485948
2988.983584,-8438.347739,-1998.556043,76.609550
2988.983921,-9178.553681,-1258.350101,689.485948
2988.984258,-10140.821405,-1110.308913,1072.533697
2988.984596,-10732.986159,-1184.329507,536.266849
2988.984933,-10807.006753,0.000000,919.314598
2988.985270,-10881.027347,-1184.329507,2145.067394
2988.985607,-9178.553681,0.000000,2911.162892
2988.985945,-9548.656652,370.102971,3140.991542
2988.986282,-10214.842000,2664.741391,1608.800546
2988.986619,-9474.636058,2368.659014,536.266849
2988.986957,-10732.986159,2220.617826,383.047749
2988.987294,-9696.697840,2072.576638,1072.533697
2988.987631,-9252.574275,2590.720797,1225.752797
2988.987968,-10732.986159,3552.988522,1762.019645
2988.988306,-10732.986159,3552.988522,-229.828649
2988.988643,-11103.089130,1406.391290,-689.485948
2988.988980,-10436.903782,444.123565,76.609550
2988.989318,-8290.306550,-296.082377,995.924147
2988.989655,-9474.636058,592.164754,1838.629195
2988.989992,-9622.677246,-740.205942,1455.581446
2988.990329,-9918.759623,-518.144159,1072.533697
2988.990667,-9770.718434,592.164754,919.314598
2988.991004,-10288.862594,592.164754,1378.971896
2988.991341,-11177.109724,1036.288319,689.485948
2988.991679,-11177.109724,74.020594,0.000000
2988.992016,-9696.697840,-1110.308913,1532.190996
2988.992353,-8364.327145,-962.267725,3677.258390
2988.992690,-10140.821405,-148.041188,4979.620737
2988.993028,-10658.965565,1628.453072,2987.772442
2988.993365,-10584.944971,888.247130,2068.457845
2988.993702,-11029.068536,1332.370696,2528.115143
2988.994040,-10955.047942,0.000000,3677.258390
2988.994377,-10214.842000,1924.535449,3907.087040
2988.994714,-9178.553681,2738.761985,2604.724693
2988.995051,-11177.109724,2738.761985,3370.820191
2988.995389,-11325.150913,2812.782580,1378.971896
2988.995726,-9474.636058,2294.638420,689.485948
2988.996063,-9696.697840,1110.308913,2451.505594
2988.996401,-9918.759623,1850.514855,842.705048
2988.996738,-9474.636058,1776.494261,612.876398
2988.997075,-9104.533087,2294.638420,1072.533697
2988.997412,-8734.430116,1776.494261,3217.601092
2988.997750,-10066.800811,2368.659014,3830.477490
2988.998087,-10436.903782,2886.803174,2298.286494
2988.998424,-10955.047942,2664.741391,1991.848295
2988.998762,-11843.295072,1850.514855,2604.724693
2988.999099,-10214.842000,1776.494261,2221.676944
2988.999436,-8660.409521,1258.350101,3217.601092
2988.999773,-8068.244768,1554.432478,5056.230287
2989.000111,-8438.347739,3404.947333,4903.011187
2989.000448,-10658.965565,3404.947333,3140.991542
2989.000785,-10510.924376,4885.359217,2374.896044
2989.001123,-11029.068536,3182.885551,1991.848295
2989.001460,-11917.315666,3034.844362,2451.505594
2989.001797,-11251.130318,2590.720797,919.314598
2989.002134,-9252.574275,1924.535449,766.095498
2989.002472,-8290.306550,962.267725,2221.676944
2989.002809,-8586.388927,74.020594,2451.505594
2989.003146,-9992.780217,1184.329507,3064.381992
2989.003484,-10436.903782,1258.350101,1608.800546
2989.003821,-10955.047942,2442.679609,536.266849
2989.004158,-11325.150913,1554.432478,-459.657299
2989.004495,-12435.459826,1332.370696,536.266849
2989.004833,-9844.739029,74.020594,536.266849
2989.005170,-9326.594869,-592.164754,1378.971896
2989.005507,-9992.780217,-592.164754,2451.505594
2989.005845,-10140.821405,-1332.370696,2145.067394
2989.006182,-9622.677246,-370.102971,3753.867940
2989.006519,-9400.615463,148.041188,4060.306139
2989.006856,-10881.027347,1628.453072,4596.572988
2989.007194,-11177.109724,1776.494261,3677.258390
2989.007531,-10807.006753,2294.638420,3294.210641
2989.007868,-10288.862594,1554.432478,4596.572988
2989.008206,-10510.924376,2368.659014,3140.991542
2989.008543,-9696.697840,2812.782580,3064.381992
2989.008880,-11547.212695,2368.659014,2068.457845
2989.009217,-9326.594869,1924.535449,1149.143247
2989.009555,-7920.203579,1480.411884,1838.629195
2989.009892,-9030.512492,2294.638420,2911.162892
2989.010229,-7994.224174,3034.844362,2068.457845
2989.010567,-10510.924376,2294.638420,766.095498
2989.010904,-10436.903782,1998.556043,0.000000
2989.011241,-10288.862594,1554.432478,689.485948
2989.011578,-10584.944971,1406.391290,2451.505594
2989.011916,-9030.512492,2220.617826,1915.238745
2989.012253,-10214.842000,1036.288319,1225.752797
2989.012590,-10436.903782,962.267725,1302.362347
2989.012928,-8956.491898,296.082377,1532.190996
2989.013265,-9918.759623,740.205942,3370.820191
2989.013602,-8290.306550,1332.370696,3064.381992
2989.013939,-9400.615463,1924.535449,4213.525239
2989.014277,-11843.295072,4293.194464,4290.134789
2989.014614,-12065.356855,3034.844362,1838.629195
2989.014951,-11621.233289,2516.700203,1532.190996
2989.015289,-10436.903782,1406.391290,2374.896044
2989.015626,-10436.903782,1702.473667,2834.553343
2989.015963,-9474.636058,962.267725,1991.848295
2989.016300,-9030.512492,1184.329507,919.314598
2989.016638,-9030.512492,666.185348,2451.505594
2989.016975,-10362.883188,2738.761985,919.314598
2989.017312,-9918.759623,2886.803174,229.828649
2989.017650,-10066.800811,2072.576638,995.924147
2989.017987,-10214.842000,1628.453072,1762.019645
2989.018324,-11695.253884,2294.638420,1685.410096
2989.018662,-10881.027347,1702.473667,1378.971896
2989.018999,-9474.636058,444.123565,2298.286494
2989.019336,-9770.718434,-740.205942,3830.477490
2989.019673,-9992.780217,740.205942,4443.353888
2989.020011,-9030.512492,1628.453072,3677.258390
2989.020348,-8808.450710,2072.576638,3447.429741
2989.020685,-10362.883188,2072.576638,2987.772442
2989.021023,-10510.924376,2664.741391,3294.210641
2989.021360,-10658.965565,4515.256246,4213.525239
2989.021697,-9474.636058,4737.318029,3830.477490
2989.022034,-9918.759623,4885.359217,3600.648841
2989.022372,-11843.295072,3923.091493,3524.039291
2989.022709,-11177.109724,2516.700203,2451.505594
2989.023046,-8364.327145,2664.741391,3294.210641
2989.023384,-7846.182985,2960.823768,4060.306139
2989.023721,-9104.533087,3404.947333,3447.429741
2989.024058,-10140.821405,2812.782580,766.095498
2989.024395,-10807.006753,2812.782580,-1225.752797
2989.024733,-9622.677246,1258.350101,-1225.752797
2989.025070,-9474.636058,1406.391290,1225.752797
2989.025407,-8808.450710,1924.535449,2298.286494
2989.025745,-9474.636058,1850.514855,1915.238745
2989.026082,-10732.986159,1628.453072,1225.752797
2989.026419,-11621.233289,592.164754,1532.190996
2989.026756,-11325.150913,518.144159,2221.676944
2989.027094,-9696.697840,-518.144159,2068.457845
2989.027431,-10066.800811,-592.164754,2834.553343
2989.027768,-9844.739029,-962.267725,3600.648841
2989.028106,-10066.800811,518.144159,3677.258390
2989.028443,-9696.697840,1924.535449,3677.258390
2989.028780,-10288.862594,3256.906145,2604.724693
2989.029117,-11843.295072,3701.029710,2987.772442
2989.029455,-13027.624579,3108.864956,2681.334243
2989.029792,-11843.295072,2812.782580,2604.724693
2989.030129,-10955.047942,1998.556043,2374.896044
2989.030467,-9548.656652,814.226536,2834.553343
2989.030804,-8438.347739,518.144159,3064.381992
2989.031141,-8956.491898,518.144159,2528.115143
2989.031478,-9104.533087,1406.391290,1455.581446
2989.031816,-9400.615463,1924.535449,153.219100
2989.032153,-10066.800811,2442.679609,536.266849
2989.032490,-9770.718434,2368.659014,-229.828649
2989.032828,-9622.677246,2664.741391,919.314598
2989.033165,-9622.677246,2072.576638,2221.676944
2989.033502,-10140.821405,222.061783,2451.505594
2989.033839,-8956.491898,888.247130,2757.943793
2989.034177,-9474.636058,74.020594,3140.991542
2989.034514,-9622.677246,0.000000,3677.258390
2989.034851,-9474.636058,518.144159,2528.115143
2989.035189,-9622.677246,1554.432478,2604.724693
2989.035526,-10140.821405,2368.659014,1838.629195
2989.035863,-9918.759623,2294.638420,1225.752797
2989.036200,-10658.965565,2886.803174,1149.143247
2989.036538,-10362.883188,2442.679609,1149.143247
2989.036875,-10881.027347,2516.700203,1225.752797
2989.037212,-10584.944971,1924.535449,995.924147
2989.037550,-10066.800811,1628.453072,1149.143247
2989.037887,-9918.759623,370.102971,1762.019645
2989.038224,-10658.965565,-1110.308913,2681.334243
2989.038561,-10288.862594,-518.144159,2068.457845
2989.038899,-10288.862594,-370.102971,1915.238745
2989.039236,-9770.718434,74.020594,2068.457845
2989.039573,-9696.697840,0.000000,1532.190996
2989.039911,-10881.027347,296.082377,1225.752797
2989.040248,-11029.068536,814.226536,1455.581446
2989.040585,-10658.965565,0.000000,1532.190996
2989.040922,-10066.800811,296.082377,2834.553343
2989.041260,-9918.759623,-148.041188,3753.867940
2989.041597,-9252.574275,370.102971,5669.106685
2989.041934,-9992.780217,814.226536,6128.763984
2989.042272,-10288.862594,2220.617826,6052.154434
2989.042609,-11325.150913,3330.926739,5132.839837
2989.042946,-11769.274478,3552.988522,4596.572988
2989.043283,-10807.006753,2960.823768,4443.353888
2989.043621,-9622.677246,3108.864956,3677.258390
2989.043958,-9104.533087,4145.153275,4596.572988
2989.044295,-9474.636058,4367.215058,4826.401637
2989.044633,-9252.574275,5255.462188,2757.943793
2989.044970,-9548.656652,5477.523971,2145.067394
2989.045307,-10658.965565,5033.400406,2145.067394
2989.045644,-10436.903782,4663.297435,919.314598
2989.045982,-10066.800811,2812.782580,766.095498
2989.046319,-8734.430116,2664.741391,1762.019645
2989.046656,-7846.182985,2442.679609,2145.067394
2989.046994,-8734.430116,3108.864956,2987.772442
2989.047331,-9474.636058,3404.947333,995.924147
2989.047668,-9696.697840,2812.782580,1455.581446
2989.048005,-10807.006753,3182.885551,2681.334243
2989.048343,-10955.047942,3627.009116,2298.286494
2989.048680,-11251.130318,4145.153275,2145.067394
2989.049017,-11473.192101,2886.803174,383.047749
2989.049355,-10658.965565,888.247130,0.000000
2989.049692,-10066.800811,518.144159,1915.238745
2989.050029,-8734.430116,592.164754,2681.334243
2989.050366,-7920.203579,2294.638420,1608.800546
2989.050704,-9178.553681,2590.720797,1149.143247
2989.051041,-10807.006753,3108.864956,1302.362347
2989.051378,-11621.233289,2664.741391,1225.752797
2989.051716,-10807.006753,3701.029710,2145.067394
2989.052053,-9474.636058,3552.988522,2145.067394
2989.052390,-10955.047942,1924.535449,2374.896044
2989.052727,-12953.603985,962.267725,2221.676944
2989.053065,-11399.171507,-148.041188,459.657299
