#time,accel_x,accel_y,accel_z
2947.284471,-10214.842000,-1332.370696,689.485948
2947.284809,-9918.759623,-592.164754,-383.047749
2947.285147,-10140.821405,-1110.308913,612.876398
2947.285485,-9770.718434,-814.226536,459.657299
2947.285823,-9844.739029,-1406.391290,1685.410096
2947.286161,-9474.636058,0.000000,1532.190996
2947.286499,-9474.636058,888.247130,1608.800546
2947.286837,-10584.944971,814.226536,1838.629195
2947.287175,-11547.212695,222.061783,689.485948
2947.287513,-9622.677246,666.185348,229.828649
2947.287852,-10066.800811,814.226536,0.000000
2947.288190,-9844.739029,962.267725,-536.266849
2947.288528,-9770.718434,222.061783,-1838.629195
2947.288866,-9770.718434,370.102971,-1532.190996
2947.289204,-8808.450710,74.020594,-1762.019645
2947.289542,-9252.574275,-370.102971,-2068.457845
2947.289880,-10140.821405,-74.020594,-1532.190996
2947.290218,-10362.883188,-1036.288319,-2221.676944
2947.290556,-9992.780217,-1554.432478,-1455.581446
2947.290894,-9326.594869,-1850.514855,-1608.800546
2947.291232,-10066.800811,-2368.659014,-1532.190996
2947.291570,-10732.986159,-2738.761985,-1685.410096
2947.291908,-9770.718434,-2886.803174,-1991.848295
2947.292246,-9474.636058,-3627.009116,-766.095498
2947.292584,-9030.512492,-3701.029710,153.219100
2947.292922,-10584.944971,-1776.494261,153.219100
2947.293260,-11399.171507,-1702.473667,-1685.410096
2947.293598,-11029.068536,-1702.473667,-1838.629195
2947.293936,-10658.965565,-2220.617826,-842.705048
2947.294274,-10066.800811,-1776.494261,842.705048
2947.294612,-10658.965565,-1258.350101,-383.047749
2947.294950,-10881.027347,-1554.432478,-1225.752797
2947.295288,-10140.821405,-1702.473667,-1455.581446
2947.295626,-9474.636058,-1702.473667,-1225.752797
2947.295964,-10881.027347,-1332.370696,0.000000
2947.296302,-10955.047942,-962.267725,-2987.772442
2947.296640,-10955.047942,-1776.494261,-4673.182538
2947.296978,-9992.780217,-2664.741391,-4443.353888
2947.297316,-8734.430116,-3404.947333,-3983.696590
2947.297655,-8586.388927,-3034.844362,-1991.848295
2947.297993,-8882.471304,-2960.823768,-1838.629195
2947.298331,-9178.553681,-2368.659014,-1762.019645
2947.298669,-10288.862594,-1258.350101,-1378.971896
2947.299007,-10584.944971,-1776.494261,-1532.190996
2947.299345,-10436.903782,-1776.494261,-1991.848295
2947.299683,-10436.903782,-2738.761985,-2834.553343
2947.300021,-10140.821405,-4293.194464,-1225.752797
2947.300359,-9696.697840,-4293.194464,-153.219100
2947.300697,-7624.121203,-4071.132681,153.219100
2947.301035,-8808.450710,-2146.597232,383.047749
2947.301373,-9844.739029,-1850.514855,-383.047749
2947.301711,-11177.109724,-962.267725,-919.314598
2947.302049,-11843.295072,-666.185348,-2298.286494
2947.302387,-11177.109724,-814.226536,-2451.505594
2947.302725,-10732.986159,-2146.597232,-2757.943793
2947.303063,-10658.965565,-3330.926739,-2451.505594
2947.303401,-9400.615463,-3256.906145,-2221.676944
2947.303739,-7994.224174,-4145.153275,-2374.896044
2947.304077,-9030.512492,-4737.318029,-2451.505594
2947.304415,-9474.636058,-5107.421000,-2528.115143
2947.304753,-10214.842000,-3923.091493,-1991.848295
2947.305091,-9992.780217,-3701.029710,-1455.581446
2947.305429,-10066.800811,-1776.494261,-1838.629195
2947.305767,-10955.047942,-1998.556043,-1762.019645
2947.306105,-12213.398043,-2516.700203,-2604.724693
2947.306443,-10510.924376,-4589.276840,-2757.943793
2947.306781,-9918.759623,-4737.318029,-1378.971896
2947.307120,-9178.553681,-4145.153275,-383.047749
2947.307458,-8660.409521,-3849.070898,-2221.676944
2947.307796,-9992.780217,-4145.153275,-842.705048
2947.308134,-10584.944971,-2590.720797,-1378.971896
2947.308472,-9696.697840,-518.144159,-1762.019645
2947.308810,-9400.615463,1184.329507,-1685.410096
2947.309148,-11029.068536,1036.288319,-1685.410096
2947.309486,-12879.583391,222.061783,-766.095498
2947.309824,-11177.109724,814.226536,-1225.752797
2947.310162,-8586.388927,0.000000,-1225.752797
2947.310500,-8364.327145,-1776.494261,842.705048
2947.310838,-10066.800811,-2738.761985,536.266849
2947.311176,-9918.759623,-1332.370696,-2068.457845
2947.311514,-8882.471304,-592.164754,-2987.772442
2947.311852,-9326.594869,-1184.329507,-2451.505594
2947.312190,-10807.006753,-1184.329507,-4136.915689
2947.312528,-10732.986159,-1480.411884,-4979.620737
2947.312866,-8882.471304,-962.267725,-3447.429741
2947.313204,-8364.327145,-1406.391290,-1455.581446
2947.313542,-9622.677246,-1036.288319,-1685.410096
2947.313880,-10732.986159,-2664.741391,-1915.238745
2947.314218,-10362.883188,-2664.741391,-536.266849
2947.314556,-8882.471304,-3330.926739,0.000000
2947.314894,-9844.739029,-2738.761985,995.924147
2947.315232,-11029.068536,-2442.679609,995.924147
2947.315570,-10510.924376,-370.102971,-1378.971896
2947.315908,-10807.006753,-1406.391290,-2374.896044
2947.316246,-11103.089130,-1628.453072,-3140.991542
2947.316585,-9474.636058,-2146.597232,-2911.162892
2947.316923,-9770.718434,-2442.679609,-2604.724693
2947.317261,-9178.553681,-2368.659014,-2911.162892
2947.317599,-9178.553681,-2590.720797,-3064.381992
2947.317937,-10510.924376,-3034.844362,-2145.067394
2947.318275,-8734.430116,-3404.947333,-1991.848295
2947.318613,-9770.718434,-3552.988522,153.219100
2947.318951,-11621.233289,-2368.659014,-995.924147
2947.319289,-11325.150913,-1702.473667,-1915.238745
2947.319627,-12065.356855,-2516.700203,-2528.115143
2947.319965,-10436.903782,-3849.070898,-4519.963438
2947.320303,-9178.553681,-4737.318029,-3064.381992
2947.320641,-8586.388927,-3849.070898,-1378.971896
2947.320979,-7105.977043,-4367.215058,-995.924147
2947.321317,-9104.533087,-4071.132681,-383.047749
2947.321655,-9844.739029,-2812.782580,0.000000
2947.321993,-11029.068536,-888.247130,1685.410096
2947.322331,-11251.130318,888.247130,2451.505594
2947.322669,-10658.965565,2368.659014,2221.676944
2947.323007,-12805.562797,1998.556043,1762.019645
2947.323345,-11991.336260,222.061783,-689.485948
2947.323683,-10955.047942,-1184.329507,0.000000
2947.324021,-9548.656652,-1628.453072,-995.924147
2947.324359,-8438.347739,-2146.597232,-1762.019645
2947.324697,-7846.182985,-2738.761985,-1915.238745
2947.325035,-7402.059420,-2664.741391,-1225.752797
2947.325373,-7994.224174,-370.102971,229.828649
2947.325711,-10140.821405,1998.556043,0.000000
2947.326049,-11917.315666,3701.029710,-2145.067394
2947.326388,-13249.686362,888.247130,-4443.353888
2947.326726,-12657.521608,-1554.432478,-3447.429741
2947.327064,-8216.285956,-3923.091493,-1608.800546
2947.327402,-7994.224174,-4737.318029,536.266849
2947.327740,-6735.874072,-6439.791695,0.000000
2947.328078,-8068.244768,-7105.977043,-383.047749
2947.328416,-8364.327145,-5255.462188,919.314598
2947.328754,-8438.347739,-2664.741391,995.924147
2947.329092,-11473.192101,1184.329507,1149.143247
2947.329430,-13841.851115,1850.514855,-1302.362347
2947.329768,-14137.933492,2072.576638,-2451.505594
2947.330106,-10584.944971,592.164754,-1532.190996
2947.330444,-9178.553681,-1110.308913,1838.629195
2947.330782,-9104.533087,-2886.803174,2987.772442
2947.331120,-10955.047942,-3478.967927,2068.457845
2947.331458,-10066.800811,-2220.617826,-766.095498
2947.331796,-9252.574275,-1998.556043,-1915.238745
2947.332134,-8808.450710,-1036.288319,0.000000
2947.332472,-10510.924376,518.144159,459.657299
2947.332810,-11769.274478,2220.617826,-1072.533697
2947.333148,-11473.192101,2442.679609,-1838.629195
2947.333486,-11029.068536,962.267725,-1455.581446
2947.333824,-9918.759623,148.041188,76.609550
2947.334162,-9104.533087,-518.144159,1608.800546
2947.334500,-8808.450710,-888.247130,3140.991542
2947.334838,-8734.430116,-2294.638420,2374.896044
2947.335176,-8808.450710,-2442.679609,2374.896044
2947.335514,-9548.656652,-1110.308913,1532.190996
2947.335853,-9992.780217,-148.041188,1072.533697
2947.336191,-9770.718434,1406.391290,229.828649
2947.336529,-9918.759623,2590.720797,612.876398
2947.336867,-9696.697840,4219.173869,766.095498
2947.337205,-9178.553681,4737.318029,766.095498
2947.337543,-10584.944971,2812.782580,766.095498
2947.337881,-11473.192101,1628.453072,612.876398
2947.338219,-11029.068536,-370.102971,306.438199
2947.338557,-9178.553681,-814.226536,1455.581446
2947.338895,-8734.430116,-1924.535449,1302.362347
2947.339233,-8734.430116,-1406.391290,995.924147
2947.339570,-9770.718434,-1036.288319,153.219100
2947.339908,-10066.800811,1406.391290,-1149.143247
2947.340246,-11177.109724,2294.638420,-2374.896044
2947.340583,-11917.315666,888.247130,-2911.162892
2947.340921,-11769.274478,740.205942,-3064.381992
2947.341259,-10436.903782,-1480.411884,-2221.676944
2947.341596,-9770.718434,-2220.617826,-229.828649
2947.341934,-8882.471304,-4367.215058,536.266849
2947.342272,-9844.739029,-4885.359217,2374.896044
2947.342609,-9474.636058,-4219.173869,1915.238745
2947.342947,-9104.533087,-2220.617826,689.485948
2947.343285,-10436.903782,-1110.308913,536.266849
2947.343623,-11251.130318,-1110.308913,0.000000
2947.343960,-10658.965565,814.226536,-383.047749
2947.344298,-9844.739029,1554.432478,0.000000
2947.344636,-9992.780217,592.164754,1915.238745
2947.344973,-11177.109724,148.041188,2068.457845
2947.345311,-11029.068536,222.061783,1302.362347
2947.345649,-10732.986159,74.020594,1608.800546
2947.345986,-10658.965565,-962.267725,1225.752797
2947.346324,-9474.636058,-1258.350101,842.705048
2947.346662,-9178.553681,0.000000,-612.876398
2947.347000,-8882.471304,0.000000,-766.095498
2947.347337,-8956.491898,370.102971,-1915.238745
2947.347675,-9252.574275,592.164754,-1378.971896
2947.348013,-10066.800811,1332.370696,229.828649
2947.348350,-10288.862594,1554.432478,612.876398
2947.348688,-10584.944971,1110.308913,76.609550
2947.349026,-10362.883188,-592.164754,1149.143247
2947.349363,-11177.109724,-1406.391290,1762.019645
2947.349701,-8956.491898,-2442.679609,1072.533697
2947.350039,-8290.306550,-3775.050304,995.924147
2947.350376,-8364.327145,-2072.576638,1838.629195
2947.350714,-9696.697840,-1406.391290,306.438199
2947.351052,-9622.677246,1110.308913,76.609550
2947.351390,-9770.718434,1332.370696,-306.438199
2947.351727,-10732.986159,1332.370696,995.924147
2947.352065,-11917.315666,1258.350101,0.000000
2947.352403,-11103.089130,-148.041188,76.609550
2947.352740,-10288.862594,-1776.494261,-76.609550
2947.353078,-9400.615463,-3775.050304,459.657299
2947.353416,-9622.677246,-4515.256246,1149.143247
2947.353753,-8586.388927,-3478.967927,1072.533697
2947.354091,-8956.491898,-2516.700203,0.000000
2947.354429,-9992.780217,-1184.329507,-1532.190996
2947.354767,-11251.130318,-740.205942,-3217.601092
2947.355104,-11399.171507,-148.041188,-2757.943793
2947.355442,-10362.883188,-962.267725,-1762.019645
2947.355780,-9104.533087,-1554.432478,0.000000
2947.356117,-10288.862594,-1924.535449,1378.971896
2947.356455,-9918.759623,-2368.659014,2451.505594
2947.356793,-9622.677246,-2368.659014,2911.162892
2947.357130,-10436.903782,-1406.391290,2911.162892
2947.357468,-11769.274478,-444.123565,2604.724693
2947.357806,-10807.006753,888.247130,0.000000
2947.358143,-9104.533087,1776.494261,-153.219100
2947.358481,-9474.636058,1850.514855,766.095498
2947.358819,-10362.883188,2590.720797,1302.362347
2947.359157,-11029.068536,2812.782580,919.314598
2947.359494,-10362.883188,2960.823768,1225.752797
2947.359832,-9918.759623,2368.659014,1455.581446
2947.360170,-10584.944971,1110.308913,1838.629195
2947.360507,-9474.636058,1332.370696,1149.143247
2947.360845,-8290.306550,518.144159,76.609550
2947.361183,-9252.574275,-296.082377,0.000000
2947.361520,-9326.594869,888.247130,-1685.410096
2947.361858,-9252.574275,1480.411884,-2221.676944
2947.362196,-9252.574275,1998.556043,-1915.238745
2947.362534,-8882.471304,222.061783,-689.485948
2947.362871,-10288.862594,666.185348,689.485948
2947.363209,-10732.986159,-296.082377,306.438199
2947.363547,-9548.656652,-962.267725,536.266849
2947.363884,-9178.553681,-2886.803174,76.609550
2947.364222,-9844.739029,-3404.947333,2145.067394
2947.364560,-11103.089130,-3034.844362,2987.772442
2947.364897,-10362.883188,-666.185348,1455.581446
2947.365235,-9474.636058,-74.020594,1072.533697
2947.365573,-11177.109724,740.205942,-612.876398
2947.365910,-11991.336260,814.226536,-1302.362347
2947.366248,-10658.965565,592.164754,-1608.800546
2947.366586,-10214.842000,0.000000,-306.438199
2947.366924,-10658.965565,-666.185348,0.000000
2947.367261,-11177.109724,-1480.411884,0.000000
2947.367599,-9622.677246,-1258.350101,0.000000
2947.367937,-9696.697840,-2442.679609,1455.581446
2947.368274,-10066.800811,-1554.432478,842.705048
2947.368612,-10436.903782,-1184.329507,-459.657299
2947.368950,-10214.842000,-518.144159,-1072.533697
2947.369287,-9474.636058,-962.267725,-1762.019645
2947.369625,-8660.409521,-2294.638420,-1072.533697
2947.369963,-9696.697840,-222.061783,1072.533697
2947.370300,-9104.533087,-148.041188,842.705048
2947.370638,-9548.656652,-148.041188,1149.143247
2947.370976,-9992.780217,-1332.370696,1455.581446
2947.371314,-11473.192101,-296.082377,2911.162892
2947.371651,-10584.944971,222.061783,2451.505594
2947.371989,-9104.533087,222.061783,1455.581446
2947.372327,-9104.533087,592.164754,1378.971896
2947.372664,-9622.677246,222.061783,1225.752797
2947.373002,-9474.636058,1776.494261,1378.971896
2947.373340,-10436.903782,1776.494261,1149.143247
2947.373677,-10658.965565,2368.659014,842.705048
2947.374015,-11621.233289,2072.576638,-153.219100
2947.374353,-11473.192101,888.247130,-536.266849
2947.374691,-9252.574275,-518.144159,-689.485948
2947.375028,-8438.347739,-2590.720797,153.219100
2947.375366,-9474.636058,-2368.659014,76.609550
2947.375704,-9474.636058,-1110.308913,-1532.190996
2947.376041,-9474.636058,-1332.370696,-1991.848295
2947.376379,-9400.615463,-2072.576638,-1608.800546
2947.376717,-10066.800811,-1406.391290,-612.876398
2947.377054,-11103.089130,-518.144159,0.000000
2947.377392,-10066.800811,-1110.308913,-1072.533697
2947.377730,-10140.821405,-2220.617826,-306.438199
2947.378067,-10214.842000,-2886.803174,612.876398
2947.378405,-10881.027347,-2738.761985,1838.629195
2947.378743,-10214.842000,-1702.473667,2068.457845
2947.379081,-9844.739029,-2516.700203,2068.457845
2947.379418,-10658.965565,-444.123565,1532.190996
2947.379756,-11029.068536,0.000000,306.438199
2947.380094,-10288.862594,1110.308913,-229.828649
2947.380431,-9696.697840,1110.308913,0.000000
2947.380769,-10658.965565,518.144159,0.000000
2947.381107,-10510.924376,1406.391290,459.657299
2947.381444,-9400.615463,1110.308913,229.828649
2947.381782,-9326.594869,962.267725,766.095498
2947.382120,-10066.800811,0.000000,919.314598
2947.382458,-10214.842000,1110.308913,1149.143247
2947.382795,-9844.739029,962.267725,-383.047749
2947.383133,-9178.553681,962.267725,-1149.143247
2947.383471,-8808.450710,-222.061783,-1532.190996
2947.383808,-9548.656652,0.000000,0.000000
2947.384146,-9252.574275,814.226536,0.000000
2947.384484,-7994.224174,888.247130,689.485948
2947.384821,-9400.615463,1258.350101,766.095498
2947.385159,-11325.150913,0.000000,2374.896044
2947.385497,-11251.130318,962.267725,1838.629195
2947.385834,-9474.636058,370.102971,2068.457845
2947.386172,-11103.089130,0.000000,2451.505594
2947.386510,-10436.903782,74.020594,689.485948
2947.386848,-10510.924376,1184.329507,0.000000
2947.387185,-9474.636058,1554.432478,0.000000
2947.387523,-9326.594869,444.123565,-689.485948
2947.387861,-10066.800811,-148.041188,459.657299
2947.388198,-11399.171507,592.164754,-459.657299
2947.388536,-10066.800811,222.061783,-536.266849
2947.388874,-10140.821405,-592.164754,-229.828649
2947.389211,-9696.697840,-1554.432478,0.000000
2947.389549,-10140.821405,-1702.473667,306.438199
2947.389887,-9400.615463,-1110.308913,-536.266849
2947.390225,-9770.718434,-2812.782580,-1608.800546
2947.390562,-9696.697840,-3108.864956,-1532.190996
2947.390900,-10066.800811,-2738.761985,-1072.533697
2947.391238,-9252.574275,-1554.432478,-1225.752797
2947.391575,-9474.636058,-1702.473667,-306.438199
2947.391913,-9918.759623,-1480.411884,536.266849
2947.392251,-10658.965565,-1406.391290,842.705048
2947.392588,-11177.109724,-666.185348,2145.067394
2947.392926,-10288.862594,-1110.308913,2068.457845
2947.393264,-10732.986159,-1406.391290,2068.457845
2947.393601,-11029.068536,-148.041188,1608.800546
2947.393939,-9474.636058,1258.350101,612.876398
2947.394277,-9400.615463,1776.494261,536.266849
2947.394615,-9770.718434,1036.288319,0.000000
2947.394952,-10732.986159,1776.494261,-153.219100
2947.395290,-10881.027347,1332.370696,-76.609550
2947.395628,-10584.944971,2220.617826,-536.266849
2947.395965,-9844.739029,888.247130,383.047749
2947.396303,-10066.800811,222.061783,842.705048
2947.396641,-9252.574275,962.267725,1072.533697
2947.396978,-9178.553681,444.123565,995.924147
2947.397316,-8734.430116,814.226536,229.828649
2947.397654,-9918.759623,0.000000,229.828649
2947.397992,-10214.842000,-74.020594,-766.095498
2947.398329,-9326.594869,1332.370696,-1455.581446
2947.398667,-9696.697840,0.000000,-995.924147
2947.399005,-10214.842000,-666.185348,-153.219100
2947.399342,-9474.636058,-666.185348,612.876398
2947.399680,-8956.491898,-1110.308913,1378.971896
2947.400018,-9770.718434,-962.267725,2451.505594
2947.400355,-10881.027347,-888.247130,2604.724693
2947.400693,-11917.315666,-518.144159,1608.800546
2947.401031,-10362.883188,444.123565,689.485948
2947.401368,-10066.800811,370.102971,76.609550
2947.401706,-10288.862594,0.000000,459.657299
2947.402044,-10732.986159,148.041188,-306.438199
2947.402382,-10288.862594,666.185348,-995.924147
2947.402719,-9992.780217,296.082377,-1302.362347
2947.403057,-10362.883188,-592.164754,-612.876398
2947.403395,-11177.109724,-740.205942,-306.438199
2947.403732,-9770.718434,0.000000,-1072.533697
2947.404070,-9770.718434,-740.205942,0.000000
2947.404408,-9844.739029,-1110.308913,76.609550
2947.404745,-10288.862594,-1184.329507,-306.438199
2947.405083,-9770.718434,-962.267725,0.000000
2947.405421,-9548.656652,0.000000,-536.266849
2947.405759,-9770.718434,-962.267725,612.876398
2947.406096,-10436.903782,74.020594,459.657299
2947.406434,-9622.677246,0.000000,612.876398
2947.406772,-9770.718434,518.144159,1072.533697
2947.407109,-9622.677246,74.020594,919.314598
2947.407447,-10807.006753,-296.082377,1149.143247
2947.407785,-10066.800811,1332.370696,2068.457845
2947.408122,-9326.594869,1406.391290,1225.752797
2947.408460,-9622.677246,1776.494261,995.924147
2947.408798,-11251.130318,1628.453072,1302.362347
2947.409135,-10955.047942,2442.679609,459.657299
2947.409473,-9992.780217,1776.494261,-153.219100
2947.409811,-9696.697840,888.247130,229.828649
2947.410149,-9918.759623,-592.164754,0.000000
2947.410486,-10510.924376,-962.267725,536.266849
2947.410824,-8808.450710,-666.185348,-459.657299
2947.411162,-8438.347739,-1258.350101,-689.485948
2947.411499,-10214.842000,-740.205942,0.000000
2947.411837,-10955.047942,-1332.370696,-842.705048
2947.412175,-10140.821405,-370.102971,-1225.752797
2947.412512,-9992.780217,-2072.576638,-995.924147
2947.412850,-10584.944971,-2442.679609,-383.047749
2947.413188,-9770.718434,-3034.844362,306.438199
2947.413526,-9326.594869,-2590.720797,1378.971896
2947.413863,-9326.594869,-2516.700203,2145.067394
2947.414201,-9918.759623,-1850.514855,1838.629195
2947.414539,-12139.377449,-814.226536,1915.238745
2947.414876,-11547.212695,-148.041188,306.438199
2947.415214,-10288.862594,-370.102971,-76.609550
2947.415552,-10510.924376,-444.123565,306.438199
2947.415889,-11325.150913,-1036.288319,1838.629195
2947.416227,-9696.697840,222.061783,459.657299
2947.416565,-8956.491898,444.123565,-306.438199
2947.416902,-9844.739029,370.102971,229.828649
2947.417240,-11325.150913,1332.370696,-306.438199
2947.417578,-10881.027347,1036.288319,-459.657299
2947.417916,-9918.759623,444.123565,-1225.752797
2947.418253,-9696.697840,0.000000,-612.876398
2947.418591,-10140.821405,-888.247130,-536.266849
2947.418929,-8438.347739,-518.144159,-536.266849
2947.419266,-7698.141797,-296.082377,459.657299
2947.419604,-8364.327145,-296.082377,1072.533697
2947.419942,-10436.903782,1036.288319,919.314598
2947.420279,-10288.862594,2294.638420,-383.047749
2947.420617,-10066.800811,1258.350101,0.000000
2947.420955,-9992.780217,814.226536,-153.219100
2947.421292,-10658.965565,222.061783,995.924147
2947.421630,-10362.883188,814.226536,1991.848295
2947.421968,-9252.574275,0.000000,1532.190996
2947.422306,-9474.636058,888.247130,1685.410096
2947.422643,-10214.842000,1184.329507,2221.676944
2947.422981,-10658.965565,1110.308913,383.047749
2947.423319,-10807.006753,1110.308913,0.000000
2947.423656,-10584.944971,962.267725,-919.314598
2947.423994,-9844.739029,222.061783,-842.705048
2947.424332,-10584.944971,-444.123565,-459.657299
2947.424669,-9622.677246,-888.247130,0.000000
2947.425007,-8882.471304,-1110.308913,0.000000
2947.425345,-9326.594869,-1480.411884,229.828649
2947.425683,-10510.924376,-444.123565,0.000000
2947.426020,-10214.842000,-1554.432478,-1225.752797
2947.426358,-9918.759623,-2294.638420,-1072.533697
2947.426696,-10066.800811,-2368.659014,-383.047749
2947.427033,-10066.800811,-1776.494261,229.828649
2947.427371,-9400.615463,-1554.432478,0.000000
2947.427709,-9104.533087,-1702.473667,995.924147
2947.428046,-9918.759623,-1036.288319,1608.800546
2947.428384,-11029.068536,74.020594,2681.334243
2947.428722,-10732.986159,592.164754,1991.848295
2947.429059,-10362.883188,888.247130,1532.190996
2947.429397,-10658.965565,1480.411884,1455.581446
2947.429735,-10362.883188,592.164754,612.876398
2947.430073,-9474.636058,740.205942,612.876398
2947.430410,-9178.553681,222.061783,1532.190996
2947.430748,-9696.697840,814.226536,919.314598
2947.431086,-10436.903782,2072.576638,76.609550
2947.431423,-9696.697840,1776.494261,-1072.533697
2947.431761,-9622.677246,1406.391290,-536.266849
2947.432099,-10214.842000,1110.308913,-1149.143247
2947.432436,-10955.047942,0.000000,-842.705048
2947.432774,-9326.594869,-444.123565,-1991.848295
2947.433112,-7846.182985,-1332.370696,-536.266849
2947.433450,-9030.512492,-1480.411884,689.485948
2947.433787,-9844.739029,-1480.411884,919.314598
2947.434125,-10140.821405,-814.226536,-306.438199
2947.434463,-9992.780217,-888.247130,0.000000
2947.434800,-10658.965565,-1850.514855,-306.438199
2947.435138,-10881.027347,-2368.659014,0.000000
2947.435476,-10288.862594,-1850.514855,76.609550
2947.435813,-9030.512492,-1702.473667,536.266849
2947.436151,-9326.594869,-1776.494261,1608.800546
2947.436489,-10658.965565,-370.102971,2374.896044
2947.436826,-10955.047942,518.144159,1072.533697
2947.437164,-11621.233289,814.226536,306.438199
2947.437502,-11621.233289,-222.061783,-842.705048
2947.437840,-11399.171507,-148.041188,-1149.143247
2947.438177,-10362.883188,-814.226536,-842.705048
2947.438515,-8290.306550,-1258.350101,0.000000
2947.438853,-8290.306550,-1480.411884,383.047749
2947.439190,-9326.594869,-1480.411884,229.828649
2947.439528,-10436.903782,74.020594,0.000000
2947.439866,-10288.862594,814.226536,-1378.971896
2947.440203,-10955.047942,-222.061783,-1072.533697
2947.440541,-10807.006753,-1258.350101,-536.266849
2947.440879,-10288.862594,-592.164754,383.047749
2947.441216,-8956.491898,-296.082377,1149.143247
2947.441554,-8068.244768,-2146.597232,612.876398
2947.441891,-8216.285956,-444.123565,2298.286494
2947.442229,-10658.965565,888.247130,2604.724693
2947.442567,-11103.089130,1776.494261,1762.019645
2947.442904,-10584.944971,1776.494261,459.657299
2947.443242,-10140.821405,1702.473667,842.705048
2947.443579,-11029.068536,962.267725,919.314598
2947.443917,-9474.636058,740.205942,766.095498
2947.444255,-8882.471304,592.164754,1838.629195
2947.444592,-9178.553681,296.082377,1838.629195
2947.444930,-10288.862594,1924.535449,842.705048
2947.445267,-10584.944971,2368.659014,229.828649
2947.445605,-10436.903782,1406.391290,-1072.533697
2947.445943,-9918.759623,-666.185348,-1762.019645
2947.446280,-10658.965565,-296.082377,-1455.581446
2947.446618,-8660.409521,-962.267725,-2068.457845
2947.446955,-8660.409521,-1776.494261,-919.314598
2947.447293,-8438.347739,-3256.906145,-383.047749
2947.447631,-9622.677246,-1776.494261,383.047749
2947.447968,-10288.862594,-666.185348,919.314598
2947.448306,-10362.883188,-444.123565,229.828649
2947.448643,-11103.089130,-1480.411884,-536.266849
2947.448981,-12139.377449,-2072.576638,-689.485948
2947.449319,-10955.047942,-1850.514855,-919.314598
2947.449656,-9030.512492,-2516.700203,0.000000
2947.449994,-8956.491898,-2294.638420,2451.505594
2947.450331,-9474.636058,-1480.411884,2221.676944
2947.450669,-10288.862594,814.226536,1608.800546
2947.451007,-10807.006753,1628.453072,612.876398
2947.451344,-11917.315666,666.185348,-919.314598
2947.451682,-11843.295072,74.020594,-689.485948
2947.452019,-11547.212695,370.102971,-229.828649
2947.452357,-9178.553681,74.020594,-383.047749
2947.452695,-8216.285956,-1258.350101,766.095498
2947.453032,-8956.491898,-518.144159,1225.752797
2947.453370,-10658.965565,0.000000,766.095498
2947.453707,-9918.759623,1332.370696,-76.609550
2947.454045,-9622.677246,296.082377,-1225.752797
2947.454383,-10140.821405,-592.164754,-612.876398
2947.454720,-10436.903782,-1702.473667,-612.876398
2947.455058,-8438.347739,-1036.288319,-459.657299
2947.455395,-7772.162391,-1406.391290,612.876398
2947.455733,-8512.368333,-518.144159,1302.362347
2947.456071,-10881.027347,0.000000,3064.381992
2947.456408,-11103.089130,1554.432478,2374.896044
2947.456746,-10955.047942,1702.473667,1455.581446
2947.457083,-11917.315666,222.061783,1838.629195
2947.457421,-11621.233289,0.000000,383.047749
2947.457759,-9326.594869,-592.164754,612.876398
2947.458096,-9474.636058,-370.102971,1762.019645
2947.458434,-8660.409521,-814.226536,306.438199
2947.458771,-10066.800811,222.061783,76.609550
2947.459109,-10362.883188,1036.288319,536.266849
2947.459447,-10140.821405,1332.370696,-536.266849
2947.459784,-11843.295072,148.041188,-1072.533697
2947.460122,-11843.295072,-296.082377,-1608.800546
2947.460459,-9918.759623,-1110.308913,-2834.553343
2947.460797,-8586.388927,-2072.576638,-2145.067394
2947.461135,-7772.162391,-3256.906145,-689.485948
2947.461472,-8586.388927,-3330.926739,612.876398
2947.461810,-9992.780217,-1924.535449,1072.533697
2947.462147,-10362.883188,-888.247130,229.828649
2947.462485,-11325.150913,-518.144159,-689.485948
2947.462823,-11769.274478,-2220.617826,-1225.752797
2947.463160,-10807.006753,-1480.411884,-153.219100
2947.463498,-8438.347739,-2072.576638,689.485948
2947.463835,-8438.347739,-1924.535449,2221.676944
2947.464173,-9326.594869,-1480.411884,2987.772442
2947.464511,-10807.006753,296.082377,3370.820191
2947.464848,-10881.027347,2886.803174,1225.752797
2947.465186,-12287.418637,2368.659014,306.438199
2947.465523,-12435.459826,2368.659014,-306.438199
2947.465861,-11325.150913,740.205942,-536.266849
2947.466199,-9770.718434,1184.329507,0.000000
2947.466536,-8290.306550,148.041188,0.000000
2947.466874,-8290.306550,296.082377,0.000000
2947.467211,-9992.780217,666.185348,766.095498
2947.467549,-9696.697840,1628.453072,0.000000
2947.467887,-9918.759623,1628.453072,0.000000
2947.468224,-10288.862594,518.144159,-766.095498
2947.468562,-10214.842000,-740.205942,-1378.971896
2947.468899,-9474.636058,-666.185348,-1302.362347
2947.469237,-8660.409521,-2368.659014,-612.876398
2947.469575,-8216.285956,-2146.597232,536.266849
2947.469912,-8734.430116,-2220.617826,1532.190996
2947.470250,-9252.574275,-1702.473667,1072.533697
2947.470587,-9844.739029,-1110.308913,1302.362347
2947.470925,-11843.295072,-814.226536,995.924147
2947.471263,-11769.274478,-444.123565,306.438199
2947.471600,-10140.821405,-962.267725,383.047749
2947.471938,-9548.656652,-1406.391290,1455.581446
2947.472275,-9770.718434,-1998.556043,766.095498
2947.472613,-10436.903782,-1850.514855,1915.238745
2947.472951,-9844.739029,-148.041188,1072.533697
2947.473288,-10732.986159,296.082377,842.705048
2947.473626,-11843.295072,74.020594,-766.095498
2947.473963,-11695.253884,-370.102971,-2221.676944
2947.474301,-11251.130318,-1258.350101,-2221.676944
2947.474639,-9474.636058,-1702.473667,-1149.143247
2947.474976,-9104.533087,-1406.391290,-383.047749
2947.475314,-9178.553681,-2220.617826,0.000000
2947.475651,-9548.656652,-962.267725,0.000000
2947.475989,-9844.739029,-1110.308913,689.485948
2947.476327,-10140.821405,-296.082377,689.485948
2947.476664,-10510.924376,148.041188,0.000000
2947.477002,-11547.212695,-1036.288319,-612.876398
2947.477339,-9400.615463,-1110.308913,-612.876398
2947.477677,-8734.430116,-1406.391290,0.000000
2947.478015,-8882.471304,-1110.308913,1991.848295
2947.478352,-9030.512492,444.123565,1991.848295
2947.478690,-9252.574275,1554.432478,2145.067394
2947.479027,-10807.006753,2368.659014,1149.143247
2947.479365,-11103.089130,2812.782580,459.657299
2947.479703,-12139.377449,2368.659014,0.000000
2947.480040,-10288.862594,1554.432478,-766.095498
2947.480378,-9696.697840,1110.308913,-459.657299
2947.480715,-9178.553681,74.020594,459.657299
2947.481053,-9696.697840,370.102971,842.705048
2947.481391,-9030.512492,666.185348,306.438199
2947.481728,-10436.903782,888.247130,229.828649
2947.482066,-10807.006753,518.144159,-1378.971896
2947.482403,-11621.233289,-370.102971,-2068.457845
2947.482741,-10584.944971,-1258.350101,-1455.581446
2947.483079,-8882.471304,-2072.576638,-919.314598
2947.483416,-8660.409521,-2368.659014,612.876398
2947.483754,-9548.656652,-1776.494261,1225.752797
2947.484091,-9844.739029,-740.205942,842.705048
2947.484429,-10436.903782,-592.164754,612.876398
2947.484767,-11843.295072,-1258.350101,766.095498
2947.485104,-11917.315666,-1480.411884,766.095498
2947.485442,-10362.883188,-962.267725,0.000000
2947.485779,-8956.491898,-1110.308913,1225.752797
2947.486117,-8660.409521,-1184.329507,612.876398
2947.486455,-9400.615463,-1628.453072,1991.848295
2947.486792,-10214.842000,518.144159,2681.334243
2947.487130,-10436.903782,592.164754,1225.752797
2947.487467,-11251.130318,888.247130,0.000000
2947.487805,-10955.047942,1036.288319,-306.438199
2947.488143,-10214.842000,518.144159,-1378.971896
2947.488480,-9030.512492,-370.102971,-76.609550
2947.488818,-9178.553681,-1406.391290,0.000000
2947.489155,-8882.471304,-444.123565,-229.828649
2947.489493,-10584.944971,-888.247130,-689.485948
2947.489830,-10214.842000,-148.041188,229.828649
2947.490168,-9696.697840,-592.164754,306.438199
2947.490506,-10288.862594,740.205942,689.485948
2947.490843,-11399.171507,592.164754,-306.438199
2947.491181,-9474.636058,0.000000,-689.485948
2947.491518,-9252.574275,-962.267725,-76.609550
2947.491856,-9474.636058,-1480.411884,995.924147
2947.492194,-10140.821405,148.041188,2451.505594
2947.492531,-9474.636058,740.205942,1532.190996
2947.492869,-10362.883188,0.000000,1072.533697
2947.493206,-10510.924376,444.123565,689.485948
2947.493544,-11325.150913,222.061783,306.438199
2947.493882,-10436.903782,-444.123565,383.047749
2947.494219,-9178.553681,-1480.411884,-536.266849
2947.494557,-9030.512492,-1110.308913,766.095498
2947.494894,-9918.759623,-1480.411884,383.047749
2947.495232,-8438.347739,-740.205942,-306.438199
2947.495570,-9622.677246,-740.205942,-612.876398
2947.495907,-10436.903782,-1110.308913,-229.828649
2947.496245,-11473.192101,-1036.288319,-919.314598
2947.496582,-10732.986159,-1776.494261,-1532.190996
2947.496920,-9622.677246,-2516.700203,-995.924147
2947.497258,-8882.471304,-2812.782580,-612.876398
2947.497595,-9770.718434,-2442.679609,229.828649
2947.497933,-10066.800811,-814.226536,0.000000
2947.498270,-10214.842000,-1776.494261,153.219100
2947.498608,-10066.800811,-1554.432478,612.876398
2947.498946,-11177.109724,0.000000,1685.410096
2947.499283,-11695.253884,444.123565,1685.410096
2947.499621,-10807.006753,148.041188,1455.581446
2947.499958,-10362.883188,-296.082377,995.924147
2947.500296,-10362.883188,0.000000,1838.629195
2947.500634,-10140.821405,296.082377,2528.115143
2947.500971,-9400.615463,1628.453072,1685.410096
2947.501309,-9400.615463,1406.391290,536.266849
2947.501646,-10584.944971,2072.576638,536.266849
2947.501984,-10584.944971,1110.308913,-1225.752797
2947.502322,-9474.636058,1258.350101,-1302.362347
2947.502659,-9030.512492,148.041188,-459.657299
2947.502997,-8290.306550,0.000000,-306.438199
2947.503334,-9474.636058,518.144159,-612.876398
2947.503672,-8364.327145,222.061783,0.000000
2947.504010,-8512.368333,-222.061783,229.828649
2947.504347,-9992.780217,-592.164754,459.657299
2947.504685,-11399.171507,-74.020594,536.266849
2947.505022,-10214.842000,0.000000,-1225.752797
2947.505360,-9696.697840,-1184.329507,-919.314598
2947.505698,-9400.615463,-1110.308913,0.000000
2947.506035,-10066.800811,-962.267725,306.438199
2947.506373,-9178.553681,74.020594,766.095498
2947.506710,-10214.842000,0.000000,612.876398
2947.507048,-11547.212695,0.000000,1455.581446
2947.507386,-12361.439231,444.123565,612.876398
2947.507723,-11251.130318,814.226536,459.657299
2947.508061,-10584.944971,-518.144159,459.657299
2947.508398,-9696.697840,-962.267725,612.876398
2947.508736,-10288.862594,-592.164754,153.219100
2947.509074,-9474.636058,0.000000,-536.266849
2947.509411,-9918.759623,-222.061783,0.000000
2947.509749,-10214.842000,-1332.370696,-1762.019645
2947.510086,-10584.944971,-666.185348,-1225.752797
2947.510424,-9326.594869,-296.082377,-995.924147
2947.510762,-8734.430116,-1258.350101,-995.924147
2947.511099,-8734.430116,-1850.514855,153.219100
2947.511437,-9918.759623,-1850.514855,919.314598
2947.511774,-10214.842000,-370.102971,1072.533697
2947.512112,-9548.656652,74.020594,842.705048
2947.512450,-9992.780217,-962.267725,919.314598
2947.512787,-10584.944971,-592.164754,1991.848295
2947.513125,-10510.924376,0.000000,1991.848295
2947.513462,-9178.553681,518.144159,1838.629195
2947.513800,-9548.656652,-740.205942,1838.629195
2947.514138,-10288.862594,518.144159,2068.457845
2947.514475,-10955.047942,1776.494261,1302.362347
2947.514813,-10066.800811,1998.556043,1455.581446
2947.515150,-10732.986159,1628.453072,1302.362347
2947.515488,-11029.068536,1924.535449,1532.190996
2947.515826,-11399.171507,2886.803174,229.828649
2947.516163,-10288.862594,1924.535449,-383.047749
2947.516501,-10658.965565,666.185348,-383.047749
2947.516838,-9622.677246,-888.247130,-459.657299
2947.517176,-9474.636058,-1110.308913,-689.485948
2947.517514,-8290.306550,-518.144159,-689.485948
2947.517851,-8142.265362,-1110.308913,-1532.190996
2947.518189,-9252.574275,-1554.432478,-766.095498
2947.518526,-11029.068536,-1850.514855,-612.876398
2947.518864,-9844.739029,-1184.329507,-536.266849
2947.519202,-9696.697840,-1554.432478,-383.047749
2947.519539,-9326.594869,-2220.617826,-459.657299
2947.519877,-9474.636058,-2368.659014,0.000000
2947.520214,-8808.450710,-1998.556043,536.266849
2947.520552,-10140.821405,-1628.453072,1225.752797
2947.520890,-10955.047942,-1776.494261,689.485948
2947.521227,-11399.171507,-1480.411884,1378.971896
2947.521565,-10436.903782,-296.082377,306.438199
2947.521902,-9770.718434,0.000000,842.705048
2947.522240,-10362.883188,74.020594,1225.752797
2947.522578,-9918.759623,0.000000,383.047749
2947.522915,-10658.965565,444.123565,459.657299
2947.523253,-10362.883188,666.185348,229.828649
2947.523590,-10510.924376,74.020594,0.000000
2947.523928,-10510.924376,222.061783,229.828649
2947.524266,-10362.883188,222.061783,0.000000
2947.524603,-9770.718434,222.061783,0.000000
2947.524941,-10140.821405,0.000000,-689.485948
2947.525278,-9400.615463,-1332.370696,0.000000
2947.525616,-9844.739029,-962.267725,536.266849
2947.525954,-8438.347739,74.020594,766.095498
2947.526291,-9252.574275,296.082377,383.047749
2947.526629,-9548.656652,444.123565,0.000000
2947.526966,-9992.780217,740.205942,306.438199
2947.527304,-9696.697840,444.123565,842.705048
2947.527642,-9918.759623,1184.329507,1149.143247
2947.527979,-10510.924376,0.000000,2451.505594
2947.528317,-11251.130318,518.144159,1838.629195
2947.528654,-8734.430116,1036.288319,1225.752797
2947.528992,-10436.903782,962.267725,2068.457845
2947.529330,-10658.965565,74.020594,1378.971896
2947.529667,-10288.862594,0.000000,0.000000
2947.530005,-10510.924376,1850.514855,-153.219100
2947.530342,-9844.739029,814.226536,-1302.362347
2947.530680,-9696.697840,666.185348,-612.876398
2947.531018,-11325.150913,-370.102971,-995.924147
2947.531355,-10140.821405,-222.061783,-1225.752797
2947.531693,-9400.615463,-592.164754,-689.485948
2947.532030,-9548.656652,-1850.514855,-919.314598
2947.532368,-10807.006753,-2368.659014,153.219100
2947.532706,-9844.739029,-2664.741391,-306.438199
2947.533043,-9104.533087,-1554.432478,-383.047749
2947.533381,-9326.594869,-3108.864956,459.657299
2947.533718,-9622.677246,-2146.597232,766.095498
2947.534056,-9548.656652,-1776.494261,0.000000
2947.534394,-10658.965565,-1480.411884,1225.752797
2947.534731,-10214.842000,-962.267725,1149.143247
2947.535069,-10732.986159,-518.144159,1532.190996
2947.535406,-11103.089130,-370.102971,1915.238745
2947.535744,-9252.574275,888.247130,919.314598
2947.536082,-9918.759623,-296.082377,2068.457845
2947.536419,-10362.883188,592.164754,1455.581446
2947.536757,-10140.821405,814.226536,766.095498
2947.537094,-10362.883188,1628.453072,842.705048
2947.537432,-9992.780217,962.267725,-1149.143247
2947.537770,-10288.862594,1184.329507,-612.876398
2947.538107,-10881.027347,296.082377,0.000000
2947.538445,-8882.471304,296.082377,-842.705048
2947.538782,-8438.347739,1036.288319,-1302.362347
2947.539120,-9844.739029,0.000000,-995.924147
2947.539458,-9696.697840,888.247130,-306.438199
2947.539795,-10214.842000,-666.185348,-689.485948
2947.540133,-10140.821405,74.020594,76.609550
2947.540470,-9770.718434,-814.226536,-536.266849
2947.540808,-10066.800811,-1480.411884,0.000000
2947.541146,-9104.533087,-1036.288319,1378.971896
2947.541483,-8660.409521,-1184.329507,1225.752797
2947.541821,-9474.636058,0.000000,2145.067394
2947.542158,-11029.068536,-592.164754,919.314598
2947.542495,-10140.821405,888.247130,383.047749
2947.542833,-10214.842000,148.041188,0.000000
2947.543170,-10436.903782,666.185348,459.657299
2947.543508,-10510.924376,-222.061783,612.876398
2947.543845,-9918.759623,0.000000,229.828649
2947.544182,-8882.471304,148.041188,-306.438199
2947.544520,-9474.636058,222.061783,306.438199
2947.544857,-11991.336260,1036.288319,153.219100
2947.545195,-11399.171507,0.000000,-1302.362347
2947.545532,-11177.109724,0.000000,-1532.190996
2947.545869,-9770.718434,-1258.350101,-1072.533697
2947.546207,-10140.821405,-1480.411884,536.266849
2947.546544,-9178.553681,-1702.473667,995.924147
2947.546882,-9252.574275,-1036.288319,383.047749
2947.547219,-9992.780217,-592.164754,1072.533697
2947.547556,-11251.130318,0.000000,0.000000
2947.547894,-10881.027347,-592.164754,76.609550
2947.548231,-9844.739029,0.000000,-383.047749
2947.548569,-8512.368333,-740.205942,0.000000
2947.548906,-9844.739029,148.041188,1532.190996
2947.549244,-9474.636058,-740.205942,1838.629195
2947.549581,-9030.512492,222.061783,2145.067394
2947.549918,-9474.636058,740.205942,2757.943793
2947.550256,-10362.883188,518.144159,2145.067394
2947.550593,-11251.130318,1480.411884,2068.457845
2947.550931,-10066.800811,1184.329507,459.657299
2947.551268,-9252.574275,1480.411884,-76.609550
2947.551605,-10436.903782,296.082377,153.219100
2947.551943,-11251.130318,518.144159,-995.924147
2947.552280,-9400.615463,0.000000,-2145.067394
2947.552618,-9326.594869,-296.082377,-1302.362347
2947.552955,-9178.553681,-592.164754,-919.314598
2947.553292,-10214.842000,-1332.370696,-766.095498
2947.553630,-9844.739029,-740.205942,-536.266849
2947.553967,-10140.821405,-1850.514855,-536.266849
2947.554305,-11103.089130,-1554.432478,306.438199
2947.554642,-11029.068536,-2294.638420,612.876398
2947.554979,-10214.842000,-1406.391290,536.266849
2947.555317,-9474.636058,-2072.576638,612.876398
2947.555654,-9548.656652,-1332.370696,612.876398
2947.555992,-10140.821405,-1332.370696,1762.019645
2947.556329,-10510.924376,0.000000,919.314598
2947.556666,-10288.862594,-74.020594,-383.047749
2947.557004,-10510.924376,-296.082377,-536.266849
2947.557341,-10732.986159,-296.082377,76.609550
2947.557679,-9844.739029,0.000000,306.438199
2947.558016,-8586.388927,0.000000,689.485948
2947.558354,-8512.368333,74.020594,1378.971896
2947.558691,-10881.027347,296.082377,2068.457845
2947.559028,-11177.109724,1554.432478,229.828649
2947.559366,-10732.986159,962.267725,-919.314598
2947.559703,-10288.862594,0.000000,-766.095498
2947.560041,-10362.883188,-148.041188,-919.314598
2947.560378,-9770.718434,-592.164754,-1302.362347
2947.560715,-8660.409521,-592.164754,-612.876398
2947.561053,-8216.285956,-1480.411884,-536.266849
2947.561390,-9326.594869,-296.082377,842.705048
2947.561728,-10214.842000,148.041188,766.095498
2947.562065,-10288.862594,1110.308913,383.047749
2947.562402,-9770.718434,0.000000,0.000000
2947.562740,-10658.965565,-518.144159,1455.581446
2947.563077,-10732.986159,-370.102971,1685.410096
2947.563415,-9548.656652,-296.082377,1072.533697
2947.563752,-9252.574275,0.000000,1302.362347
2947.564089,-9918.759623,148.041188,1991.848295
2947.564427,-11325.150913,888.247130,1302.362347
2947.564764,-9992.780217,962.267725,76.609550
2947.565102,-10288.862594,74.020594,-689.485948
2947.565439,-10436.903782,-370.102971,-689.485948
2947.565776,-11177.109724,-592.164754,-612.876398
2947.566114,-8734.430116,0.000000,-1532.190996
2947.566451,-8438.347739,-1110.308913,-1072.533697
2947.566789,-9696.697840,-740.205942,229.828649
2947.567126,-10955.047942,-222.061783,0.000000
2947.567464,-10955.047942,0.000000,-766.095498
2947.567801,-10658.965565,-814.226536,-995.924147
2947.568138,-10658.965565,-1776.494261,-459.657299
2947.568476,-11177.109724,-1776.494261,0.000000
2947.568813,-9992.780217,-1702.473667,536.266849
2947.569151,-7994.224174,-1480.411884,76.609550
2947.569488,-8512.368333,-1998.556043,1838.629195
2947.569825,-11473.192101,-222.061783,2987.772442
2947.570163,-10807.006753,1480.411884,1225.752797
2947.570500,-10288.862594,1258.350101,306.438199
2947.570838,-10436.903782,444.123565,1378.971896
2947.571175,-10732.986159,370.102971,1072.533697
2947.571512,-9548.656652,888.247130,1378.971896
2947.571850,-8808.450710,592.164754,919.314598
2947.572187,-8660.409521,740.205942,2068.457845
2947.572525,-10584.944971,2146.597232,1915.238745
2947.572862,-10881.027347,1776.494261,0.000000
2947.573199,-9918.759623,1998.556043,-229.828649
2947.573537,-10362.883188,592.164754,-383.047749
2947.573874,-11103.089130,370.102971,0.000000
2947.574212,-9400.615463,0.000000,-1532.190996
2947.574549,-8364.327145,0.000000,-612.876398
2947.574886,-8808.450710,-1628.453072,76.609550
2947.575224,-9696.697840,-1332.370696,1225.752797
2947.575561,-10881.027347,0.000000,1072.533697
2947.575899,-10732.986159,592.164754,383.047749
2947.576236,-11177.109724,-518.144159,-1302.362347
2947.576573,-11621.233289,-1332.370696,-689.485948
2947.576911,-10584.944971,-1924.535449,0.000000
2947.577248,-8142.265362,-1850.514855,76.609550
2947.577586,-8438.347739,-2738.761985,1455.581446
2947.577923,-8882.471304,-888.247130,2068.457845
2947.578261,-11103.089130,0.000000,1225.752797
2947.578598,-10658.965565,518.144159,229.828649
2947.578935,-11399.171507,0.000000,383.047749
2947.579273,-11547.212695,-666.185348,1149.143247
2947.579610,-11103.089130,-370.102971,0.000000
2947.579948,-8734.430116,-1110.308913,-842.705048
2947.580285,-9178.553681,-1554.432478,-306.438199
2947.580622,-9474.636058,-2072.576638,0.000000
2947.580960,-9918.759623,-74.020594,-1149.143247
2947.581297,-9030.512492,814.226536,-1991.848295
2947.581635,-9918.759623,0.000000,-2604.724693
2947.581972,-10214.842000,-1184.329507,-1762.019645
2947.582309,-11325.150913,-1332.370696,-842.705048
2947.582647,-10066.800811,-1480.411884,536.266849
2947.582984,-9326.594869,-1480.411884,459.657299
2947.583322,-8808.450710,-1480.411884,2145.067394
2947.583659,-10140.821405,-1850.514855,3983.696590
2947.583996,-9918.759623,-222.061783,3677.258390
2947.584334,-9622.677246,1110.308913,2757.943793
2947.584671,-11917.315666,518.144159,2145.067394
2947.585009,-12583.501014,1924.535449,0.000000
2947.585346,-9992.780217,1036.288319,-1302.362347
2947.585683,-8660.409521,1184.329507,229.828649
2947.586021,-7624.121203,0.000000,1608.800546
2947.586358,-9400.615463,1036.288319,1685.410096
2947.586696,-9696.697840,2368.659014,-612.876398
2947.587033,-10510.924376,2146.597232,-766.095498
2947.587371,-11917.315666,962.267725,-459.657299
2947.587708,-11621.233289,-222.061783,-919.314598
2947.588045,-9992.780217,-592.164754,-689.485948
2947.588383,-8364.327145,-814.226536,-766.095498
2947.588720,-8216.285956,-2442.679609,-766.095498
2947.589058,-9252.574275,-1628.453072,536.266849
2947.589395,-10732.986159,-888.247130,536.266849
2947.589732,-10436.903782,296.082377,-919.314598
2947.590070,-11325.150913,-444.123565,-1762.019645
2947.590407,-11103.089130,-1184.329507,-1149.143247
2947.590745,-10955.047942,-2294.638420,-306.438199
2947.591082,-8956.491898,-2220.617826,459.657299
2947.591419,-8142.265362,-2368.659014,612.876398
2947.591757,-9918.759623,-1480.411884,2068.457845
2947.592094,-11843.295072,0.000000,1685.410096
2947.592432,-10732.986159,518.144159,229.828649
2947.592769,-10732.986159,592.164754,1072.533697
2947.593106,-11177.109724,148.041188,842.705048
2947.593444,-11177.109724,0.000000,-306.438199
2947.593781,-8808.450710,0.000000,-536.266849
2947.594119,-8956.491898,-1110.308913,-383.047749
2947.594456,-9252.574275,-962.267725,766.095498
2947.594793,-9548.656652,-370.102971,153.219100
2947.595131,-9474.636058,2072.576638,-229.828649
2947.595468,-10066.800811,592.164754,-842.705048
2947.595806,-10140.821405,888.247130,-1378.971896
2947.596143,-10881.027347,-1554.432478,0.000000
2947.596481,-10658.965565,-1480.411884,383.047749
2947.596818,-8734.430116,-2072.576638,612.876398
2947.597155,-8734.430116,-1406.391290,1455.581446
2947.597493,-9474.636058,-1332.370696,3294.210641
2947.597830,-8808.450710,0.000000,1225.752797
2947.598168,-9992.780217,814.226536,2068.457845
2947.598505,-11399.171507,1332.370696,1225.752797
2947.598842,-12287.418637,222.061783,612.876398
2947.599180,-11621.233289,518.144159,0.000000
2947.599517,-8956.491898,0.000000,-459.657299
2947.599855,-8364.327145,-962.267725,1225.752797
2947.600192,-8882.471304,-518.144159,2681.334243
2947.600529,-9622.677246,0.000000,1532.190996
2947.600867,-10288.862594,888.247130,536.266849
2947.601204,-11029.068536,666.185348,-459.657299
2947.601542,-11399.171507,592.164754,-612.876398
2947.601879,-11843.295072,-296.082377,-1149.143247
2947.602216,-9918.759623,-296.082377,-1838.629195
2947.602554,-8660.409521,-1628.453072,-1762.019645
2947.602891,-8512.368333,-2146.597232,-612.876398
2947.603229,-9400.615463,-1480.411884,459.657299
2947.603566,-9770.718434,-444.123565,-383.047749
2947.603903,-10732.986159,-740.205942,-919.314598
2947.604241,-11547.212695,-962.267725,-612.876398
2947.604578,-11695.253884,-1480.411884,-306.438199
2947.604916,-9400.615463,-1258.350101,0.000000
2947.605253,-8364.327145,-2072.576638,995.924147
2947.605591,-9030.512492,-1554.432478,2374.896044
2947.605928,-10881.027347,-296.082377,2528.115143
2947.606265,-10807.006753,1406.391290,1762.019645
2947.606603,-10510.924376,1554.432478,1455.581446
2947.606940,-10955.047942,1998.556043,1149.143247
2947.607278,-12361.439231,1184.329507,919.314598
2947.607615,-10066.800811,962.267725,-919.314598
2947.607952,-8512.368333,296.082377,-306.438199
2947.608290,-8068.244768,0.000000,306.438199
2947.608627,-9030.512492,0.000000,536.266849
2947.608965,-9918.759623,888.247130,-536.266849
2947.609302,-9770.718434,1554.432478,-1072.533697
2947.609639,-9844.739029,1184.329507,-536.266849
2947.609977,-11547.212695,-74.020594,153.219100
2947.610314,-10140.821405,-1702.473667,-612.876398
2947.610652,-9400.615463,-1702.473667,229.828649
2947.610989,-8808.450710,-1850.514855,1072.533697
2947.611326,-9474.636058,-2368.659014,1685.410096
2947.611664,-9548.656652,-1554.432478,2145.067394
2947.612001,-9622.677246,-1332.370696,1149.143247
2947.612339,-10732.986159,-518.144159,459.657299
2947.612676,-11769.274478,-518.144159,153.219100
2947.613013,-11843.295072,-666.185348,-459.657299
2947.613351,-10214.842000,-1554.432478,-842.705048
2947.613688,-9104.533087,-1036.288319,-229.828649
2947.614026,-9104.533087,-1258.350101,1378.971896
2947.614363,-9992.780217,-1332.370696,1915.238745
2947.614700,-9474.636058,0.000000,1455.581446
2947.615038,-10436.903782,74.020594,536.266849
2947.615375,-11917.315666,-370.102971,612.876398
2947.615713,-12213.398043,74.020594,-1072.533697
2947.616050,-10955.047942,-1702.473667,-1302.362347
2947.616388,-8142.265362,-1258.350101,-2221.676944
2947.616725,-7402.059420,-2368.659014,-842.705048
2947.617062,-9178.553681,-1850.514855,0.000000
2947.617400,-8142.265362,-814.226536,-995.924147
2947.617737,-9992.780217,-74.020594,-919.314598
2947.618075,-11325.150913,296.082377,0.000000
2947.618412,-11695.253884,0.000000,-383.047749
2947.618749,-10658.965565,-444.123565,536.266849
2947.619087,-9326.594869,-1480.411884,1378.971896
2947.619424,-8290.306550,-666.185348,2068.457845
2947.619762,-9770.718434,-518.144159,2604.724693
2947.620099,-9696.697840,1036.288319,2145.067394
2947.620436,-10362.883188,1628.453072,919.314598
2947.620774,-10955.047942,2442.679609,76.609550
2947.621111,-11399.171507,2442.679609,0.000000
2947.621449,-10362.883188,1406.391290,-842.705048
2947.621786,-9548.656652,1258.350101,0.000000
2947.622123,-8512.368333,592.164754,229.828649
2947.622461,-9918.759623,1554.432478,0.000000
2947.622798,-10066.800811,962.267725,229.828649
2947.623136,-10214.842000,1110.308913,-842.705048
2947.623473,-10288.862594,518.144159,-612.876398
2947.623810,-11103.089130,296.082377,0.000000
2947.624148,-10362.883188,-1036.288319,-2145.067394
2947.624485,-9104.533087,-1850.514855,-1685.410096
2947.624823,-8512.368333,-2368.659014,-153.219100
2947.625160,-9400.615463,-2442.679609,766.095498
2947.625498,-9770.718434,-1924.535449,766.095498
2947.625835,-9548.656652,-814.226536,459.657299
2947.626172,-10732.986159,-1406.391290,995.924147
2947.626510,-11325.150913,-1036.288319,995.924147
2947.626847,-11029.068536,-740.205942,842.705048
2947.627185,-10362.883188,-962.267725,1149.143247
2947.627522,-9400.615463,-1184.329507,1072.533697
2947.627859,-9548.656652,-1554.432478,2221.676944
2947.628197,-10436.903782,-222.061783,1685.410096
2947.628534,-9622.677246,444.123565,919.314598
2947.628872,-10510.924376,1332.370696,1149.143247
2947.629209,-11029.068536,962.267725,0.000000
2947.629546,-11547.212695,1036.288319,0.000000
2947.629884,-10140.821405,148.041188,-612.876398
2947.630221,-9474.636058,-370.102971,-919.314598
2947.630559,-9326.594869,74.020594,76.609550
2947.630896,-10288.862594,-1036.288319,383.047749
2947.631233,-9252.574275,0.000000,-383.047749
2947.631571,-9696.697840,-296.082377,-229.828649
2947.631908,-9770.718434,74.020594,306.438199
2947.632246,-10510.924376,0.000000,0.000000
2947.632583,-10140.821405,-592.164754,-459.657299
2947.632920,-8660.409521,-1702.473667,-536.266849
2947.633258,-7772.162391,-1332.370696,1225.752797
2947.633595,-9770.718434,-370.102971,2068.457845
2947.633933,-9696.697840,0.000000,1225.752797
2947.634270,-9474.636058,814.226536,0.000000
2947.634608,-10214.842000,370.102971,1072.533697
2947.634945,-11695.253884,592.164754,1225.752797
2947.635282,-10807.006753,222.061783,766.095498
2947.635620,-10732.986159,0.000000,0.000000
2947.635957,-9474.636058,-1110.308913,536.266849
2947.636295,-10288.862594,296.082377,-76.609550
2947.636632,-9770.718434,-370.102971,-689.485948
2947.636969,-9252.574275,-592.164754,-459.657299
2947.637307,-9770.718434,-888.247130,0.000000
2947.637644,-11103.089130,-222.061783,76.609550
2947.637982,-11251.130318,-444.123565,-229.828649
2947.638319,-11029.068536,-962.267725,-995.924147
2947.638656,-10436.903782,-2664.741391,-1378.971896
2947.638994,-10362.883188,-2960.823768,-229.828649
2947.639331,-9474.636058,-2368.659014,0.000000
2947.639669,-8660.409521,-1850.514855,536.266849
2947.640006,-8808.450710,-1332.370696,459.657299
2947.640343,-10288.862594,-1554.432478,1149.143247
2947.640681,-11769.274478,-666.185348,1455.581446
2947.641018,-9992.780217,-518.144159,383.047749
2947.641356,-8956.491898,-814.226536,766.095498
2947.641693,-9030.512492,-148.041188,1915.238745
2947.642030,-9844.739029,0.000000,1838.629195
2947.642368,-9844.739029,1258.350101,1608.800546
2947.642705,-10584.944971,1184.329507,1072.533697
2947.643043,-10955.047942,1776.494261,1225.752797
2947.643380,-11547.212695,2146.597232,689.485948
2947.643717,-10140.821405,1924.535449,-536.266849
2947.644054,-8882.471304,370.102971,-842.705048
2947.644392,-8586.388927,74.020594,306.438199
2947.644729,-9696.697840,592.164754,612.876398
2947.645066,-9326.594869,1850.514855,-689.485948
2947.645403,-9770.718434,1924.535449,-1225.752797
2947.645741,-11029.068536,1110.308913,-229.828649
2947.646078,-11917.315666,666.185348,0.000000
2947.646415,-10658.965565,518.144159,153.219100
2947.646752,-9770.718434,-222.061783,229.828649
2947.647090,-9030.512492,-2146.597232,612.876398
2947.647427,-9992.780217,-1850.514855,1378.971896
2947.647764,-9326.594869,-1258.350101,1149.143247
2947.648102,-8734.430116,-666.185348,536.266849
2947.648439,-9400.615463,-666.185348,689.485948
2947.648776,-11547.212695,0.000000,612.876398
2947.649113,-11177.109724,814.226536,-76.609550
2947.649451,-9548.656652,888.247130,-766.095498
2947.649788,-9400.615463,-666.185348,306.438199
2947.650125,-10362.883188,-888.247130,1072.533697
2947.650462,-10510.924376,-518.144159,-153.219100
2947.650800,-9252.574275,-518.144159,-1225.752797
2947.651137,-9474.636058,-962.267725,-459.657299
2947.651474,-11103.089130,-1184.329507,459.657299
2947.651811,-11399.171507,-222.061783,-1302.362347
2947.652149,-9992.780217,-148.041188,-2451.505594
2947.652486,-9548.656652,-1406.391290,-919.314598
2947.652823,-10066.800811,-2738.761985,459.657299
2947.653160,-10288.862594,-1554.432478,919.314598
2947.653498,-9400.615463,-888.247130,766.095498
2947.653835,-10140.821405,-1258.350101,689.485948
2947.654172,-10732.986159,-888.247130,689.485948
2947.654510,-11177.109724,0.000000,1685.410096
2947.654847,-9770.718434,296.082377,1455.581446
2947.655184,-9844.739029,-370.102971,1149.143247
2947.655521,-10658.965565,-592.164754,1532.190996
2947.655859,-10214.842000,370.102971,1991.848295
2947.656196,-8956.491898,592.164754,1302.362347
2947.656533,-8660.409521,1110.308913,1225.752797
2947.656870,-9178.553681,1554.432478,1072.533697
2947.657208,-11177.109724,1480.411884,766.095498
2947.657545,-10214.842000,1480.411884,-306.438199
2947.657882,-9178.553681,1110.308913,-766.095498
2947.658219,-9474.636058,-74.020594,76.609550
2947.658557,-10362.883188,-814.226536,536.266849
2947.658894,-9030.512492,0.000000,-153.219100
2947.659231,-9400.615463,0.000000,-995.924147
2947.659569,-9770.718434,-888.247130,-919.314598
2947.659906,-10584.944971,-1184.329507,-995.924147
2947.660243,-9844.739029,-1184.329507,-536.266849
2947.660580,-9844.739029,-1110.308913,0.000000
2947.660918,-9992.780217,-1554.432478,0.000000
2947.661255,-10510.924376,-1628.453072,459.657299
2947.661592,-10584.944971,-1258.350101,76.609550
2947.661929,-10436.903782,-888.247130,459.657299
2947.662267,-10066.800811,-1184.329507,1455.581446
2947.662604,-12213.398043,-666.185348,2604.724693
2947.662941,-10955.047942,296.082377,0.000000
2947.663278,-9548.656652,222.061783,0.000000
2947.663616,-9918.759623,-518.144159,689.485948
2947.663953,-10510.924376,-370.102971,766.095498
2947.664290,-10510.924376,296.082377,995.924147
2947.664628,-8808.450710,1554.432478,689.485948
2947.664965,-9918.759623,518.144159,0.000000
2947.665302,-10584.944971,0.000000,0.000000
2947.665639,-10436.903782,222.061783,-612.876398
2947.665977,-8586.388927,0.000000,229.828649
2947.666314,-9252.574275,-296.082377,689.485948
2947.666651,-9400.615463,74.020594,0.000000
2947.666988,-10214.842000,-74.020594,-229.828649
2947.667326,-9474.636058,0.000000,0.000000
2947.667663,-9400.615463,0.000000,-612.876398
2947.668000,-9992.780217,-222.061783,383.047749
2947.668337,-10214.842000,-222.061783,306.438199
2947.668675,-8808.450710,0.000000,612.876398
2947.669012,-9696.697840,518.144159,842.705048
2947.669349,-10140.821405,222.061783,1915.238745
2947.669686,-11029.068536,888.247130,1685.410096
2947.670024,-10436.903782,1258.350101,1072.533697
2947.670361,-10658.965565,1258.350101,383.047749
2947.670698,-10584.944971,518.144159,842.705048
2947.671036,-11251.130318,370.102971,842.705048
2947.671373,-9474.636058,-222.061783,0.000000
2947.671710,-9178.553681,-148.041188,-536.266849
2947.672047,-9326.594869,-296.082377,-459.657299
2947.672385,-9844.739029,-1036.288319,-76.609550
2947.672722,-10140.821405,-518.144159,-536.266849
2947.673059,-10214.842000,-666.185348,-1762.019645
2947.673396,-10066.800811,-1480.411884,-1685.410096
2947.673734,-10288.862594,-2368.659014,-842.705048
2947.674071,-10214.842000,-2960.823768,-383.047749
2947.674408,-9400.615463,-2886.803174,0.000000
2947.674745,-8512.368333,-3034.844362,153.219100
2947.675083,-10658.965565,-1702.473667,842.705048
2947.675420,-11399.171507,-1628.453072,459.657299
2947.675757,-10881.027347,-1110.308913,-306.438199
2947.676095,-10510.924376,-1480.411884,153.219100
2947.676432,-10436.903782,-740.205942,1991.848295
2947.676769,-9844.739029,-518.144159,1378.971896
2947.677106,-9770.718434,296.082377,1762.019645
2947.677444,-9474.636058,666.185348,1762.019645
2947.677781,-10510.924376,1258.350101,1378.971896
2947.678118,-11325.150913,1184.329507,1608.800546
2947.678455,-10658.965565,2146.597232,0.000000
2947.678793,-10140.821405,1776.494261,0.000000
2947.679130,-9474.636058,1924.535449,0.000000
2947.679467,-9400.615463,1036.288319,-76.609550
2947.679804,-9030.512492,518.144159,-612.876398
2947.680142,-8882.471304,962.267725,-612.876398
2947.680479,-9030.512492,740.205942,0.000000
2947.680816,-10214.842000,592.164754,76.609550
2947.681153,-9844.739029,296.082377,-229.828649
2947.681491,-9252.574275,148.041188,-1072.533697
2947.681828,-9622.677246,-444.123565,459.657299
2947.682165,-10436.903782,0.000000,1838.629195
2947.682503,-9474.636058,-962.267725,0.000000
2947.682840,-9770.718434,-1480.411884,689.485948
2947.683177,-8882.471304,-740.205942,1378.971896
2947.683514,-10066.800811,-962.267725,1302.362347
2947.683852,-10732.986159,-148.041188,919.314598
2947.684189,-10214.842000,296.082377,0.000000
2947.684526,-10732.986159,74.020594,383.047749
2947.684863,-11251.130318,74.020594,689.485948
2947.685201,-10732.986159,-296.082377,689.485948
2947.685538,-9770.718434,-222.061783,153.219100
2947.685875,-8438.347739,0.000000,0.000000
2947.686212,-10140.821405,-444.123565,0.000000
2947.686550,-11103.089130,-592.164754,0.000000
2947.686887,-10732.986159,-296.082377,-689.485948
2947.687224,-11029.068536,-1332.370696,-919.314598
2947.687562,-10658.965565,-1258.350101,-919.314598
2947.687899,-9474.636058,-2146.597232,-536.266849
2947.688236,-8956.491898,-2368.659014,306.438199
2947.688573,-7402.059420,-2738.761985,536.266849
2947.688911,-9918.759623,-1258.350101,1685.410096
2947.689248,-11103.089130,-888.247130,689.485948
2947.689585,-10881.027347,222.061783,0.000000
2947.689922,-11103.089130,-518.144159,612.876398
2947.690260,-10214.842000,-666.185348,919.314598
2947.690597,-9844.739029,-370.102971,1608.800546
2947.690934,-9030.512492,-370.102971,1532.190996
2947.691271,-8808.450710,0.000000,1762.019645
2947.691609,-9104.533087,1332.370696,2068.457845
2947.691946,-11029.068536,1702.473667,1302.362347
2947.692283,-10584.944971,1998.556043,-229.828649
2947.692620,-10510.924376,1258.350101,0.000000
2947.692958,-9844.739029,1554.432478,229.828649
2947.693295,-10214.842000,222.061783,1072.533697
2947.693632,-9844.739029,222.061783,536.266849
2947.693970,-9326.594869,-740.205942,0.000000
2947.694307,-9474.636058,-518.144159,842.705048
2947.694644,-10584.944971,296.082377,-76.609550
2947.694981,-9992.780217,148.041188,-2068.457845
2947.695319,-9474.636058,-1480.411884,-2451.505594
2947.695656,-8808.450710,-1110.308913,-2451.505594
2947.695993,-10658.965565,-1850.514855,76.609550
2947.696330,-10140.821405,-962.267725,-536.266849
2947.696668,-9844.739029,-1850.514855,76.609550
2947.697005,-9622.677246,-2738.761985,1991.848295
2947.697342,-10362.883188,-1924.535449,2757.943793
2947.697679,-10881.027347,-296.082377,2681.334243
2947.698017,-11103.089130,-148.041188,1455.581446
2947.698354,-10584.944971,-666.185348,0.000000
2947.698691,-11843.295072,-296.082377,0.000000
2947.699029,-10881.027347,-370.102971,-229.828649
2947.699366,-9178.553681,-148.041188,153.219100
2947.699703,-8586.388927,-148.041188,76.609550
2947.700040,-10214.842000,1776.494261,383.047749
2947.700378,-10658.965565,1702.473667,-689.485948
2947.700715,-10732.986159,1184.329507,-1149.143247
2947.701052,-10140.821405,-518.144159,-919.314598
2947.701389,-10881.027347,-666.185348,0.000000
2947.701727,-10510.924376,-370.102971,689.485948
2947.702064,-8438.347739,-888.247130,-459.657299
2947.702401,-7698.141797,-296.082377,689.485948
2947.702738,-9474.636058,0.000000,1915.238745
2947.703076,-11029.068536,1110.308913,229.828649
2947.703413,-10584.944971,1110.308913,-1149.143247
2947.703750,-10955.047942,666.185348,-689.485948
2947.704087,-9844.739029,0.000000,0.000000
2947.704425,-9326.594869,-370.102971,766.095498
2947.704762,-7846.182985,444.123565,2145.067394
2947.705099,-8216.285956,-370.102971,2374.896044
2947.705437,-10214.842000,888.247130,2757.943793
2947.705774,-11917.315666,2368.659014,2068.457845
2947.706111,-12509.480420,2442.679609,536.266849
2947.706448,-10732.986159,1184.329507,-612.876398
2947.706786,-10140.821405,222.061783,-153.219100
2947.707123,-10288.862594,-1184.329507,766.095498
2947.707460,-7698.141797,-1258.350101,-306.438199
2947.707797,-7698.141797,-1776.494261,-459.657299
2947.708135,-9104.533087,-1332.370696,229.828649
2947.708472,-11399.171507,-666.185348,-459.657299
2947.708809,-11843.295072,888.247130,-1915.238745
2947.709146,-11029.068536,-444.123565,-2911.162892
2947.709484,-10732.986159,-1850.514855,-1378.971896
2947.709821,-10955.047942,-3330.926739,-536.266849
2947.710158,-8882.471304,-2812.782580,-383.047749
2947.710496,-8290.306550,-3256.906145,0.000000
2947.710833,-9474.636058,-3997.112087,536.266849
2947.711170,-10510.924376,-2146.597232,766.095498
2947.711507,-10881.027347,-962.267725,459.657299
2947.711845,-10955.047942,296.082377,153.219100
2947.712182,-10584.944971,-222.061783,-306.438199
2947.712519,-11695.253884,0.000000,612.876398
2947.712856,-10807.006753,-888.247130,766.095498
2947.713194,-8142.265362,0.000000,1455.581446
2947.713531,-7920.203579,0.000000,2451.505594
2947.713868,-10436.903782,-74.020594,2987.772442
2947.714205,-10732.986159,1850.514855,1455.581446
2947.714543,-10214.842000,2072.576638,-1225.752797
2947.714880,-10881.027347,814.226536,-612.876398
2947.715217,-10584.944971,-592.164754,-842.705048
2947.715555,-9696.697840,0.000000,-1149.143247
2947.715892,-7846.182985,296.082377,-919.314598
2947.716229,-7254.018232,-888.247130,-766.095498
2947.716566,-9178.553681,-1258.350101,1532.190996
2947.716904,-10140.821405,370.102971,919.314598
2947.717241,-10510.924376,740.205942,0.000000
2947.717578,-11769.274478,444.123565,153.219100
2947.717915,-11103.089130,-1258.350101,0.000000
2947.718253,-10807.006753,-1776.494261,229.828649
2947.718590,-8290.306550,-1702.473667,1302.362347
2947.718927,-7550.100608,-1406.391290,1838.629195
2947.719264,-8956.491898,-1554.432478,2451.505594
2947.719602,-11325.150913,-740.205942,1838.629195
2947.719939,-10807.006753,1332.370696,766.095498
2947.720276,-11251.130318,888.247130,229.828649
2947.720613,-11917.315666,1036.288319,1072.533697
2947.720951,-11991.336260,0.000000,0.000000
2947.721288,-10066.800811,74.020594,-229.828649
2947.721625,-8364.327145,-1110.308913,-536.266849
2947.721963,-8882.471304,-1406.391290,306.438199
2947.722300,-10510.924376,-444.123565,689.485948
2947.722637,-10288.862594,296.082377,-1302.362347
2947.722974,-9992.780217,814.226536,-2298.286494
2947.723312,-10584.944971,0.000000,-1838.629195
2947.723649,-11029.068536,-1184.329507,-1225.752797
2947.723986,-8956.491898,-1702.473667,-1072.533697
2947.724323,-8660.409521,-1480.411884,153.219100
2947.724661,-9030.512492,-1850.514855,1762.019645
2947.724998,-9696.697840,-370.102971,1225.752797
2947.725335,-9622.677246,888.247130,1225.752797
2947.725672,-10214.842000,1036.288319,766.095498
2947.726010,-10658.965565,888.247130,919.314598
2947.726347,-11621.233289,148.041188,1072.533697
2947.726684,-10807.006753,370.102971,1532.190996
2947.727022,-8068.244768,592.164754,842.705048
2947.727359,-8364.327145,592.164754,1225.752797
2947.727696,-9918.759623,1110.308913,1838.629195
2947.728033,-9400.615463,1776.494261,459.657299
2947.728371,-9252.574275,2368.659014,-536.266849
2947.728708,-10584.944971,1924.535449,-1225.752797
2947.729045,-11843.295072,1036.288319,-1455.581446
2947.729382,-11695.253884,0.000000,-1991.848295
2947.729720,-9104.533087,-666.185348,-2298.286494
2947.730057,-7772.162391,-1406.391290,-459.657299
2947.730394,-8586.388927,-2442.679609,995.924147
2947.730731,-9992.780217,-2442.679609,995.924147
2947.731069,-9770.718434,-1628.453072,0.000000
2947.731406,-11325.150913,-1184.329507,-229.828649
2947.731743,-12361.439231,-1036.288319,0.000000
2947.732080,-11769.274478,-2368.659014,-612.876398
2947.732418,-9770.718434,-1998.556043,-306.438199
2947.732755,-8216.285956,-3330.926739,229.828649
2947.733092,-7994.224174,-2072.576638,2068.457845
2947.733430,-10140.821405,-1702.473667,2451.505594
2947.733767,-10732.986159,0.000000,1072.533697
2947.734104,-11325.150913,370.102971,-229.828649
2947.734441,-12435.459826,74.020594,612.876398
2947.734779,-12139.377449,-1110.308913,919.314598
2947.735116,-9400.615463,-1258.350101,0.000000
2947.735453,-8364.327145,-1554.432478,1302.362347
2947.735790,-7550.100608,-740.205942,1072.533697
2947.736128,-9992.780217,-666.185348,1378.971896
2947.736465,-10807.006753,592.164754,0.000000
2947.736802,-10955.047942,1998.556043,-1378.971896
2947.737139,-11399.171507,1258.350101,-1838.629195
2947.737477,-11843.295072,0.000000,-1685.410096
2947.737814,-8882.471304,-814.226536,-1225.752797
2947.738151,-7698.141797,-962.267725,-536.266849
2947.738489,-7698.141797,-1332.370696,1149.143247
2947.738826,-9474.636058,-888.247130,2757.943793
2947.739163,-10658.965565,814.226536,1685.410096
2947.739500,-10288.862594,1406.391290,842.705048
2947.739838,-11177.109724,666.185348,1302.362347
2947.740175,-11251.130318,1258.350101,1915.238745
2947.740512,-10362.883188,296.082377,536.266849
2947.740849,-8660.409521,74.020594,919.314598
2947.741187,-8142.265362,-148.041188,1225.752797
2947.741524,-9844.739029,0.000000,1378.971896
2947.741861,-10066.800811,1110.308913,0.000000
2947.742198,-9696.697840,1554.432478,-919.314598
2947.742535,-10881.027347,1184.329507,-1455.581446
2947.742873,-11103.089130,222.061783,-2145.067394
2947.743210,-10807.006753,0.000000,-1608.800546
2947.743547,-9548.656652,-1850.514855,-1302.362347
2947.743884,-9030.512492,-1924.535449,-229.828649
2947.744222,-9474.636058,-1998.556043,459.657299
2947.744559,-10436.903782,-2368.659014,842.705048
2947.744896,-9474.636058,-1406.391290,536.266849
2947.745233,-10140.821405,-1332.370696,-306.438199
2947.745571,-11769.274478,-740.205942,0.000000
2947.745908,-12435.459826,-1554.432478,-842.705048
2947.746245,-11177.109724,-1924.535449,-1225.752797
2947.746582,-8808.450710,-2072.576638,-1149.143247
2947.746919,-8364.327145,-2368.659014,1225.752797
2947.747257,-9696.697840,-888.247130,2757.943793
2947.747594,-9252.574275,222.061783,1455.581446
2947.747931,-10066.800811,1406.391290,919.314598
2947.748268,-11991.336260,1628.453072,1762.019645
2947.748606,-11843.295072,1184.329507,1455.581446
2947.748943,-11621.233289,1110.308913,1685.410096
2947.749280,-10214.842000,0.000000,1532.190996
2947.749617,-8290.306550,74.020594,2145.067394
2947.749955,-9030.512492,814.226536,1762.019645
2947.750292,-9474.636058,1184.329507,536.266849
2947.750629,-9548.656652,1554.432478,-1072.533697
2947.750966,-10584.944971,1628.453072,-1762.019645
2947.751303,-10658.965565,1258.350101,-1762.019645
2947.751641,-10288.862594,148.041188,-1685.410096
2947.751978,-8808.450710,0.000000,-842.705048
2947.752315,-7179.997637,-1776.494261,0.000000
2947.752652,-8438.347739,-1258.350101,2757.943793
2947.752990,-10214.842000,-592.164754,2451.505594
2947.753327,-10658.965565,-74.020594,842.705048
2947.753664,-11325.150913,0.000000,689.485948
2947.754001,-10955.047942,-592.164754,383.047749
2947.754339,-11621.233289,-888.247130,153.219100
2947.754676,-9844.739029,-1184.329507,-766.095498
2947.755013,-8882.471304,-814.226536,0.000000
2947.755350,-8660.409521,-1702.473667,612.876398
2947.755687,-9992.780217,0.000000,0.000000
2947.756025,-10436.903782,888.247130,76.609550
2947.756362,-10807.006753,1184.329507,-306.438199
2947.756699,-11399.171507,444.123565,-612.876398
2947.757036,-12287.418637,-518.144159,-612.876398
2947.757374,-10362.883188,-962.267725,-229.828649
2947.757711,-9030.512492,-2442.679609,0.000000
2947.758048,-8734.430116,-2886.803174,1455.581446
2947.758385,-9918.759623,-1184.329507,459.657299
2947.758723,-10140.821405,-1184.329507,-689.485948
2947.759060,-10066.800811,-888.247130,-1225.752797
2947.759397,-9770.718434,-666.185348,-1302.362347
2947.759734,-11769.274478,-666.185348,-306.438199
2947.760071,-9918.759623,-666.185348,-766.095498
2947.760409,-8660.409521,-666.185348,-229.828649
2947.760746,-8660.409521,-962.267725,2221.676944
2947.761083,-10214.842000,-1258.350101,3370.820191
2947.761420,-9918.759623,814.226536,2987.772442
2947.761758,-10140.821405,1110.308913,2451.505594
2947.762095,-10881.027347,1406.391290,2528.115143
2947.762432,-11621.233289,2072.576638,1378.971896
2947.762769,-11547.212695,1850.514855,842.705048
2947.763107,-9252.574275,2072.576638,-306.438199
2947.763444,-8882.471304,444.123565,-229.828649
2947.763781,-9474.636058,1776.494261,689.485948
2947.764118,-8808.450710,1702.473667,-153.219100
2947.764455,-9474.636058,1998.556043,-306.438199
2947.764793,-10066.800811,962.267725,-306.438199
2947.765130,-11621.233289,888.247130,-459.657299
2947.765467,-11251.130318,0.000000,-919.314598
2947.765804,-9770.718434,-740.205942,-1915.238745
2947.766142,-8438.347739,-3182.885551,-919.314598
2947.766479,-8068.244768,-3256.906145,459.657299
2947.766816,-8586.388927,-1924.535449,459.657299
2947.767153,-9400.615463,-1184.329507,0.000000
2947.767491,-9992.780217,-1480.411884,-1149.143247
2947.767828,-11695.253884,-1554.432478,-383.047749
2947.768165,-12361.439231,-2294.638420,153.219100
2947.768502,-10140.821405,-2220.617826,766.095498
2947.768839,-9770.718434,-2590.720797,1608.800546
2947.769177,-9178.553681,-2664.741391,2604.724693
2947.769514,-9918.759623,-1924.535449,2068.457845
2947.769851,-10214.842000,-888.247130,1302.362347
2947.770188,-10584.944971,0.000000,0.000000
2947.770526,-11695.253884,666.185348,306.438199
2947.770863,-12361.439231,444.123565,-459.657299
2947.771200,-10436.903782,296.082377,-1838.629195
2947.771537,-9474.636058,-444.123565,-1762.019645
2947.771875,-8068.244768,-1184.329507,0.000000
2947.772212,-8808.450710,-296.082377,383.047749
2947.772549,-10288.862594,296.082377,383.047749
2947.772886,-10140.821405,148.041188,-459.657299
2947.773223,-10732.986159,-74.020594,536.266849
2947.773561,-10955.047942,0.000000,1455.581446
2947.773898,-9844.739029,74.020594,919.314598
2947.774235,-9178.553681,0.000000,306.438199
2947.774572,-8290.306550,-370.102971,306.438199
2947.774910,-9474.636058,0.000000,1838.629195
2947.775247,-8660.409521,148.041188,1072.533697
2947.775584,-9030.512492,2294.638420,766.095498
2947.775921,-10732.986159,888.247130,1915.238745
2947.776259,-11547.212695,1924.535449,995.924147
2947.776596,-10955.047942,1554.432478,0.000000
2947.776933,-9770.718434,1110.308913,766.095498
2947.777270,-8882.471304,-222.061783,1302.362347
2947.777607,-10362.883188,0.000000,1685.410096
2947.777945,-9548.656652,444.123565,612.876398
2947.778282,-9104.533087,444.123565,-995.924147
2947.778619,-10066.800811,0.000000,0.000000
2947.778956,-11547.212695,0.000000,-995.924147
2947.779294,-11547.212695,0.000000,-1838.629195
2947.779631,-10510.924376,-740.205942,-2068.457845
2947.779968,-9770.718434,-2146.597232,-689.485948
2947.780305,-9474.636058,-2516.700203,0.000000
2947.780643,-10288.862594,-2146.597232,536.266849
2947.780980,-9918.759623,-1184.329507,0.000000
2947.781317,-10510.924376,-1850.514855,-459.657299
2947.781654,-11029.068536,-2146.597232,919.314598
2947.781991,-11473.192101,-1332.370696,919.314598
2947.782329,-10140.821405,-962.267725,1225.752797
2947.782666,-9918.759623,-1184.329507,1149.143247
2947.783003,-9918.759623,-1332.370696,995.924147
2947.783340,-10066.800811,-444.123565,2068.457845
2947.783678,-9474.636058,962.267725,2221.676944
2947.784015,-9104.533087,1554.432478,842.705048
2947.784352,-10658.965565,1998.556043,995.924147
2947.784689,-11917.315666,1924.535449,919.314598
2947.785027,-10140.821405,2516.700203,-1225.752797
2947.785364,-8956.491898,1184.329507,-383.047749
2947.785701,-9400.615463,592.164754,0.000000
2947.786038,-9474.636058,74.020594,383.047749
2947.786375,-9178.553681,888.247130,306.438199
2947.786713,-8808.450710,962.267725,-842.705048
2947.787050,-9992.780217,444.123565,0.000000
2947.787387,-10436.903782,888.247130,-153.219100
2947.787724,-10807.006753,0.000000,-383.047749
2947.788062,-10066.800811,296.082377,-919.314598
2947.788399,-9178.553681,-592.164754,-612.876398
2947.788736,-9770.718434,-814.226536,306.438199
2947.789073,-9474.636058,-518.144159,-383.047749
2947.789411,-9178.553681,-962.267725,-306.438199
2947.789748,-10214.842000,-1184.329507,306.438199
2947.790085,-11029.068536,-740.205942,536.266849
2947.790422,-10807.006753,-148.041188,612.876398
2947.790759,-10658.965565,-592.164754,995.924147
2947.791097,-10214.842000,-740.205942,919.314598
2947.791434,-11251.130318,-1406.391290,1532.190996
2947.791771,-11029.068536,-888.247130,766.095498
2947.792108,-8586.388927,0.000000,0.000000
2947.792446,-9326.594869,-888.247130,-306.438199
2947.792783,-10732.986159,-1258.350101,383.047749
2947.793120,-11251.130318,-1110.308913,-1838.629195
2947.793457,-10362.883188,-962.267725,-2451.505594
2947.793795,-9770.718434,-2072.576638,-1838.629195
2947.794132,-9252.574275,-1998.556043,-459.657299
2947.794469,-10140.821405,-2072.576638,459.657299
2947.794806,-8734.430116,-1998.556043,306.438199
2947.795143,-9844.739029,-1776.494261,1072.533697
2947.795481,-11177.109724,-1184.329507,1838.629195
2947.795818,-11325.150913,-1036.288319,1838.629195
2947.796155,-10288.862594,-296.082377,1455.581446
2947.796492,-9770.718434,-296.082377,1915.238745
2947.796830,-9326.594869,740.205942,1915.238745
2947.797167,-10658.965565,0.000000,2068.457845
2947.797504,-9474.636058,740.205942,1302.362347
2947.797841,-8586.388927,888.247130,153.219100
2947.798179,-9844.739029,1924.535449,842.705048
2947.798516,-10288.862594,1184.329507,995.924147
2947.798853,-9844.739029,1332.370696,0.000000
2947.799190,-9178.553681,2368.659014,76.609550
2947.799527,-9252.574275,888.247130,459.657299
2947.799865,-10510.924376,1036.288319,459.657299
2947.800202,-10362.883188,74.020594,-383.047749
2947.800539,-10214.842000,888.247130,-995.924147
2947.800876,-9918.759623,-296.082377,-1455.581446
2947.801214,-10362.883188,-666.185348,-1225.752797
2947.801551,-9474.636058,-1554.432478,-689.485948
2947.801888,-8882.471304,-1776.494261,-612.876398
2947.802225,-9326.594869,-666.185348,0.000000
2947.802563,-11029.068536,-1924.535449,76.609550
2947.802900,-11177.109724,-1924.535449,-383.047749
2947.803237,-9992.780217,-1480.411884,-76.609550
2947.803574,-9548.656652,-1628.453072,842.705048
2947.803911,-10140.821405,-888.247130,2068.457845
2947.804249,-11103.089130,-1184.329507,1149.143247
2947.804586,-10362.883188,-296.082377,766.095498
2947.804923,-10140.821405,-814.226536,153.219100
2947.805260,-10955.047942,-444.123565,1608.800546
2947.805598,-11399.171507,-962.267725,689.485948
2947.805935,-8956.491898,222.061783,-383.047749
2947.806272,-9326.594869,222.061783,76.609550
2947.806609,-9548.656652,-148.041188,229.828649
2947.806947,-9918.759623,370.102971,-536.266849
2947.807284,-9622.677246,444.123565,-306.438199
2947.807621,-10288.862594,444.123565,-766.095498
2947.807958,-10288.862594,740.205942,-689.485948
2947.808295,-11399.171507,0.000000,-689.485948
2947.808633,-9474.636058,296.082377,-919.314598
2947.808970,-8956.491898,-518.144159,306.438199
2947.809307,-9474.636058,-222.061783,1149.143247
2947.809644,-10584.944971,-370.102971,1455.581446
2947.809982,-9992.780217,444.123565,1455.581446
2947.810319,-9992.780217,444.123565,1608.800546
2947.810656,-9474.636058,666.185348,2068.457845
2947.810993,-10362.883188,1554.432478,1915.238745
2947.811331,-10066.800811,814.226536,1072.533697
2947.811668,-9326.594869,1332.370696,153.219100
2947.812005,-9474.636058,1036.288319,383.047749
2947.812342,-10214.842000,1480.411884,766.095498
2947.812679,-10362.883188,-370.102971,0.000000
2947.813017,-9474.636058,0.000000,-383.047749
2947.813354,-8734.430116,-222.061783,-383.047749
2947.813691,-9252.574275,-370.102971,306.438199
2947.814028,-9548.656652,-296.082377,76.609550
2947.814366,-10436.903782,-888.247130,-689.485948
2947.814703,-10140.821405,-1184.329507,-1302.362347
2947.815040,-10066.800811,-962.267725,-1225.752797
2947.815377,-10732.986159,-1628.453072,-383.047749
2947.815715,-9918.759623,-1628.453072,-612.876398
2947.816052,-10584.944971,-2368.659014,229.828649
2947.816389,-10584.944971,-1628.453072,536.266849
2947.816726,-10955.047942,-1702.473667,-689.485948
2947.817063,-10436.903782,-1924.535449,153.219100
2947.817401,-10288.862594,-2516.700203,459.657299
2947.817738,-9622.677246,-1776.494261,1149.143247
2947.818075,-11399.171507,-1110.308913,1608.800546
2947.818412,-10658.965565,148.041188,1225.752797
2947.818750,-9104.533087,222.061783,842.705048
2947.819087,-9770.718434,444.123565,2221.676944
2947.819424,-10658.965565,740.205942,1915.238745
2947.819761,-10140.821405,962.267725,1072.533697
2947.820099,-10584.944971,814.226536,842.705048
2947.820436,-9844.739029,814.226536,153.219100
2947.820773,-9992.780217,740.205942,153.219100
2947.821110,-8660.409521,1184.329507,0.000000
2947.821447,-8512.368333,0.000000,-153.219100
2947.821785,-8808.450710,666.185348,76.609550
2947.822122,-10140.821405,1258.350101,-995.924147
2947.822459,-9844.739029,1184.329507,-1532.190996
2947.822796,-10066.800811,-296.082377,-1608.800546
2947.823134,-8956.491898,74.020594,306.438199
2947.823471,-10288.862594,0.000000,1072.533697
2947.823808,-9548.656652,0.000000,995.924147
2947.824145,-9474.636058,0.000000,306.438199
2947.824483,-9696.697840,-1036.288319,1225.752797
2947.824820,-10807.006753,-444.123565,1225.752797
2947.825157,-11251.130318,0.000000,1378.971896
2947.825494,-11177.109724,-222.061783,919.314598
2947.825831,-9622.677246,518.144159,306.438199
2947.826169,-10955.047942,-444.123565,536.266849
2947.826506,-10214.842000,-74.020594,383.047749
2947.826843,-9178.553681,0.000000,0.000000
2947.827180,-9918.759623,-1258.350101,612.876398
2947.827518,-10362.883188,-1036.288319,536.266849
2947.827855,-10288.862594,-1036.288319,766.095498
2947.828192,-10288.862594,-888.247130,919.314598
2947.828529,-10066.800811,-2220.617826,-76.609550
2947.828867,-10732.986159,-1776.494261,459.657299
2947.829204,-10436.903782,-2368.659014,-153.219100
2947.829541,-9326.594869,-2072.576638,-536.266849
2947.829878,-9030.512492,-2886.803174,-612.876398
2947.830215,-9252.574275,-2368.659014,459.657299
2947.830553,-9770.718434,-444.123565,612.876398
2947.830890,-10584.944971,592.164754,0.000000
2947.831227,-10881.027347,-296.082377,-612.876398
2947.831564,-10658.965565,-518.144159,0.000000
2947.831902,-11177.109724,-740.205942,1455.581446
2947.832239,-9326.594869,148.041188,1378.971896
2947.832576,-9474.636058,222.061783,1991.848295
2947.832913,-9474.636058,592.164754,2451.505594
2947.833250,-10362.883188,1258.350101,2451.505594
2947.833588,-9474.636058,2516.700203,1915.238745
2947.833925,-11177.109724,1480.411884,0.000000
2947.834262,-10658.965565,2072.576638,-306.438199
2947.834599,-10510.924376,2220.617826,-612.876398
2947.834937,-8882.471304,2368.659014,-842.705048
2947.835274,-7624.121203,814.226536,-1225.752797
2947.835611,-8068.244768,0.000000,-842.705048
2947.835948,-10362.883188,518.144159,0.000000
2947.836286,-10658.965565,1110.308913,-306.438199
2947.836623,-9992.780217,592.164754,-1762.019645
2947.836960,-9918.759623,-296.082377,-766.095498
2947.837297,-10658.965565,-2072.576638,-76.609550
2947.837634,-9696.697840,-1480.411884,-689.485948
2947.837972,-8660.409521,-1924.535449,-76.609550
2947.838309,-8364.327145,-1036.288319,306.438199
2947.838646,-9992.780217,-1554.432478,1149.143247
2947.838983,-11177.109724,-518.144159,919.314598
2947.839321,-11325.150913,370.102971,536.266849
2947.839658,-11843.295072,-74.020594,842.705048
2947.839995,-11473.192101,296.082377,766.095498
2947.840332,-10881.027347,-740.205942,689.485948
2947.840670,-10362.883188,-148.041188,1608.800546
2947.841007,-9400.615463,-1480.411884,1225.752797
2947.841344,-9770.718434,-1184.329507,1532.190996
2947.841681,-10732.986159,-370.102971,1532.190996
2947.842019,-9918.759623,74.020594,612.876398
2947.842357,-10066.800811,296.082377,76.609550
2947.842694,-11399.171507,-740.205942,612.876398
2947.843031,-11029.068536,-666.185348,-306.438199
2947.843368,-9030.512492,-962.267725,-995.924147
2947.843706,-8956.491898,-1554.432478,0.000000
2947.844043,-8364.327145,-2590.720797,995.924147
2947.844380,-9622.677246,-1332.370696,1532.190996
2947.844718,-9252.574275,-222.061783,766.095498
2947.845055,-10510.924376,-296.082377,459.657299
2947.845392,-11473.192101,-1258.350101,612.876398
2947.845729,-11251.130318,-1702.473667,-612.876398
2947.846067,-9178.553681,-1406.391290,612.876398
2947.846404,-7698.141797,-518.144159,2298.286494
2947.846741,-8364.327145,-814.226536,2451.505594
2947.847079,-10732.986159,0.000000,1991.848295
2947.847416,-9622.677246,962.267725,-612.876398
2947.847753,-10732.986159,1554.432478,-1072.533697
2947.848090,-11399.171507,0.000000,-1685.410096
2947.848428,-11029.068536,-740.205942,-1532.190996
2947.848765,-9844.739029,-1110.308913,-1991.848295
2947.849102,-8216.285956,-1776.494261,-1685.410096
2947.849440,-7772.162391,-1628.453072,-1149.143247
2947.849777,-10288.862594,-1998.556043,536.266849
2947.850114,-10362.883188,-74.020594,-1378.971896
2947.850451,-11251.130318,222.061783,-1915.238745
2947.850789,-12583.501014,-740.205942,-1991.848295
2947.851126,-12509.480420,-2368.659014,-1762.019645
2947.851463,-10732.986159,-3182.885551,-1072.533697
2947.851801,-8142.265362,-2294.638420,229.828649
2947.852138,-7624.121203,-3034.844362,842.705048
2947.852475,-9104.533087,-1924.535449,1608.800546
2947.852812,-10881.027347,-814.226536,1072.533697
2947.853150,-11399.171507,592.164754,612.876398
2947.853487,-11695.253884,444.123565,0.000000
2947.853824,-11917.315666,370.102971,842.705048
2947.854161,-10510.924376,444.123565,766.095498
2947.854499,-7476.080014,1036.288319,1685.410096
2947.854836,-7402.059420,888.247130,3064.381992
2947.855173,-9548.656652,1258.350101,3677.258390
2947.855511,-10288.862594,2738.761985,2221.676944
2947.855848,-11029.068536,3256.906145,995.924147
2947.856185,-11103.089130,3478.967927,612.876398
2947.856522,-11251.130318,2590.720797,459.657299
2947.856860,-9918.759623,1998.556043,-612.876398
2947.857197,-7179.997637,1702.473667,-919.314598
2947.857534,-7698.141797,1406.391290,229.828649
2947.857872,-9474.636058,666.185348,1302.362347
2947.858209,-10584.944971,1258.350101,1149.143247
2947.858546,-10066.800811,2368.659014,919.314598
2947.858883,-10436.903782,2368.659014,306.438199
2947.859221,-10732.986159,1406.391290,76.609550
2947.859558,-11399.171507,518.144159,-306.438199
2947.859895,-9474.636058,-222.061783,153.219100
2947.860233,-9030.512492,-888.247130,766.095498
2947.860570,-9474.636058,-1258.350101,1838.629195
2947.860907,-10510.924376,-370.102971,1838.629195
2947.861244,-9326.594869,962.267725,459.657299
2947.861582,-10140.821405,370.102971,459.657299
2947.861919,-10955.047942,444.123565,-76.609550
2947.862256,-12139.377449,-1036.288319,-766.095498
2947.862594,-10807.006753,-1480.411884,-766.095498
2947.862931,-8290.306550,-2294.638420,-995.924147
2947.863268,-8660.409521,-2442.679609,229.828649
2947.863605,-10214.842000,-1776.494261,842.705048
2947.863943,-9992.780217,-1998.556043,-1685.410096
2947.864280,-9178.553681,-1110.308913,-1915.238745
2947.864617,-10362.883188,-1924.535449,-2451.505594
2947.864954,-11473.192101,-2294.638420,-1149.143247
2947.865292,-10658.965565,-3849.070898,-1455.581446
2947.865629,-8808.450710,-3330.926739,-995.924147
2947.865966,-8586.388927,-4367.215058,689.485948
2947.866304,-9474.636058,-2516.700203,1915.238745
2947.866641,-10140.821405,-1258.350101,1608.800546
2947.866978,-10362.883188,74.020594,1225.752797
2947.867315,-11547.212695,370.102971,766.095498
2947.867653,-12953.603985,222.061783,919.314598
2947.867990,-12065.356855,148.041188,689.485948
2947.868327,-9696.697840,444.123565,612.876398
2947.868665,-8956.491898,-518.144159,842.705048
2947.869002,-8586.388927,518.144159,2068.457845
2947.869339,-10140.821405,1110.308913,2068.457845
2947.869676,-9030.512492,2072.576638,0.000000
2947.870014,-9770.718434,2516.700203,0.000000
2947.870351,-11325.150913,1776.494261,459.657299
2947.870688,-11547.212695,0.000000,-536.266849
2947.871026,-9326.594869,-740.205942,-689.485948
2947.871363,-7550.100608,-1332.370696,76.609550
2947.871700,-7624.121203,-1702.473667,766.095498
2947.872037,-8660.409521,-1110.308913,0.000000
2947.872375,-8734.430116,-592.164754,-995.924147
2947.872712,-9844.739029,-1554.432478,-995.924147
2947.873049,-10436.903782,-1332.370696,-1532.190996
2947.873387,-11325.150913,-1480.411884,-689.485948
2947.873724,-10362.883188,-2072.576638,-383.047749
2947.874061,-9400.615463,-2368.659014,-153.219100
2947.874398,-9030.512492,-2072.576638,1608.800546
2947.874736,-10362.883188,-1184.329507,2604.724693
2947.875073,-10436.903782,0.000000,2145.067394
2947.875410,-12139.377449,518.144159,1608.800546
2947.875748,-12953.603985,1924.535449,229.828649
2947.876085,-13471.748144,1036.288319,-536.266849
2947.876422,-11769.274478,-592.164754,76.609550
2947.876759,-8660.409521,-592.164754,-766.095498
2947.877097,-8438.347739,-2072.576638,1149.143247
2947.877434,-8808.450710,-962.267725,1685.410096
2947.877771,-9104.533087,74.020594,995.924147
2947.878108,-10807.006753,1554.432478,766.095498
2947.878446,-11251.130318,1480.411884,-689.485948
2947.878783,-11695.253884,1036.288319,-1225.752797
2947.879120,-11029.068536,0.000000,-1149.143247
2947.879458,-8808.450710,-444.123565,0.000000
2947.879795,-7328.038826,-1406.391290,229.828649
2947.880132,-7772.162391,-888.247130,1455.581446
2947.880469,-8808.450710,222.061783,1455.581446
2947.880807,-9252.574275,1406.391290,306.438199
2947.881144,-10436.903782,1554.432478,0.000000
2947.881481,-10584.944971,1332.370696,459.657299
2947.881819,-10955.047942,1998.556043,612.876398
2947.882156,-10140.821405,2294.638420,1072.533697
2947.882493,-9696.697840,1110.308913,229.828649
2947.882830,-8290.306550,1554.432478,1838.629195
2947.883168,-10140.821405,1924.535449,2374.896044
2947.883505,-10732.986159,2442.679609,1455.581446
2947.883842,-10436.903782,2072.576638,76.609550
2947.884180,-10732.986159,1332.370696,-612.876398
2947.884517,-11843.295072,592.164754,-766.095498
2947.884854,-10362.883188,0.000000,-1225.752797
2947.885191,-9770.718434,-814.226536,-459.657299
2947.885529,-8956.491898,-1924.535449,0.000000
2947.885866,-9326.594869,-1184.329507,-536.266849
2947.886203,-9252.574275,-370.102971,-842.705048
2947.886541,-9622.677246,-1110.308913,-1072.533697
2947.886878,-9844.739029,-1850.514855,-1455.581446
2947.887215,-11769.274478,-2664.741391,-1225.752797
2947.887552,-11399.171507,-3034.844362,-689.485948
2947.887890,-9326.594869,-3923.091493,229.828649
2947.888227,-8290.306550,-5033.400406,3064.381992
2947.888564,-8586.388927,-3775.050304,3447.429741
2947.888901,-9400.615463,-2294.638420,3370.820191
2947.889239,-10362.883188,-1258.350101,2451.505594
2947.889576,-11103.089130,-518.144159,995.924147
2947.889913,-11769.274478,0.000000,919.314598
2947.890251,-11695.253884,-222.061783,306.438199
2947.890588,-10140.821405,148.041188,0.000000
2947.890925,-9030.512492,-740.205942,-306.438199
2947.891262,-9326.594869,-148.041188,306.438199
2947.891600,-9252.574275,518.144159,-536.266849
2947.891937,-9548.656652,1110.308913,-766.095498
2947.892274,-10584.944971,1406.391290,-1532.190996
2947.892612,-11103.089130,518.144159,-842.705048
2947.892949,-11917.315666,444.123565,-1072.533697
2947.893286,-9844.739029,-444.123565,-1149.143247
2947.893623,-8586.388927,-1332.370696,-306.438199
2947.893961,-8660.409521,-1480.411884,995.924147
2947.894298,-9696.697840,-592.164754,1762.019645
2947.894635,-9844.739029,1110.308913,842.705048
2947.894973,-10288.862594,444.123565,-536.266849
2947.895310,-10288.862594,-296.082377,-536.266849
2947.895647,-10955.047942,-370.102971,-153.219100
2947.895984,-9992.780217,-592.164754,0.000000
2947.896322,-8956.491898,-962.267725,383.047749
2947.896659,-8142.265362,-1332.370696,383.047749
2947.896996,-9326.594869,-814.226536,1455.581446
2947.897334,-9474.636058,-222.061783,1072.533697
2947.897671,-9622.677246,0.000000,919.314598
2947.898008,-10807.006753,370.102971,919.314598
2947.898345,-11621.233289,0.000000,76.609550
2947.898683,-10955.047942,-296.082377,-306.438199
2947.899020,-9992.780217,-666.185348,-1149.143247
2947.899357,-9252.574275,-1924.535449,-919.314598
2947.899695,-9770.718434,-1850.514855,-383.047749
2947.900032,-9918.759623,-444.123565,0.000000
2947.900369,-10288.862594,-592.164754,-1072.533697
2947.900706,-10658.965565,-666.185348,-536.266849
2947.901044,-11399.171507,-518.144159,76.609550
2947.901381,-11843.295072,-962.267725,459.657299
2947.901718,-11399.171507,-592.164754,995.924147
2947.902055,-9548.656652,-1776.494261,1072.533697
2947.902393,-10140.821405,-1554.432478,2528.115143
2947.902730,-9696.697840,-296.082377,2834.553343
2947.903067,-8882.471304,2146.597232,2298.286494
2947.903405,-10436.903782,1110.308913,2374.896044
2947.903742,-11621.233289,1850.514855,1378.971896
2947.904079,-11251.130318,2294.638420,0.000000
2947.904416,-10066.800811,1924.535449,306.438199
2947.904754,-8290.306550,296.082377,153.219100
2947.905091,-7550.100608,888.247130,536.266849
2947.905428,-8808.450710,1406.391290,1225.752797
2947.905766,-8068.244768,2812.782580,229.828649
2947.906103,-10362.883188,1702.473667,0.000000
2947.906440,-10807.006753,2590.720797,-689.485948
2947.906777,-11547.212695,1480.411884,-1149.143247
2947.907115,-11177.109724,740.205942,-995.924147
2947.907452,-8586.388927,-370.102971,-2374.896044
2947.907789,-8364.327145,-1628.453072,-766.095498
2947.908127,-9622.677246,-1480.411884,153.219100
2947.908464,-8438.347739,-888.247130,-995.924147
2947.908801,-10658.965565,74.020594,-919.314598
2947.909138,-11843.295072,-888.247130,-1225.752797
2947.909476,-11769.274478,-592.164754,-383.047749
2947.909813,-11473.192101,-592.164754,153.219100
2947.910150,-10436.903782,-1184.329507,306.438199
2947.910488,-9696.697840,-1850.514855,1455.581446
2947.910825,-10955.047942,-1998.556043,1838.629195
2947.911162,-10140.821405,-962.267725,1608.800546
2947.911499,-9770.718434,-888.247130,1225.752797
2947.911837,-10584.944971,-814.226536,842.705048
2947.912174,-11399.171507,-962.267725,-612.876398
2947.912511,-10214.842000,-962.267725,-842.705048
2947.912849,-9474.636058,-814.226536,-1072.533697
2947.913186,-8734.430116,-2146.597232,-612.876398
2947.913523,-9178.553681,-2072.576638,383.047749
2947.913860,-9030.512492,-1702.473667,536.266849
2947.914198,-8882.471304,-666.185348,229.828649
2947.914535,-9770.718434,-1184.329507,459.657299
2947.914872,-11621.233289,-740.205942,536.266849
2947.915209,-11547.212695,-1702.473667,153.219100
2947.915547,-9548.656652,-296.082377,-383.047749
2947.915884,-9326.594869,-1258.350101,459.657299
2947.916221,-9844.739029,-1850.514855,1762.019645
2947.916559,-9474.636058,-1258.350101,1225.752797
2947.916896,-9178.553681,888.247130,1608.800546
2947.917233,-10140.821405,444.123565,1838.629195
2947.917570,-11029.068536,1258.350101,1225.752797
2947.917908,-11991.336260,1184.329507,1302.362347
2947.918245,-10288.862594,2220.617826,995.924147
2947.918582,-9548.656652,962.267725,612.876398
2947.918920,-10436.903782,888.247130,1149.143247
2947.919257,-9622.677246,0.000000,76.609550
2947.919594,-8660.409521,666.185348,-306.438199
2947.919931,-8586.388927,444.123565,-383.047749
2947.920269,-9770.718434,-148.041188,-766.095498
2947.920606,-10881.027347,148.041188,-689.485948
2947.920943,-9992.780217,-370.102971,-1378.971896
2947.921281,-9474.636058,-370.102971,-1915.238745
2947.921618,-9992.780217,-1480.411884,-1455.581446
2947.921955,-9844.739029,-2294.638420,-536.266849
2947.922292,-8512.368333,-1850.514855,-536.266849
2947.922630,-9326.594869,-1924.535449,76.609550
2947.922967,-10066.800811,-1628.453072,-229.828649
2947.923304,-11325.150913,-1850.514855,-306.438199
2947.923642,-11251.130318,-518.144159,0.000000
2947.923979,-10510.924376,-1332.370696,0.000000
2947.924316,-10140.821405,-814.226536,1072.533697
2947.924653,-10658.965565,-666.185348,1532.190996
2947.924991,-9622.677246,0.000000,1455.581446
2947.925328,-9548.656652,370.102971,1762.019645
2947.925665,-10584.944971,1480.411884,1762.019645
2947.926002,-11843.295072,1480.411884,1072.533697
2947.926340,-11621.233289,1776.494261,766.095498
2947.926677,-10066.800811,1776.494261,76.609550
2947.927014,-9992.780217,1036.288319,459.657299
2947.927352,-10214.842000,444.123565,536.266849
2947.927689,-10066.800811,444.123565,383.047749
2947.928026,-8956.491898,222.061783,76.609550
2947.928363,-8882.471304,740.205942,0.000000
2947.928701,-10140.821405,888.247130,459.657299
2947.929038,-10584.944971,148.041188,0.000000
2947.929375,-9400.615463,962.267725,-612.876398
2947.929713,-9918.759623,-370.102971,-612.876398
2947.930050,-9622.677246,296.082377,689.485948
2947.930387,-9400.615463,-1184.329507,842.705048
2947.930724,-8882.471304,0.000000,1838.629195
2947.931062,-8882.471304,-740.205942,1455.581446
2947.931399,-10214.842000,222.061783,2374.896044
2947.931736,-11621.233289,222.061783,1378.971896
2947.932074,-10584.944971,222.061783,229.828649
2947.932411,-9992.780217,148.041188,306.438199
2947.932748,-10066.800811,-740.205942,919.314598
2947.933085,-10584.944971,0.000000,383.047749
2947.933423,-9400.615463,148.041188,-612.876398
2947.933760,-9474.636058,-296.082377,-995.924147
2947.934097,-9696.697840,-962.267725,-1225.752797
2947.934435,-10955.047942,-1036.288319,-995.924147
2947.934772,-10436.903782,-962.267725,-1149.143247
2947.935109,-9992.780217,-1406.391290,-1762.019645
2947.935446,-10066.800811,-740.205942,-995.924147
2947.935784,-11251.130318,-1850.514855,-919.314598
2947.936121,-10362.883188,-1776.494261,153.219100
2947.936458,-9622.677246,-2368.659014,0.000000
2947.936796,-10362.883188,-2146.597232,1455.581446
2947.937133,-11251.130318,-2072.576638,1685.410096
2947.937470,-10140.821405,-962.267725,995.924147
2947.937807,-9622.677246,-1110.308913,995.924147
2947.938145,-9548.656652,-1258.350101,919.314598
2947.938482,-10362.883188,-592.164754,1915.238745
2947.938819,-10214.842000,0.000000,1072.533697
2947.939156,-9622.677246,74.020594,1072.533697
2947.939494,-9474.636058,148.041188,1072.533697
2947.939831,-10066.800811,814.226536,1149.143247
2947.940168,-9326.594869,1332.370696,842.705048
2947.940506,-8956.491898,666.185348,689.485948
2947.940843,-8956.491898,-148.041188,76.609550
2947.941180,-9474.636058,0.000000,919.314598
2947.941517,-10288.862594,148.041188,536.266849
2947.941855,-9918.759623,666.185348,-689.485948
2947.942192,-9696.697840,0.000000,-1762.019645
2947.942529,-10436.903782,814.226536,-1149.143247
2947.942867,-9770.718434,-814.226536,-1378.971896
2947.943204,-9104.533087,-370.102971,-1072.533697
2947.943541,-9474.636058,-1554.432478,-536.266849
2947.943878,-9844.739029,-2072.576638,-766.095498
2947.944216,-10881.027347,-296.082377,-306.438199
2947.944553,-10658.965565,-444.123565,0.000000
2947.944890,-11103.089130,-1110.308913,0.000000
2947.945228,-10066.800811,-1776.494261,1378.971896
2947.945565,-11769.274478,0.000000,2298.286494
2947.945902,-10362.883188,-222.061783,1608.800546
2947.946239,-10140.821405,-296.082377,536.266849
2947.946577,-9770.718434,-296.082377,229.828649
2947.946914,-11177.109724,0.000000,0.000000
2947.947251,-9844.739029,518.144159,-689.485948
2947.947588,-9252.574275,-666.185348,-1378.971896
2947.947926,-8734.430116,-222.061783,-689.485948
2947.948263,-10140.821405,-814.226536,459.657299
2947.948600,-9844.739029,-148.041188,536.266849
2947.948937,-9474.636058,-296.082377,459.657299
2947.949275,-9770.718434,-592.164754,919.314598
2947.949612,-11251.130318,0.000000,842.705048
2947.949949,-10214.842000,-296.082377,383.047749
2947.950286,-10066.800811,-740.205942,689.485948
2947.950623,-9918.759623,-666.185348,459.657299
2947.950961,-10658.965565,518.144159,-306.438199
2947.951298,-10214.842000,962.267725,-689.485948
2947.951635,-9622.677246,518.144159,-612.876398
2947.951972,-9400.615463,0.000000,306.438199
2947.952310,-10362.883188,1184.329507,1915.238745
2947.952647,-10658.965565,1628.453072,2528.115143
2947.952984,-10881.027347,1850.514855,1225.752797
2947.953321,-10140.821405,1406.391290,1532.190996
2947.953659,-10584.944971,1110.308913,2145.067394
2947.953996,-10288.862594,1184.329507,2221.676944
2947.954333,-10436.903782,1628.453072,1455.581446
2947.954670,-9622.677246,296.082377,229.828649
2947.955007,-9104.533087,74.020594,-459.657299
2947.955345,-9548.656652,-444.123565,-306.438199
2947.955682,-8734.430116,370.102971,-1378.971896
2947.956019,-8956.491898,-1110.308913,-2221.676944
2947.956356,-9474.636058,-1554.432478,-1532.190996
2947.956694,-9622.677246,-740.205942,-1838.629195
2947.957031,-9474.636058,-1480.411884,-229.828649
2947.957368,-9474.636058,-1850.514855,0.000000
2947.957705,-9844.739029,-2294.638420,-153.219100
2947.958043,-11029.068536,-1480.411884,766.095498
2947.958380,-10362.883188,-1480.411884,0.000000
2947.958717,-10732.986159,-1998.556043,-459.657299
2947.959054,-10584.944971,-2146.597232,153.219100
2947.959392,-11251.130318,-2664.741391,612.876398
2947.959729,-10066.800811,-1258.350101,842.705048
2947.960066,-9474.636058,-518.144159,612.876398
2947.960403,-9622.677246,0.000000,1378.971896
2947.960740,-11547.212695,0.000000,1455.581446
2947.961078,-11103.089130,666.185348,1072.533697
2947.961415,-11325.150913,222.061783,1072.533697
2947.961752,-10436.903782,0.000000,1302.362347
2947.962089,-10955.047942,0.000000,1762.019645
2947.962427,-9474.636058,-518.144159,536.266849
2947.962764,-8956.491898,-148.041188,383.047749
2947.963101,-8882.471304,148.041188,229.828649
2947.963438,-10362.883188,518.144159,-689.485948
2947.963776,-10214.842000,814.226536,-1532.190996
2947.964113,-10362.883188,296.082377,-2374.896044
2947.964450,-9326.594869,0.000000,-1225.752797
2947.964787,-8734.430116,-962.267725,0.000000
2947.965124,-9030.512492,-444.123565,1608.800546
2947.965462,-9104.533087,-296.082377,1762.019645
2947.965799,-8956.491898,-370.102971,1225.752797
2947.966136,-10584.944971,-592.164754,2451.505594
2947.966473,-11621.233289,-592.164754,2528.115143
2947.966811,-10955.047942,888.247130,1149.143247
2947.967148,-10955.047942,222.061783,0.000000
2947.967485,-9918.759623,-296.082377,76.609550
2947.967822,-8956.491898,-518.144159,0.000000
2947.968160,-9400.615463,-444.123565,229.828649
2947.968497,-8956.491898,296.082377,-612.876398
2947.968834,-10140.821405,0.000000,-306.438199
2947.969171,-11769.274478,592.164754,-612.876398
2947.969509,-10510.924376,592.164754,-1532.190996
2947.969846,-10807.006753,-370.102971,-612.876398
2947.970183,-10510.924376,-962.267725,306.438199
2947.970520,-10732.986159,-2220.617826,-229.828649
2947.970857,-10362.883188,-1258.350101,0.000000
2947.971195,-10066.800811,-2294.638420,-459.657299
2947.971532,-9326.594869,-2294.638420,383.047749
2947.971869,-10881.027347,-2368.659014,689.485948
2947.972206,-10584.944971,-296.082377,-459.657299
2947.972544,-10066.800811,-814.226536,-1149.143247
2947.972881,-9918.759623,-814.226536,-229.828649
2947.973218,-9918.759623,-1110.308913,459.657299
2947.973555,-9178.553681,-1184.329507,1149.143247
2947.973893,-9178.553681,148.041188,1762.019645
2947.974230,-9178.553681,296.082377,2374.896044
2947.974567,-11177.109724,444.123565,2528.115143
2947.974904,-10510.924376,1332.370696,1455.581446
2947.975242,-9992.780217,1480.411884,1838.629195
2947.975579,-9918.759623,2072.576638,1302.362347
2947.975916,-9918.759623,740.205942,919.314598
2947.976253,-10510.924376,1406.391290,0.000000
2947.976590,-8660.409521,1184.329507,-306.438199
2947.976928,-8142.265362,1554.432478,383.047749
2947.977265,-9844.739029,1110.308913,153.219100
2947.977602,-9770.718434,1406.391290,-1532.190996
2947.977939,-10658.965565,1850.514855,-1762.019645
2947.978277,-10881.027347,148.041188,-1378.971896
2947.978614,-10584.944971,-740.205942,-842.705048
2947.978951,-10362.883188,-1258.350101,-383.047749
2947.979288,-8956.491898,-1258.350101,0.000000
2947.979626,-8660.409521,-1702.473667,153.219100
2947.979963,-9992.780217,-814.226536,1762.019645
2947.980300,-10658.965565,-222.061783,995.924147
2947.980637,-10584.944971,0.000000,612.876398
2947.980974,-10881.027347,74.020594,536.266849
2947.981312,-11547.212695,-814.226536,306.438199
2947.981649,-11991.336260,-1110.308913,919.314598
2947.981986,-8956.491898,-1554.432478,842.705048
2947.982323,-8586.388927,-1258.350101,1225.752797
2947.982661,-8956.491898,-962.267725,1685.410096
2947.982998,-10362.883188,-444.123565,459.657299
2947.983335,-10362.883188,148.041188,-995.924147
2947.983672,-10140.821405,-296.082377,-1378.971896
2947.984010,-10584.944971,-370.102971,-1302.362347
2947.984347,-11029.068536,-1480.411884,-766.095498
2947.984684,-9178.553681,-2072.576638,-383.047749
2947.985021,-8660.409521,-1924.535449,0.000000
2947.985359,-9326.594869,-1628.453072,842.705048
2947.985696,-10066.800811,0.000000,1072.533697
2947.986033,-11251.130318,-592.164754,536.266849
2947.986370,-10510.924376,0.000000,-383.047749
2947.986707,-11029.068536,222.061783,-536.266849
2947.987045,-11695.253884,-888.247130,306.438199
2947.987382,-9548.656652,-740.205942,0.000000
2947.987719,-8512.368333,-962.267725,1149.143247
2947.988056,-8734.430116,74.020594,2374.896044
2947.988394,-10066.800811,1110.308913,3294.210641
2947.988731,-11029.068536,1628.453072,2068.457845
2947.989068,-10510.924376,1998.556043,689.485948
2947.989405,-9770.718434,1554.432478,383.047749
2947.989743,-11029.068536,1036.288319,459.657299
2947.990080,-9918.759623,-296.082377,-842.705048
2947.990417,-7994.224174,-296.082377,0.000000
2947.990754,-7994.224174,-1184.329507,0.000000
2947.991092,-8586.388927,-296.082377,1225.752797
2947.991429,-9844.739029,-296.082377,-383.047749
2947.991766,-10214.842000,296.082377,-842.705048
2947.992103,-11029.068536,296.082377,-2451.505594
2947.992440,-11695.253884,-1258.350101,-1608.800546
2947.992778,-11473.192101,-1850.514855,-1302.362347
2947.993115,-8438.347739,-2294.638420,-689.485948
2947.993452,-8438.347739,-2368.659014,76.609550
2947.993789,-9696.697840,-1184.329507,1149.143247
2947.994127,-10732.986159,-1184.329507,-383.047749
2947.994464,-11029.068536,-296.082377,0.000000
2947.994801,-12583.501014,-222.061783,0.000000
2947.995138,-11621.233289,-444.123565,536.266849
2947.995476,-11325.150913,-370.102971,842.705048
2947.995813,-9030.512492,-666.185348,1838.629195
2947.996150,-8956.491898,-1332.370696,2145.067394
2947.996487,-9030.512492,-296.082377,2528.115143
2947.996824,-10436.903782,888.247130,2681.334243
2947.997162,-10732.986159,1480.411884,1225.752797
2947.997499,-10066.800811,1480.411884,-689.485948
2947.997836,-10436.903782,666.185348,0.000000
2947.998173,-11251.130318,740.205942,-536.266849
2947.998511,-8660.409521,-518.144159,-1072.533697
2947.998848,-8438.347739,-962.267725,-536.266849
2947.999185,-7550.100608,-1184.329507,153.219100
2947.999522,-9178.553681,0.000000,229.828649
2947.999860,-9474.636058,1332.370696,76.609550
2948.000197,-9548.656652,740.205942,-536.266849
2948.000534,-11029.068536,962.267725,-842.705048
2948.000871,-11769.274478,0.000000,-536.266849
2948.001209,-9992.780217,0.000000,0.000000
2948.001546,-9548.656652,-666.185348,1225.752797
2948.001883,-9252.574275,-1480.411884,1838.629195
2948.002220,-9770.718434,296.082377,2451.505594
2948.002557,-10658.965565,888.247130,1685.410096
2948.002895,-10584.944971,1406.391290,0.000000
2948.003232,-10584.944971,74.020594,-689.485948
2948.003569,-12139.377449,518.144159,229.828649
2948.003906,-10732.986159,-370.102971,-1072.533697
2948.004244,-8290.306550,-518.144159,-995.924147
2948.004581,-8142.265362,-1628.453072,0.000000
2948.004918,-9326.594869,-444.123565,842.705048
2948.005255,-9622.677246,-444.123565,0.000000
2948.005593,-10288.862594,370.102971,-1149.143247
2948.005930,-11473.192101,-962.267725,-1149.143247
2948.006267,-11621.233289,-370.102971,-2298.286494
2948.006604,-10436.903782,-2146.597232,-2528.115143
2948.006941,-8142.265362,-2294.638420,-1378.971896
2948.007279,-7994.224174,-3923.091493,-536.266849
2948.007616,-8216.285956,-3034.844362,1455.581446
2948.007953,-9252.574275,-2072.576638,1072.533697
2948.008290,-9992.780217,222.061783,1302.362347
2948.008628,-11769.274478,-370.102971,919.314598
2948.008965,-12287.418637,148.041188,1072.533697
2948.009302,-11991.336260,444.123565,1225.752797
2948.009639,-10955.047942,-296.082377,2145.067394
2948.009977,-9474.636058,-592.164754,1838.629195
2948.010314,-8660.409521,-814.226536,2834.553343
2948.010651,-10658.965565,592.164754,3830.477490
2948.010988,-10362.883188,2442.679609,1072.533697
2948.011326,-10732.986159,2220.617826,-612.876398
2948.011663,-10881.027347,1628.453072,-919.314598
2948.012000,-10732.986159,1184.329507,-1608.800546
2948.012337,-9474.636058,1332.370696,-1302.362347
2948.012674,-8290.306550,-222.061783,-689.485948
2948.013012,-8438.347739,-1332.370696,229.828649
2948.013349,-9696.697840,-518.144159,459.657299
2948.013686,-9252.574275,0.000000,76.609550
2948.014023,-9030.512492,-148.041188,0.000000
2948.014361,-10214.842000,-740.205942,0.000000
2948.014698,-11177.109724,-962.267725,-459.657299
2948.015035,-10214.842000,-1258.350101,-1149.143247
2948.015372,-9030.512492,-1554.432478,0.000000
2948.015710,-8216.285956,-2072.576638,919.314598
2948.016047,-8586.388927,-1184.329507,1455.581446
2948.016384,-9548.656652,222.061783,1149.143247
2948.016721,-10658.965565,1110.308913,766.095498
2948.017059,-10955.047942,1110.308913,0.000000
2948.017396,-12065.356855,962.267725,153.219100
2948.017733,-12361.439231,592.164754,0.000000
2948.018070,-10436.903782,888.247130,229.828649
2948.018407,-9992.780217,-888.247130,766.095498
2948.018745,-9104.533087,-666.185348,1302.362347
2948.019082,-9252.574275,148.041188,1991.848295
2948.019419,-9844.739029,1184.329507,1225.752797
2948.019756,-11399.171507,814.226536,-1302.362347
2948.020094,-12287.418637,740.205942,-1149.143247
2948.020431,-11621.233289,0.000000,-1991.848295
2948.020768,-9252.574275,-962.267725,-1762.019645
2948.021105,-8512.368333,-2368.659014,0.000000
2948.021443,-7698.141797,-2812.782580,1685.410096
2948.021780,-7920.203579,-2146.597232,1838.629195
2948.022117,-8808.450710,-666.185348,2451.505594
2948.022454,-10436.903782,-74.020594,2145.067394
2948.022791,-11251.130318,-592.164754,459.657299
2948.023129,-11473.192101,370.102971,0.000000
2948.023466,-9844.739029,518.144159,766.095498
2948.023803,-9030.512492,-814.226536,2068.457845
2948.024140,-8512.368333,-518.144159,2528.115143
2948.024478,-9400.615463,148.041188,2987.772442
2948.024815,-9770.718434,2072.576638,1149.143247
2948.025152,-10584.944971,1184.329507,0.000000
2948.025489,-12287.418637,1406.391290,-995.924147
2948.025827,-11621.233289,888.247130,-1532.190996
2948.026164,-10584.944971,74.020594,-1991.848295
2948.026501,-9548.656652,-814.226536,-919.314598
2948.026838,-9104.533087,-1554.432478,-689.485948
2948.027176,-9400.615463,-1554.432478,0.000000
2948.027513,-10066.800811,-1628.453072,-536.266849
2948.027850,-9844.739029,-740.205942,0.000000
2948.028187,-11399.171507,-1110.308913,-842.705048
2948.028524,-11325.150913,-1332.370696,-1302.362347
2948.028862,-10881.027347,-1406.391290,-2068.457845
2948.029199,-10066.800811,-1554.432478,-1762.019645
2948.029536,-9030.512492,-3330.926739,-536.266849
2948.029873,-8808.450710,-3034.844362,1532.190996
2948.030211,-9326.594869,-2368.659014,2451.505594
2948.030548,-9474.636058,-444.123565,1991.848295
2948.030885,-10436.903782,148.041188,459.657299
2948.031222,-11177.109724,518.144159,383.047749
2948.031560,-11399.171507,222.061783,-153.219100
2948.031897,-9696.697840,-222.061783,-153.219100
2948.032234,-9326.594869,-222.061783,383.047749
2948.032571,-9696.697840,-370.102971,2374.896044
2948.032909,-9474.636058,222.061783,1685.410096
2948.033246,-8882.471304,1332.370696,766.095498
2948.033583,-9918.759623,1480.411884,-612.876398
2948.033920,-10955.047942,1554.432478,-1762.019645
2948.034257,-11621.233289,1480.411884,-1149.143247
2948.034595,-10584.944971,222.061783,-1762.019645
2948.034932,-9400.615463,0.000000,-1149.143247
2948.035269,-8586.388927,-962.267725,995.924147
2948.035606,-9178.553681,-370.102971,1991.848295
2948.035944,-8660.409521,222.061783,1838.629195
2948.036281,-10214.842000,814.226536,1532.190996
2948.036618,-10732.986159,740.205942,153.219100
2948.036955,-12509.480420,-148.041188,1378.971896
2948.037293,-11399.171507,-296.082377,1149.143247
2948.037630,-9104.533087,-444.123565,459.657299
2948.037967,-8956.491898,-666.185348,2374.896044
2948.038304,-8734.430116,-592.164754,2145.067394
2948.038641,-8808.450710,148.041188,1762.019645
2948.038979,-9548.656652,1480.411884,842.705048
2948.039316,-10881.027347,1406.391290,76.609550
2948.039653,-11325.150913,444.123565,-1302.362347
2948.039990,-10658.965565,444.123565,-1378.971896
2948.040328,-8512.368333,-148.041188,-919.314598
2948.040665,-8364.327145,-1258.350101,0.000000
2948.041002,-9696.697840,-1110.308913,842.705048
2948.041339,-9548.656652,-814.226536,153.219100
2948.041677,-10584.944971,148.041188,459.657299
2948.042014,-11029.068536,-370.102971,-1532.190996
2948.042351,-11843.295072,-222.061783,-1685.410096
2948.042688,-11325.150913,-1332.370696,-1838.629195
2948.043026,-9918.759623,-1850.514855,-1149.143247
2948.043363,-9474.636058,-2294.638420,0.000000
2948.043700,-9104.533087,-1554.432478,1302.362347
2948.044037,-10066.800811,-1332.370696,1149.143247
2948.044375,-10140.821405,0.000000,1455.581446
2948.044712,-10214.842000,0.000000,1072.533697
2948.045049,-11325.150913,888.247130,1532.190996
2948.045386,-11843.295072,-148.041188,1149.143247
2948.045724,-9992.780217,888.247130,842.705048
2948.046061,-9400.615463,0.000000,1072.533697
2948.046398,-8808.450710,-666.185348,1838.629195
2948.046735,-9178.553681,0.000000,919.314598
2948.047073,-8808.450710,592.164754,76.609550
2948.047410,-8956.491898,740.205942,-1225.752797
2948.047747,-9474.636058,888.247130,-1225.752797
2948.048085,-11473.192101,0.000000,-1225.752797
2948.048422,-9770.718434,592.164754,-2068.457845
2948.048759,-9400.615463,-740.205942,-766.095498
2948.049096,-9326.594869,-592.164754,0.000000
2948.049434,-10436.903782,-1110.308913,229.828649
2948.049771,-10066.800811,-962.267725,383.047749
2948.050108,-9770.718434,-1406.391290,153.219100
2948.050446,-10140.821405,-1332.370696,842.705048
2948.050783,-11843.295072,-1110.308913,766.095498
2948.051120,-11547.212695,-814.226536,306.438199
2948.051457,-9918.759623,-370.102971,1378.971896
2948.051795,-10436.903782,-1332.370696,1838.629195
2948.052132,-11473.192101,-296.082377,2298.286494
2948.052469,-9918.759623,-1036.288319,766.095498
2948.052807,-9104.533087,-592.164754,1225.752797
2948.053144,-9178.553681,-296.082377,1072.533697
2948.053481,-10510.924376,148.041188,766.095498
2948.053818,-11621.233289,518.144159,-536.266849
2948.054156,-10436.903782,-148.041188,-1225.752797
2948.054493,-9770.718434,-740.205942,-995.924147
2948.054830,-9474.636058,-962.267725,383.047749
2948.055168,-9252.574275,-1036.288319,689.485948
2948.055505,-8438.347739,-148.041188,0.000000
2948.055842,-8882.471304,-666.185348,-766.095498
2948.056179,-10584.944971,0.000000,-383.047749
2948.056517,-11251.130318,0.000000,-1455.581446
2948.056854,-10140.821405,0.000000,-459.657299
2948.057191,-9992.780217,-814.226536,-306.438199
2948.057528,-9548.656652,-518.144159,1302.362347
2948.057866,-9918.759623,-814.226536,2298.286494
2948.058203,-9696.697840,296.082377,1915.238745
2948.058540,-9696.697840,370.102971,1455.581446
2948.058878,-11177.109724,1480.411884,1838.629195
2948.059215,-11547.212695,1110.308913,0.000000
2948.059552,-9696.697840,1406.391290,-612.876398
2948.059889,-9474.636058,740.205942,383.047749
2948.060227,-8586.388927,1258.350101,536.266849
2948.060564,-10436.903782,1628.453072,612.876398
2948.060901,-9918.759623,1406.391290,0.000000
2948.061239,-9992.780217,0.000000,-612.876398
2948.061576,-9992.780217,0.000000,229.828649
2948.061913,-10658.965565,-296.082377,229.828649
2948.062250,-9474.636058,0.000000,-689.485948
2948.062588,-9844.739029,-1184.329507,-1225.752797
2948.062925,-9770.718434,-1702.473667,-1532.190996
2948.063262,-9844.739029,-2368.659014,-919.314598
2948.063600,-9252.574275,-1036.288319,-153.219100
2948.063937,-9326.594869,-1332.370696,383.047749
2948.064274,-10362.883188,-1332.370696,229.828649
2948.064611,-11399.171507,-592.164754,-919.314598
2948.064949,-10807.006753,-592.164754,-459.657299
2948.065286,-10362.883188,-1480.411884,842.705048
2948.065623,-10066.800811,-1480.411884,1532.190996
2948.065961,-11473.192101,-1998.556043,3064.381992
2948.066298,-10436.903782,-296.082377,2528.115143
2948.066635,-10436.903782,444.123565,2145.067394
2948.066972,-10732.986159,74.020594,2221.676944
2948.067310,-10436.903782,222.061783,612.876398
2948.067647,-10362.883188,1480.411884,0.000000
2948.067984,-9474.636058,1480.411884,-689.485948
2948.068322,-8882.471304,592.164754,-842.705048
2948.068659,-10288.862594,148.041188,689.485948
2948.068996,-10436.903782,0.000000,-229.828649
2948.069333,-9400.615463,740.205942,-229.828649
2948.069671,-9400.615463,-666.185348,0.000000
2948.070008,-9474.636058,0.000000,153.219100
2948.070345,-9474.636058,-222.061783,612.876398
2948.070682,-9696.697840,0.000000,306.438199
2948.071020,-10510.924376,-148.041188,229.828649
2948.071357,-10362.883188,-666.185348,-229.828649
2948.071694,-10510.924376,-370.102971,689.485948
2948.072032,-8956.491898,0.000000,383.047749
2948.072369,-9696.697840,0.000000,536.266849
2948.072706,-10436.903782,-592.164754,766.095498
2948.073043,-10436.903782,-592.164754,-229.828649
2948.073381,-10436.903782,370.102971,153.219100
2948.073718,-10140.821405,-592.164754,-229.828649
2948.074055,-9326.594869,-814.226536,76.609550
2948.074393,-10066.800811,-592.164754,459.657299
2948.074730,-9918.759623,222.061783,766.095498
2948.075067,-9474.636058,-148.041188,153.219100
2948.075404,-10214.842000,-296.082377,689.485948
2948.075742,-11399.171507,222.061783,229.828649
2948.076079,-10881.027347,-592.164754,-766.095498
2948.076416,-9918.759623,-740.205942,-1455.581446
2948.076754,-9252.574275,-1036.288319,-1225.752797
2948.077091,-10066.800811,-1554.432478,-459.657299
2948.077428,-9474.636058,-1258.350101,-1685.410096
2948.077765,-9770.718434,-1998.556043,-919.314598
2948.078103,-9844.739029,-1480.411884,0.000000
2948.078440,-10362.883188,-1998.556043,536.266849
2948.078777,-10510.924376,-1184.329507,1455.581446
2948.079115,-9474.636058,-962.267725,1149.143247
2948.079452,-9918.759623,-814.226536,2068.457845
2948.079789,-10510.924376,-814.226536,2681.334243
2948.080126,-10362.883188,0.000000,1838.629195
2948.080464,-10288.862594,1332.370696,2374.896044
2948.080801,-9992.780217,74.020594,766.095498
2948.081138,-9844.739029,888.247130,1455.581446
2948.081476,-10288.862594,666.185348,1149.143247
2948.081813,-9326.594869,1554.432478,1225.752797
2948.082150,-9252.574275,666.185348,229.828649
2948.082487,-9696.697840,740.205942,689.485948
2948.082825,-10288.862594,814.226536,229.828649
2948.083162,-9326.594869,962.267725,-536.266849
2948.083499,-9918.759623,1332.370696,0.000000
2948.083836,-10214.842000,222.061783,-383.047749
2948.084174,-10066.800811,370.102971,-995.924147
2948.084511,-9548.656652,-518.144159,-919.314598
2948.084848,-9696.697840,-666.185348,-1072.533697
2948.085186,-9400.615463,-1406.391290,-536.266849
2948.085523,-10807.006753,-1332.370696,-536.266849
2948.085860,-9918.759623,-1702.473667,459.657299
2948.086197,-9770.718434,-1702.473667,-995.924147
2948.086535,-9918.759623,-1850.514855,229.828649
2948.086872,-10140.821405,-1332.370696,536.266849
2948.087209,-9770.718434,-1036.288319,536.266849
2948.087547,-10140.821405,-370.102971,766.095498
2948.087884,-9844.739029,-666.185348,689.485948
2948.088221,-11103.089130,-518.144159,1149.143247
2948.088558,-9844.739029,-296.082377,306.438199
2948.088896,-10584.944971,592.164754,0.000000
2948.089233,-10658.965565,444.123565,-612.876398
2948.089570,-10732.986159,-740.205942,-842.705048
2948.089908,-9178.553681,0.000000,-1225.752797
2948.090245,-9030.512492,-814.226536,-919.314598
2948.090582,-9844.739029,-518.144159,306.438199
2948.090919,-10436.903782,-814.226536,-766.095498
2948.091257,-9548.656652,74.020594,-229.828649
2948.091594,-9918.759623,222.061783,-383.047749
2948.091931,-10288.862594,-296.082377,0.000000
2948.092269,-10807.006753,0.000000,842.705048
2948.092606,-10584.944971,-962.267725,766.095498
2948.092943,-9474.636058,-592.164754,919.314598
2948.093280,-9622.677246,-740.205942,1455.581446
2948.093618,-9548.656652,-296.082377,1915.238745
2948.093955,-9622.677246,0.000000,1455.581446
2948.094292,-9992.780217,888.247130,995.924147
2948.094629,-10584.944971,1850.514855,919.314598
2948.094967,-10140.821405,1110.308913,0.000000
2948.095304,-10658.965565,74.020594,1225.752797
2948.095641,-8808.450710,740.205942,1072.533697
2948.095979,-8882.471304,1850.514855,1225.752797
2948.096316,-9918.759623,1258.350101,766.095498
2948.096653,-11325.150913,666.185348,-229.828649
2948.096990,-9918.759623,814.226536,-1225.752797
2948.097328,-10436.903782,-370.102971,-1072.533697
2948.097665,-10066.800811,-888.247130,-229.828649
2948.098002,-9992.780217,-1628.453072,-612.876398
2948.098340,-9326.594869,-1850.514855,-612.876398
2948.098677,-9104.533087,-1184.329507,-995.924147
2948.099014,-9030.512492,-1628.453072,0.000000
2948.099351,-10807.006753,-1628.453072,0.000000
2948.099689,-10955.047942,-1480.411884,-612.876398
2948.100026,-11325.150913,-888.247130,-383.047749
2948.100363,-10807.006753,-1406.391290,-153.219100
2948.100701,-10362.883188,-2368.659014,-229.828649
2948.101038,-9474.636058,-1924.535449,383.047749
2948.101375,-9400.615463,-1850.514855,1608.800546
2948.101712,-9548.656652,-1110.308913,1762.019645
2948.102050,-10584.944971,-148.041188,1762.019645
2948.102387,-10732.986159,296.082377,1991.848295
2948.102724,-10807.006753,-370.102971,842.705048
2948.103062,-10066.800811,1036.288319,842.705048
2948.103399,-10881.027347,592.164754,459.657299
2948.103736,-10140.821405,-518.144159,76.609550
2948.104073,-8586.388927,370.102971,-383.047749
2948.104411,-8882.471304,296.082377,-76.609550
2948.104748,-9992.780217,814.226536,0.000000
2948.105085,-9770.718434,444.123565,-1072.533697
2948.105423,-10807.006753,1036.288319,-1378.971896
2948.105760,-10584.944971,148.041188,-995.924147
2948.106097,-10807.006753,-518.144159,76.609550
2948.106434,-9844.739029,-814.226536,1149.143247
2948.106772,-8364.327145,-666.185348,1225.752797
2948.107109,-8734.430116,-518.144159,1915.238745
2948.107446,-9844.739029,0.000000,1838.629195
2948.107783,-10510.924376,296.082377,1762.019645
2948.108121,-11399.171507,666.185348,995.924147
2948.108458,-11029.068536,370.102971,0.000000
2948.108795,-10214.842000,666.185348,0.000000
2948.109133,-10510.924376,-592.164754,459.657299
2948.109470,-8808.450710,296.082377,612.876398
2948.109807,-7698.141797,-296.082377,153.219100
2948.110144,-9400.615463,0.000000,766.095498
2948.110482,-10732.986159,296.082377,0.000000
2948.110819,-11325.150913,74.020594,-536.266849
2948.111156,-10584.944971,148.041188,-383.047749
2948.111494,-10066.800811,-666.185348,-612.876398
2948.111831,-10881.027347,-1258.350101,0.000000
2948.112168,-9474.636058,-1332.370696,-1149.143247
