#time,accel_x,accel_y,accel_z
3312.332482,-9474.636058,-1998.556043,842.705048
3312.332820,-9252.574275,-1850.514855,229.828649
3312.333158,-8956.491898,-1850.514855,-842.705048
3312.333496,-8438.347739,-2664.741391,0.000000
3312.333834,-9400.615463,-2220.617826,766.095498
3312.334171,-8956.491898,-2442.679609,689.485948
3312.334509,-9178.553681,-1850.514855,995.924147
3312.334847,-9992.780217,-1628.453072,1225.752797
3312.335185,-10807.006753,-1702.473667,1072.533697
3312.335523,-9770.718434,-962.267725,1149.143247
3312.335861,-9844.739029,-1258.350101,1532.190996
3312.336198,-9548.656652,-1110.308913,2451.505594
3312.336536,-10584.944971,-962.267725,2757.943793
3312.336874,-10807.006753,-444.123565,2987.772442
3312.337212,-10066.800811,-296.082377,1378.971896
3312.337550,-9844.739029,222.061783,2145.067394
3312.337887,-10066.800811,888.247130,2604.724693
3312.338225,-10214.842000,222.061783,2068.457845
3312.338563,-10807.006753,518.144159,1685.410096
3312.338901,-9992.780217,-666.185348,1225.752797
3312.339239,-10584.944971,0.000000,2374.896044
3312.339577,-10436.903782,-1110.308913,2068.457845
3312.339914,-10510.924376,-2294.638420,1991.848295
3312.340252,-9696.697840,-1850.514855,1378.971896
3312.340590,-9844.739029,-3552.988522,2145.067394
3312.340928,-9548.656652,-3182.885551,2834.553343
3312.341266,-8660.409521,-4589.276840,2068.457845
3312.341603,-9474.636058,-3997.112087,3217.601092
3312.341941,-10140.821405,-4367.215058,3294.210641
3312.342279,-10140.821405,-3923.091493,3217.601092
3312.342617,-10362.883188,-3404.947333,3294.210641
3312.342955,-10214.842000,-3552.988522,3294.210641
3312.343293,-10436.903782,-4589.276840,4443.353888
3312.343630,-9696.697840,-4885.359217,5286.058936
3312.343968,-9770.718434,-4663.297435,7354.516781
3312.344306,-10658.965565,-4071.132681,7967.393179
3312.344644,-11547.212695,-3552.988522,6818.249932
3312.344982,-11399.171507,-1850.514855,4213.525239
3312.345319,-10658.965565,-1184.329507,3064.381992
3312.345657,-10214.842000,-1184.329507,2681.334243
3312.345995,-9474.636058,-2368.659014,1838.629195
3312.346333,-8808.450710,-2886.803174,2145.067394
3312.346671,-8808.450710,-2960.823768,2145.067394
3312.347009,-9622.677246,-3330.926739,2221.676944
3312.347346,-10214.842000,-3404.947333,1149.143247
3312.347684,-9474.636058,-3923.091493,1608.800546
3312.348022,-8734.430116,-3552.988522,2528.115143
3312.348360,-9844.739029,-3849.070898,3447.429741
3312.348698,-11325.150913,-2294.638420,1915.238745
3312.349035,-9992.780217,-2368.659014,-766.095498
3312.349373,-9918.759623,-2442.679609,0.000000
3312.349711,-9844.739029,-4811.338623,1532.190996
3312.350049,-8956.491898,-5625.565159,689.485948
3312.350387,-7179.997637,-3849.070898,1149.143247
3312.350725,-7846.182985,-3775.050304,1991.848295
3312.351062,-10584.944971,-3775.050304,3370.820191
3312.351400,-11843.295072,-3478.967927,2911.162892
3312.351738,-11917.315666,-1998.556043,2681.334243
3312.352076,-10955.047942,444.123565,1608.800546
3312.352414,-11177.109724,444.123565,766.095498
3312.352751,-11547.212695,-370.102971,-1149.143247
3312.353089,-8808.450710,-3182.885551,-766.095498
3312.353427,-7476.080014,-3330.926739,1378.971896
3312.353765,-9622.677246,-4441.235652,3447.429741
3312.354103,-11621.233289,-3701.029710,1685.410096
3312.354441,-10955.047942,-2220.617826,-1225.752797
3312.354778,-8438.347739,-2220.617826,-1608.800546
3312.355116,-9104.533087,-1628.453072,1532.190996
3312.355454,-10362.883188,-2368.659014,1762.019645
3312.355791,-9696.697840,-2146.597232,2528.115143
3312.356129,-11177.109724,-888.247130,3753.867940
3312.356467,-13027.624579,-1332.370696,3983.696590
3312.356804,-12657.521608,-1776.494261,2374.896044
3312.357142,-10362.883188,-1776.494261,2604.724693
3312.357480,-7920.203579,-3034.844362,3524.039291
3312.357817,-7772.162391,-3182.885551,5286.058936
3312.358155,-8956.491898,-1184.329507,6971.469032
3312.358493,-10807.006753,296.082377,6281.983084
3312.358830,-11029.068536,2146.597232,3600.648841
3312.359168,-11547.212695,2072.576638,2911.162892
3312.359506,-12065.356855,1924.535449,4596.572988
3312.359843,-10436.903782,1554.432478,5898.935335
3312.360181,-8808.450710,1702.473667,5209.449386
3312.360519,-8438.347739,2664.741391,3140.991542
3312.360856,-10066.800811,74.020594,1455.581446
3312.361194,-10658.965565,-814.226536,1608.800546
3312.361532,-8438.347739,-2516.700203,2681.334243
3312.361869,-7031.956449,-2590.720797,3830.477490
3312.362207,-7772.162391,-370.102971,1455.581446
3312.362545,-9326.594869,222.061783,-995.924147
3312.362882,-11769.274478,370.102971,-1302.362347
3312.363220,-10510.924376,-1480.411884,-1225.752797
3312.363558,-11251.130318,-1036.288319,1838.629195
3312.363895,-10214.842000,-1332.370696,1762.019645
3312.364233,-9548.656652,-2146.597232,842.705048
3312.364571,-11029.068536,-3034.844362,1685.410096
3312.364908,-8956.491898,-4293.194464,459.657299
3312.365246,-9844.739029,-4219.173869,2834.553343
3312.365584,-11251.130318,-2960.823768,2145.067394
3312.365921,-10584.944971,-888.247130,-306.438199
3312.366259,-12361.439231,-740.205942,-766.095498
3312.366597,-11251.130318,-1628.453072,-995.924147
3312.366934,-10362.883188,-2442.679609,229.828649
3312.367272,-11029.068536,-1184.329507,766.095498
3312.367610,-9992.780217,-592.164754,-1532.190996
3312.367947,-10140.821405,-1776.494261,-1915.238745
3312.368285,-10066.800811,-3478.967927,-919.314598
3312.368623,-8956.491898,-4737.318029,0.000000
3312.368961,-9030.512492,-3775.050304,459.657299
3312.369298,-9178.553681,-2368.659014,-842.705048
3312.369636,-9474.636058,-2664.741391,-1915.238745
3312.369974,-10362.883188,-4145.153275,-459.657299
3312.370311,-9326.594869,-2812.782580,1455.581446
3312.370649,-9918.759623,-444.123565,2068.457845
3312.370987,-10584.944971,518.144159,995.924147
3312.371324,-11695.253884,222.061783,-1455.581446
3312.371662,-11325.150913,-2886.803174,76.609550
3312.372000,-7476.080014,-2368.659014,2757.943793
3312.372337,-6217.729913,-1702.473667,5592.497135
3312.372675,-9548.656652,0.000000,5592.497135
3312.373013,-11547.212695,-222.061783,1991.848295
3312.373350,-11325.150913,-518.144159,76.609550
3312.373688,-9770.718434,1258.350101,2528.115143
3312.374026,-9474.636058,3923.091493,2987.772442
3312.374363,-11917.315666,3775.050304,1532.190996
3312.374701,-12509.480420,2072.576638,-3907.087040
3312.375039,-9252.574275,0.000000,-3447.429741
3312.375376,-7772.162391,-592.164754,0.000000
3312.375714,-6587.832884,-2294.638420,2451.505594
3312.376052,-10140.821405,-3404.947333,2451.505594
3312.376389,-10658.965565,-4145.153275,0.000000
3312.376727,-9474.636058,-2294.638420,-919.314598
3312.377065,-8438.347739,-666.185348,536.266849
3312.377402,-9770.718434,-740.205942,2068.457845
3312.377740,-12139.377449,-1110.308913,0.000000
3312.378078,-11769.274478,-296.082377,-1532.190996
3312.378415,-10510.924376,296.082377,-919.314598
3312.378753,-9770.718434,-962.267725,1302.362347
3312.379091,-11325.150913,-2960.823768,2451.505594
3312.379428,-10066.800811,-3404.947333,0.000000
3312.379766,-8660.409521,-666.185348,-306.438199
3312.380104,-8734.430116,814.226536,689.485948
3312.380441,-10140.821405,-148.041188,1532.190996
3312.380779,-11473.192101,0.000000,995.924147
3312.381117,-9548.656652,1702.473667,-1302.362347
3312.381454,-11325.150913,3552.988522,1762.019645
3312.381792,-12065.356855,2738.761985,1762.019645
3312.382130,-12287.418637,1480.411884,306.438199
3312.382467,-10066.800811,0.000000,-766.095498
3312.382805,-8290.306550,1702.473667,-1149.143247
3312.383143,-8438.347739,370.102971,0.000000
3312.383480,-9770.718434,74.020594,-612.876398
3312.383818,-8586.388927,-1332.370696,-2374.896044
3312.384156,-7920.203579,0.000000,-1685.410096
3312.384493,-9252.574275,1480.411884,-306.438199
3312.384831,-10510.924376,1628.453072,-229.828649
3312.385169,-12287.418637,1628.453072,842.705048
3312.385506,-10436.903782,592.164754,-919.314598
3312.385844,-9178.553681,1258.350101,536.266849
3312.386182,-9474.636058,518.144159,2451.505594
3312.386519,-10288.862594,0.000000,1762.019645
3312.386857,-9474.636058,-1776.494261,689.485948
3312.387195,-8734.430116,-148.041188,842.705048
3312.387532,-9326.594869,0.000000,1685.410096
3312.387870,-10955.047942,148.041188,1991.848295
3312.388208,-12213.398043,-444.123565,-306.438199
3312.388545,-10140.821405,-888.247130,-2221.676944
3312.388883,-10066.800811,1924.535449,-689.485948
3312.389221,-10436.903782,0.000000,-766.095498
3312.389558,-11251.130318,-222.061783,-1762.019645
3312.389896,-10807.006753,-3108.864956,-2528.115143
3312.390234,-8142.265362,-2220.617826,-1608.800546
3312.390571,-8438.347739,-3034.844362,153.219100
3312.390909,-10658.965565,-3923.091493,1762.019645
3312.391247,-10955.047942,-5181.441594,0.000000
3312.391584,-10066.800811,-4145.153275,-612.876398
3312.391922,-10140.821405,-1406.391290,919.314598
3312.392260,-10140.821405,-740.205942,1149.143247
3312.392597,-11621.233289,-1332.370696,536.266849
3312.392935,-10584.944971,-2072.576638,-995.924147
3312.393273,-8956.491898,-888.247130,1378.971896
3312.393610,-8364.327145,-666.185348,2987.772442
3312.393948,-9992.780217,-518.144159,3677.258390
3312.394286,-11695.253884,-2442.679609,3294.210641
3312.394623,-8808.450710,-1406.391290,1225.752797
3312.394961,-8364.327145,1184.329507,2221.676944
3312.395299,-9696.697840,1998.556043,1915.238745
3312.395636,-10881.027347,2294.638420,-306.438199
3312.395974,-10510.924376,666.185348,-2374.896044
3312.396312,-9474.636058,1776.494261,-995.924147
3312.396649,-8660.409521,2146.597232,842.705048
3312.396987,-10955.047942,518.144159,1838.629195
3312.397325,-11029.068536,-1776.494261,0.000000
3312.397662,-8142.265362,-962.267725,-2221.676944
3312.398000,-8364.327145,0.000000,229.828649
3312.398338,-8956.491898,0.000000,383.047749
3312.398675,-11769.274478,-1184.329507,0.000000
3312.399013,-10584.944971,-1702.473667,-2374.896044
3312.399351,-9104.533087,-518.144159,-2145.067394
3312.399688,-9548.656652,0.000000,1225.752797
3312.400026,-11473.192101,-1776.494261,2451.505594
3312.400364,-11695.253884,-2590.720797,383.047749
3312.400701,-9400.615463,-1776.494261,-766.095498
3312.401039,-9474.636058,0.000000,919.314598
3312.401377,-10362.883188,0.000000,612.876398
3312.401714,-11695.253884,-1998.556043,766.095498
3312.402052,-9622.677246,-2368.659014,-995.924147
3312.402390,-7624.121203,148.041188,0.000000
3312.402727,-9178.553681,1332.370696,459.657299
3312.403065,-12213.398043,-296.082377,1149.143247
3312.403403,-12509.480420,-2072.576638,-1378.971896
3312.403740,-9400.615463,-592.164754,-2374.896044
3312.404078,-9474.636058,1184.329507,842.705048
3312.404416,-10288.862594,814.226536,229.828649
3312.404753,-11399.171507,-962.267725,-1762.019645
3312.405091,-9030.512492,-1702.473667,-3370.820191
3312.405429,-7846.182985,0.000000,-536.266849
3312.405766,-9178.553681,0.000000,1378.971896
3312.406104,-12139.377449,0.000000,2298.286494
3312.406442,-11769.274478,-1184.329507,-383.047749
3312.406779,-9622.677246,592.164754,229.828649
3312.407117,-9400.615463,2072.576638,2221.676944
3312.407455,-10066.800811,2516.700203,2604.724693
3312.407792,-12213.398043,1406.391290,1915.238745
3312.408130,-9178.553681,1554.432478,-842.705048
3312.408468,-7624.121203,2664.741391,842.705048
3312.408805,-9252.574275,1850.514855,3524.039291
3312.409143,-10807.006753,-518.144159,3217.601092
3312.409481,-9696.697840,-518.144159,229.828649
3312.409818,-8438.347739,2294.638420,0.000000
3312.410156,-9104.533087,2960.823768,306.438199
3312.410494,-11325.150913,1406.391290,0.000000
3312.410831,-11473.192101,-370.102971,-1838.629195
3312.411169,-8734.430116,-518.144159,-2451.505594
3312.411507,-7698.141797,0.000000,-612.876398
3312.411844,-9252.574275,-1554.432478,842.705048
3312.412182,-11695.253884,-3404.947333,1455.581446
3312.412520,-10584.944971,-5329.482782,-766.095498
3312.412858,-8660.409521,-2886.803174,229.828649
3312.413195,-10066.800811,-1480.411884,1455.581446
3312.413533,-11695.253884,-1850.514855,1072.533697
3312.413871,-12657.521608,-2516.700203,-612.876398
3312.414208,-10436.903782,-2220.617826,-1838.629195
3312.414546,-9548.656652,-148.041188,842.705048
3312.414884,-10807.006753,-1036.288319,2451.505594
3312.415221,-12435.459826,-2368.659014,3753.867940
3312.415559,-10214.842000,-2886.803174,383.047749
3312.415897,-9548.656652,-1036.288319,1455.581446
3312.416234,-9400.615463,74.020594,2145.067394
3312.416572,-11029.068536,-296.082377,1225.752797
3312.416910,-11325.150913,-1036.288319,-383.047749
3312.417247,-8586.388927,0.000000,-1915.238745
3312.417585,-8290.306550,1258.350101,919.314598
3312.417923,-9992.780217,370.102971,1838.629195
3312.418260,-12287.418637,-666.185348,383.047749
3312.418598,-11103.089130,-1332.370696,-1838.629195
3312.418936,-8808.450710,0.000000,-383.047749
3312.419273,-8586.388927,666.185348,536.266849
3312.419611,-10362.883188,666.185348,383.047749
3312.419949,-10807.006753,-962.267725,-1608.800546
3312.420286,-7031.956449,296.082377,-3524.039291
3312.420624,-7550.100608,1184.329507,306.438199
3312.420962,-9622.677246,962.267725,2604.724693
3312.421299,-11843.295072,-740.205942,1455.581446
3312.421637,-11473.192101,74.020594,76.609550
3312.421975,-9918.759623,2146.597232,1149.143247
3312.422312,-9770.718434,2516.700203,1532.190996
3312.422650,-11251.130318,1258.350101,1225.752797
3312.422988,-10584.944971,0.000000,-1149.143247
3312.423325,-8216.285956,0.000000,-995.924147
3312.423663,-7624.121203,814.226536,0.000000
3312.424001,-9992.780217,1554.432478,1072.533697
3312.424338,-12657.521608,-1184.329507,383.047749
3312.424676,-10066.800811,-1850.514855,-2145.067394
3312.425014,-9252.574275,444.123565,-919.314598
3312.425351,-9992.780217,1184.329507,1149.143247
3312.425689,-11917.315666,0.000000,-536.266849
3312.426027,-10881.027347,-2442.679609,-3370.820191
3312.426364,-7772.162391,-1924.535449,-2451.505594
3312.426702,-8364.327145,-1480.411884,689.485948
3312.427040,-10584.944971,-2294.638420,2987.772442
3312.427377,-12287.418637,-3256.906145,1149.143247
3312.427715,-10214.842000,-2664.741391,-459.657299
3312.428053,-9474.636058,-518.144159,459.657299
3312.428390,-10288.862594,370.102971,2145.067394
3312.428728,-11917.315666,518.144159,2145.067394
3312.429066,-10807.006753,-592.164754,-459.657299
3312.429403,-8660.409521,1480.411884,842.705048
3312.429741,-8586.388927,1332.370696,3447.429741
3312.430079,-10436.903782,518.144159,4136.915689
3312.430416,-11769.274478,-592.164754,2834.553343
3312.430754,-9992.780217,296.082377,1225.752797
3312.431092,-8882.471304,2294.638420,1225.752797
3312.431429,-8956.491898,2442.679609,766.095498
3312.431767,-11103.089130,1850.514855,0.000000
3312.432105,-10288.862594,518.144159,-2834.553343
3312.432442,-7550.100608,1406.391290,-2374.896044
3312.432780,-8734.430116,2368.659014,459.657299
3312.433118,-9844.739029,74.020594,919.314598
3312.433455,-11029.068536,-1332.370696,229.828649
3312.433793,-9770.718434,-1776.494261,-689.485948
3312.434131,-8882.471304,888.247130,1302.362347
3312.434468,-10288.862594,370.102971,1302.362347
3312.434806,-12213.398043,-1184.329507,536.266849
3312.435144,-9844.739029,-2368.659014,-1302.362347
3312.435481,-8808.450710,-666.185348,153.219100
3312.435819,-7920.203579,518.144159,1149.143247
3312.436157,-11399.171507,0.000000,2221.676944
3312.436494,-12583.501014,-1924.535449,612.876398
3312.436832,-10140.821405,-1184.329507,-1608.800546
3312.437170,-8882.471304,592.164754,306.438199
3312.437507,-10288.862594,592.164754,919.314598
3312.437845,-11399.171507,-1258.350101,-612.876398
3312.438183,-9252.574275,-1850.514855,-3217.601092
3312.438520,-7994.224174,-666.185348,-1608.800546
3312.438858,-8808.450710,-740.205942,995.924147
3312.439196,-11547.212695,-1776.494261,1302.362347
3312.439533,-12361.439231,-2886.803174,-766.095498
3312.439871,-10140.821405,-1332.370696,-1991.848295
3312.440209,-9400.615463,-740.205942,-612.876398
3312.440546,-9918.759623,-518.144159,536.266849
3312.440884,-10436.903782,-1998.556043,-1072.533697
3312.441222,-8586.388927,-1702.473667,-2221.676944
3312.441559,-8290.306550,74.020594,0.000000
3312.441897,-9104.533087,148.041188,1838.629195
3312.442235,-11399.171507,-444.123565,2757.943793
3312.442572,-11991.336260,-1258.350101,2298.286494
3312.442910,-9474.636058,518.144159,1302.362347
3312.443248,-9400.615463,2146.597232,2298.286494
3312.443585,-9770.718434,2442.679609,3064.381992
3312.443923,-10732.986159,888.247130,1378.971896
3312.444261,-9548.656652,740.205942,-536.266849
3312.444598,-8142.265362,2368.659014,689.485948
3312.444936,-8438.347739,1776.494261,2221.676944
3312.445274,-10288.862594,1332.370696,2987.772442
3312.445611,-10658.965565,-592.164754,-995.924147
3312.445949,-8734.430116,962.267725,-842.705048
3312.446287,-9770.718434,962.267725,536.266849
3312.446624,-10584.944971,1406.391290,612.876398
3312.446962,-10732.986159,0.000000,-842.705048
3312.447300,-9622.677246,-1258.350101,-2451.505594
3312.447637,-9326.594869,-444.123565,-459.657299
3312.447975,-9252.574275,-1924.535449,0.000000
3312.448313,-10436.903782,-2220.617826,1762.019645
3312.448650,-10807.006753,-3330.926739,383.047749
3312.448988,-9770.718434,-1258.350101,-306.438199
3312.449326,-10140.821405,-888.247130,536.266849
3312.449663,-10955.047942,-148.041188,766.095498
3312.450001,-11843.295072,-1332.370696,76.609550
3312.450339,-10362.883188,-370.102971,-1072.533697
3312.450676,-9770.718434,296.082377,1072.533697
3312.451014,-9844.739029,-740.205942,1838.629195
3312.451352,-11695.253884,-814.226536,2068.457845
3312.451689,-10955.047942,-1554.432478,0.000000
3312.452027,-8808.450710,370.102971,0.000000
3312.452365,-8808.450710,1184.329507,306.438199
3312.452702,-10955.047942,1110.308913,0.000000
3312.453040,-10732.986159,-296.082377,-2068.457845
3312.453377,-8882.471304,0.000000,-2757.943793
3312.453715,-8438.347739,1480.411884,383.047749
3312.454052,-9622.677246,1850.514855,536.266849
3312.454390,-11843.295072,148.041188,383.047749
3312.454727,-10362.883188,-814.226536,-2298.286494
3312.455064,-8290.306550,74.020594,-383.047749
3312.455402,-9326.594869,1258.350101,1685.410096
3312.455739,-10066.800811,888.247130,1302.362347
3312.456077,-10732.986159,-370.102971,-229.828649
3312.456414,-9030.512492,296.082377,-689.485948
3312.456751,-8290.306550,1702.473667,1072.533697
3312.457089,-10140.821405,2368.659014,2528.115143
3312.457426,-12361.439231,148.041188,2068.457845
3312.457764,-10214.842000,-296.082377,76.609550
3312.458101,-9030.512492,1110.308913,1149.143247
3312.458439,-9696.697840,2368.659014,2834.553343
3312.458776,-10881.027347,1036.288319,1991.848295
3312.459113,-11399.171507,-666.185348,-842.705048
3312.459451,-9178.553681,74.020594,-2451.505594
3312.459788,-8290.306550,0.000000,-689.485948
3312.460126,-9326.594869,74.020594,306.438199
3312.460463,-11695.253884,-2590.720797,306.438199
3312.460800,-10214.842000,-3034.844362,-2068.457845
3312.461138,-9030.512492,-1258.350101,-1302.362347
3312.461475,-9400.615463,-444.123565,306.438199
3312.461813,-11473.192101,-1776.494261,459.657299
3312.462150,-11769.274478,-3997.112087,-1225.752797
3312.462487,-9474.636058,-3034.844362,-612.876398
3312.462825,-8660.409521,-1110.308913,1225.752797
3312.463162,-10140.821405,-1702.473667,2834.553343
3312.463500,-12361.439231,-2960.823768,2145.067394
3312.463837,-10510.924376,-2886.803174,-612.876398
3312.464175,-9178.553681,74.020594,689.485948
3312.464512,-10140.821405,962.267725,2145.067394
3312.464849,-11473.192101,888.247130,2374.896044
3312.465187,-11621.233289,-518.144159,229.828649
3312.465524,-9252.574275,1184.329507,-995.924147
3312.465862,-8438.347739,2442.679609,995.924147
3312.466199,-10732.986159,1702.473667,3140.991542
3312.466536,-11843.295072,0.000000,842.705048
3312.466874,-9400.615463,74.020594,-1378.971896
3312.467211,-8512.368333,2220.617826,153.219100
3312.467549,-8808.450710,2220.617826,459.657299
3312.467886,-10732.986159,1480.411884,-229.828649
3312.468223,-10584.944971,0.000000,-2834.553343
3312.468561,-8364.327145,962.267725,-2221.676944
3312.468898,-8142.265362,1480.411884,-306.438199
3312.469236,-10362.883188,0.000000,1762.019645
3312.469573,-11473.192101,-666.185348,0.000000
3312.469911,-9992.780217,-888.247130,-536.266849
3312.470248,-8808.450710,740.205942,0.000000
3312.470585,-9548.656652,-740.205942,1378.971896
3312.470923,-11917.315666,-1036.288319,1838.629195
3312.471260,-10288.862594,-1184.329507,-383.047749
3312.471598,-8956.491898,370.102971,-995.924147
3312.471935,-9178.553681,444.123565,1378.971896
3312.472272,-11103.089130,0.000000,2528.115143
3312.472610,-12065.356855,-2516.700203,612.876398
3312.472947,-9474.636058,-888.247130,-995.924147
3312.473285,-9326.594869,296.082377,842.705048
3312.473622,-10584.944971,444.123565,2068.457845
3312.473960,-11991.336260,-1332.370696,-229.828649
3312.474297,-10658.965565,-2146.597232,-2298.286494
3312.474634,-8438.347739,-370.102971,-1685.410096
3312.474972,-8956.491898,222.061783,0.000000
3312.475309,-11695.253884,-1184.329507,995.924147
3312.475647,-11103.089130,-3552.988522,-1072.533697
3312.475984,-8364.327145,-2812.782580,-1608.800546
3312.476321,-8512.368333,0.000000,1378.971896
3312.476659,-9844.739029,1110.308913,2068.457845
3312.476996,-13027.624579,-518.144159,536.266849
3312.477334,-10807.006753,-1406.391290,-2145.067394
3312.477671,-8216.285956,666.185348,153.219100
3312.478008,-9474.636058,1332.370696,3600.648841
3312.478346,-10955.047942,1036.288319,3907.087040
3312.478683,-11325.150913,-518.144159,1072.533697
3312.479021,-9104.533087,740.205942,76.609550
3312.479358,-8142.265362,2442.679609,1455.581446
3312.479696,-9252.574275,3330.926739,2451.505594
3312.480033,-11843.295072,740.205942,229.828649
3312.480370,-9622.677246,1110.308913,-2757.943793
3312.480708,-7624.121203,2368.659014,-1225.752797
3312.481045,-8586.388927,2664.741391,1838.629195
3312.481383,-11621.233289,740.205942,1838.629195
3312.481720,-11695.253884,-1554.432478,-1915.238745
3312.482057,-9474.636058,0.000000,-2757.943793
3312.482395,-8660.409521,518.144159,-459.657299
3312.482732,-10140.821405,0.000000,612.876398
3312.483070,-11769.274478,-2220.617826,-1225.752797
3312.483407,-9326.594869,-3034.844362,-2987.772442
3312.483745,-7624.121203,-1184.329507,-1762.019645
3312.484082,-9474.636058,-444.123565,1685.410096
3312.484419,-12509.480420,-1850.514855,1455.581446
3312.484757,-12065.356855,-4071.132681,-1302.362347
3312.485094,-9104.533087,-1924.535449,-766.095498
3312.485432,-8956.491898,222.061783,1838.629195
3312.485769,-10584.944971,0.000000,2834.553343
3312.486106,-12657.521608,-1554.432478,459.657299
3312.486444,-9770.718434,-2294.638420,-1838.629195
3312.486781,-8956.491898,444.123565,612.876398
3312.487119,-10066.800811,0.000000,2681.334243
3312.487456,-11769.274478,-962.267725,919.314598
3312.487793,-10584.944971,-2368.659014,-1378.971896
3312.488131,-7994.224174,148.041188,-1225.752797
3312.488468,-7772.162391,814.226536,383.047749
3312.488806,-10584.944971,1406.391290,919.314598
3312.489143,-12213.398043,-740.205942,-1532.190996
3312.489481,-9770.718434,-740.205942,-3447.429741
3312.489818,-8956.491898,814.226536,459.657299
3312.490155,-9252.574275,814.226536,2987.772442
3312.490493,-11621.233289,-1184.329507,2681.334243
3312.490830,-10436.903782,-1998.556043,0.000000
3312.491168,-8660.409521,370.102971,306.438199
3312.491505,-8956.491898,1110.308913,2145.067394
3312.491842,-11251.130318,666.185348,2604.724693
3312.492180,-11621.233289,-518.144159,153.219100
3312.492517,-8586.388927,370.102971,-842.705048
3312.492855,-7920.203579,2294.638420,1608.800546
3312.493192,-9474.636058,888.247130,3600.648841
3312.493530,-11695.253884,0.000000,2757.943793
3312.493867,-10584.944971,-1776.494261,-229.828649
3312.494204,-9252.574275,962.267725,306.438199
3312.494542,-9178.553681,1406.391290,1378.971896
3312.494879,-11473.192101,296.082377,1149.143247
3312.495217,-11251.130318,-2072.576638,-1762.019645
3312.495554,-8142.265362,-1184.329507,-3677.258390
3312.495891,-8216.285956,-666.185348,-612.876398
3312.496229,-10214.842000,-962.267725,306.438199
3312.496566,-12435.459826,-2368.659014,-153.219100
3312.496904,-10955.047942,-3108.864956,-2757.943793
3312.497241,-8882.471304,-1406.391290,-1915.238745
3312.497578,-9252.574275,-1184.329507,306.438199
3312.497916,-11695.253884,-2146.597232,612.876398
3312.498253,-11325.150913,-3478.967927,-1991.848295
3312.498591,-9400.615463,-2442.679609,-1532.190996
3312.498928,-9326.594869,-1258.350101,1455.581446
3312.499266,-10362.883188,-814.226536,2604.724693
3312.499603,-12805.562797,-2072.576638,1685.410096
3312.499940,-11103.089130,-1480.411884,0.000000
3312.500278,-8660.409521,888.247130,766.095498
3312.500615,-9548.656652,1184.329507,3064.381992
3312.500953,-11473.192101,592.164754,2681.334243
3312.501290,-10584.944971,-814.226536,-459.657299
3312.501627,-9104.533087,1480.411884,-766.095498
3312.501965,-8956.491898,1776.494261,2145.067394
3312.502302,-10288.862594,1776.494261,2221.676944
3312.502640,-11399.171507,-592.164754,-383.047749
3312.502977,-9030.512492,666.185348,-1991.848295
3312.503315,-8364.327145,1554.432478,-766.095498
3312.503652,-8734.430116,2294.638420,0.000000
3312.503989,-11103.089130,962.267725,-383.047749
3312.504327,-10436.903782,-962.267725,-2145.067394
3312.504664,-7328.038826,518.144159,-1225.752797
3312.505002,-9178.553681,518.144159,1455.581446
3312.505339,-10658.965565,888.247130,2987.772442
3312.505676,-11843.295072,-1628.453072,1149.143247
3312.506014,-10510.924376,-1702.473667,0.000000
3312.506351,-9400.615463,0.000000,1608.800546
3312.506689,-9844.739029,1036.288319,2604.724693
3312.507026,-11769.274478,0.000000,1838.629195
3312.507363,-10436.903782,-1554.432478,-1685.410096
3312.507701,-8290.306550,0.000000,-536.266849
3312.508038,-9104.533087,148.041188,1302.362347
3312.508376,-11251.130318,74.020594,1838.629195
3312.508713,-12509.480420,-1924.535449,-536.266849
3312.509051,-9548.656652,-1702.473667,-2681.334243
3312.509388,-8586.388927,-296.082377,-689.485948
3312.509725,-9104.533087,-592.164754,0.000000
3312.510063,-11325.150913,-1702.473667,-383.047749
3312.510400,-9770.718434,-3108.864956,-3064.381992
3312.510738,-8438.347739,-1258.350101,-1455.581446
3312.511075,-9622.677246,-1850.514855,306.438199
3312.511412,-11103.089130,-2146.597232,1455.581446
3312.511750,-11843.295072,-3034.844362,689.485948
3312.512087,-9770.718434,-1702.473667,-995.924147
3312.512425,-8808.450710,74.020594,76.609550
3312.512762,-10214.842000,518.144159,1378.971896
3312.513099,-12287.418637,-814.226536,842.705048
3312.513437,-10510.924376,-1258.350101,-536.266849
3312.513774,-8364.327145,518.144159,1685.410096
3312.514112,-9474.636058,1850.514855,3294.210641
3312.514449,-11473.192101,444.123565,2987.772442
3312.514787,-11547.212695,-518.144159,383.047749
3312.515124,-8882.471304,1924.535449,-306.438199
3312.515461,-9326.594869,3182.885551,1072.533697
3312.515799,-9696.697840,2738.761985,766.095498
3312.516136,-11325.150913,740.205942,-612.876398
3312.516474,-8882.471304,0.000000,-2221.676944
3312.516811,-7624.121203,1036.288319,-689.485948
3312.517148,-8734.430116,1184.329507,842.705048
3312.517486,-11251.130318,-444.123565,306.438199
3312.517823,-11029.068536,-1924.535449,-2374.896044
3312.518161,-8808.450710,-814.226536,-3064.381992
3312.518498,-8364.327145,-148.041188,-1225.752797
3312.518836,-9252.574275,-740.205942,0.000000
3312.519173,-11399.171507,-2738.761985,-1072.533697
3312.519510,-9400.615463,-2368.659014,-1455.581446
3312.519848,-8734.430116,-1850.514855,306.438199
3312.520185,-9992.780217,-1480.411884,3370.820191
3312.520523,-12509.480420,-2072.576638,3753.867940
3312.520860,-12287.418637,-2960.823768,842.705048
3312.521197,-9844.739029,-1406.391290,229.828649
3312.521535,-9992.780217,0.000000,1608.800546
3312.521872,-10362.883188,74.020594,2298.286494
3312.522210,-11695.253884,-1924.535449,766.095498
3312.522547,-9992.780217,-1184.329507,-1149.143247
3312.522884,-8734.430116,0.000000,459.657299
3312.523222,-9770.718434,0.000000,1762.019645
3312.523559,-11843.295072,-1110.308913,1532.190996
3312.523897,-10807.006753,-2442.679609,-383.047749
3312.524234,-8956.491898,148.041188,-612.876398
3312.524572,-9400.615463,1036.288319,76.609550
3312.524909,-10140.821405,888.247130,0.000000
3312.525246,-11251.130318,-962.267725,-2068.457845
3312.525584,-9548.656652,-1480.411884,-2145.067394
3312.525921,-7772.162391,148.041188,-383.047749
3312.526259,-8660.409521,-296.082377,2374.896044
3312.526596,-10955.047942,-444.123565,2451.505594
3312.526933,-9918.759623,-1628.453072,-919.314598
3312.527271,-9178.553681,1110.308913,919.314598
3312.527608,-8882.471304,2294.638420,1838.629195
3312.527946,-10732.986159,2072.576638,1915.238745
3312.528283,-11843.295072,1184.329507,766.095498
3312.528621,-9770.718434,1036.288319,-842.705048
3312.528958,-8882.471304,2368.659014,459.657299
3312.529295,-9548.656652,962.267725,2298.286494
3312.529633,-11769.274478,814.226536,1762.019645
3312.529970,-10807.006753,-518.144159,-1225.752797
3312.530308,-9030.512492,1480.411884,-2145.067394
3312.530645,-9104.533087,1554.432478,-842.705048
3312.530982,-11399.171507,0.000000,-689.485948
3312.531320,-11103.089130,-962.267725,-3294.210641
3312.531657,-9252.574275,-1184.329507,-3677.258390
3312.531995,-8512.368333,-148.041188,-1532.190996
3312.532332,-9030.512492,-1554.432478,0.000000
3312.532669,-12731.542202,-3478.967927,766.095498
3312.533007,-10584.944971,-3330.926739,-1915.238745
3312.533344,-8956.491898,-2368.659014,-995.924147
3312.533682,-9548.656652,-1554.432478,1378.971896
3312.534019,-11029.068536,-1850.514855,1072.533697
3312.534357,-11843.295072,-3775.050304,153.219100
3312.534694,-9030.512492,-2072.576638,-689.485948
3312.535031,-8068.244768,-888.247130,2145.067394
3312.535369,-11251.130318,-74.020594,4673.182538
3312.535706,-12213.398043,-1850.514855,2834.553343
3312.536044,-10362.883188,-1406.391290,306.438199
3312.536381,-9252.574275,1258.350101,1225.752797
3312.536718,-9474.636058,2516.700203,2528.115143
3312.537056,-12213.398043,1480.411884,995.924147
3312.537393,-11547.212695,-518.144159,-1532.190996
3312.537731,-7994.224174,444.123565,-1991.848295
3312.538068,-8142.265362,1184.329507,919.314598
3312.538406,-9696.697840,1184.329507,2911.162892
3312.538743,-11843.295072,-814.226536,383.047749
3312.539080,-9918.759623,0.000000,-1225.752797
3312.539418,-8586.388927,1998.556043,-689.485948
3312.539755,-9400.615463,1998.556043,612.876398
3312.540093,-11399.171507,666.185348,229.828649
3312.540430,-10658.965565,-1184.329507,-1532.190996
3312.540767,-7698.141797,-222.061783,-1149.143247
3312.541105,-7105.977043,0.000000,1838.629195
3312.541442,-10362.883188,148.041188,3217.601092
3312.541780,-12435.459826,-2738.761985,1608.800546
3312.542117,-9992.780217,-2368.659014,-919.314598
3312.542454,-8290.306550,0.000000,383.047749
3312.542792,-9474.636058,1406.391290,1455.581446
3312.543129,-11621.233289,74.020594,919.314598
3312.543467,-11621.233289,-2072.576638,-1532.190996
3312.543804,-7994.224174,0.000000,-1991.848295
3312.544142,-8290.306550,444.123565,1072.533697
3312.544479,-12065.356855,-888.247130,2451.505594
3312.544816,-12583.501014,-2812.782580,-766.095498
3312.545154,-9844.739029,-2664.741391,-2757.943793
3312.545491,-9178.553681,-296.082377,-995.924147
3312.545829,-8882.471304,0.000000,-995.924147
3312.546166,-12435.459826,-1036.288319,-842.705048
3312.546503,-11695.253884,-3330.926739,-2987.772442
3312.546841,-8364.327145,-1480.411884,-2451.505594
3312.547178,-9030.512492,-592.164754,1302.362347
3312.547516,-11325.150913,-1776.494261,2757.943793
3312.547853,-12065.356855,-3182.885551,1378.971896
3312.548190,-9696.697840,-2146.597232,0.000000
3312.548528,-8660.409521,814.226536,2221.676944
3312.548865,-9696.697840,1554.432478,2604.724693
3312.549203,-12509.480420,444.123565,1532.190996
3312.549540,-10584.944971,518.144159,-1915.238745
3312.549878,-8216.285956,2220.617826,0.000000
3312.550215,-7994.224174,2442.679609,2451.505594
3312.550552,-9918.759623,962.267725,3907.087040
3312.550890,-10955.047942,-222.061783,1532.190996
3312.551227,-8660.409521,1628.453072,0.000000
3312.551565,-8660.409521,2960.823768,689.485948
3312.551902,-9770.718434,3034.844362,1225.752797
3312.552239,-12287.418637,2072.576638,0.000000
3312.552577,-10436.903782,666.185348,-2911.162892
3312.552914,-7254.018232,2220.617826,-2374.896044
3312.553252,-8142.265362,814.226536,383.047749
3312.553589,-11029.068536,-592.164754,1608.800546
3312.553927,-11769.274478,-3108.864956,-1302.362347
3312.554264,-9030.512492,-1258.350101,-1685.410096
3312.554601,-7994.224174,-444.123565,766.095498
3312.554939,-10288.862594,296.082377,1608.800546
3312.555276,-12509.480420,-2072.576638,0.000000
3312.555614,-10362.883188,-2072.576638,-2298.286494
3312.555951,-8364.327145,-1702.473667,459.657299
3312.556288,-9474.636058,-814.226536,3524.039291
3312.556626,-12065.356855,-1628.453072,3294.210641
3312.556963,-12139.377449,-3701.029710,612.876398
3312.557301,-9030.512492,-1110.308913,76.609550
3312.557638,-8882.471304,148.041188,766.095498
3312.557976,-11473.192101,444.123565,1838.629195
3312.558313,-13101.645173,-1924.535449,-689.485948
3312.558650,-9992.780217,-1036.288319,-3830.477490
3312.558988,-7402.059420,-370.102971,-995.924147
3312.559325,-8734.430116,-370.102971,2681.334243
3312.559663,-11399.171507,-1406.391290,2451.505594
3312.560000,-11917.315666,-3404.947333,-536.266849
3312.560338,-9104.533087,-888.247130,-1455.581446
3312.560675,-8660.409521,-74.020594,153.219100
3312.561012,-10955.047942,296.082377,1608.800546
3312.561350,-12139.377449,-1036.288319,-919.314598
3312.561687,-9474.636058,-370.102971,-2911.162892
3312.562025,-7105.977043,518.144159,-459.657299
3312.562362,-8438.347739,222.061783,2681.334243
3312.562699,-11251.130318,-1554.432478,3600.648841
3312.563037,-11103.089130,-1110.308913,919.314598
3312.563374,-9030.512492,296.082377,1378.971896
3312.563712,-9104.533087,2886.803174,2374.896044
3312.564049,-11325.150913,3182.885551,2145.067394
3312.564387,-12361.439231,1258.350101,-229.828649
3312.564724,-8364.327145,814.226536,-2451.505594
3312.565061,-7920.203579,2220.617826,612.876398
3312.565399,-9770.718434,1850.514855,3370.820191
3312.565736,-12509.480420,-222.061783,1915.238745
3312.566074,-11473.192101,-1924.535449,-919.314598
3312.566411,-8512.368333,74.020594,-1378.971896
3312.566749,-8956.491898,2368.659014,536.266849
3312.567086,-11843.295072,370.102971,383.047749
3312.567423,-12287.418637,-1406.391290,-3370.820191
3312.567761,-9178.553681,-1776.494261,-2987.772442
3312.568098,-8216.285956,-814.226536,306.438199
3312.568436,-9474.636058,-1480.411884,2451.505594
3312.568773,-12287.418637,-3775.050304,1378.971896
3312.569111,-10584.944971,-4367.215058,-1072.533697
3312.569448,-7920.203579,-1998.556043,-76.609550
3312.569785,-8808.450710,-1036.288319,2374.896044
3312.570123,-11325.150913,-1036.288319,2068.457845
3312.570460,-11621.233289,-2294.638420,-1302.362347
3312.570798,-8808.450710,-518.144159,-2068.457845
3312.571135,-8068.244768,370.102971,1608.800546
3312.571472,-10436.903782,0.000000,4290.134789
3312.571810,-11843.295072,-1702.473667,2681.334243
3312.572147,-10658.965565,-1110.308913,76.609550
3312.572485,-9178.553681,2294.638420,612.876398
3312.572822,-9770.718434,3775.050304,229.828649
3312.573160,-12139.377449,1406.391290,-536.266849
3312.573497,-10807.006753,148.041188,-3140.991542
3312.573834,-8660.409521,1406.391290,-3064.381992
3312.574172,-8882.471304,1554.432478,766.095498
3312.574509,-9326.594869,518.144159,153.219100
3312.574847,-11695.253884,-1332.370696,153.219100
3312.575184,-9622.677246,-1628.453072,-229.828649
3312.575522,-7772.162391,1480.411884,766.095498
3312.575859,-9326.594869,2368.659014,1838.629195
3312.576196,-11991.336260,1332.370696,689.485948
3312.576534,-11325.150913,-444.123565,-2068.457845
3312.576871,-8290.306550,518.144159,-842.705048
3312.577209,-8216.285956,1110.308913,2145.067394
3312.577546,-9918.759623,222.061783,3524.039291
3312.577883,-11103.089130,-2072.576638,2374.896044
3312.578221,-8882.471304,-1702.473667,306.438199
3312.578558,-8364.327145,666.185348,1302.362347
3312.578896,-10214.842000,1480.411884,3064.381992
3312.579233,-12361.439231,814.226536,-459.657299
3312.579571,-10807.006753,0.000000,-3370.820191
3312.579908,-9104.533087,1184.329507,-2145.067394
3312.580245,-8216.285956,444.123565,306.438199
3312.580583,-10140.821405,-1110.308913,1838.629195
3312.580920,-11917.315666,-2960.823768,-153.219100
3312.581258,-9548.656652,-2812.782580,-2298.286494
3312.581595,-9030.512492,-1332.370696,0.000000
3312.581933,-10066.800811,-1110.308913,1685.410096
3312.582270,-11843.295072,-2294.638420,-229.828649
3312.582607,-11103.089130,-2072.576638,-1915.238745
3312.582945,-9030.512492,-148.041188,-842.705048
3312.583282,-8956.491898,-1036.288319,1838.629195
3312.583620,-11399.171507,-1850.514855,2451.505594
3312.583957,-11473.192101,-3330.926739,1608.800546
3312.584294,-9696.697840,-1850.514855,2298.286494
3312.584632,-8586.388927,0.000000,3524.039291
3312.584969,-10214.842000,1110.308913,3524.039291
3312.585307,-11769.274478,518.144159,1149.143247
3312.585644,-10214.842000,74.020594,-1302.362347
3312.585982,-8882.471304,1406.391290,0.000000
3312.586319,-8512.368333,1406.391290,766.095498
3312.586656,-10066.800811,1332.370696,1838.629195
3312.586994,-10362.883188,-1554.432478,-995.924147
3312.587331,-7550.100608,0.000000,-1072.533697
3312.587669,-7994.224174,1406.391290,459.657299
3312.588006,-10510.924376,1998.556043,689.485948
3312.588344,-11769.274478,666.185348,-1608.800546
3312.588681,-10584.944971,-370.102971,-3294.210641
3312.589018,-9178.553681,370.102971,-919.314598
3312.589356,-9030.512492,0.000000,1225.752797
3312.589693,-11103.089130,-592.164754,1915.238745
3312.590031,-10807.006753,-2960.823768,229.828649
3312.590368,-8586.388927,-1406.391290,-1072.533697
3312.590705,-9548.656652,-148.041188,1072.533697
3312.591043,-11621.233289,-740.205942,1532.190996
3312.591380,-12213.398043,-1332.370696,-229.828649
3312.591718,-10140.821405,-888.247130,-612.876398
3312.592055,-8956.491898,888.247130,1149.143247
3312.592393,-9030.512492,370.102971,2298.286494
3312.592730,-11843.295072,-1110.308913,2145.067394
3312.593067,-11843.295072,-2294.638420,689.485948
3312.593405,-9178.553681,-1332.370696,0.000000
3312.593742,-9474.636058,222.061783,1838.629195
3312.594080,-10658.965565,1406.391290,1838.629195
3312.594417,-11843.295072,-740.205942,-383.047749
3312.594755,-9252.574275,-296.082377,-2528.115143
3312.595092,-7698.141797,370.102971,-1302.362347
3312.595429,-9474.636058,592.164754,1149.143247
3312.595767,-11843.295072,-1702.473667,0.000000
3312.596104,-10732.986159,-2664.741391,-919.314598
3312.596442,-8216.285956,-592.164754,-306.438199
3312.596779,-8438.347739,740.205942,1685.410096
3312.597117,-10510.924376,888.247130,1685.410096
3312.597454,-12287.418637,-888.247130,-306.438199
3312.597791,-9992.780217,0.000000,-306.438199
3312.598129,-8808.450710,1184.329507,1225.752797
3312.598466,-9770.718434,1776.494261,3600.648841
3312.598804,-11473.192101,370.102971,2604.724693
3312.599141,-10066.800811,-888.247130,536.266849
3312.599478,-8068.244768,1776.494261,612.876398
3312.599816,-8882.471304,2146.597232,1762.019645
3312.600153,-10955.047942,1998.556043,995.924147
3312.600491,-11991.336260,0.000000,-1685.410096
3312.600828,-9918.759623,1184.329507,-2528.115143
3312.601166,-7772.162391,1702.473667,-689.485948
3312.601503,-9030.512492,740.205942,383.047749
3312.601840,-11325.150913,-1702.473667,76.609550
3312.602178,-10214.842000,-2368.659014,-1838.629195
3312.602515,-8438.347739,-814.226536,-1072.533697
3312.602853,-9030.512492,-962.267725,0.000000
3312.603190,-11325.150913,-1332.370696,766.095498
3312.603528,-12731.542202,-2442.679609,-1455.581446
3312.603865,-9918.759623,-1184.329507,-2374.896044
3312.604202,-7698.141797,0.000000,-689.485948
3312.604540,-9400.615463,-1406.391290,842.705048
3312.604877,-12583.501014,-3627.009116,1072.533697
3312.605215,-10807.006753,-3552.988522,0.000000
3312.605552,-8808.450710,-1036.288319,1378.971896
3312.605889,-9400.615463,148.041188,1838.629195
3312.606227,-11103.089130,148.041188,1532.190996
3312.606564,-11843.295072,-1036.288319,-766.095498
3312.606902,-9622.677246,296.082377,-766.095498
3312.607239,-8956.491898,1258.350101,1455.581446
3312.607577,-10658.965565,888.247130,2834.553343
3312.607914,-12139.377449,-1036.288319,1838.629195
3312.608251,-10584.944971,-888.247130,-689.485948
3312.608589,-8586.388927,888.247130,919.314598
3312.608926,-8586.388927,1332.370696,1072.533697
3312.609264,-11177.109724,296.082377,459.657299
3312.609601,-11399.171507,148.041188,-1915.238745
3312.609939,-9104.533087,296.082377,-2757.943793
3312.610276,-8068.244768,1036.288319,-689.485948
3312.610613,-9030.512492,518.144159,1149.143247
3312.610951,-10955.047942,-1184.329507,1608.800546
3312.611288,-9548.656652,-1702.473667,0.000000
3312.611626,-8586.388927,74.020594,1302.362347
3312.611963,-8956.491898,1332.370696,2298.286494
3312.612300,-12065.356855,148.041188,2221.676944
3312.612638,-12583.501014,-962.267725,536.266849
3312.612975,-8734.430116,1110.308913,-766.095498
3312.613313,-7105.977043,740.205942,689.485948
3312.613650,-9326.594869,592.164754,2681.334243
3312.613988,-11843.295072,-1776.494261,1225.752797
3312.614325,-10066.800811,-1258.350101,-766.095498
3312.614662,-8364.327145,370.102971,-229.828649
3312.615000,-9252.574275,1702.473667,689.485948
3312.615337,-12139.377449,74.020594,-306.438199
3312.615675,-11547.212695,-1554.432478,-3370.820191
3312.616012,-8290.306550,-370.102971,-2374.896044
3312.616350,-8512.368333,-370.102971,0.000000
3312.616687,-10510.924376,-592.164754,919.314598
3312.617024,-12509.480420,-3627.009116,-1225.752797
3312.617362,-10214.842000,-2960.823768,-1378.971896
3312.617699,-7846.182985,-2146.597232,76.609550
3312.618037,-9104.533087,-370.102971,1378.971896
3312.618374,-12509.480420,-1480.411884,1072.533697
3312.618711,-11399.171507,-2294.638420,-1991.848295
3312.619049,-8364.327145,-444.123565,-1378.971896
3312.619386,-8364.327145,0.000000,1378.971896
3312.619724,-10955.047942,0.000000,4136.915689
3312.620061,-12435.459826,-1850.514855,2451.505594
3312.620399,-9474.636058,-222.061783,1072.533697
3312.620736,-8512.368333,962.267725,2221.676944
3312.621073,-9178.553681,2442.679609,2987.772442
3312.621411,-12435.459826,962.267725,1072.533697
3312.621748,-11251.130318,666.185348,-1762.019645
3312.622086,-7179.997637,2368.659014,-1762.019645
3312.622423,-7031.956449,1850.514855,76.609550
3312.622761,-10362.883188,1480.411884,1532.190996
3312.623098,-11029.068536,-592.164754,-842.705048
3312.623435,-9548.656652,-740.205942,-1225.752797
3312.623773,-8438.347739,1110.308913,-383.047749
3312.624110,-9918.759623,814.226536,1838.629195
3312.624448,-13101.645173,-1258.350101,1225.752797
3312.624785,-10214.842000,-1776.494261,-2068.457845
3312.625122,-7994.224174,0.000000,-76.609550
3312.625460,-8882.471304,370.102971,1915.238745
3312.625797,-11177.109724,-1924.535449,2298.286494
3312.626135,-13101.645173,-3034.844362,306.438199
3312.626472,-10066.800811,-2220.617826,0.000000
3312.626810,-8068.244768,888.247130,995.924147
3312.627147,-10807.006753,1036.288319,2604.724693
3312.627484,-13027.624579,-1406.391290,919.314598
3312.627822,-10362.883188,-1702.473667,-2221.676944
3312.628159,-8364.327145,518.144159,-459.657299
3312.628497,-7994.224174,1036.288319,2068.457845
3312.628834,-11843.295072,-1332.370696,1915.238745
3312.629172,-11917.315666,-3330.926739,-919.314598
3312.629509,-8068.244768,-1850.514855,-2298.286494
3312.629846,-7476.080014,814.226536,1072.533697
3312.630184,-10066.800811,0.000000,1302.362347
3312.630521,-12435.459826,-1702.473667,-1532.190996
3312.630859,-9474.636058,-1480.411884,-4060.306139
3312.631196,-7846.182985,-222.061783,-1302.362347
3312.631534,-9178.553681,0.000000,1532.190996
3312.631871,-11769.274478,-2146.597232,1302.362347
3312.632208,-11843.295072,-2072.576638,-1455.581446
3312.632546,-8438.347739,-666.185348,-842.705048
3312.632883,-8660.409521,1184.329507,2298.286494
3312.633221,-11029.068536,370.102971,2911.162892
3312.633558,-13545.768739,-1036.288319,689.485948
3312.633895,-10362.883188,222.061783,-1225.752797
3312.634233,-8512.368333,2294.638420,1149.143247
3312.634570,-9770.718434,2220.617826,3753.867940
3312.634908,-11843.295072,814.226536,2145.067394
3312.635245,-10807.006753,-370.102971,-383.047749
3312.635583,-8142.265362,1998.556043,-612.876398
3312.635920,-8882.471304,1776.494261,1149.143247
3312.636257,-11251.130318,1850.514855,919.314598
3312.636595,-11547.212695,-962.267725,-2528.115143
3312.636932,-8512.368333,-370.102971,-3447.429741
3312.637270,-6883.915261,592.164754,-689.485948
3312.637607,-8290.306550,0.000000,1225.752797
3312.637945,-11843.295072,-1628.453072,536.266849
3312.638282,-11843.295072,-3478.967927,-2221.676944
3312.638619,-8068.244768,-1332.370696,-1302.362347
3312.638957,-8808.450710,-962.267725,1532.190996
3312.639294,-11177.109724,-592.164754,1991.848295
3312.639632,-11843.295072,-2516.700203,-1608.800546
3312.639969,-9474.636058,-2442.679609,-1991.848295
3312.640306,-8068.244768,-1184.329507,306.438199
3312.640644,-9992.780217,-1036.288319,3217.601092
3312.640981,-13101.645173,-1924.535449,2374.896044
3312.641319,-11473.192101,-2664.741391,-766.095498
3312.641656,-9030.512492,0.000000,1072.533697
3312.641994,-8586.388927,1406.391290,3217.601092
3312.642331,-11399.171507,1258.350101,3600.648841
3312.642668,-13323.706956,-1258.350101,536.266849
3312.643006,-9918.759623,814.226536,-1225.752797
3312.643343,-9104.533087,1258.350101,1838.629195
3312.643681,-10066.800811,1036.288319,2757.943793
3312.644018,-11991.336260,-444.123565,689.485948
3312.644356,-10807.006753,-1332.370696,-1685.410096
3312.644693,-7402.059420,1332.370696,-1378.971896
3312.645030,-8216.285956,1406.391290,0.000000
3312.645368,-11547.212695,296.082377,0.000000
3312.645705,-11325.150913,-1628.453072,-2757.943793
3312.646043,-8142.265362,-1184.329507,-1991.848295
3312.646380,-7254.018232,518.144159,919.314598
3312.646717,-8216.285956,592.164754,2681.334243
3312.647055,-12213.398043,-2072.576638,1838.629195
3312.647392,-10140.821405,-1628.453072,-383.047749
3312.647730,-8586.388927,814.226536,306.438199
3312.648067,-9770.718434,1628.453072,2987.772442
3312.648405,-12139.377449,222.061783,1149.143247
3312.648742,-11473.192101,-740.205942,-1608.800546
3312.649079,-7920.203579,-814.226536,-1685.410096
3312.649417,-7179.997637,592.164754,1685.410096
3312.649754,-10140.821405,222.061783,2987.772442
3312.650092,-13175.665768,-1776.494261,919.314598
3312.650429,-10807.006753,-1480.411884,-2374.896044
3312.650767,-9252.574275,814.226536,-995.924147
3312.651104,-10214.842000,888.247130,153.219100
3312.651441,-12139.377449,-518.144159,-1532.190996
3312.651779,-10732.986159,-2664.741391,-4290.134789
3312.652116,-7772.162391,-1332.370696,-2911.162892
3312.652454,-7846.182985,-1332.370696,766.095498
3312.652791,-11029.068536,-1332.370696,1991.848295
3312.653128,-13989.892304,-4515.256246,612.876398
3312.653466,-10955.047942,-2516.700203,-1532.190996
3312.653803,-8438.347739,-666.185348,459.657299
3312.654141,-9252.574275,74.020594,3447.429741
3312.654478,-11103.089130,-1776.494261,1915.238745
3312.654816,-10807.006753,-2146.597232,-229.828649
3312.655153,-9252.574275,74.020594,842.705048
3312.655490,-8808.450710,1036.288319,2604.724693
3312.655828,-10732.986159,888.247130,3370.820191
3312.656165,-12139.377449,-666.185348,842.705048
3312.656502,-9178.553681,666.185348,-612.876398
3312.656840,-8216.285956,2442.679609,1302.362347
3312.657177,-9474.636058,3330.926739,2604.724693
3312.657514,-11843.295072,1184.329507,689.485948
3312.657852,-11325.150913,814.226536,-1991.848295
3312.658189,-8216.285956,1628.453072,-1378.971896
3312.658526,-7772.162391,1480.411884,1838.629195
3312.658864,-10066.800811,814.226536,2374.896044
3312.659201,-11473.192101,-1480.411884,-689.485948
3312.659538,-9326.594869,0.000000,-2221.676944
3312.659876,-9400.615463,518.144159,-689.485948
3312.660213,-10066.800811,666.185348,0.000000
3312.660550,-11621.233289,-1184.329507,-995.924147
3312.660888,-9770.718434,-1480.411884,-2221.676944
3312.661225,-7402.059420,-962.267725,-919.314598
3312.661562,-8290.306550,-814.226536,1685.410096
3312.661900,-11473.192101,-1036.288319,2834.553343
3312.662237,-12953.603985,-2442.679609,536.266849
3312.662574,-10140.821405,-1258.350101,-1225.752797
3312.662912,-9178.553681,0.000000,536.266849
3312.663249,-9918.759623,74.020594,2374.896044
3312.663586,-11251.130318,-1332.370696,153.219100
3312.663924,-9844.739029,-1110.308913,-2451.505594
3312.664261,-8586.388927,-370.102971,-919.314598
3312.664598,-9622.677246,-74.020594,306.438199
3312.664936,-11695.253884,-1554.432478,689.485948
3312.665273,-11399.171507,-2146.597232,-1455.581446
3312.665610,-8882.471304,-888.247130,-1915.238745
3312.665948,-8956.491898,-74.020594,-459.657299
3312.666285,-10214.842000,222.061783,-306.438199
3312.666622,-11917.315666,-1110.308913,-1072.533697
3312.666960,-10288.862594,-1628.453072,-2451.505594
3312.667297,-8734.430116,-222.061783,-383.047749
3312.667634,-9474.636058,-222.061783,1991.848295
3312.667972,-11621.233289,-1480.411884,2911.162892
3312.668309,-11103.089130,-2220.617826,1072.533697
3312.668646,-8808.450710,-592.164754,1072.533697
3312.668984,-9178.553681,1776.494261,2834.553343
3312.669321,-10436.903782,2442.679609,2374.896044
3312.669658,-12361.439231,1480.411884,1302.362347
3312.669996,-9844.739029,666.185348,-383.047749
3312.670333,-7476.080014,2368.659014,1225.752797
3312.670670,-8438.347739,2368.659014,2987.772442
3312.671008,-11103.089130,814.226536,2911.162892
3312.671345,-10807.006753,-74.020594,-689.485948
3312.671682,-9252.574275,1036.288319,76.609550
3312.672020,-9030.512492,1406.391290,919.314598
3312.672357,-9622.677246,1036.288319,-536.266849
3312.672694,-10955.047942,-1184.329507,-1991.848295
3312.673032,-8734.430116,-740.205942,-2604.724693
3312.673369,-7698.141797,-1406.391290,-306.438199
3312.673706,-8290.306550,-1702.473667,1378.971896
3312.674044,-11843.295072,-2072.576638,1149.143247
3312.674381,-12361.439231,-3404.947333,153.219100
3312.674718,-10362.883188,-1406.391290,-1072.533697
3312.675056,-9178.553681,-1036.288319,0.000000
3312.675393,-10881.027347,-888.247130,766.095498
3312.675730,-12065.356855,-2368.659014,-1225.752797
3312.676068,-9548.656652,-1998.556043,-1915.238745
3312.676405,-8068.244768,-1554.432478,612.876398
3312.676742,-9918.759623,-814.226536,3524.039291
3312.677080,-11917.315666,-2368.659014,2528.115143
3312.677417,-11843.295072,-1998.556043,766.095498
3312.677754,-9548.656652,148.041188,1225.752797
3312.678092,-9548.656652,1332.370696,1225.752797
3312.678429,-11029.068536,1406.391290,842.705048
3312.678766,-11473.192101,-370.102971,-1762.019645
3312.679104,-8586.388927,74.020594,-2221.676944
3312.679441,-7846.182985,1332.370696,-766.095498
3312.679778,-9548.656652,814.226536,995.924147
3312.680116,-11695.253884,-962.267725,76.609550
3312.680453,-10362.883188,-1554.432478,-2221.676944
3312.680790,-7994.224174,0.000000,-689.485948
3312.681128,-7772.162391,1036.288319,919.314598
3312.681465,-10584.944971,1332.370696,1149.143247
3312.681802,-11843.295072,0.000000,-1072.533697
3312.682140,-8882.471304,0.000000,-1838.629195
3312.682477,-8364.327145,1036.288319,1149.143247
3312.682814,-9474.636058,888.247130,3907.087040
3312.683152,-11843.295072,-592.164754,2911.162892
3312.683489,-10658.965565,-962.267725,306.438199
3312.683826,-9252.574275,1480.411884,612.876398
3312.684163,-9326.594869,1850.514855,1302.362347
3312.684501,-11843.295072,1036.288319,1455.581446
3312.684838,-11251.130318,-296.082377,-536.266849
3312.685175,-8808.450710,0.000000,-1072.533697
3312.685513,-8882.471304,962.267725,1302.362347
3312.685850,-10362.883188,-444.123565,2681.334243
3312.686187,-12139.377449,-2146.597232,1455.581446
3312.686525,-10881.027347,-1850.514855,-689.485948
3312.686862,-9696.697840,296.082377,-612.876398
3312.687199,-9918.759623,814.226536,-229.828649
3312.687537,-11991.336260,-1406.391290,-1149.143247
3312.687874,-11029.068536,-2812.782580,-3217.601092
3312.688211,-8068.244768,-2368.659014,-2451.505594
3312.688549,-8216.285956,-1258.350101,1149.143247
3312.688886,-9992.780217,-2516.700203,1838.629195
3312.689223,-12213.398043,-3701.029710,689.485948
3312.689561,-10510.924376,-2664.741391,-383.047749
3312.689898,-8882.471304,-888.247130,1838.629195
3312.690235,-9400.615463,444.123565,3064.381992
3312.690573,-11621.233289,-518.144159,1838.629195
3312.690910,-11103.089130,-296.082377,-612.876398
3312.691247,-8438.347739,518.144159,-1149.143247
3312.691585,-8512.368333,1776.494261,2298.286494
3312.691922,-10584.944971,666.185348,2451.505594
3312.692259,-12213.398043,0.000000,153.219100
3312.692597,-10288.862594,1036.288319,-1685.410096
3312.692934,-8364.327145,2886.803174,-612.876398
3312.693271,-8882.471304,2960.823768,612.876398
3312.693609,-11769.274478,1554.432478,-612.876398
3312.693946,-10807.006753,814.226536,-3447.429741
3312.694283,-8142.265362,1036.288319,-2987.772442
3312.694621,-8142.265362,444.123565,612.876398
3312.694958,-9918.759623,0.000000,1532.190996
3312.695295,-11769.274478,-2664.741391,612.876398
3312.695633,-9770.718434,-888.247130,-919.314598
3312.695970,-8660.409521,0.000000,-766.095498
3312.696307,-9696.697840,592.164754,919.314598
3312.696645,-11991.336260,-1184.329507,612.876398
3312.696982,-9992.780217,-2368.659014,-1302.362347
3312.697319,-7624.121203,-296.082377,689.485948
3312.697657,-9178.553681,-296.082377,3140.991542
3312.697994,-11399.171507,0.000000,3600.648841
3312.698331,-12361.439231,-2664.741391,995.924147
3312.698669,-10732.986159,-1110.308913,842.705048
3312.699006,-8734.430116,370.102971,1915.238745
3312.699343,-10510.924376,1776.494261,2451.505594
3312.699681,-12583.501014,148.041188,76.609550
3312.700018,-11251.130318,-1998.556043,-3217.601092
3312.700355,-7920.203579,370.102971,-2374.896044
3312.700693,-8142.265362,222.061783,689.485948
3312.701030,-10955.047942,-740.205942,919.314598
3312.701367,-11769.274478,-2442.679609,-2528.115143
3312.701705,-9474.636058,-962.267725,-2528.115143
3312.702042,-7994.224174,518.144159,-689.485948
3312.702379,-10288.862594,666.185348,766.095498
3312.702717,-12805.562797,-1184.329507,0.000000
3312.703054,-10732.986159,-1036.288319,-2298.286494
3312.703391,-7920.203579,-370.102971,153.219100
3312.703729,-7920.203579,74.020594,2911.162892
3312.704066,-10510.924376,-518.144159,3753.867940
3312.704403,-12139.377449,-1850.514855,1991.848295
3312.704741,-9030.512492,-518.144159,229.828649
3312.705078,-8068.244768,1924.535449,1532.190996
3312.705415,-10066.800811,3034.844362,2451.505594
3312.705753,-12213.398043,740.205942,-229.828649
3312.706090,-9918.759623,1184.329507,-2145.067394
3312.706427,-7254.018232,1998.556043,76.609550
3312.706765,-8364.327145,2738.761985,1685.410096
3312.707102,-11843.295072,-444.123565,1991.848295
3312.707439,-11695.253884,-1998.556043,-459.657299
3312.707777,-8808.450710,-148.041188,-1608.800546
3312.708114,-9030.512492,962.267725,766.095498
3312.708451,-10955.047942,444.123565,689.485948
3312.708789,-11843.295072,-2220.617826,-1838.629195
3312.709126,-9474.636058,-1406.391290,-3447.429741
3312.709463,-7624.121203,-962.267725,-612.876398
3312.709801,-8364.327145,-666.185348,1991.848295
3312.710138,-12657.521608,-3627.009116,2374.896044
3312.710475,-12657.521608,-3256.906145,0.000000
3312.710813,-8882.471304,-1628.453072,-689.485948
3312.711150,-9400.615463,0.000000,2068.457845
3312.711487,-11547.212695,-370.102971,2068.457845
3312.711825,-13249.686362,-2812.782580,-459.657299
3312.712162,-9770.718434,-888.247130,-1378.971896
3312.712499,-7105.977043,0.000000,1378.971896
3312.712837,-9030.512492,444.123565,3677.258390
3312.713174,-12361.439231,-2294.638420,2604.724693
3312.713511,-11843.295072,-1332.370696,0.000000
3312.713849,-8364.327145,444.123565,-689.485948
3312.714186,-8882.471304,1776.494261,1072.533697
3312.714523,-11399.171507,1480.411884,1225.752797
3312.714861,-12065.356855,-370.102971,-2604.724693
3312.715198,-8216.285956,444.123565,-2911.162892
3312.715535,-7772.162391,1036.288319,-612.876398
3312.715873,-8808.450710,1184.329507,1225.752797
3312.716210,-12213.398043,-1702.473667,306.438199
3312.716547,-10362.883188,-2368.659014,-1378.971896
3312.716885,-7328.038826,0.000000,76.609550
3312.717222,-8586.388927,1554.432478,2451.505594
3312.717559,-11621.233289,1110.308913,2068.457845
3312.717897,-11769.274478,74.020594,-919.314598
3312.718234,-9178.553681,666.185348,-1915.238745
3312.718571,-8512.368333,1776.494261,1608.800546
3312.718909,-10510.924376,1406.391290,3983.696590
3312.719246,-12583.501014,-370.102971,2834.553343
3312.719583,-10732.986159,-592.164754,-306.438199
3312.719921,-8586.388927,1480.411884,153.219100
3312.720258,-8808.450710,2146.597232,153.219100
3312.720595,-11029.068536,592.164754,153.219100
3312.720933,-11251.130318,-296.082377,-3294.210641
3312.721270,-8216.285956,222.061783,-3753.867940
3312.721607,-7772.162391,148.041188,0.000000
3312.721945,-9696.697840,-370.102971,2374.896044
3312.722282,-12435.459826,-2072.576638,459.657299
3312.722619,-10288.862594,-2738.761985,-1685.410096
3312.722957,-8290.306550,-592.164754,-1685.410096
3312.723294,-9696.697840,-962.267725,1072.533697
3312.723631,-11695.253884,-2516.700203,76.609550
3312.723969,-10658.965565,-2812.782580,-2528.115143
3312.724306,-8808.450710,-2072.576638,-1608.800546
3312.724643,-8586.388927,-518.144159,1072.533697
3312.724981,-10732.986159,-1036.288319,1685.410096
3312.725318,-12805.562797,-2812.782580,1378.971896
3312.725655,-9992.780217,-1850.514855,383.047749
3312.725993,-8660.409521,0.000000,2681.334243
3312.726330,-10066.800811,1702.473667,3524.039291
3312.726667,-12213.398043,888.247130,1455.581446
3312.727005,-12287.418637,1110.308913,-995.924147
3312.727342,-9474.636058,2294.638420,-842.705048
3312.727679,-8882.471304,3108.864956,1378.971896
3312.728017,-10584.944971,1702.473667,1991.848295
3312.728354,-11917.315666,-666.185348,76.609550
3312.728691,-8216.285956,0.000000,-1302.362347
3312.729029,-7402.059420,1258.350101,1225.752797
3312.729366,-9474.636058,2368.659014,1991.848295
3312.729703,-11769.274478,962.267725,-1072.533697
3312.730041,-11029.068536,0.000000,-3983.696590
3312.730378,-7698.141797,740.205942,-1915.238745
3312.730715,-7254.018232,74.020594,1302.362347
3312.731053,-9992.780217,-740.205942,2681.334243
3312.731390,-11177.109724,-2886.803174,306.438199
3312.731727,-8438.347739,-2072.576638,0.000000
3312.732065,-8438.347739,-222.061783,1149.143247
3312.732402,-10362.883188,0.000000,2298.286494
3312.732739,-12731.542202,-1480.411884,383.047749
3312.733077,-10955.047942,-2072.576638,-766.095498
3312.733414,-8586.388927,370.102971,229.828649
3312.733751,-8882.471304,814.226536,2145.067394
3312.734088,-11917.315666,222.061783,2451.505594
3312.734426,-12805.562797,-2812.782580,153.219100
3312.734763,-10066.800811,-1554.432478,-612.876398
3312.735100,-8882.471304,0.000000,1915.238745
3312.735438,-10732.986159,148.041188,1838.629195
3312.735775,-12731.542202,-1258.350101,-1302.362347
3312.736112,-11251.130318,-1924.535449,-3600.648841
3312.736450,-7550.100608,-666.185348,-2298.286494
3312.736787,-8364.327145,-370.102971,536.266849
3312.737124,-11177.109724,-1776.494261,766.095498
3312.737462,-11251.130318,-3849.070898,-1149.143247
3312.737799,-8660.409521,-2368.659014,-612.876398
3312.738136,-8068.244768,-814.226536,1915.238745
3312.738474,-10288.862594,-148.041188,2374.896044
3312.738811,-12139.377449,-1036.288319,306.438199
3312.739148,-10066.800811,-1554.432478,-1455.581446
3312.739486,-7920.203579,888.247130,536.266849
3312.739823,-9104.533087,1480.411884,3830.477490
3312.740160,-11251.130318,444.123565,2987.772442
3312.740498,-11103.089130,-666.185348,459.657299
3312.740835,-9326.594869,1702.473667,229.828649
3312.741172,-9178.553681,2886.803174,1608.800546
3312.741510,-10288.862594,3034.844362,1685.410096
3312.741847,-12065.356855,1628.453072,-536.266849
3312.742184,-10140.821405,2220.617826,-1838.629195
3312.742522,-9030.512492,3034.844362,0.000000
3312.742859,-9474.636058,2590.720797,612.876398
3312.743196,-11325.150913,-370.102971,995.924147
3312.743534,-11103.089130,-1258.350101,-766.095498
3312.743871,-8290.306550,-740.205942,-1225.752797
3312.744208,-7476.080014,0.000000,383.047749
3312.744546,-9178.553681,0.000000,306.438199
3312.744883,-11399.171507,-2146.597232,-2068.457845
3312.745220,-10140.821405,-1036.288319,-2757.943793
3312.745558,-8364.327145,0.000000,-766.095498
3312.745895,-9844.739029,-740.205942,1915.238745
3312.746232,-12213.398043,-2516.700203,1838.629195
3312.746570,-10955.047942,-3404.947333,0.000000
3312.746907,-8586.388927,-1776.494261,1225.752797
3312.747244,-9104.533087,-666.185348,2681.334243
3312.747582,-11103.089130,-148.041188,2068.457845
3312.747919,-13323.706956,-1924.535449,766.095498
3312.748256,-10436.903782,-814.226536,-1685.410096
3312.748594,-8512.368333,370.102971,536.266849
3312.748931,-9474.636058,1110.308913,1991.848295
3312.749268,-11769.274478,-1332.370696,995.924147
3312.749606,-10807.006753,-1184.329507,-1455.581446
3312.749943,-8734.430116,0.000000,-306.438199
3312.750280,-9252.574275,740.205942,1149.143247
3312.750618,-11621.233289,444.123565,229.828649
3312.750955,-12361.439231,-740.205942,-1915.238745
3312.751292,-8660.409521,-814.226536,-3140.991542
3312.751630,-7402.059420,518.144159,-383.047749
3312.751967,-8882.471304,296.082377,1608.800546
3312.752304,-11473.192101,-1480.411884,383.047749
3312.752642,-10881.027347,-2072.576638,-842.705048
3312.752979,-8734.430116,740.205942,-153.219100
3312.753316,-9178.553681,814.226536,2374.896044
3312.753654,-10732.986159,962.267725,2145.067394
3312.753991,-11769.274478,-148.041188,-383.047749
3312.754328,-9474.636058,962.267725,-459.657299
3312.754666,-8364.327145,1924.535449,995.924147
3312.755003,-9474.636058,962.267725,2451.505594
3312.755340,-11991.336260,-666.185348,1455.581446
3312.755678,-10584.944971,-1406.391290,-689.485948
3312.756015,-8290.306550,222.061783,76.609550
3312.756352,-8586.388927,1184.329507,2068.457845
3312.756690,-10732.986159,1036.288319,536.266849
3312.757027,-11843.295072,-962.267725,-2911.162892
3312.757364,-9326.594869,-148.041188,-3677.258390
3312.757701,-8586.388927,-148.041188,0.000000
3312.758039,-9696.697840,-740.205942,1685.410096
3312.758376,-11917.315666,-3478.967927,229.828649
3312.758713,-10214.842000,-3701.029710,-1532.190996
3312.759050,-8882.471304,-2072.576638,229.828649
3312.759388,-9474.636058,-888.247130,1762.019645
3312.759725,-12805.562797,-2072.576638,1378.971896
3312.760062,-11917.315666,-3108.864956,-1378.971896
3312.760399,-8734.430116,-1776.494261,-536.266849
3312.760737,-8216.285956,-370.102971,2374.896044
3312.761074,-9992.780217,0.000000,3370.820191
3312.761411,-12213.398043,-1998.556043,2145.067394
3312.761748,-10732.986159,-1258.350101,536.266849
3312.762086,-8438.347739,444.123565,2374.896044
3312.762423,-9622.677246,1998.556043,2987.772442
3312.762760,-11991.336260,1184.329507,2374.896044
3312.763097,-11621.233289,0.000000,-842.705048
3312.763435,-8438.347739,2072.576638,-1225.752797
3312.763772,-7994.224174,2812.782580,766.095498
3312.764109,-10140.821405,1776.494261,1762.019645
3312.764446,-12435.459826,-962.267725,229.828649
3312.764784,-9770.718434,148.041188,-2145.067394
3312.765121,-7402.059420,1702.473667,-766.095498
3312.765458,-9104.533087,2368.659014,306.438199
3312.765795,-11917.315666,148.041188,-306.438199
3312.766133,-10955.047942,-444.123565,-3217.601092
3312.766470,-7624.121203,222.061783,-2528.115143
3312.766807,-8142.265362,740.205942,1149.143247
3312.767144,-10214.842000,-74.020594,1915.238745
3312.767482,-12361.439231,-2220.617826,842.705048
3312.767819,-9474.636058,-1554.432478,-1532.190996
3312.768156,-7994.224174,-370.102971,536.266849
3312.768493,-9992.780217,592.164754,3524.039291
3312.768831,-12805.562797,-814.226536,1608.800546
3312.769168,-10807.006753,-1184.329507,-1378.971896
3312.769505,-8956.491898,222.061783,-995.924147
3312.769842,-9400.615463,592.164754,1762.019645
3312.770180,-10510.924376,-814.226536,1532.190996
3312.770517,-11843.295072,-3108.864956,76.609550
3312.770854,-9474.636058,-1924.535449,-612.876398
3312.771191,-7846.182985,-592.164754,229.828649
3312.771529,-10584.944971,296.082377,1378.971896
3312.771866,-13175.665768,-2146.597232,-995.924147
3312.772203,-10732.986159,-1776.494261,-3753.867940
3312.772540,-7920.203579,-1036.288319,-1608.800546
3312.772878,-8882.471304,-74.020594,2221.676944
3312.773215,-10955.047942,-2442.679609,3064.381992
3312.773552,-12287.418637,-3182.885551,459.657299
3312.773889,-9252.574275,-1628.453072,0.000000
3312.774227,-8808.450710,444.123565,2221.676944
3312.774564,-10510.924376,518.144159,3294.210641
3312.774901,-12805.562797,-814.226536,766.095498
3312.775238,-10584.944971,-370.102971,-842.705048
3312.775576,-7624.121203,1480.411884,995.924147
3312.775913,-7624.121203,2294.638420,2757.943793
3312.776250,-11325.150913,1406.391290,2911.162892
3312.776587,-11991.336260,148.041188,306.438199
3312.776925,-8882.471304,1258.350101,-459.657299
3312.777262,-7772.162391,2738.761985,1455.581446
3312.777599,-9548.656652,2368.659014,2911.162892
3312.777936,-12805.562797,888.247130,-459.657299
3312.778274,-10658.965565,148.041188,-3447.429741
3312.778611,-7550.100608,1554.432478,-1838.629195
3312.778948,-7698.141797,888.247130,0.000000
3312.779285,-11251.130318,-888.247130,689.485948
3312.779623,-11325.150913,-2516.700203,-2604.724693
3312.779960,-8216.285956,-2442.679609,-2374.896044
3312.780297,-7476.080014,-296.082377,0.000000
3312.780634,-10807.006753,-222.061783,1762.019645
3312.780972,-13767.830521,-2072.576638,-536.266849
3312.781309,-10584.944971,-2368.659014,-3907.087040
3312.781646,-8438.347739,-962.267725,-459.657299
3312.781983,-9178.553681,-740.205942,2604.724693
3312.782321,-11843.295072,-2664.741391,2451.505594
3312.782658,-12139.377449,-3997.112087,229.828649
3312.782995,-8882.471304,-888.247130,-766.095498
3312.783332,-9326.594869,0.000000,1762.019645
3312.783670,-11991.336260,74.020594,2374.896044
3312.784007,-13027.624579,-740.205942,-306.438199
3312.784344,-10140.821405,-666.185348,-2145.067394
3312.784681,-7476.080014,666.185348,0.000000
3312.785019,-8660.409521,740.205942,2298.286494
3312.785356,-12805.562797,-1036.288319,1608.800546
3312.785693,-11029.068536,-1702.473667,-2145.067394
3312.786030,-8290.306550,222.061783,-2298.286494
3312.786368,-8216.285956,1850.514855,229.828649
3312.786705,-10288.862594,592.164754,229.828649
3312.787042,-11399.171507,-1702.473667,-1072.533697
3312.787379,-7846.182985,-888.247130,-2221.676944
3312.787717,-7550.100608,814.226536,1225.752797
3312.788054,-10436.903782,1850.514855,3677.258390
3312.788391,-13101.645173,-444.123565,2068.457845
3312.788728,-10732.986159,-1184.329507,0.000000
3312.789066,-6957.935855,814.226536,1072.533697
3312.789403,-7476.080014,2072.576638,3907.087040
3312.789740,-11621.233289,1406.391290,3370.820191
3312.790077,-12065.356855,-370.102971,0.000000
3312.790415,-9474.636058,1036.288319,-689.485948
3312.790752,-8734.430116,1184.329507,306.438199
3312.791089,-9474.636058,1924.535449,2987.772442
3312.791426,-11843.295072,-888.247130,612.876398
3312.791764,-9622.677246,-1110.308913,-1532.190996
3312.792101,-7772.162391,1628.453072,-1072.533697
3312.792438,-9548.656652,1554.432478,766.095498
3312.792775,-12731.542202,-518.144159,0.000000
3312.793113,-12509.480420,-2368.659014,-2987.772442
3312.793450,-8660.409521,-1036.288319,-2528.115143
3312.793787,-7328.038826,-1480.411884,459.657299
3312.794124,-9178.553681,-1924.535449,1915.238745
3312.794462,-12657.521608,-4145.153275,229.828649
3312.794799,-10955.047942,-3775.050304,-2451.505594
3312.795136,-8364.327145,-1554.432478,-612.876398
3312.795473,-9992.780217,-1184.329507,2374.896044
3312.795811,-11843.295072,-1850.514855,1072.533697
3312.796148,-11547.212695,-2590.720797,-1225.752797
3312.796485,-8438.347739,-962.267725,153.219100
3312.796822,-7920.203579,0.000000,2987.772442
3312.797160,-10436.903782,148.041188,4443.353888
3312.797497,-13397.727550,-1036.288319,919.314598
3312.797834,-10436.903782,-888.247130,-919.314598
3312.798171,-8364.327145,1480.411884,689.485948
3312.798509,-9400.615463,2442.679609,1915.238745
3312.798846,-11325.150913,1110.308913,153.219100
3312.799183,-10881.027347,-222.061783,-2451.505594
3312.799520,-8512.368333,1628.453072,-1991.848295
3312.799858,-8660.409521,2294.638420,1455.581446
3312.800195,-10807.006753,1036.288319,1225.752797
3312.800532,-12213.398043,-1036.288319,-459.657299
3312.800869,-9400.615463,-370.102971,-2221.676944
3312.801207,-7031.956449,1258.350101,0.000000
3312.801544,-8808.450710,1406.391290,2451.505594
3312.801881,-12287.418637,296.082377,1302.362347
3312.802218,-11843.295072,-592.164754,-2374.896044
3312.802556,-8734.430116,0.000000,-1378.971896
3312.802893,-8068.244768,222.061783,1991.848295
3312.803230,-10288.862594,-1184.329507,3600.648841
3312.803567,-11769.274478,-2072.576638,842.705048
3312.803905,-8438.347739,-740.205942,-1149.143247
3312.804242,-8660.409521,74.020594,1762.019645
3312.804579,-10214.842000,1702.473667,2528.115143
3312.804916,-12583.501014,-592.164754,612.876398
3312.805254,-11399.171507,-518.144159,-1608.800546
3312.805591,-8068.244768,148.041188,-995.924147
3312.805928,-8290.306550,-148.041188,2298.286494
3312.806265,-10436.903782,-740.205942,1991.848295
3312.806603,-11769.274478,-2738.761985,-919.314598
3312.806940,-9474.636058,-1480.411884,-1915.238745
3312.807277,-9696.697840,-444.123565,0.000000
3312.807614,-10362.883188,0.000000,76.609550
3312.807952,-11991.336260,-2442.679609,-1072.533697
3312.808289,-9918.759623,-2294.638420,-2604.724693
3312.808626,-7476.080014,-1924.535449,-383.047749
3312.808963,-9030.512492,-666.185348,2528.115143
3312.809301,-11843.295072,-1628.453072,1991.848295
3312.809638,-12731.542202,-2664.741391,76.609550
3312.809975,-9622.677246,-1258.350101,-612.876398
3312.810312,-8216.285956,962.267725,2298.286494
3312.810650,-9770.718434,1776.494261,2987.772442
3312.810987,-12361.439231,0.000000,306.438199
3312.811324,-10362.883188,592.164754,-2145.067394
3312.811661,-7920.203579,1406.391290,0.000000
3312.811999,-9104.533087,2146.597232,3217.601092
3312.812336,-11325.150913,1406.391290,2145.067394
3312.812673,-11843.295072,222.061783,-1532.190996
3312.813010,-8438.347739,2220.617826,-1915.238745
3312.813348,-8956.491898,1776.494261,229.828649
3312.813685,-9400.615463,1998.556043,-229.828649
3312.814022,-11843.295072,370.102971,-3064.381992
3312.814359,-9918.759623,-592.164754,-4136.915689
3312.814697,-7772.162391,148.041188,-1838.629195
3312.815034,-8290.306550,-444.123565,1838.629195
3312.815371,-11325.150913,-1776.494261,1302.362347
3312.815708,-10658.965565,-2960.823768,-1455.581446
3312.816046,-9252.574275,-814.226536,-1225.752797
3312.816383,-9326.594869,74.020594,1072.533697
3312.816720,-11473.192101,-296.082377,1072.533697
3312.817057,-12509.480420,-2146.597232,-612.876398
3312.817395,-9548.656652,-2220.617826,-1915.238745
3312.817732,-8364.327145,-444.123565,2374.896044
3312.818069,-9252.574275,0.000000,3064.381992
3312.818406,-12213.398043,-1332.370696,2374.896044
3312.818744,-11991.336260,-2146.597232,-383.047749
3312.819081,-9844.739029,-592.164754,919.314598
3312.819418,-9548.656652,1406.391290,2604.724693
3312.819755,-11399.171507,740.205942,2374.896044
3312.820093,-12435.459826,-592.164754,-536.266849
3312.820430,-9030.512492,-592.164754,-2068.457845
3312.820767,-7402.059420,222.061783,536.266849
3312.821104,-8956.491898,518.144159,2451.505594
3312.821442,-11177.109724,-1702.473667,76.609550
3312.821779,-10955.047942,-1480.411884,-1915.238745
3312.822116,-8808.450710,-148.041188,-1838.629195
3312.822453,-8142.265362,370.102971,612.876398
3312.822791,-9992.780217,740.205942,612.876398
3312.823128,-11473.192101,-1184.329507,0.000000
3312.823465,-8808.450710,-370.102971,-995.924147
3312.823802,-7920.203579,0.000000,1762.019645
3312.824140,-9474.636058,592.164754,4213.525239
3312.824477,-11843.295072,-962.267725,3600.648841
3312.824814,-10807.006753,-370.102971,0.000000
3312.825151,-9622.677246,1258.350101,383.047749
3312.825489,-9474.636058,2516.700203,919.314598
3312.825826,-11103.089130,1776.494261,459.657299
3312.826163,-12065.356855,444.123565,-2221.676944
3312.826500,-8216.285956,962.267725,-3600.648841
3312.826838,-8216.285956,740.205942,229.828649
3312.827175,-9252.574275,148.041188,2145.067394
3312.827512,-11103.089130,-2072.576638,612.876398
3312.827849,-10584.944971,-1776.494261,-306.438199
3312.828187,-9400.615463,-222.061783,-383.047749
3312.828524,-9844.739029,814.226536,0.000000
3312.828861,-11621.233289,-296.082377,-612.876398
3312.829198,-11843.295072,-3034.844362,-2528.115143
3312.829536,-8956.491898,-1924.535449,-1762.019645
3312.829873,-8364.327145,-1924.535449,1225.752797
3312.830210,-9844.739029,-1332.370696,1762.019645
3312.830547,-11695.253884,-3775.050304,0.000000
3312.830885,-10955.047942,-2442.679609,-1302.362347
3312.831222,-9326.594869,-962.267725,-383.047749
3312.831559,-9400.615463,370.102971,1838.629195
3312.831896,-11695.253884,0.000000,1762.019645
3312.832234,-11769.274478,-740.205942,-459.657299
3312.832571,-8660.409521,0.000000,-459.657299
3312.832908,-7994.224174,1702.473667,2068.457845
3312.833245,-10140.821405,518.144159,3140.991542
3312.833583,-12287.418637,-444.123565,1302.362347
3312.833920,-10658.965565,444.123565,-689.485948
3312.834257,-8216.285956,2146.597232,229.828649
3312.834595,-8660.409521,2146.597232,1838.629195
3312.834932,-11177.109724,1110.308913,536.266849
3312.835269,-11103.089130,370.102971,-2068.457845
3312.835606,-7920.203579,592.164754,-1991.848295
3312.835944,-7254.018232,814.226536,306.438199
3312.836281,-9474.636058,0.000000,1991.848295
3312.836618,-11991.336260,-1036.288319,153.219100
3312.836955,-10140.821405,-1184.329507,-536.266849
3312.837293,-8290.306550,1184.329507,76.609550
3312.837630,-9178.553681,1480.411884,1915.238745
3312.837967,-12139.377449,-370.102971,919.314598
3312.838304,-11621.233289,-1702.473667,-766.095498
3312.838642,-8512.368333,-666.185348,0.000000
3312.838979,-8216.285956,296.082377,3447.429741
3312.839316,-10881.027347,0.000000,3294.210641
3312.839653,-12361.439231,-1628.453072,459.657299
3312.839991,-10140.821405,-1332.370696,-689.485948
3312.840328,-8586.388927,666.185348,536.266849
3312.840665,-9696.697840,1702.473667,1762.019645
3312.841002,-12213.398043,74.020594,-536.266849
3312.841340,-11473.192101,-888.247130,-3753.867940
3312.841677,-8290.306550,-518.144159,-2681.334243
3312.842014,-8512.368333,0.000000,1072.533697
3312.842351,-10584.944971,-1554.432478,1762.019645
3312.842689,-12657.521608,-3256.906145,-995.924147
3312.843026,-10066.800811,-2072.576638,-2528.115143
3312.843363,-7846.182985,0.000000,-1378.971896
3312.843700,-9548.656652,0.000000,766.095498
3312.844038,-12139.377449,-1776.494261,-612.876398
3312.844375,-10510.924376,-2294.638420,-3140.991542
3312.844712,-7698.141797,-814.226536,-1149.143247
3312.845049,-8142.265362,-296.082377,3140.991542
3312.845387,-10955.047942,-592.164754,4136.915689
3312.845724,-12657.521608,-2442.679609,1838.629195
3312.846061,-9992.780217,0.000000,76.609550
3312.846398,-9030.512492,2368.659014,2298.286494
3312.846736,-10214.842000,3108.864956,2911.162892
3312.847073,-12139.377449,1184.329507,459.657299
3312.847410,-9770.718434,740.205942,-2451.505594
3312.847747,-7031.956449,2146.597232,-689.485948
3312.848085,-7994.224174,3182.885551,2145.067394
3312.848422,-11695.253884,1406.391290,2298.286494
3312.848759,-12287.418637,-1184.329507,-459.657299
3312.849096,-9400.615463,296.082377,-1225.752797
3312.849434,-8290.306550,1184.329507,459.657299
3312.849771,-9696.697840,1554.432478,1378.971896
3312.850108,-11695.253884,-1480.411884,-2451.505594
3312.850445,-8956.491898,-1406.391290,-3677.258390
3312.850783,-6957.935855,-888.247130,-383.047749
3312.851120,-8068.244768,-1258.350101,2221.676944
3312.851457,-11103.089130,-2442.679609,1455.581446
3312.851794,-13323.706956,-3701.029710,-536.266849
3312.852132,-9474.636058,-1924.535449,-1685.410096
3312.852469,-7550.100608,-1036.288319,1685.410096
3312.852806,-10732.986159,370.102971,3753.867940
3312.853143,-12805.562797,-1998.556043,995.924147
3312.853481,-10510.924376,-814.226536,-2145.067394
3312.853818,-8364.327145,-740.205942,0.000000
3312.854155,-9104.533087,-296.082377,3677.258390
3312.854492,-11991.336260,-1702.473667,3600.648841
3312.854830,-12287.418637,-2442.679609,229.828649
3312.855167,-9178.553681,0.000000,-842.705048
3312.855504,-9474.636058,1184.329507,1225.752797
3312.855842,-11177.109724,666.185348,1838.629195
3312.856179,-12583.501014,-444.123565,-1762.019645
3312.856516,-9548.656652,296.082377,-3140.991542
3312.856853,-8290.306550,888.247130,-1838.629195
3312.857191,-8882.471304,962.267725,536.266849
3312.857528,-11103.089130,-1924.535449,536.266849
3312.857865,-10955.047942,-2664.741391,-1532.190996
3312.858203,-7994.224174,-666.185348,-306.438199
3312.858540,-7846.182985,592.164754,2757.943793
3312.858877,-10584.944971,1258.350101,3294.210641
3312.859214,-12139.377449,0.000000,0.000000
3312.859552,-9622.677246,814.226536,-2451.505594
3312.859889,-7846.182985,888.247130,612.876398
3312.860226,-8808.450710,1776.494261,3064.381992
3312.860564,-11473.192101,148.041188,3064.381992
3312.860901,-11399.171507,-518.144159,0.000000
3312.861238,-8216.285956,1406.391290,-766.095498
3312.861575,-8660.409521,2590.720797,995.924147
3312.861913,-11621.233289,2072.576638,1378.971896
3312.862250,-12065.356855,444.123565,-2757.943793
3312.862587,-8808.450710,-148.041188,-3753.867940
3312.862925,-7624.121203,1110.308913,0.000000
3312.863262,-10140.821405,0.000000,2528.115143
3312.863599,-12213.398043,-2590.720797,1378.971896
3312.863937,-10362.883188,-1924.535449,-1991.848295
3312.864274,-8660.409521,-1406.391290,-306.438199
3312.864611,-9548.656652,-370.102971,1072.533697
3312.864948,-11325.150913,-814.226536,76.609550
3312.865286,-12287.418637,-2516.700203,-2145.067394
3312.865623,-9326.594869,-1776.494261,-3217.601092
3312.865960,-7402.059420,-1480.411884,0.000000
3312.866298,-9474.636058,-1480.411884,3294.210641
3312.866635,-11917.315666,-3775.050304,2374.896044
3312.866972,-9918.759623,-3256.906145,153.219100
3312.867309,-8734.430116,-814.226536,1838.629195
3312.867647,-9548.656652,1258.350101,4290.134789
3312.867984,-12583.501014,814.226536,1838.629195
3312.868321,-12657.521608,370.102971,-1378.971896
3312.868659,-8734.430116,370.102971,-1838.629195
3312.868996,-7920.203579,1480.411884,2374.896044
3312.869333,-10436.903782,1332.370696,4213.525239
3312.869671,-12583.501014,-1628.453072,536.266849
3312.870008,-9770.718434,-592.164754,-1915.238745
3312.870345,-7698.141797,1258.350101,-306.438199
3312.870682,-8808.450710,2368.659014,995.924147
3312.871020,-11695.253884,888.247130,-919.314598
3312.871357,-11399.171507,-814.226536,-3830.477490
3312.871694,-7698.141797,222.061783,-2911.162892
3312.872032,-6957.935855,518.144159,1072.533697
3312.872369,-9548.656652,370.102971,3524.039291
3312.872706,-13175.665768,-2294.638420,1072.533697
3312.873043,-9844.739029,-1702.473667,-2068.457845
3312.873381,-8216.285956,-740.205942,0.000000
3312.873718,-9474.636058,296.082377,2681.334243
3312.874055,-11399.171507,222.061783,0.000000
3312.874393,-11177.109724,-814.226536,-2834.553343
3312.874730,-8734.430116,74.020594,-2604.724693
3312.875067,-7698.141797,814.226536,1072.533697
3312.875405,-10584.944971,-444.123565,2834.553343
3312.875742,-12287.418637,-2072.576638,76.609550
3312.876079,-10288.862594,-1998.556043,-1302.362347
3312.876416,-9400.615463,444.123565,766.095498
3312.876754,-9992.780217,1110.308913,1838.629195
3312.877091,-12805.562797,-592.164754,0.000000
3312.877428,-11325.150913,-1850.514855,-3753.867940
3312.877766,-8216.285956,-518.144159,-2911.162892
3312.878103,-8364.327145,-148.041188,842.705048
3312.878440,-10362.883188,-1998.556043,1685.410096
3312.878777,-12065.356855,-3330.926739,-689.485948
3312.879115,-9696.697840,-2664.741391,-1378.971896
3312.879452,-8882.471304,148.041188,1225.752797
3312.879789,-9548.656652,74.020594,2528.115143
3312.880127,-12287.418637,-518.144159,1072.533697
3312.880464,-10584.944971,-888.247130,-1302.362347
3312.880801,-8882.471304,888.247130,995.924147
3312.881139,-9030.512492,1850.514855,3370.820191
3312.881476,-11029.068536,296.082377,4213.525239
3312.881813,-11917.315666,-888.247130,2068.457845
3312.882150,-8660.409521,444.123565,689.485948
3312.882488,-8364.327145,2146.597232,2681.334243
3312.882825,-9770.718434,3404.947333,2681.334243
3312.883162,-11769.274478,1924.535449,612.876398
3312.883500,-10436.903782,2368.659014,-2374.896044
3312.883837,-7179.997637,2294.638420,-2374.896044
3312.884174,-7994.224174,2368.659014,1838.629195
3312.884511,-11251.130318,222.061783,1762.019645
3312.884849,-10955.047942,-740.205942,-842.705048
3312.885186,-8290.306550,0.000000,-2068.457845
3312.885523,-8586.388927,0.000000,-459.657299
3312.885861,-8956.491898,74.020594,0.000000
3312.886198,-11769.274478,-1480.411884,-842.705048
3312.886535,-10881.027347,-1184.329507,-2604.724693
3312.886872,-8142.265362,-740.205942,-1915.238745
3312.887210,-9252.574275,-666.185348,612.876398
3312.887547,-11547.212695,-2368.659014,1608.800546
3312.887884,-11769.274478,-3627.009116,153.219100
3312.888222,-9918.759623,-1554.432478,306.438199
3312.888559,-9474.636058,-518.144159,1378.971896
3312.888896,-10510.924376,0.000000,1838.629195
3312.889234,-13027.624579,-1924.535449,0.000000
3312.889571,-10584.944971,-740.205942,-1991.848295
3312.889908,-8882.471304,-666.185348,-306.438199
3312.890245,-9548.656652,296.082377,2298.286494
3312.890583,-11399.171507,-1702.473667,1685.410096
3312.890920,-11325.150913,-2072.576638,-1378.971896
3312.891257,-8660.409521,-740.205942,-1532.190996
3312.891595,-8734.430116,0.000000,383.047749
3312.891932,-10436.903782,74.020594,1532.190996
3312.892269,-11769.274478,-1110.308913,-1149.143247
3312.892606,-9474.636058,-1184.329507,-1991.848295
3312.892944,-8142.265362,592.164754,-76.609550
3312.893281,-9770.718434,-666.185348,1915.238745
3312.893618,-10807.006753,-1406.391290,1838.629195
3312.893956,-10436.903782,-1850.514855,383.047749
3312.894293,-8290.306550,-1184.329507,1991.848295
3312.894630,-8364.327145,518.144159,3217.601092
3312.894968,-10584.944971,888.247130,3447.429741
3312.895305,-12953.603985,1110.308913,1302.362347
3312.895642,-9918.759623,1480.411884,-1225.752797
3312.895979,-8660.409521,2442.679609,919.314598
3312.896317,-9326.594869,1998.556043,2604.724693
3312.896654,-11103.089130,814.226536,1455.581446
3312.896991,-11177.109724,-518.144159,0.000000
3312.897329,-8586.388927,1110.308913,-766.095498
3312.897666,-9326.594869,1776.494261,1072.533697
3312.898003,-10807.006753,592.164754,-612.876398
3312.898340,-10658.965565,-370.102971,-2451.505594
3312.898678,-8660.409521,-444.123565,-3370.820191
3312.899015,-8216.285956,296.082377,229.828649
3312.899352,-9326.594869,-74.020594,1149.143247
3312.899690,-11843.295072,-2368.659014,-76.609550
3312.900027,-11251.130318,-3701.029710,-1685.410096
3312.900364,-8586.388927,-2294.638420,-689.485948
3312.900702,-8956.491898,-1258.350101,2068.457845
3312.901039,-10584.944971,-1480.411884,459.657299
3312.901376,-11325.150913,-2664.741391,-2528.115143
3312.901713,-9474.636058,-1776.494261,-3217.601092
3312.902051,-9474.636058,-296.082377,-383.047749
3312.902388,-9696.697840,-1036.288319,1838.629195
3312.902725,-12435.459826,-2294.638420,1991.848295
3312.903063,-10140.821405,-1702.473667,1225.752797
3312.903400,-8438.347739,0.000000,1762.019645
3312.903737,-9844.739029,1332.370696,2834.553343
3312.904074,-12731.542202,1554.432478,2068.457845
3312.904412,-13397.727550,222.061783,-229.828649
3312.904749,-9696.697840,1702.473667,-1838.629195
3312.905086,-8068.244768,1998.556043,306.438199
3312.905424,-9326.594869,2442.679609,766.095498
3312.905761,-10881.027347,-888.247130,-842.705048
3312.906098,-9622.677246,-148.041188,-2374.896044
3312.906436,-7624.121203,666.185348,-919.314598
3312.906773,-8956.491898,1332.370696,919.314598
3312.907110,-11399.171507,444.123565,612.876398
3312.907447,-10807.006753,-666.185348,-2145.067394
3312.907785,-7772.162391,962.267725,-1378.971896
3312.908122,-7772.162391,962.267725,2145.067394
3312.908459,-9474.636058,148.041188,2604.724693
3312.908797,-11769.274478,-2664.741391,1532.190996
3312.909134,-10140.821405,-2294.638420,612.876398
3312.909471,-8438.347739,-518.144159,1532.190996
3312.909808,-9474.636058,666.185348,3524.039291
3312.910146,-11695.253884,-222.061783,919.314598
3312.910483,-11251.130318,-1406.391290,-1838.629195
3312.910820,-8956.491898,888.247130,-1225.752797
3312.911158,-8734.430116,888.247130,229.828649
3312.911495,-10214.842000,0.000000,1149.143247
3312.911832,-12583.501014,-2368.659014,-536.266849
3312.912169,-10658.965565,-1406.391290,-1915.238745
3312.912507,-8290.306550,-962.267725,0.000000
3312.912844,-9474.636058,74.020594,1302.362347
3312.913181,-12213.398043,-2368.659014,229.828649
3312.913519,-11843.295072,-2294.638420,-2987.772442
3312.913856,-9030.512492,-1924.535449,-2221.676944
3312.914193,-8660.409521,-1406.391290,1302.362347
3312.914531,-10066.800811,-2368.659014,2221.676944
3312.914868,-12139.377449,-3849.070898,612.876398
3312.915205,-9770.718434,-2664.741391,-766.095498
3312.915542,-8438.347739,-814.226536,1225.752797
3312.915880,-9474.636058,0.000000,2604.724693
3312.916217,-12065.356855,-1554.432478,1149.143247
3312.916554,-11547.212695,-444.123565,-1225.752797
3312.916892,-8364.327145,222.061783,-612.876398
3312.917229,-7698.141797,1554.432478,1838.629195
3312.917566,-10214.842000,518.144159,3753.867940
3312.917903,-12509.480420,-370.102971,1302.362347
3312.918241,-9252.574275,1110.308913,-612.876398
3312.918578,-8290.306550,2072.576638,1225.752797
3312.918915,-9326.594869,3404.947333,2528.115143
3312.919253,-11991.336260,1036.288319,383.047749
3312.919590,-10436.903782,1036.288319,-2451.505594
3312.919927,-7994.224174,1702.473667,-2068.457845
3312.920265,-7772.162391,1924.535449,306.438199
3312.920602,-11177.109724,888.247130,229.828649
3312.920939,-12139.377449,-888.247130,-2068.457845
3312.921276,-8364.327145,-222.061783,-3064.381992
3312.921614,-7994.224174,148.041188,0.000000
3312.921951,-9622.677246,518.144159,1608.800546
3312.922288,-12065.356855,-1184.329507,-229.828649
3312.922626,-10658.965565,-1184.329507,-1762.019645
3312.922963,-8586.388927,-444.123565,229.828649
3312.923300,-9252.574275,370.102971,3217.601092
3312.923637,-12139.377449,-222.061783,3064.381992
3312.923975,-12953.603985,-1998.556043,536.266849
3312.924312,-9030.512492,-1110.308913,0.000000
3312.924649,-8808.450710,222.061783,2221.676944
3312.924987,-10732.986159,1036.288319,2681.334243
3312.925324,-12731.542202,-1036.288319,-459.657299
3312.925661,-10436.903782,-814.226536,-3217.601092
3312.925999,-7550.100608,74.020594,-1838.629195
3312.926336,-7846.182985,666.185348,1838.629195
3312.926673,-11029.068536,-1480.411884,1608.800546
3312.927010,-11251.130318,-2516.700203,-1532.190996
3312.927348,-7846.182985,-962.267725,-2145.067394
3312.927685,-8364.327145,148.041188,995.924147
3312.928022,-10881.027347,0.000000,1685.410096
3312.928360,-12805.562797,-2516.700203,-383.047749
3312.928697,-10658.965565,-1702.473667,-1149.143247
3312.929034,-7994.224174,0.000000,76.609550
3312.929371,-8586.388927,1184.329507,2528.115143
3312.929709,-12213.398043,-444.123565,1915.238745
3312.930046,-12583.501014,-2368.659014,-383.047749
3312.930383,-9178.553681,-148.041188,-536.266849
3312.930721,-8734.430116,2072.576638,2451.505594
3312.931058,-10881.027347,2072.576638,2834.553343
3312.931395,-12509.480420,148.041188,0.000000
3312.931732,-10288.862594,1480.411884,-1608.800546
3312.932070,-8068.244768,2368.659014,76.609550
3312.932407,-8956.491898,2516.700203,2528.115143
3312.932744,-12213.398043,0.000000,1149.143247
3312.933082,-11325.150913,-1776.494261,-995.924147
3312.933419,-7254.018232,-74.020594,-1991.848295
3312.933756,-7550.100608,962.267725,0.000000
3312.934094,-9696.697840,444.123565,0.000000
3312.934431,-11843.295072,-2368.659014,-2834.553343
3312.934768,-8882.471304,-1998.556043,-3677.258390
3312.935105,-7105.977043,-222.061783,-612.876398
3312.935443,-9178.553681,-814.226536,2528.115143
3312.935780,-13101.645173,-3404.947333,1225.752797
3312.936117,-11399.171507,-3701.029710,-1915.238745
3312.936455,-8068.244768,-2146.597232,-919.314598
3312.936792,-8734.430116,-740.205942,2911.162892
3312.937129,-11843.295072,-1258.350101,2451.505594
3312.937466,-13397.727550,-2738.761985,-766.095498
3312.937804,-10510.924376,-1480.411884,-1685.410096
3312.938141,-9178.553681,592.164754,1302.362347
3312.938478,-10140.821405,296.082377,3370.820191
3312.938816,-12731.542202,-1332.370696,2374.896044
3312.939153,-11177.109724,-1628.453072,-229.828649
3312.939490,-9252.574275,1406.391290,1072.533697
3312.939828,-9844.739029,2072.576638,2834.553343
3312.940165,-11621.233289,370.102971,995.924147
3312.940502,-12213.398043,-370.102971,-1302.362347
3312.940839,-8438.347739,666.185348,-1838.629195
3312.941177,-7476.080014,1998.556043,229.828649
3312.941514,-9030.512492,962.267725,1532.190996
3312.941851,-12065.356855,-1036.288319,0.000000
3312.942189,-9030.512492,-518.144159,-2528.115143
3312.942526,-6957.935855,0.000000,0.000000
3312.942863,-8290.306550,1480.411884,2528.115143
3312.943200,-10658.965565,0.000000,1838.629195
3312.943538,-11029.068536,-666.185348,-459.657299
3312.943875,-8216.285956,518.144159,-2068.457845
3312.944212,-7698.141797,888.247130,1762.019645
3312.944550,-9992.780217,592.164754,3294.210641
3312.944887,-12213.398043,-1480.411884,1378.971896
3312.945224,-9696.697840,0.000000,-612.876398
3312.945562,-7476.080014,1480.411884,76.609550
3312.945899,-9030.512492,1998.556043,2145.067394
3312.946236,-12287.418637,962.267725,459.657299
3312.946573,-12361.439231,222.061783,-2221.676944
3312.946911,-8734.430116,666.185348,-2374.896044
3312.947248,-9252.574275,1184.329507,1762.019645
3312.947585,-10732.986159,1258.350101,2068.457845
3312.947923,-13027.624579,-1776.494261,-1302.362347
3312.948260,-10288.862594,-962.267725,-3140.991542
3312.948597,-8512.368333,-444.123565,-1455.581446
3312.948934,-9252.574275,0.000000,1302.362347
3312.949272,-12139.377449,-2294.638420,-1532.190996
3312.949609,-11547.212695,-3701.029710,-2987.772442
3312.949946,-7550.100608,-2220.617826,-1991.848295
3312.950284,-7698.141797,-1776.494261,2451.505594
3312.950621,-10881.027347,-1850.514855,3370.820191
3312.950958,-12361.439231,-3330.926739,76.609550
3312.951296,-9474.636058,-2590.720797,-995.924147
3312.951633,-8290.306550,-1036.288319,2757.943793
3312.951970,-8956.491898,74.020594,4290.134789
3312.952307,-12509.480420,-222.061783,1838.629195
3312.952645,-11621.233289,-1332.370696,-1378.971896
3312.952982,-7846.182985,888.247130,-1378.971896
3312.953319,-8808.450710,1554.432478,2604.724693
3312.953657,-11029.068536,1110.308913,3830.477490
3312.953994,-12879.583391,-666.185348,76.609550
3312.954331,-9548.656652,962.267725,-1455.581446
3312.954668,-8290.306550,1998.556043,766.095498
3312.955006,-9548.656652,2220.617826,2145.067394
3312.955343,-12583.501014,444.123565,229.828649
3312.955680,-11325.150913,0.000000,-3524.039291
3312.956018,-7846.182985,1110.308913,-2374.896044
3312.956355,-9104.533087,888.247130,689.485948
3312.956692,-10362.883188,-1036.288319,1225.752797
3312.957029,-11325.150913,-2738.761985,-919.314598
3312.957367,-8734.430116,-1924.535449,-919.314598
3312.957704,-8290.306550,-592.164754,1378.971896
3312.958041,-10066.800811,0.000000,2145.067394
3312.958379,-12731.542202,-1776.494261,1149.143247
3312.958716,-10066.800811,-1702.473667,-1838.629195
3312.959053,-7846.182985,-666.185348,766.095498
3312.959391,-9178.553681,518.144159,3524.039291
3312.959728,-11695.253884,-1554.432478,2451.505594
3312.960066,-11917.315666,-2294.638420,76.609550
3312.960403,-8808.450710,-666.185348,-1225.752797
3312.960740,-9030.512492,1036.288319,689.485948
3312.961078,-10288.862594,1110.308913,76.609550
3312.961415,-12435.459826,-1258.350101,-1378.971896
3312.961752,-9770.718434,-962.267725,-2911.162892
3312.962090,-7920.203579,592.164754,-1302.362347
3312.962427,-9104.533087,1406.391290,1302.362347
3312.962765,-11991.336260,-592.164754,-229.828649
3312.963102,-11843.295072,-2146.597232,-2911.162892
3312.963439,-8660.409521,-222.061783,-2451.505594
3312.963777,-8808.450710,370.102971,612.876398
3312.964114,-10436.903782,666.185348,1762.019645
3312.964452,-12805.562797,-1850.514855,-536.266849
3312.964789,-9252.574275,-1184.329507,-2451.505594
3312.965126,-7698.141797,-222.061783,1532.190996
3312.965464,-9252.574275,370.102971,4596.572988
3312.965801,-11251.130318,-814.226536,2757.943793
3312.966139,-11843.295072,-296.082377,383.047749
3312.966476,-8734.430116,1924.535449,459.657299
3312.966813,-9104.533087,2664.741391,2451.505594
3312.967151,-10214.842000,2072.576638,2221.676944
3312.967488,-11473.192101,74.020594,-383.047749
3312.967826,-9030.512492,1184.329507,-1225.752797
3312.968163,-9030.512492,1924.535449,919.314598
3312.968500,-10066.800811,1776.494261,1762.019645
3312.968838,-11103.089130,0.000000,612.876398
3312.969175,-11103.089130,-1702.473667,-1915.238745
3312.969512,-8364.327145,518.144159,-842.705048
3312.969850,-8734.430116,0.000000,919.314598
3312.970187,-10584.944971,222.061783,766.095498
3312.970525,-12287.418637,-2220.617826,-1378.971896
3312.970862,-10066.800811,-444.123565,-2145.067394
3312.971199,-8956.491898,-740.205942,383.047749
3312.971537,-9770.718434,-1184.329507,2604.724693
3312.971874,-11325.150913,-2886.803174,1072.533697
3312.972212,-10584.944971,-2664.741391,-995.924147
3312.972549,-9252.574275,-2146.597232,76.609550
3312.972886,-9178.553681,0.000000,1532.190996
3312.973224,-11399.171507,-1776.494261,2221.676944
3312.973561,-11399.171507,-1258.350101,-383.047749
3312.973899,-8290.306550,-444.123565,-919.314598
3312.974236,-8660.409521,74.020594,2451.505594
3312.974573,-9918.759623,0.000000,3140.991542
3312.974911,-12065.356855,-1702.473667,1225.752797
3312.975248,-11621.233289,-1184.329507,-383.047749
3312.975585,-8586.388927,0.000000,-383.047749
3312.975923,-8882.471304,1702.473667,919.314598
3312.976260,-11103.089130,444.123565,-153.219100
3312.976598,-11177.109724,-444.123565,-3140.991542
3312.976935,-8068.244768,-666.185348,-4290.134789
3312.977272,-7476.080014,666.185348,-766.095498
3312.977610,-8956.491898,-296.082377,1762.019645
3312.977947,-12657.521608,-2294.638420,995.924147
3312.978285,-10807.006753,-296.082377,-612.876398
3312.978622,-9030.512492,-148.041188,0.000000
3312.978959,-9400.615463,1628.453072,2528.115143
3312.979297,-11769.274478,0.000000,1378.971896
3312.979634,-11399.171507,74.020594,-612.876398
3312.979972,-8734.430116,-444.123565,-536.266849
3312.980309,-8512.368333,518.144159,1762.019645
3312.980646,-10214.842000,666.185348,3064.381992
3312.980984,-12731.542202,-962.267725,1455.581446
3312.981321,-9844.739029,0.000000,-229.828649
3312.981659,-7994.224174,814.226536,383.047749
3312.981996,-9474.636058,2812.782580,1991.848295
3312.982333,-11769.274478,74.020594,689.485948
3312.982671,-11547.212695,-1036.288319,-2298.286494
3312.983008,-7772.162391,74.020594,-1991.848295
3312.983345,-8512.368333,-296.082377,1685.410096
3312.983683,-9770.718434,-666.185348,1991.848295
3312.984020,-11843.295072,-2368.659014,-995.924147
3312.984358,-9622.677246,-1924.535449,-1915.238745
3312.984695,-8216.285956,-1110.308913,-612.876398
3312.985032,-9400.615463,-740.205942,1838.629195
3312.985370,-12287.418637,-1702.473667,0.000000
3312.985707,-10955.047942,-2516.700203,-1915.238745
3312.986045,-8290.306550,-814.226536,-76.609550
3312.986382,-8660.409521,-222.061783,2834.553343
3312.986719,-11177.109724,148.041188,3907.087040
3312.987057,-13619.789333,-1554.432478,1991.848295
3312.987394,-10955.047942,0.000000,-536.266849
3312.987732,-8882.471304,1480.411884,1991.848295
3312.988069,-10658.965565,2368.659014,2834.553343
3312.988406,-12213.398043,1184.329507,306.438199
3312.988744,-10658.965565,0.000000,-1685.410096
3312.989081,-7846.182985,1406.391290,-612.876398
3312.989419,-8290.306550,2146.597232,1532.190996
3312.989756,-10955.047942,666.185348,2221.676944
3312.990093,-12509.480420,-1036.288319,-153.219100
3312.990431,-9400.615463,-592.164754,-1455.581446
3312.990768,-7846.182985,1850.514855,153.219100
3312.991105,-8586.388927,1628.453072,995.924147
3312.991443,-11177.109724,-592.164754,-2145.067394
3312.991780,-9622.677246,-1850.514855,-4903.011187
3312.992118,-7476.080014,-666.185348,-2757.943793
3312.992455,-7772.162391,-1036.288319,1915.238745
3312.992792,-10955.047942,-1332.370696,2374.896044
3312.993130,-12657.521608,-3330.926739,0.000000
3312.993467,-9326.594869,-1406.391290,-2145.067394
3312.993805,-7994.224174,148.041188,536.266849
3312.994142,-10658.965565,740.205942,3217.601092
3312.994479,-13545.768739,-740.205942,1072.533697
3312.994817,-11917.315666,-592.164754,-2374.896044
3312.995154,-9104.533087,370.102971,-689.485948
3312.995492,-8734.430116,1480.411884,2145.067394
3312.995829,-11325.150913,-740.205942,2681.334243
3312.996166,-12731.542202,-1554.432478,76.609550
3312.996504,-9252.574275,-518.144159,-1149.143247
3312.996841,-9400.615463,888.247130,1149.143247
3312.997179,-10510.924376,888.247130,1378.971896
3312.997516,-12657.521608,-1480.411884,-842.705048
3312.997853,-9844.739029,-1332.370696,-3370.820191
3312.998191,-6883.915261,-370.102971,-1608.800546
3312.998528,-7550.100608,-296.082377,1915.238745
3312.998865,-10584.944971,-1998.556043,1608.800546
3312.999203,-12065.356855,-3034.844362,-1225.752797
3312.999540,-8808.450710,-1480.411884,-2068.457845
3312.999878,-8882.471304,-222.061783,1302.362347
3313.000215,-9696.697840,0.000000,2221.676944
3313.000552,-11769.274478,-1554.432478,612.876398
3313.000890,-9252.574275,-888.247130,-842.705048
3313.001227,-7920.203579,296.082377,919.314598
3313.001565,-9178.553681,962.267725,4443.353888
3313.001902,-12361.439231,-148.041188,4136.915689
3313.002239,-12139.377449,-518.144159,1762.019645
3313.002577,-9030.512492,962.267725,153.219100
3313.002914,-8586.388927,2738.761985,1915.238745
3313.003252,-10955.047942,3108.864956,1838.629195
3313.003589,-12509.480420,370.102971,-1378.971896
3313.003926,-10066.800811,1406.391290,-3447.429741
3313.004264,-8216.285956,1110.308913,-1915.238745
3313.004601,-9030.512492,592.164754,995.924147
3313.004938,-11177.109724,-1554.432478,306.438199
3313.005276,-11177.109724,-2664.741391,-1149.143247
3313.005613,-7254.018232,-1332.370696,-1762.019645
3313.005951,-8512.368333,0.000000,995.924147
3313.006288,-10732.986159,148.041188,842.705048
3313.006625,-13101.645173,-1702.473667,-1838.629195
3313.006963,-9770.718434,-1332.370696,-3294.210641
3313.007300,-7254.018232,-1110.308913,-459.657299
3313.007638,-8808.450710,-666.185348,3140.991542
3313.007975,-12213.398043,-3108.864956,1225.752797
3313.008312,-10732.986159,-2812.782580,-1225.752797
3313.008650,-8438.347739,-888.247130,153.219100
3313.008987,-9400.615463,740.205942,2451.505594
3313.009325,-11473.192101,888.247130,1378.971896
3313.009662,-13175.665768,-666.185348,-1149.143247
3313.009999,-9400.615463,0.000000,-1762.019645
3313.010337,-7328.038826,1480.411884,1685.410096
3313.010674,-9918.759623,1406.391290,3907.087040
3313.011012,-13323.706956,-1184.329507,1302.362347
3313.011349,-11103.089130,-1036.288319,-2068.457845
3313.011686,-8438.347739,888.247130,-766.095498
3313.012024,-9252.574275,1776.494261,2068.457845
3313.012361,-11029.068536,296.082377,0.000000
3313.012698,-11769.274478,-740.205942,-3600.648841
3313.013036,-7846.182985,-296.082377,-3294.210641
3313.013373,-7179.997637,74.020594,766.095498
3313.013711,-9770.718434,0.000000,3294.210641
3313.014048,-13027.624579,-1776.494261,2145.067394
3313.014385,-10288.862594,-2072.576638,-842.705048
3313.014723,-7254.018232,-666.185348,1455.581446
3313.015060,-8956.491898,1480.411884,4366.744339
3313.015398,-12139.377449,222.061783,2451.505594
3313.015735,-12435.459826,-1184.329507,-842.705048
3313.016072,-8290.306550,222.061783,-2604.724693
3313.016410,-7402.059420,1036.288319,1532.190996
3313.016747,-9474.636058,740.205942,3600.648841
3313.017085,-12361.439231,-2368.659014,995.924147
3313.017422,-10066.800811,-1998.556043,-1225.752797
3313.017759,-8364.327145,74.020594,766.095498
3313.018097,-9104.533087,1628.453072,2068.457845
3313.018434,-12509.480420,0.000000,536.266849
3313.018772,-12139.377449,-1184.329507,-3294.210641
3313.019109,-7772.162391,-666.185348,-3907.087040
3313.019446,-8142.265362,296.082377,153.219100
3313.019784,-9992.780217,-1924.535449,1455.581446
3313.020121,-12731.542202,-4367.215058,-1072.533697
3313.020458,-9696.697840,-3404.947333,-2528.115143
3313.020796,-8142.265362,-1036.288319,153.219100
3313.021133,-9770.718434,370.102971,1455.581446
3313.021471,-12065.356855,-1110.308913,-306.438199
3313.021808,-12065.356855,-1554.432478,-2604.724693
3313.022145,-8290.306550,-370.102971,-1762.019645
3313.022483,-8364.327145,518.144159,3140.991542
3313.022820,-11029.068536,222.061783,4519.963438
3313.023158,-13471.748144,-1850.514855,2451.505594
3313.023495,-9770.718434,0.000000,-459.657299
3313.023832,-8956.491898,1480.411884,1225.752797
3313.024170,-9326.594869,2960.823768,2451.505594
3313.024507,-11843.295072,888.247130,306.438199
3313.024845,-10807.006753,518.144159,-3140.991542
3313.025182,-7254.018232,1776.494261,-2298.286494
3313.025519,-8142.265362,2664.741391,1532.190996
3313.025857,-9844.739029,370.102971,1532.190996
3313.026194,-12139.377449,-592.164754,0.000000
3313.026531,-9252.574275,444.123565,-2068.457845
3313.026869,-7772.162391,1110.308913,153.219100
3313.027206,-9400.615463,1628.453072,1762.019645
3313.027544,-11991.336260,-962.267725,0.000000
3313.027881,-10288.862594,-518.144159,-3370.820191
3313.028218,-8068.244768,296.082377,-1225.752797
3313.028556,-8660.409521,0.000000,2068.457845
3313.028893,-10436.903782,-1480.411884,3064.381992
3313.029231,-11769.274478,-2664.741391,536.266849
3313.029568,-8956.491898,-1184.329507,0.000000
3313.029905,-8512.368333,444.123565,919.314598
3313.030243,-10510.924376,888.247130,2451.505594
3313.030580,-13101.645173,-888.247130,229.828649
3313.030918,-10881.027347,-962.267725,-2528.115143
3313.031255,-8068.244768,222.061783,-536.266849
3313.031592,-9030.512492,592.164754,2834.553343
3313.031930,-11547.212695,-1406.391290,2145.067394
3313.032267,-11843.295072,-2664.741391,-1149.143247
3313.032605,-9104.533087,-1702.473667,-1225.752797
3313.032942,-8734.430116,-370.102971,1072.533697
3313.033279,-10510.924376,-296.082377,1225.752797
3313.033617,-12509.480420,-1110.308913,-1685.410096
3313.033954,-9622.677246,-1924.535449,-4749.792088
3313.034291,-7550.100608,-1258.350101,-995.924147
3313.034629,-8438.347739,-1110.308913,2374.896044
3313.034966,-11621.233289,-2368.659014,2451.505594
3313.035304,-12065.356855,-2664.741391,-306.438199
3313.035641,-9030.512492,-1850.514855,-459.657299
3313.035978,-8290.306550,74.020594,2834.553343
3313.036316,-10288.862594,296.082377,3370.820191
3313.036653,-12805.562797,-814.226536,1455.581446
3313.036991,-10510.924376,370.102971,-689.485948
3313.037328,-8808.450710,1776.494261,1378.971896
3313.037665,-9400.615463,2368.659014,3677.258390
3313.038003,-11103.089130,740.205942,2757.943793
3313.038340,-11325.150913,0.000000,76.609550
3313.038678,-8364.327145,592.164754,-842.705048
3313.039015,-8364.327145,2294.638420,1302.362347
3313.039352,-10955.047942,2294.638420,1455.581446
3313.039690,-12435.459826,222.061783,-2528.115143
3313.040027,-9252.574275,-74.020594,-4673.182538
3313.040365,-7254.018232,444.123565,-1302.362347
3313.040702,-8586.388927,296.082377,2451.505594
3313.041039,-11103.089130,-2738.761985,766.095498
3313.041377,-10732.986159,-2738.761985,-1378.971896
3313.041714,-8438.347739,-2072.576638,-1608.800546
3313.042051,-8586.388927,0.000000,1302.362347
3313.042389,-10658.965565,-518.144159,536.266849
3313.042726,-12583.501014,-2516.700203,-1838.629195
3313.043064,-9030.512492,-1776.494261,-3217.601092
3313.043401,-8290.306550,-1406.391290,459.657299
3313.043738,-10288.862594,-222.061783,3524.039291
3313.044076,-12657.521608,-2072.576638,2298.286494
3313.044413,-12213.398043,-2294.638420,612.876398
3313.044751,-9474.636058,-148.041188,0.000000
3313.045088,-9326.594869,592.164754,2834.553343
3313.045425,-11547.212695,370.102971,2681.334243
3313.045763,-11769.274478,-1480.411884,-919.314598
3313.046100,-9548.656652,592.164754,-2145.067394
3313.046438,-8882.471304,1332.370696,-306.438199
3313.046775,-9400.615463,1332.370696,1225.752797
3313.047112,-11843.295072,-1184.329507,229.828649
3313.047450,-10140.821405,-1998.556043,-1685.410096
3313.047787,-7476.080014,0.000000,-919.314598
3313.048124,-8660.409521,592.164754,1225.752797
3313.048462,-10732.986159,296.082377,536.266849
3313.048799,-11177.109724,-1332.370696,-2068.457845
3313.049137,-8438.347739,0.000000,-1302.362347
3313.049474,-7624.121203,1184.329507,1455.581446
3313.049811,-9178.553681,222.061783,3447.429741
3313.050149,-12213.398043,-740.205942,1762.019645
3313.050486,-10510.924376,-1406.391290,-229.828649
3313.050824,-8512.368333,1850.514855,1072.533697
3313.051161,-9030.512492,2368.659014,1991.848295
3313.051498,-11843.295072,1998.556043,1685.410096
3313.051836,-12139.377449,814.226536,-1532.190996
3313.052173,-8808.450710,1924.535449,-3370.820191
3313.052511,-9030.512492,2294.638420,766.095498
3313.052848,-10066.800811,2146.597232,1455.581446
3313.053185,-11991.336260,-1406.391290,612.876398
3313.053523,-10658.965565,0.000000,-1608.800546
3313.053860,-8438.347739,666.185348,0.000000
3313.054198,-9918.759623,1332.370696,2298.286494
3313.054535,-12065.356855,-370.102971,-383.047749
3313.054872,-11547.212695,-1332.370696,-3907.087040
3313.055210,-8660.409521,-1480.411884,-3447.429741
3313.055547,-8216.285956,-888.247130,0.000000
3313.055884,-8586.388927,-2220.617826,1302.362347
3313.056222,-11769.274478,-3923.091493,459.657299
3313.056559,-9696.697840,-2664.741391,-1915.238745
3313.056897,-7698.141797,-2146.597232,229.828649
3313.057234,-9844.739029,-370.102971,2681.334243
3313.057572,-11843.295072,-1850.514855,1225.752797
3313.057909,-11917.315666,-1480.411884,-612.876398
3313.058247,-8882.471304,-296.082377,-306.438199
3313.058584,-8438.347739,0.000000,3370.820191
3313.058921,-9918.759623,0.000000,4519.963438
3313.059259,-12731.542202,-1924.535449,2145.067394
3313.059596,-10584.944971,0.000000,0.000000
3313.059934,-9030.512492,296.082377,995.924147
3313.060271,-9252.574275,2368.659014,2068.457845
3313.060609,-11991.336260,1036.288319,-76.609550
3313.060946,-11547.212695,666.185348,-2145.067394
3313.061283,-8142.265362,1110.308913,-2834.553343
3313.061621,-8142.265362,888.247130,459.657299
3313.061958,-10140.821405,222.061783,1225.752797
3313.062296,-12509.480420,-1998.556043,306.438199
3313.062633,-9992.780217,-2072.576638,-842.705048
3313.062971,-7698.141797,-518.144159,612.876398
3313.063308,-9474.636058,370.102971,3140.991542
3313.063646,-11769.274478,-962.267725,842.705048
3313.063983,-10807.006753,-1258.350101,-2374.896044
3313.064320,-7994.224174,-888.247130,-1149.143247
3313.064658,-7846.182985,0.000000,1915.238745
3313.064995,-9844.739029,-592.164754,3064.381992
3313.065333,-12953.603985,-2368.659014,689.485948
3313.065670,-8882.471304,-962.267725,-1302.362347
3313.066008,-8068.244768,0.000000,1532.190996
3313.066345,-10066.800811,518.144159,2911.162892
3313.066683,-12287.418637,-592.164754,536.266849
3313.067020,-11843.295072,-814.226536,-2374.896044
3313.067357,-8734.430116,444.123565,-2145.067394
3313.067695,-8364.327145,296.082377,536.266849
3313.068032,-10881.027347,-1406.391290,1762.019645
3313.068370,-11473.192101,-3256.906145,-459.657299
3313.068707,-8290.306550,-1628.453072,-2068.457845
3313.069045,-7994.224174,222.061783,153.219100
3313.069382,-10140.821405,518.144159,76.609550
3313.069720,-13027.624579,-1554.432478,-1915.238745
3313.070057,-11251.130318,-1554.432478,-3677.258390
3313.070394,-7772.162391,-518.144159,-1149.143247
3313.070732,-8586.388927,296.082377,2451.505594
3313.071069,-11547.212695,-962.267725,2834.553343
3313.071407,-12361.439231,-2146.597232,383.047749
3313.071744,-8956.491898,-222.061783,153.219100
3313.072082,-8882.471304,1776.494261,2528.115143
3313.072419,-10510.924376,1480.411884,3524.039291
3313.072756,-13101.645173,296.082377,995.924147
3313.073094,-9918.759623,888.247130,-995.924147
3313.073431,-7624.121203,2294.638420,76.609550
3313.073769,-8364.327145,2960.823768,1838.629195
3313.074106,-11843.295072,1036.288319,1838.629195
3313.074444,-11399.171507,0.000000,-1378.971896
3313.074781,-7920.203579,0.000000,-1225.752797
3313.075119,-8660.409521,1924.535449,1762.019645
3313.075456,-9770.718434,1480.411884,1149.143247
3313.075793,-12065.356855,-1406.391290,-1225.752797
3313.076131,-9030.512492,-592.164754,-3524.039291
3313.076468,-7254.018232,-666.185348,-842.705048
3313.076806,-8364.327145,370.102971,2757.943793
3313.077143,-11695.253884,-2294.638420,2298.286494
3313.077481,-11621.233289,-3330.926739,-1225.752797
3313.077818,-9400.615463,-1184.329507,-1149.143247
3313.078156,-8956.491898,0.000000,1991.848295
3313.078493,-11029.068536,-592.164754,2911.162892
3313.078830,-13249.686362,-2146.597232,229.828649
3313.079168,-10288.862594,-962.267725,-1532.190996
3313.079505,-8956.491898,296.082377,842.705048
3313.079843,-10288.862594,518.144159,3983.696590
3313.080180,-12583.501014,-1628.453072,2681.334243
3313.080518,-11991.336260,-1554.432478,0.000000
3313.080855,-8808.450710,222.061783,0.000000
3313.081193,-8734.430116,1702.473667,1378.971896
3313.081530,-11177.109724,1036.288319,919.314598
3313.081867,-12731.542202,-1184.329507,-1915.238745
3313.082205,-9104.533087,0.000000,-2911.162892
3313.082542,-7402.059420,740.205942,-919.314598
3313.082880,-8512.368333,592.164754,1072.533697
3313.083217,-11843.295072,-2368.659014,153.219100
3313.083555,-9844.739029,-2664.741391,-1685.410096
3313.083892,-7105.977043,-740.205942,-1149.143247
3313.084229,-7105.977043,0.000000,1991.848295
3313.084567,-10362.883188,-518.144159,1685.410096
3313.084904,-12287.418637,-1628.453072,-1762.019645
3313.085242,-8512.368333,-592.164754,-2451.505594
3313.085579,-7550.100608,296.082377,995.924147
3313.085917,-9622.677246,74.020594,3830.477490
3313.086254,-12139.377449,-148.041188,1685.410096
3313.086592,-11547.212695,0.000000,-1225.752797
3313.086929,-8438.347739,1110.308913,-153.219100
3313.087266,-9178.553681,1998.556043,995.924147
3313.087604,-11843.295072,1332.370696,1915.238745
3313.087941,-12879.583391,0.000000,-1149.143247
3313.088279,-8882.471304,444.123565,-2451.505594
3313.088616,-8586.388927,1406.391290,689.485948
3313.088954,-9992.780217,444.123565,2528.115143
3313.089291,-12435.459826,-1480.411884,229.828649
3313.089629,-10955.047942,-1036.288319,-2068.457845
3313.089966,-8882.471304,-740.205942,-689.485948
3313.090303,-8734.430116,666.185348,1455.581446
3313.090641,-11621.233289,-1554.432478,536.266849
3313.090978,-11695.253884,-2368.659014,-1762.019645
3313.091316,-7994.224174,-2220.617826,-2834.553343
3313.091653,-8068.244768,-444.123565,1762.019645
3313.091991,-9844.739029,-1332.370696,3907.087040
3313.092328,-12139.377449,-3775.050304,1838.629195
3313.092665,-10436.903782,-2738.761985,-229.828649
3313.093003,-8068.244768,-370.102971,2145.067394
3313.093340,-9474.636058,888.247130,4673.182538
3313.093678,-12509.480420,-222.061783,3140.991542
3313.094015,-12213.398043,0.000000,-229.828649
3313.094353,-8808.450710,1258.350101,-995.924147
3313.094690,-8734.430116,1776.494261,1838.629195
3313.095028,-10510.924376,1628.453072,1838.629195
3313.095365,-12361.439231,-370.102971,-689.485948
3313.095702,-9252.574275,0.000000,-2604.724693
3313.096040,-7772.162391,1110.308913,-536.266849
3313.096377,-8808.450710,2146.597232,1532.190996
3313.096715,-12065.356855,962.267725,0.000000
3313.097052,-11843.295072,-592.164754,-3064.381992
3313.097390,-7994.224174,740.205942,-2987.772442
3313.097727,-8290.306550,740.205942,1149.143247
3313.098065,-10362.883188,-444.123565,1915.238745
3313.098402,-11769.274478,-2368.659014,459.657299
3313.098739,-9474.636058,-1184.329507,-919.314598
3313.099077,-8068.244768,0.000000,229.828649
3313.099414,-9326.594869,1110.308913,766.095498
3313.099752,-11917.315666,-1702.473667,153.219100
3313.100089,-10955.047942,-2146.597232,-1838.629195
3313.100427,-6883.915261,-666.185348,-1608.800546
3313.100764,-8068.244768,1332.370696,2681.334243
3313.101102,-10881.027347,0.000000,2451.505594
3313.101439,-12805.562797,-1480.411884,153.219100
3313.101776,-10362.883188,-444.123565,-1378.971896
3313.102114,-8956.491898,888.247130,919.314598
3313.102451,-9696.697840,1406.391290,2451.505594
3313.102789,-13323.706956,-518.144159,153.219100
3313.103126,-11103.089130,-1702.473667,-2911.162892
3313.103464,-7550.100608,0.000000,-1991.848295
3313.103801,-8956.491898,-74.020594,1915.238745
3313.104138,-11325.150913,-888.247130,1455.581446
3313.104476,-12509.480420,-2738.761985,-1378.971896
3313.104813,-9474.636058,-1332.370696,-2604.724693
3313.105151,-8660.409521,0.000000,76.609550
3313.105488,-10288.862594,592.164754,1838.629195
3313.105826,-12287.418637,-2368.659014,229.828649
3313.106163,-9918.759623,-1480.411884,-1072.533697
3313.106501,-7624.121203,-814.226536,919.314598
3313.106838,-9178.553681,-74.020594,4290.134789
3313.107175,-11399.171507,-888.247130,4290.134789
3313.107513,-11621.233289,-2368.659014,1762.019645
3313.107850,-8808.450710,222.061783,1455.581446
3313.108188,-8290.306550,2294.638420,1915.238745
3313.108525,-9918.759623,1998.556043,2145.067394
3313.108863,-11917.315666,0.000000,0.000000
3313.109200,-9326.594869,1184.329507,-2451.505594
3313.109538,-7846.182985,1998.556043,-383.047749
3313.109875,-9104.533087,1406.391290,1991.848295
3313.110212,-11103.089130,-222.061783,1225.752797
3313.110550,-11029.068536,-1184.329507,-995.924147
3313.110887,-8660.409521,0.000000,-1225.752797
3313.111225,-9252.574275,740.205942,612.876398
3313.111562,-10140.821405,148.041188,0.000000
3313.111900,-12287.418637,-2368.659014,-2145.067394
3313.112237,-9400.615463,-1554.432478,-2911.162892
3313.112575,-8216.285956,-740.205942,-459.657299
3313.112912,-9400.615463,-148.041188,1608.800546
3313.113249,-11547.212695,-2220.617826,919.314598
3313.113587,-11769.274478,-2294.638420,-612.876398
3313.113924,-9326.594869,-740.205942,-612.876398
3313.114262,-9474.636058,0.000000,2374.896044
3313.114599,-11029.068536,-888.247130,2221.676944
3313.114937,-12805.562797,-1628.453072,229.828649
3313.115274,-9178.553681,-518.144159,-1762.019645
3313.115611,-8068.244768,0.000000,995.924147
3313.115949,-8290.306550,592.164754,1762.019645
3313.116286,-11177.109724,-962.267725,689.485948
3313.116624,-11473.192101,0.000000,-1685.410096
3313.116961,-8956.491898,444.123565,-1762.019645
3313.117299,-9474.636058,1258.350101,536.266849
3313.117636,-10955.047942,518.144159,536.266849
3313.117974,-11991.336260,-962.267725,-1149.143247
3313.118311,-8586.388927,0.000000,-2221.676944
3313.118648,-7328.038826,-814.226536,-459.657299
3313.118986,-8734.430116,0.000000,1838.629195
3313.119323,-11547.212695,-2590.720797,1532.190996
3313.119661,-10658.965565,-1110.308913,536.266849
3313.119998,-8808.450710,-370.102971,-76.609550
3313.120336,-9030.512492,1406.391290,1608.800546
3313.120673,-11547.212695,222.061783,1762.019645
3313.121011,-12287.418637,-962.267725,229.828649
3313.121348,-8586.388927,666.185348,-306.438199
3313.121685,-8586.388927,592.164754,2298.286494
3313.122023,-10288.862594,1702.473667,3983.696590
3313.122360,-12361.439231,-962.267725,2374.896044
3313.122698,-11177.109724,-148.041188,-76.609550
3313.123035,-8216.285956,518.144159,459.657299
3313.123373,-9770.718434,1184.329507,1991.848295
3313.123710,-10732.986159,444.123565,229.828649
3313.124047,-10881.027347,-222.061783,-2068.457845
3313.124385,-8290.306550,0.000000,-2068.457845
3313.124722,-9178.553681,518.144159,0.000000
3313.125060,-10140.821405,-296.082377,842.705048
3313.125397,-12361.439231,-2220.617826,-612.876398
3313.125735,-9474.636058,-2442.679609,-2451.505594
3313.126072,-7846.182985,-1110.308913,-459.657299
3313.126410,-9252.574275,-444.123565,1455.581446
3313.126747,-11843.295072,-1110.308913,0.000000
3313.127084,-12065.356855,-2220.617826,-2451.505594
3313.127422,-8956.491898,-1702.473667,-1532.190996
3313.127759,-8734.430116,-370.102971,1685.410096
3313.128097,-9992.780217,-962.267725,3677.258390
3313.128434,-12213.398043,-1702.473667,2451.505594
3313.128772,-10436.903782,-1036.288319,383.047749
3313.129109,-9326.594869,962.267725,2145.067394
3313.129447,-10214.842000,2886.803174,2987.772442
3313.129784,-12213.398043,1184.329507,1225.752797
3313.130121,-11843.295072,888.247130,-1838.629195
3313.130459,-8660.409521,1406.391290,-1532.190996
3313.130796,-8068.244768,1998.556043,1225.752797
3313.131134,-9252.574275,444.123565,1455.581446
3313.131471,-11177.109724,-740.205942,766.095498
3313.131809,-9104.533087,-296.082377,-1455.581446
3313.132146,-7994.224174,1998.556043,-995.924147
3313.132484,-9400.615463,1776.494261,766.095498
3313.132821,-11325.150913,0.000000,-1149.143247
3313.133158,-9770.718434,-1554.432478,-2451.505594
3313.133496,-7476.080014,-592.164754,-1455.581446
3313.133833,-7624.121203,74.020594,1991.848295
3313.134171,-10436.903782,-1036.288319,2757.943793
3313.134508,-12435.459826,-3108.864956,1072.533697
3313.134846,-9844.739029,-1036.288319,-842.705048
3313.135183,-9326.594869,0.000000,766.095498
3313.135520,-9992.780217,814.226536,1915.238745
3313.135858,-11917.315666,-1628.453072,306.438199
3313.136195,-10807.006753,-1184.329507,-1072.533697
3313.136533,-8142.265362,-592.164754,-689.485948
3313.136870,-9178.553681,296.082377,2528.115143
3313.137208,-11325.150913,-222.061783,3140.991542
3313.137545,-12805.562797,-2220.617826,229.828649
3313.137883,-10066.800811,-814.226536,-766.095498
3313.138220,-8808.450710,296.082377,-76.609550
3313.138557,-10066.800811,740.205942,995.924147
3313.138895,-12509.480420,-2294.638420,-689.485948
3313.139232,-10807.006753,-2072.576638,-2451.505594
3313.139570,-7698.141797,-1036.288319,-2987.772442
3313.139907,-8882.471304,-888.247130,1302.362347
3313.140245,-10436.903782,-2294.638420,2221.676944
3313.140582,-11843.295072,-4145.153275,0.000000
3313.140920,-8660.409521,-1480.411884,-383.047749
3313.141257,-8216.285956,0.000000,919.314598
3313.141594,-9770.718434,666.185348,2145.067394
3313.141932,-11991.336260,-1110.308913,153.219100
3313.142269,-10955.047942,-296.082377,-1991.848295
3313.142607,-8068.244768,0.000000,306.438199
3313.142944,-8808.450710,1628.453072,3830.477490
3313.143282,-11251.130318,592.164754,4749.792088
3313.143619,-11769.274478,0.000000,1685.410096
3313.143957,-8882.471304,1628.453072,-612.876398
3313.144294,-9030.512492,3478.967927,1991.848295
3313.144631,-11547.212695,3552.988522,1838.629195
3313.144969,-12731.542202,1776.494261,-1302.362347
3313.145306,-9992.780217,1110.308913,-3217.601092
3313.145644,-6883.915261,2368.659014,-1838.629195
3313.145981,-8364.327145,1480.411884,1225.752797
3313.146319,-11029.068536,-666.185348,1455.581446
3313.146656,-11399.171507,-1480.411884,-1685.410096
3313.146993,-8734.430116,-962.267725,-2604.724693
3313.147331,-8660.409521,148.041188,-306.438199
3313.147668,-10066.800811,0.000000,842.705048
3313.148006,-12065.356855,-1924.535449,-612.876398
3313.148343,-9326.594869,-2294.638420,-3677.258390
3313.148681,-7031.956449,-962.267725,-1072.533697
3313.149018,-9030.512492,-1480.411884,2757.943793
3313.149356,-12139.377449,-3256.906145,2451.505594
3313.149693,-11695.253884,-3182.885551,459.657299
3313.150030,-9178.553681,-1702.473667,0.000000
3313.150368,-9030.512492,666.185348,2604.724693
3313.150705,-11325.150913,518.144159,2374.896044
3313.151043,-13249.686362,-814.226536,0.000000
3313.151380,-10066.800811,-888.247130,-2528.115143
3313.151718,-8438.347739,888.247130,0.000000
3313.152055,-9400.615463,1184.329507,2528.115143
3313.152393,-11917.315666,-1776.494261,1608.800546
3313.152730,-11843.295072,-1184.329507,-1378.971896
3313.153067,-8512.368333,740.205942,-919.314598
3313.153405,-9326.594869,2294.638420,2145.067394
3313.153742,-11843.295072,740.205942,1225.752797
3313.154080,-13101.645173,-962.267725,-1455.581446
