#time,accel_x,accel_y,accel_z
3372.899118,-10066.800811,444.123565,383.047749
3372.899456,-10955.047942,518.144159,689.485948
3372.899794,-10066.800811,592.164754,-459.657299
3372.900132,-10140.821405,148.041188,-1149.143247
3372.900470,-10066.800811,-444.123565,-842.705048
3372.900808,-9548.656652,-1480.411884,76.609550
3372.901146,-8956.491898,-962.267725,76.609550
3372.901484,-8956.491898,-592.164754,-306.438199
3372.901822,-8956.491898,-370.102971,-153.219100
3372.902160,-9918.759623,-1110.308913,0.000000
3372.902498,-10436.903782,-814.226536,153.219100
3372.902836,-9696.697840,-666.185348,459.657299
3372.903174,-8438.347739,-814.226536,536.266849
3372.903512,-9252.574275,-518.144159,1685.410096
3372.903849,-10066.800811,-1924.535449,2451.505594
3372.904187,-9992.780217,0.000000,2298.286494
3372.904525,-10066.800811,0.000000,1762.019645
3372.904863,-10436.903782,814.226536,1225.752797
3372.905201,-10362.883188,518.144159,1838.629195
3372.905539,-10510.924376,-148.041188,1149.143247
3372.905877,-10362.883188,592.164754,1072.533697
3372.906215,-9770.718434,592.164754,0.000000
3372.906553,-9992.780217,370.102971,536.266849
3372.906891,-10955.047942,-1110.308913,0.000000
3372.907229,-10214.842000,-1702.473667,-153.219100
3372.907567,-10658.965565,-1480.411884,612.876398
3372.907905,-9770.718434,-1628.453072,536.266849
3372.908243,-9400.615463,-2220.617826,383.047749
3372.908580,-9992.780217,-3552.988522,536.266849
3372.908918,-10140.821405,-4145.153275,842.705048
3372.909256,-9474.636058,-3627.009116,2528.115143
3372.909594,-9400.615463,-3256.906145,4136.915689
3372.909932,-10066.800811,-3256.906145,3907.087040
3372.910270,-11325.150913,-3182.885551,3677.258390
3372.910608,-11325.150913,-3034.844362,3600.648841
3372.910946,-10436.903782,-2886.803174,4443.353888
3372.911284,-10066.800811,-2368.659014,5209.449386
3372.911622,-10214.842000,-1480.411884,4443.353888
3372.911960,-10140.821405,-1998.556043,2681.334243
3372.912298,-10066.800811,-2368.659014,2604.724693
3372.912636,-9474.636058,-1628.453072,2834.553343
3372.912974,-9992.780217,-1036.288319,3677.258390
3372.913311,-9622.677246,-518.144159,3064.381992
3372.913649,-10214.842000,0.000000,2374.896044
3372.913987,-10807.006753,-814.226536,1915.238745
3372.914325,-9918.759623,-962.267725,2068.457845
3372.914663,-9918.759623,-2368.659014,2987.772442
3372.915001,-9696.697840,-2146.597232,2911.162892
3372.915339,-9252.574275,-1184.329507,1149.143247
3372.915677,-10881.027347,-2220.617826,919.314598
3372.916015,-9844.739029,-2442.679609,0.000000
3372.916353,-8512.368333,-4367.215058,1072.533697
3372.916691,-9622.677246,-4219.173869,2911.162892
3372.917029,-8290.306550,-4071.132681,4290.134789
3372.917367,-11251.130318,-3108.864956,4673.182538
3372.917705,-10955.047942,-2368.659014,3753.867940
3372.918042,-9844.739029,-1406.391290,1225.752797
3372.918380,-10510.924376,-888.247130,1915.238745
3372.918718,-10955.047942,-1702.473667,1915.238745
3372.919056,-9400.615463,-2072.576638,2221.676944
3372.919394,-9696.697840,-2960.823768,2451.505594
3372.919732,-10510.924376,-2368.659014,2681.334243
3372.920070,-11473.192101,-2590.720797,1608.800546
3372.920408,-10436.903782,-2738.761985,919.314598
3372.920746,-8956.491898,-2738.761985,1762.019645
3372.921084,-9622.677246,-2886.803174,3447.429741
3372.921422,-11177.109724,-1258.350101,2528.115143
3372.921760,-11177.109724,-666.185348,153.219100
3372.922098,-11103.089130,-888.247130,-1302.362347
3372.922436,-11177.109724,-2442.679609,-842.705048
3372.922773,-10658.965565,-4145.153275,-306.438199
3372.923111,-7846.182985,-4589.276840,766.095498
3372.923449,-6883.915261,-4589.276840,1838.629195
3372.923787,-8882.471304,-4737.318029,3600.648841
3372.924125,-11325.150913,-4071.132681,3983.696590
3372.924463,-11103.089130,-3701.029710,3907.087040
3372.924801,-10881.027347,-370.102971,2911.162892
3372.925139,-10584.944971,666.185348,2681.334243
3372.925477,-11177.109724,1036.288319,2681.334243
3372.925815,-9992.780217,-1480.411884,1838.629195
3372.926153,-7920.203579,-2442.679609,2911.162892
3372.926491,-8290.306550,-2664.741391,6665.030833
3372.926829,-11103.089130,-2220.617826,8580.269578
3372.927167,-11547.212695,-1998.556043,4903.011187
3372.927504,-9252.574275,-814.226536,2604.724693
3372.927842,-8586.388927,518.144159,1225.752797
3372.928180,-10362.883188,0.000000,2221.676944
3372.928518,-9770.718434,740.205942,1838.629195
3372.928856,-9030.512492,0.000000,383.047749
3372.929194,-10881.027347,0.000000,1532.190996
3372.929532,-11621.233289,-1776.494261,0.000000
3372.929870,-9326.594869,-3256.906145,306.438199
3372.930208,-8290.306550,-3552.988522,1915.238745
3372.930546,-7328.038826,-6439.791695,2911.162892
3372.930884,-8364.327145,-4515.256246,3830.477490
3372.931222,-10881.027347,-3256.906145,5209.449386
3372.931560,-12065.356855,-2368.659014,3447.429741
3372.931898,-12879.583391,-2294.638420,1532.190996
3372.932235,-11991.336260,-1480.411884,1225.752797
3372.932573,-9622.677246,-2220.617826,1608.800546
3372.932911,-9474.636058,-4663.297435,3217.601092
3372.933249,-9252.574275,-3627.009116,3524.039291
3372.933587,-8586.388927,-3108.864956,995.924147
3372.933925,-9918.759623,-3849.070898,1532.190996
3372.934263,-10955.047942,-3997.112087,1302.362347
3372.934601,-9992.780217,-4811.338623,3140.991542
3372.934939,-8586.388927,-2812.782580,3983.696590
3372.935277,-8882.471304,-296.082377,2451.505594
3372.935615,-11991.336260,592.164754,1532.190996
3372.935953,-12139.377449,-518.144159,-919.314598
3372.936291,-11547.212695,-3182.885551,-459.657299
3372.936629,-10658.965565,-2960.823768,1149.143247
3372.936966,-8068.244768,-2812.782580,1378.971896
3372.937304,-8142.265362,-4071.132681,2068.457845
3372.937642,-8808.450710,-5403.503377,2298.286494
3372.937980,-8586.388927,-5995.668130,3600.648841
3372.938318,-9474.636058,-3701.029710,4826.401637
3372.938656,-9844.739029,-296.082377,3294.210641
3372.938994,-11917.315666,592.164754,2374.896044
3372.939332,-13767.830521,0.000000,2374.896044
3372.939670,-10658.965565,-1110.308913,766.095498
3372.940008,-9326.594869,-666.185348,3600.648841
3372.940346,-9104.533087,-370.102971,6052.154434
3372.940684,-9548.656652,-2294.638420,4903.011187
3372.941022,-11843.295072,-3034.844362,4826.401637
3372.941360,-8586.388927,-3404.947333,3294.210641
3372.941697,-7179.997637,-888.247130,4213.525239
3372.942035,-9252.574275,-74.020594,2681.334243
3372.942373,-11991.336260,-1332.370696,1608.800546
3372.942711,-11177.109724,-444.123565,-1532.190996
3372.943049,-9474.636058,222.061783,0.000000
3372.943387,-10214.842000,-814.226536,3140.991542
3372.943725,-12361.439231,-3627.009116,2604.724693
3372.944063,-11103.089130,-4441.235652,-459.657299
3372.944401,-7402.059420,-4071.132681,153.219100
3372.944739,-7179.997637,-5921.647536,4443.353888
3372.945077,-9548.656652,-6439.791695,4979.620737
3372.945415,-10955.047942,-4219.173869,2374.896044
3372.945753,-9474.636058,-2516.700203,1072.533697
3372.946091,-11843.295072,-1998.556043,3447.429741
3372.946428,-13175.665768,-2294.638420,3064.381992
3372.946766,-10955.047942,-1036.288319,1225.752797
3372.947104,-9400.615463,-1184.329507,1455.581446
3372.947442,-10732.986159,-2368.659014,2757.943793
3372.947780,-11547.212695,-2886.803174,2145.067394
3372.948118,-8734.430116,-1924.535449,2221.676944
3372.948456,-7476.080014,-2368.659014,4519.963438
3372.948794,-9770.718434,-3256.906145,3830.477490
3372.949132,-11251.130318,-1258.350101,2451.505594
3372.949470,-9844.739029,962.267725,689.485948
3372.949808,-9548.656652,1332.370696,1378.971896
3372.950146,-11621.233289,518.144159,76.609550
3372.950484,-11325.150913,0.000000,229.828649
3372.950822,-10214.842000,0.000000,1225.752797
3372.951159,-9770.718434,-296.082377,1149.143247
3372.951497,-9474.636058,-1998.556043,-153.219100
3372.951835,-7994.224174,-2294.638420,536.266849
3372.952173,-8068.244768,-3849.070898,2757.943793
3372.952511,-8364.327145,-2442.679609,2911.162892
3372.952849,-8586.388927,0.000000,1838.629195
3372.953187,-11177.109724,296.082377,1838.629195
3372.953525,-12435.459826,74.020594,2221.676944
3372.953863,-12139.377449,1702.473667,1455.581446
3372.954201,-11843.295072,1480.411884,1608.800546
3372.954539,-9992.780217,0.000000,1532.190996
3372.954877,-8142.265362,-1850.514855,1915.238745
3372.955215,-9548.656652,-1332.370696,3677.258390
3372.955552,-10214.842000,-2442.679609,1149.143247
3372.955890,-9400.615463,-2738.761985,-459.657299
3372.956228,-9474.636058,-814.226536,0.000000
3372.956565,-9622.677246,-1258.350101,-919.314598
3372.956903,-10807.006753,-1406.391290,-1838.629195
3372.957241,-10436.903782,-1184.329507,-1378.971896
3372.957578,-10140.821405,-1554.432478,-1302.362347
3372.957916,-11177.109724,-2664.741391,-1378.971896
3372.958254,-10584.944971,-2146.597232,-306.438199
3372.958591,-9474.636058,-3034.844362,-383.047749
3372.958929,-9252.574275,-4441.235652,76.609550
3372.959267,-9696.697840,-4959.379811,383.047749
3372.959604,-9918.759623,-4293.194464,1149.143247
3372.959942,-9252.574275,-2516.700203,-459.657299
3372.960280,-10584.944971,-1184.329507,-689.485948
3372.960617,-11399.171507,-444.123565,-995.924147
3372.960955,-10288.862594,-666.185348,-306.438199
3372.961293,-9548.656652,-1702.473667,2451.505594
3372.961631,-9770.718434,296.082377,3600.648841
3372.961968,-10658.965565,1850.514855,3600.648841
3372.962306,-11695.253884,2368.659014,1685.410096
3372.962644,-11251.130318,2220.617826,0.000000
3372.962981,-10140.821405,1628.453072,-383.047749
3372.963319,-9326.594869,444.123565,919.314598
3372.963657,-8290.306550,1480.411884,1608.800546
3372.963994,-8216.285956,1406.391290,-536.266849
3372.964332,-9548.656652,1406.391290,-1915.238745
3372.964670,-10658.965565,1036.288319,-1302.362347
3372.965007,-9178.553681,1332.370696,-1225.752797
3372.965345,-9622.677246,148.041188,-383.047749
3372.965683,-9844.739029,888.247130,1991.848295
3372.966020,-9622.677246,518.144159,536.266849
3372.966358,-9918.759623,-592.164754,0.000000
3372.966696,-8956.491898,-592.164754,76.609550
3372.967033,-8956.491898,-740.205942,76.609550
3372.967371,-9770.718434,-1850.514855,842.705048
3372.967709,-10214.842000,-1110.308913,2145.067394
3372.968046,-10584.944971,814.226536,2374.896044
3372.968384,-11325.150913,0.000000,306.438199
3372.968722,-11769.274478,0.000000,-76.609550
3372.969059,-11177.109724,-222.061783,0.000000
3372.969397,-9400.615463,-592.164754,689.485948
3372.969735,-9548.656652,148.041188,2451.505594
3372.970073,-10436.903782,-666.185348,1072.533697
3372.970410,-11103.089130,-1406.391290,-383.047749
3372.970748,-11251.130318,-1554.432478,-995.924147
3372.971086,-10436.903782,-1776.494261,-689.485948
3372.971423,-9844.739029,-2590.720797,-383.047749
3372.971761,-8660.409521,-1850.514855,612.876398
3372.972099,-10214.842000,-1998.556043,229.828649
3372.972436,-11029.068536,-1554.432478,-459.657299
3372.972774,-10732.986159,-592.164754,-1532.190996
3372.973112,-10584.944971,-1702.473667,-383.047749
3372.973449,-10066.800811,-3034.844362,995.924147
3372.973787,-8808.450710,-2072.576638,1838.629195
3372.974125,-9252.574275,-1850.514855,1838.629195
3372.974462,-9474.636058,-1258.350101,2068.457845
3372.974800,-9992.780217,370.102971,1532.190996
3372.975138,-10658.965565,222.061783,-306.438199
3372.975475,-9770.718434,1110.308913,459.657299
3372.975813,-10510.924376,1406.391290,2221.676944
3372.976151,-10881.027347,1998.556043,1685.410096
3372.976488,-9326.594869,1776.494261,-306.438199
3372.976826,-10288.862594,2664.741391,-383.047749
3372.977164,-9918.759623,1554.432478,-1302.362347
3372.977502,-8808.450710,518.144159,-995.924147
3372.977839,-8734.430116,518.144159,919.314598
3372.978177,-8882.471304,888.247130,229.828649
3372.978515,-10214.842000,1110.308913,-1532.190996
3372.978852,-11843.295072,1628.453072,-3677.258390
3372.979190,-10140.821405,296.082377,-4673.182538
3372.979528,-9104.533087,-1036.288319,-3447.429741
3372.979865,-8290.306550,-1332.370696,-995.924147
3372.980203,-8956.491898,-1480.411884,536.266849
3372.980541,-10658.965565,-1850.514855,1149.143247
3372.980878,-11621.233289,-2368.659014,76.609550
3372.981216,-10881.027347,-2516.700203,-766.095498
3372.981554,-10362.883188,-3478.967927,536.266849
3372.981891,-9400.615463,-3182.885551,2528.115143
3372.982229,-9104.533087,-2146.597232,2834.553343
3372.982567,-9918.759623,-592.164754,2451.505594
3372.982904,-11547.212695,-962.267725,612.876398
3372.983242,-11621.233289,-1036.288319,153.219100
3372.983580,-10066.800811,-1332.370696,76.609550
3372.983917,-10584.944971,-1110.308913,2145.067394
3372.984255,-10658.965565,-666.185348,1225.752797
3372.984593,-8808.450710,-962.267725,919.314598
3372.984930,-9770.718434,-370.102971,1378.971896
3372.985268,-10584.944971,-1036.288319,612.876398
3372.985606,-10066.800811,-222.061783,229.828649
3372.985944,-10584.944971,-74.020594,1149.143247
3372.986281,-10140.821405,222.061783,919.314598
3372.986619,-10362.883188,518.144159,459.657299
3372.986957,-11473.192101,148.041188,0.000000
3372.987294,-8956.491898,814.226536,-459.657299
3372.987632,-9400.615463,-296.082377,0.000000
3372.987970,-9548.656652,-592.164754,1915.238745
3372.988307,-9030.512492,370.102971,1991.848295
3372.988645,-9252.574275,814.226536,1991.848295
3372.988983,-9696.697840,74.020594,1072.533697
3372.989320,-10140.821405,1036.288319,1378.971896
3372.989658,-9918.759623,2294.638420,919.314598
3372.989996,-9844.739029,1110.308913,1685.410096
3372.990333,-10140.821405,1924.535449,2757.943793
3372.990671,-10807.006753,1702.473667,919.314598
3372.991009,-10955.047942,1332.370696,-1072.533697
3372.991346,-10140.821405,1258.350101,-1455.581446
3372.991684,-8438.347739,222.061783,-2451.505594
3372.992022,-8364.327145,-1406.391290,-1302.362347
3372.992359,-9104.533087,-1036.288319,-229.828649
3372.992697,-9178.553681,148.041188,-689.485948
3372.993035,-10955.047942,-518.144159,-2451.505594
3372.993372,-11473.192101,-888.247130,-1685.410096
3372.993710,-10807.006753,-1110.308913,-2145.067394
3372.994048,-10510.924376,-2146.597232,153.219100
3372.994386,-9770.718434,-1554.432478,842.705048
3372.994723,-10807.006753,-2294.638420,306.438199
3372.995061,-10658.965565,-1850.514855,-995.924147
3372.995399,-10362.883188,-1332.370696,-1991.848295
3372.995736,-9992.780217,-2812.782580,-842.705048
3372.996074,-9030.512492,-2516.700203,0.000000
3372.996412,-9326.594869,-1480.411884,1991.848295
3372.996749,-10881.027347,222.061783,1991.848295
3372.997087,-10881.027347,-222.061783,0.000000
3372.997425,-11769.274478,370.102971,612.876398
3372.997762,-10140.821405,444.123565,842.705048
3372.998100,-9178.553681,592.164754,1838.629195
3372.998438,-10510.924376,1184.329507,2681.334243
3372.998775,-9770.718434,222.061783,842.705048
3372.999113,-8956.491898,0.000000,229.828649
3372.999451,-9696.697840,0.000000,0.000000
3372.999788,-9622.677246,296.082377,-919.314598
3373.000126,-9030.512492,-1036.288319,-1378.971896
3373.000464,-9178.553681,148.041188,842.705048
3373.000801,-8808.450710,740.205942,76.609550
3373.001139,-9474.636058,296.082377,0.000000
3373.001477,-10881.027347,666.185348,153.219100
3373.001815,-11029.068536,370.102971,-229.828649
3373.002152,-10140.821405,-148.041188,1225.752797
3373.002490,-10288.862594,-1110.308913,2911.162892
3373.002828,-10732.986159,-518.144159,3064.381992
3373.003165,-10066.800811,-518.144159,1378.971896
3373.003503,-10584.944971,444.123565,459.657299
3373.003841,-10658.965565,-296.082377,0.000000
3373.004178,-10584.944971,0.000000,0.000000
3373.004516,-8660.409521,-296.082377,1149.143247
3373.004854,-10140.821405,-962.267725,1762.019645
3373.005191,-10510.924376,-296.082377,995.924147
3373.005529,-10584.944971,444.123565,-229.828649
3373.005867,-10436.903782,-296.082377,-229.828649
3373.006204,-10140.821405,-1110.308913,-842.705048
3373.006542,-10584.944971,-1480.411884,383.047749
3373.006880,-9770.718434,-1184.329507,229.828649
3373.007217,-8882.471304,-962.267725,-612.876398
3373.007555,-9844.739029,-962.267725,-1225.752797
3373.007893,-10214.842000,-1480.411884,-2221.676944
3373.008230,-9178.553681,-1332.370696,-1455.581446
3373.008568,-9992.780217,-1554.432478,919.314598
3373.008906,-9696.697840,-1480.411884,1302.362347
3373.009243,-10362.883188,666.185348,1608.800546
3373.009581,-11917.315666,0.000000,-536.266849
3373.009919,-10214.842000,-1110.308913,-1149.143247
3373.010257,-9252.574275,0.000000,229.828649
3373.010594,-9474.636058,-666.185348,3447.429741
3373.010932,-9844.739029,962.267725,3370.820191
3373.011270,-10510.924376,1406.391290,1915.238745
3373.011607,-11547.212695,2220.617826,842.705048
3373.011945,-11251.130318,1258.350101,0.000000
3373.012283,-10140.821405,1332.370696,229.828649
3373.012620,-9030.512492,1406.391290,1302.362347
3373.012958,-8660.409521,814.226536,2068.457845
3373.013296,-9548.656652,1998.556043,766.095498
3373.013633,-11251.130318,1702.473667,-995.924147
3373.013971,-10436.903782,962.267725,-1838.629195
3373.014309,-8956.491898,0.000000,-2834.553343
3373.014646,-9844.739029,-1184.329507,0.000000
3373.014984,-9252.574275,-1258.350101,459.657299
3373.015322,-8142.265362,-1332.370696,-766.095498
3373.015659,-9770.718434,-1702.473667,-306.438199
3373.015997,-10584.944971,-2368.659014,-459.657299
3373.016335,-9400.615463,-1850.514855,-306.438199
3373.016672,-9696.697840,-2368.659014,2374.896044
3373.017010,-10955.047942,-740.205942,3447.429741
3373.017348,-11103.089130,-444.123565,1608.800546
3373.017685,-12065.356855,-814.226536,153.219100
3373.018023,-10288.862594,-296.082377,-766.095498
3373.018361,-9844.739029,-1480.411884,229.828649
3373.018699,-9918.759623,-1850.514855,2068.457845
3373.019036,-9474.636058,-518.144159,1915.238745
3373.019374,-9918.759623,666.185348,766.095498
3373.019712,-11029.068536,1184.329507,-1455.581446
3373.020049,-11251.130318,814.226536,-2298.286494
3373.020387,-9844.739029,592.164754,-2451.505594
3373.020725,-8956.491898,-370.102971,-612.876398
3373.021062,-8956.491898,888.247130,1302.362347
3373.021400,-9696.697840,-74.020594,-383.047749
3373.021738,-9178.553681,0.000000,-1838.629195
3373.022075,-10288.862594,-666.185348,-383.047749
3373.022413,-10732.986159,-148.041188,536.266849
3373.022751,-9474.636058,-814.226536,995.924147
3373.023088,-9474.636058,0.000000,2911.162892
3373.023426,-9030.512492,444.123565,1149.143247
3373.023764,-10066.800811,74.020594,-689.485948
3373.024101,-10066.800811,1110.308913,383.047749
3373.024439,-9474.636058,592.164754,919.314598
3373.024777,-10658.965565,0.000000,2374.896044
3373.025114,-9770.718434,2220.617826,2451.505594
3373.025452,-10362.883188,1628.453072,1762.019645
3373.025790,-10066.800811,962.267725,842.705048
3373.026128,-9474.636058,666.185348,76.609550
3373.026465,-10584.944971,740.205942,612.876398
3373.026803,-10214.842000,-296.082377,306.438199
3373.027141,-10066.800811,-148.041188,1302.362347
3373.027478,-10066.800811,-74.020594,383.047749
3373.027816,-9474.636058,-888.247130,-612.876398
3373.028154,-9844.739029,592.164754,-536.266849
3373.028491,-10288.862594,-1702.473667,-1225.752797
3373.028829,-9770.718434,-1850.514855,-1149.143247
3373.029167,-10510.924376,-2146.597232,919.314598
3373.029504,-10584.944971,-1628.453072,1072.533697
3373.029842,-9992.780217,-2146.597232,-536.266849
3373.030180,-11251.130318,-2220.617826,-842.705048
3373.030517,-10066.800811,-1998.556043,-919.314598
3373.030855,-9400.615463,-1998.556043,-76.609550
3373.031193,-9548.656652,-1776.494261,1915.238745
3373.031530,-10140.821405,-1628.453072,2068.457845
3373.031868,-11251.130318,0.000000,1532.190996
3373.032206,-11621.233289,740.205942,919.314598
3373.032543,-10658.965565,222.061783,153.219100
3373.032881,-9400.615463,148.041188,1762.019645
3373.033219,-10066.800811,222.061783,3064.381992
3373.033556,-10510.924376,1110.308913,2757.943793
3373.033894,-9622.677246,2368.659014,76.609550
3373.034232,-10066.800811,2368.659014,-919.314598
3373.034570,-9770.718434,1776.494261,-1915.238745
3373.034907,-9400.615463,1184.329507,-995.924147
3373.035245,-9696.697840,1332.370696,0.000000
3373.035583,-9548.656652,888.247130,-995.924147
3373.035920,-9030.512492,1406.391290,-1608.800546
3373.036258,-9548.656652,1406.391290,-1762.019645
3373.036596,-8956.491898,222.061783,-1225.752797
3373.036933,-9030.512492,148.041188,-153.219100
3373.037271,-9474.636058,-518.144159,1455.581446
3373.037609,-9474.636058,0.000000,1149.143247
3373.037946,-9844.739029,0.000000,612.876398
3373.038284,-10658.965565,444.123565,689.485948
3373.038622,-10362.883188,-296.082377,459.657299
3373.038959,-9992.780217,0.000000,536.266849
3373.039297,-10658.965565,-370.102971,1378.971896
3373.039635,-10362.883188,-222.061783,459.657299
3373.039972,-9548.656652,666.185348,-459.657299
3373.040310,-10066.800811,-592.164754,-1149.143247
3373.040648,-9474.636058,0.000000,-1762.019645
3373.040985,-10066.800811,-518.144159,-1838.629195
3373.041323,-10732.986159,-1184.329507,0.000000
3373.041661,-9104.533087,-518.144159,-306.438199
3373.041998,-10066.800811,-370.102971,-306.438199
3373.042336,-12435.459826,-666.185348,153.219100
3373.042674,-11843.295072,-1924.535449,-689.485948
3373.043012,-10436.903782,-1628.453072,-383.047749
3373.043349,-9474.636058,-3034.844362,612.876398
3373.043687,-8956.491898,-2368.659014,1455.581446
3373.044025,-9474.636058,-2960.823768,153.219100
3373.044362,-10584.944971,-2294.638420,-459.657299
3373.044700,-9622.677246,-1258.350101,0.000000
3373.045038,-10436.903782,-370.102971,919.314598
3373.045375,-10807.006753,-518.144159,1532.190996
3373.045713,-10732.986159,148.041188,1915.238745
3373.046051,-9992.780217,148.041188,1762.019645
3373.046388,-10584.944971,0.000000,1915.238745
3373.046726,-9326.594869,666.185348,2681.334243
3373.047064,-8956.491898,1332.370696,2451.505594
3373.047401,-9548.656652,740.205942,2911.162892
3373.047739,-10288.862594,2146.597232,1838.629195
3373.048077,-10584.944971,2368.659014,76.609550
3373.048414,-9770.718434,1850.514855,-766.095498
3373.048752,-9474.636058,1998.556043,-842.705048
3373.049090,-9104.533087,1184.329507,-766.095498
3373.049427,-8364.327145,592.164754,-766.095498
3373.049765,-9326.594869,518.144159,0.000000
3373.050103,-9844.739029,888.247130,-1149.143247
3373.050441,-10584.944971,-296.082377,-2451.505594
3373.050778,-10658.965565,0.000000,-1685.410096
3373.051116,-9548.656652,-1628.453072,-766.095498
3373.051454,-9696.697840,-2294.638420,995.924147
3373.051791,-8290.306550,-370.102971,536.266849
3373.052129,-9178.553681,-1184.329507,-459.657299
3373.052467,-10881.027347,-1776.494261,-689.485948
3373.052804,-10955.047942,-1776.494261,-1378.971896
3373.053142,-11325.150913,-1480.411884,0.000000
3373.053480,-9770.718434,-1850.514855,1149.143247
3373.053817,-9104.533087,-592.164754,1149.143247
3373.054155,-10214.842000,-370.102971,766.095498
3373.054493,-10658.965565,-296.082377,-612.876398
3373.054830,-10955.047942,-370.102971,-306.438199
3373.055168,-11251.130318,-1406.391290,229.828649
3373.055506,-10214.842000,-1258.350101,689.485948
3373.055843,-10288.862594,-1036.288319,2068.457845
3373.056181,-9474.636058,-296.082377,76.609550
3373.056519,-9326.594869,-592.164754,-306.438199
3373.056856,-11769.274478,-444.123565,0.000000
3373.057194,-10214.842000,-814.226536,-612.876398
3373.057531,-9474.636058,-888.247130,0.000000
3373.057868,-10140.821405,-370.102971,842.705048
3373.058206,-9770.718434,0.000000,-383.047749
3373.058543,-9696.697840,888.247130,-1991.848295
3373.058881,-9474.636058,518.144159,-1302.362347
3373.059218,-9252.574275,0.000000,-229.828649
3373.059555,-9622.677246,222.061783,1608.800546
3373.059893,-10288.862594,666.185348,3753.867940
3373.060230,-10140.821405,962.267725,3064.381992
3373.060568,-9696.697840,2146.597232,1532.190996
3373.060905,-10288.862594,2146.597232,842.705048
3373.061243,-10510.924376,1184.329507,612.876398
3373.061580,-9474.636058,1110.308913,536.266849
3373.061917,-9474.636058,2590.720797,1149.143247
3373.062255,-9474.636058,1332.370696,-612.876398
3373.062592,-10140.821405,1332.370696,-1608.800546
3373.062930,-9844.739029,518.144159,-2298.286494
3373.063267,-9252.574275,-740.205942,-1455.581446
3373.063604,-9474.636058,-296.082377,-842.705048
3373.063942,-9548.656652,-444.123565,153.219100
3373.064279,-11029.068536,-518.144159,-689.485948
3373.064617,-10362.883188,-1258.350101,-2374.896044
3373.064954,-10510.924376,-1702.473667,-1225.752797
3373.065291,-10436.903782,-2220.617826,-383.047749
3373.065629,-9474.636058,-2516.700203,0.000000
3373.065966,-9474.636058,-2738.761985,1149.143247
3373.066304,-10436.903782,-2664.741391,1455.581446
3373.066641,-10214.842000,-1776.494261,383.047749
3373.066979,-11473.192101,-2516.700203,536.266849
3373.067316,-10140.821405,-1850.514855,766.095498
3373.067653,-9400.615463,-1924.535449,1838.629195
3373.067991,-10807.006753,-1480.411884,3447.429741
3373.068328,-10288.862594,-370.102971,2757.943793
3373.068666,-10362.883188,592.164754,1455.581446
3373.069003,-11399.171507,222.061783,229.828649
3373.069340,-10436.903782,740.205942,0.000000
3373.069678,-10066.800811,1480.411884,689.485948
3373.070015,-10436.903782,148.041188,995.924147
3373.070353,-9770.718434,222.061783,153.219100
3373.070690,-9548.656652,444.123565,-1762.019645
3373.071027,-9030.512492,962.267725,-1915.238745
3373.071365,-8216.285956,0.000000,-842.705048
3373.071702,-9474.636058,0.000000,-689.485948
3373.072040,-9474.636058,-370.102971,612.876398
3373.072377,-9548.656652,370.102971,1455.581446
3373.072715,-10140.821405,518.144159,689.485948
3373.073052,-10955.047942,0.000000,0.000000
3373.073389,-10584.944971,148.041188,0.000000
3373.073727,-9992.780217,-666.185348,689.485948
3373.074064,-9696.697840,-1924.535449,2298.286494
3373.074402,-9104.533087,74.020594,2681.334243
3373.074739,-9400.615463,740.205942,536.266849
3373.075076,-10214.842000,518.144159,-1838.629195
3373.075414,-9992.780217,666.185348,-2068.457845
3373.075751,-10362.883188,-74.020594,76.609550
3373.076089,-10436.903782,0.000000,1302.362347
3373.076426,-10510.924376,74.020594,1302.362347
3373.076763,-10584.944971,518.144159,-919.314598
3373.077101,-10510.924376,-666.185348,-1915.238745
3373.077438,-9844.739029,-1480.411884,-383.047749
3373.077776,-8882.471304,-1258.350101,0.000000
3373.078113,-9474.636058,-2368.659014,0.000000
3373.078451,-10436.903782,-2294.638420,-306.438199
3373.078788,-10214.842000,-1332.370696,-1915.238745
3373.079125,-10732.986159,-444.123565,-2451.505594
3373.079463,-10658.965565,-1332.370696,-2451.505594
3373.079800,-10214.842000,-1702.473667,-1378.971896
3373.080138,-9326.594869,-2368.659014,306.438199
3373.080475,-9030.512492,-1036.288319,2374.896044
3373.080812,-9622.677246,-1110.308913,2068.457845
3373.081150,-10066.800811,-296.082377,995.924147
3373.081487,-11103.089130,0.000000,153.219100
3373.081825,-10955.047942,370.102971,1378.971896
3373.082162,-10362.883188,74.020594,1915.238745
3373.082499,-9548.656652,814.226536,2987.772442
3373.082837,-9400.615463,1702.473667,1532.190996
3373.083174,-10140.821405,2368.659014,153.219100
3373.083512,-10658.965565,2590.720797,-1225.752797
3373.083849,-10066.800811,296.082377,-919.314598
3373.084187,-8882.471304,370.102971,612.876398
3373.084524,-8364.327145,1628.453072,919.314598
3373.084861,-9918.759623,592.164754,-612.876398
3373.085199,-9696.697840,814.226536,-2528.115143
3373.085536,-10881.027347,592.164754,-2221.676944
3373.085874,-10362.883188,-296.082377,-1302.362347
3373.086211,-9104.533087,-1258.350101,-689.485948
3373.086548,-10140.821405,-962.267725,1455.581446
3373.086886,-10658.965565,-1184.329507,1608.800546
3373.087223,-9770.718434,-1406.391290,0.000000
3373.087561,-10881.027347,-1110.308913,459.657299
3373.087898,-10214.842000,-2368.659014,689.485948
3373.088235,-9252.574275,-2294.638420,1838.629195
3373.088573,-9918.759623,-1850.514855,3064.381992
3373.088910,-10807.006753,-814.226536,2068.457845
3373.089248,-9918.759623,-666.185348,842.705048
3373.089585,-11029.068536,-740.205942,306.438199
3373.089923,-10584.944971,-962.267725,0.000000
3373.090260,-9548.656652,-1406.391290,0.000000
3373.090597,-10362.883188,-1406.391290,2374.896044
3373.090935,-10288.862594,-1036.288319,1072.533697
3373.091272,-9548.656652,-444.123565,0.000000
3373.091610,-10955.047942,0.000000,-689.485948
3373.091947,-10584.944971,-370.102971,-536.266849
3373.092284,-10436.903782,-1258.350101,-459.657299
3373.092622,-10066.800811,-1776.494261,459.657299
3373.092959,-9400.615463,-1258.350101,306.438199
3373.093297,-9622.677246,-1110.308913,-612.876398
3373.093634,-10510.924376,-518.144159,-1072.533697
3373.093971,-10066.800811,-1110.308913,-1838.629195
3373.094309,-9548.656652,-444.123565,-76.609550
3373.094646,-9918.759623,-1110.308913,1838.629195
3373.094984,-10362.883188,-296.082377,2451.505594
3373.095321,-9474.636058,-592.164754,2221.676944
3373.095659,-9104.533087,0.000000,1838.629195
3373.095996,-9030.512492,888.247130,1225.752797
3373.096333,-9178.553681,444.123565,766.095498
3373.096671,-10658.965565,-592.164754,1915.238745
3373.097008,-9770.718434,1184.329507,612.876398
3373.097346,-9252.574275,888.247130,-995.924147
3373.097683,-10732.986159,1554.432478,-1225.752797
3373.098020,-9992.780217,1332.370696,-2528.115143
3373.098358,-9844.739029,-296.082377,-2221.676944
3373.098695,-9474.636058,-148.041188,-612.876398
3373.099033,-8660.409521,74.020594,-612.876398
3373.099370,-10288.862594,814.226536,-536.266849
3373.099707,-11843.295072,-1036.288319,-1532.190996
3373.100045,-11843.295072,-666.185348,-1302.362347
3373.100382,-11029.068536,-888.247130,-842.705048
3373.100720,-10436.903782,-1998.556043,842.705048
3373.101057,-10066.800811,-1406.391290,1608.800546
3373.101394,-10436.903782,-1998.556043,766.095498
3373.101732,-10436.903782,-2072.576638,-612.876398
3373.102069,-10066.800811,-2294.638420,-306.438199
3373.102407,-9548.656652,-888.247130,919.314598
3373.102744,-9992.780217,-1406.391290,766.095498
3373.103082,-9474.636058,-222.061783,995.924147
3373.103419,-9104.533087,0.000000,459.657299
3373.103756,-10066.800811,0.000000,919.314598
3373.104094,-10214.842000,-592.164754,1685.410096
3373.104431,-9622.677246,444.123565,1225.752797
3373.104769,-10140.821405,444.123565,2145.067394
3373.105106,-9696.697840,888.247130,1838.629195
3373.105443,-10362.883188,666.185348,612.876398
3373.105781,-10658.965565,814.226536,0.000000
3373.106118,-9770.718434,1036.288319,-689.485948
3373.106456,-9992.780217,592.164754,-1532.190996
3373.106793,-9844.739029,-518.144159,-536.266849
3373.107130,-9474.636058,0.000000,612.876398
3373.107468,-8956.491898,148.041188,459.657299
3373.107805,-9918.759623,0.000000,306.438199
3373.108143,-10510.924376,1406.391290,612.876398
3373.108480,-10658.965565,-148.041188,536.266849
3373.108818,-10288.862594,-296.082377,76.609550
3373.109155,-9696.697840,-740.205942,2451.505594
3373.109492,-10362.883188,-296.082377,2374.896044
3373.109830,-10288.862594,0.000000,383.047749
3373.110167,-9400.615463,592.164754,-919.314598
3373.110505,-9474.636058,-518.144159,-689.485948
3373.110842,-9178.553681,-962.267725,0.000000
3373.111179,-9030.512492,-370.102971,1302.362347
3373.111517,-9474.636058,0.000000,1991.848295
3373.111854,-9992.780217,370.102971,306.438199
3373.112192,-10658.965565,0.000000,-1685.410096
3373.112529,-10510.924376,-518.144159,-1838.629195
3373.112866,-9770.718434,-1998.556043,612.876398
3373.113204,-10288.862594,-1480.411884,1455.581446
3373.113541,-10658.965565,-1480.411884,76.609550
3373.113879,-9992.780217,-1702.473667,-1608.800546
3373.114216,-10510.924376,-1110.308913,-2221.676944
3373.114554,-10288.862594,-2664.741391,-1838.629195
3373.114891,-10362.883188,-1924.535449,-919.314598
3373.115228,-9992.780217,-2146.597232,995.924147
3373.115566,-10140.821405,-1776.494261,1685.410096
3373.115903,-10362.883188,-1184.329507,1302.362347
3373.116241,-11399.171507,-370.102971,919.314598
3373.116578,-11621.233289,-444.123565,1532.190996
3373.116915,-10732.986159,-666.185348,1378.971896
3373.117253,-9844.739029,-296.082377,2834.553343
3373.117590,-9252.574275,222.061783,2757.943793
3373.117928,-9030.512492,222.061783,2221.676944
3373.118265,-10214.842000,592.164754,1149.143247
3373.118602,-10732.986159,1480.411884,-536.266849
3373.118940,-10362.883188,1110.308913,-612.876398
3373.119277,-9622.677246,1036.288319,76.609550
3373.119615,-8438.347739,888.247130,229.828649
3373.119952,-8290.306550,666.185348,-76.609550
3373.120290,-9474.636058,814.226536,0.000000
3373.120627,-9770.718434,740.205942,-1685.410096
3373.120964,-10066.800811,-592.164754,-1838.629195
3373.121302,-10140.821405,-1184.329507,-459.657299
3373.121639,-9104.533087,-1258.350101,-536.266849
3373.121977,-9104.533087,0.000000,612.876398
3373.122314,-10214.842000,-518.144159,0.000000
3373.122651,-10288.862594,-814.226536,-1455.581446
3373.122989,-9844.739029,-74.020594,-1225.752797
3373.123326,-10881.027347,-1184.329507,995.924147
3373.123664,-10881.027347,-740.205942,2068.457845
3373.124001,-10214.842000,-888.247130,612.876398
3373.124338,-11251.130318,0.000000,766.095498
3373.124676,-10436.903782,-370.102971,153.219100
3373.125013,-10066.800811,0.000000,-766.095498
3373.125351,-9548.656652,-814.226536,0.000000
3373.125688,-9770.718434,-962.267725,612.876398
3373.126026,-10881.027347,0.000000,153.219100
3373.126363,-10732.986159,-888.247130,-919.314598
3373.126700,-9474.636058,-296.082377,-306.438199
3373.127038,-9770.718434,-740.205942,-153.219100
3373.127375,-10140.821405,-1258.350101,229.828649
3373.127713,-10436.903782,-888.247130,919.314598
3373.128050,-9770.718434,-1036.288319,766.095498
3373.128387,-9770.718434,-592.164754,459.657299
3373.128725,-10288.862594,592.164754,76.609550
3373.129062,-10436.903782,296.082377,-689.485948
3373.129400,-10066.800811,-814.226536,-612.876398
3373.129737,-9474.636058,74.020594,766.095498
3373.130074,-8660.409521,296.082377,229.828649
3373.130412,-9474.636058,888.247130,612.876398
3373.130749,-10584.944971,1480.411884,1149.143247
3373.131087,-10510.924376,1480.411884,153.219100
3373.131424,-10955.047942,814.226536,2298.286494
3373.131762,-10066.800811,2072.576638,4213.525239
3373.132099,-9696.697840,2368.659014,3294.210641
3373.132436,-10584.944971,1184.329507,1991.848295
3373.132774,-10066.800811,888.247130,383.047749
3373.133111,-10214.842000,370.102971,-229.828649
3373.133449,-9548.656652,-370.102971,229.828649
3373.133786,-9104.533087,-444.123565,383.047749
3373.134123,-9844.739029,-370.102971,-383.047749
3373.134461,-9696.697840,592.164754,-2145.067394
3373.134798,-10584.944971,0.000000,-1991.848295
3373.135136,-9844.739029,-1406.391290,-2221.676944
3373.135473,-8808.450710,-2072.576638,-1838.629195
3373.135810,-9178.553681,-3034.844362,689.485948
3373.136148,-8956.491898,-2738.761985,1149.143247
3373.136485,-9844.739029,-2664.741391,612.876398
3373.136823,-10732.986159,-2294.638420,689.485948
3373.137160,-10807.006753,-2146.597232,-536.266849
3373.137498,-11325.150913,-2368.659014,0.000000
3373.137835,-10584.944971,-2664.741391,1838.629195
3373.138172,-10288.862594,-1850.514855,1838.629195
3373.138510,-9548.656652,74.020594,842.705048
3373.138847,-9844.739029,0.000000,0.000000
3373.139185,-10584.944971,0.000000,153.219100
3373.139522,-10584.944971,-1332.370696,612.876398
3373.139859,-10732.986159,222.061783,2987.772442
3373.140197,-10658.965565,1776.494261,1762.019645
3373.140534,-11251.130318,2072.576638,0.000000
3373.140872,-12065.356855,1554.432478,-842.705048
3373.141209,-10066.800811,148.041188,-2374.896044
3373.141546,-7994.224174,444.123565,-1149.143247
3373.141884,-8068.244768,148.041188,0.000000
3373.142221,-8808.450710,0.000000,-536.266849
3373.142559,-9400.615463,0.000000,-1838.629195
3373.142896,-10362.883188,592.164754,-1838.629195
3373.143234,-9474.636058,888.247130,-383.047749
3373.143571,-9178.553681,-222.061783,-689.485948
3373.143908,-9252.574275,296.082377,1608.800546
3373.144246,-9474.636058,-296.082377,1915.238745
3373.144583,-9548.656652,222.061783,1455.581446
3373.144921,-10584.944971,-888.247130,2298.286494
3373.145258,-11325.150913,-370.102971,1455.581446
3373.145595,-10066.800811,-370.102971,1149.143247
3373.145933,-10510.924376,-370.102971,2068.457845
3373.146270,-10140.821405,74.020594,2528.115143
3373.146608,-9474.636058,0.000000,689.485948
3373.146945,-11103.089130,148.041188,612.876398
3373.147282,-10807.006753,740.205942,-766.095498
3373.147620,-10955.047942,0.000000,-1225.752797
3373.147957,-10658.965565,-592.164754,306.438199
3373.148295,-9696.697840,-888.247130,229.828649
3373.148632,-9474.636058,-1258.350101,536.266849
3373.148970,-10955.047942,-1628.453072,0.000000
3373.149307,-10732.986159,-1776.494261,-459.657299
3373.149644,-10436.903782,-2072.576638,-153.219100
3373.149982,-10807.006753,-2294.638420,842.705048
3373.150319,-9918.759623,-1332.370696,76.609550
3373.150657,-10140.821405,-1776.494261,-459.657299
3373.150994,-10288.862594,-1110.308913,-229.828649
3373.151331,-9178.553681,-1036.288319,612.876398
3373.151669,-9104.533087,-444.123565,919.314598
3373.152006,-9622.677246,-1110.308913,2604.724693
3373.152344,-10881.027347,148.041188,3677.258390
3373.152681,-10436.903782,1554.432478,1685.410096
3373.153018,-10140.821405,1998.556043,919.314598
3373.153356,-9622.677246,1924.535449,612.876398
3373.153693,-9400.615463,2220.617826,153.219100
3373.154031,-9696.697840,1776.494261,0.000000
3373.154368,-9548.656652,2294.638420,-153.219100
3373.154706,-10510.924376,1036.288319,-842.705048
3373.155043,-9696.697840,1924.535449,-689.485948
3373.155380,-8882.471304,1258.350101,-689.485948
3373.155718,-9696.697840,2294.638420,-459.657299
3373.156055,-11251.130318,1036.288319,-689.485948
3373.156393,-10288.862594,1110.308913,-842.705048
3373.156730,-9326.594869,-444.123565,-536.266849
3373.157067,-9696.697840,-1184.329507,229.828649
3373.157405,-10214.842000,-592.164754,306.438199
3373.157742,-10658.965565,-962.267725,-76.609550
3373.158079,-10362.883188,-1998.556043,383.047749
3373.158417,-9252.574275,-2220.617826,612.876398
3373.158754,-9844.739029,-814.226536,306.438199
3373.159091,-10362.883188,-1480.411884,229.828649
3373.159429,-10658.965565,-1998.556043,689.485948
3373.159766,-9770.718434,-1480.411884,766.095498
3373.160104,-9622.677246,-1776.494261,1685.410096
3373.160441,-10066.800811,-1554.432478,2987.772442
3373.160779,-10436.903782,-1628.453072,919.314598
3373.161116,-10510.924376,-666.185348,229.828649
3373.161453,-10807.006753,-1258.350101,-229.828649
3373.161791,-10584.944971,-1184.329507,-612.876398
3373.162128,-10288.862594,-1702.473667,-306.438199
3373.162466,-9696.697840,-1110.308913,536.266849
3373.162803,-9474.636058,-740.205942,-995.924147
3373.163140,-10955.047942,0.000000,-536.266849
3373.163478,-11029.068536,0.000000,-1455.581446
3373.163815,-10140.821405,-592.164754,-1149.143247
3373.164153,-10140.821405,-888.247130,0.000000
3373.164490,-10140.821405,370.102971,995.924147
3373.164828,-11029.068536,-370.102971,612.876398
3373.165165,-9400.615463,296.082377,76.609550
3373.165502,-9474.636058,444.123565,1149.143247
3373.165840,-9918.759623,666.185348,1838.629195
3373.166177,-8734.430116,1184.329507,1455.581446
3373.166515,-9844.739029,962.267725,2757.943793
3373.166852,-11029.068536,2072.576638,2604.724693
3373.167189,-9252.574275,1924.535449,153.219100
3373.167527,-9844.739029,2738.761985,919.314598
3373.167864,-9548.656652,1184.329507,995.924147
3373.168202,-8882.471304,1924.535449,459.657299
3373.168539,-9400.615463,592.164754,1149.143247
3373.168877,-9770.718434,444.123565,536.266849
3373.169214,-8882.471304,518.144159,-459.657299
3373.169551,-10214.842000,518.144159,-1302.362347
3373.169889,-9326.594869,74.020594,-1915.238745
3373.170226,-8438.347739,-1258.350101,-1608.800546
3373.170564,-10362.883188,-1332.370696,995.924147
3373.170901,-10732.986159,-1258.350101,229.828649
3373.171238,-10214.842000,-888.247130,76.609550
3373.171576,-11325.150913,-1554.432478,-306.438199
3373.171913,-10955.047942,-2146.597232,0.000000
3373.172251,-9770.718434,-3034.844362,919.314598
3373.172588,-10881.027347,-3108.864956,2987.772442
3373.172926,-11325.150913,-2368.659014,2451.505594
3373.173263,-10510.924376,-740.205942,689.485948
3373.173600,-11621.233289,-740.205942,0.000000
3373.173938,-11399.171507,-1406.391290,0.000000
3373.174275,-10066.800811,-148.041188,-689.485948
3373.174613,-9474.636058,0.000000,229.828649
3373.174950,-10066.800811,370.102971,995.924147
3373.175287,-9622.677246,-296.082377,-1072.533697
3373.175625,-10881.027347,444.123565,-383.047749
3373.175962,-11399.171507,666.185348,229.828649
3373.176300,-9400.615463,0.000000,-612.876398
3373.176637,-8364.327145,-518.144159,995.924147
3373.176975,-7920.203579,0.000000,0.000000
3373.177312,-7994.224174,-148.041188,-1149.143247
3373.177649,-9030.512492,444.123565,-1302.362347
3373.177987,-9474.636058,-518.144159,-1608.800546
3373.178324,-9696.697840,0.000000,-536.266849
3373.178662,-10066.800811,1110.308913,1991.848295
3373.178999,-9770.718434,1184.329507,2145.067394
3373.179336,-9696.697840,1776.494261,1532.190996
3373.179674,-10658.965565,888.247130,689.485948
3373.180011,-10584.944971,1406.391290,383.047749
3373.180349,-11029.068536,592.164754,1072.533697
3373.180686,-11177.109724,-222.061783,2757.943793
3373.181024,-9696.697840,1480.411884,1915.238745
3373.181361,-9622.677246,1628.453072,995.924147
3373.181698,-10214.842000,2220.617826,0.000000
3373.182036,-11325.150913,592.164754,-536.266849
3373.182373,-10955.047942,1110.308913,-612.876398
3373.182711,-9474.636058,-444.123565,229.828649
3373.183048,-9770.718434,-74.020594,1915.238745
3373.183385,-9474.636058,-518.144159,153.219100
3373.183723,-9844.739029,-1184.329507,-1455.581446
3373.184060,-10066.800811,-1924.535449,-612.876398
3373.184398,-9104.533087,-1406.391290,-1302.362347
3373.184735,-9400.615463,-2960.823768,306.438199
3373.185073,-10066.800811,-2738.761985,1072.533697
3373.185410,-9252.574275,-2294.638420,-1302.362347
3373.185747,-9992.780217,-2368.659014,-1915.238745
3373.186085,-9252.574275,-1924.535449,-1532.190996
3373.186422,-8734.430116,-1850.514855,-1225.752797
3373.186760,-9400.615463,-2664.741391,995.924147
3373.187097,-9844.739029,-1480.411884,2757.943793
3373.187434,-11621.233289,-296.082377,2068.457845
3373.187772,-11621.233289,0.000000,1225.752797
3373.188109,-11177.109724,814.226536,459.657299
3373.188447,-10732.986159,148.041188,919.314598
3373.188784,-11251.130318,148.041188,2451.505594
3373.189122,-10510.924376,592.164754,3370.820191
3373.189459,-10140.821405,1702.473667,1608.800546
3373.189796,-10510.924376,2368.659014,-995.924147
3373.190134,-11621.233289,2146.597232,-1455.581446
3373.190471,-9770.718434,962.267725,-2145.067394
3373.190809,-8142.265362,370.102971,0.000000
3373.191146,-8142.265362,592.164754,1685.410096
3373.191483,-9622.677246,444.123565,689.485948
3373.191821,-9770.718434,74.020594,-1762.019645
3373.192158,-9548.656652,-592.164754,-2451.505594
3373.192496,-9326.594869,-1332.370696,-1302.362347
3373.192833,-8364.327145,-1998.556043,689.485948
3373.193170,-8216.285956,-1480.411884,1838.629195
3373.193508,-8216.285956,-740.205942,1455.581446
3373.193845,-10066.800811,-370.102971,0.000000
3373.194183,-11399.171507,222.061783,-612.876398
3373.194520,-10807.006753,-444.123565,-919.314598
3373.194858,-9474.636058,-518.144159,0.000000
3373.195195,-9918.759623,-962.267725,2528.115143
3373.195532,-10436.903782,222.061783,2528.115143
3373.195870,-9844.739029,666.185348,76.609550
3373.196207,-11621.233289,740.205942,229.828649
3373.196545,-12065.356855,148.041188,76.609550
3373.196882,-11251.130318,74.020594,229.828649
3373.197219,-10658.965565,0.000000,1455.581446
3373.197557,-10436.903782,148.041188,1532.190996
3373.197894,-9992.780217,-148.041188,-689.485948
3373.198232,-10732.986159,-296.082377,-1991.848295
3373.198569,-10362.883188,-296.082377,-2374.896044
3373.198907,-9474.636058,-1850.514855,-1608.800546
3373.199244,-9622.677246,-1702.473667,306.438199
3373.199581,-9178.553681,-1850.514855,459.657299
3373.199919,-8956.491898,-1258.350101,612.876398
3373.200256,-9770.718434,-592.164754,459.657299
3373.200594,-9548.656652,-1702.473667,153.219100
3373.200931,-9918.759623,-1628.453072,1991.848295
3373.201268,-9918.759623,-1258.350101,3294.210641
3373.201606,-9622.677246,0.000000,3140.991542
3373.201943,-10140.821405,296.082377,1532.190996
3373.202281,-10881.027347,1924.535449,306.438199
3373.202618,-10436.903782,1258.350101,-459.657299
3373.202956,-9252.574275,814.226536,0.000000
3373.203293,-9696.697840,1184.329507,1685.410096
3373.203630,-10214.842000,1184.329507,1838.629195
3373.203968,-10066.800811,1924.535449,-612.876398
3373.204305,-11769.274478,1702.473667,-2374.896044
3373.204643,-11325.150913,814.226536,-1685.410096
3373.204980,-10362.883188,370.102971,-1991.848295
3373.205317,-9622.677246,-370.102971,-766.095498
3373.205655,-9326.594869,74.020594,459.657299
3373.205992,-9474.636058,-296.082377,-1225.752797
3373.206330,-10807.006753,-1702.473667,-689.485948
3373.206667,-10584.944971,-1184.329507,-1455.581446
3373.207005,-10066.800811,-1554.432478,-919.314598
3373.207342,-9844.739029,-2220.617826,1225.752797
3373.207679,-9622.677246,-1332.370696,1072.533697
3373.208017,-9548.656652,-1480.411884,0.000000
3373.208354,-10584.944971,-1628.453072,0.000000
3373.208692,-10362.883188,-740.205942,-306.438199
3373.209029,-9326.594869,-1258.350101,-612.876398
3373.209366,-9104.533087,-1998.556043,1608.800546
3373.209704,-9104.533087,-1258.350101,2757.943793
3373.210041,-9548.656652,-444.123565,1991.848295
3373.210379,-10510.924376,296.082377,995.924147
3373.210716,-10584.944971,592.164754,0.000000
3373.211054,-10658.965565,1406.391290,0.000000
3373.211391,-10732.986159,1184.329507,689.485948
3373.211728,-10436.903782,962.267725,383.047749
3373.212066,-10658.965565,370.102971,-306.438199
3373.212403,-10214.842000,-222.061783,-995.924147
3373.212741,-9104.533087,518.144159,-1608.800546
3373.213078,-8808.450710,-518.144159,-1302.362347
3373.213415,-9474.636058,-962.267725,995.924147
3373.213753,-10140.821405,-518.144159,1455.581446
3373.214090,-11695.253884,0.000000,919.314598
3373.214428,-11177.109724,518.144159,76.609550
3373.214765,-9918.759623,148.041188,-306.438199
3373.215103,-8660.409521,-74.020594,536.266849
3373.215440,-8512.368333,-888.247130,1302.362347
3373.215777,-9474.636058,-444.123565,4060.306139
3373.216115,-11103.089130,-740.205942,3370.820191
3373.216452,-10955.047942,-370.102971,1302.362347
3373.216790,-11251.130318,296.082377,1762.019645
3373.217127,-10807.006753,-148.041188,919.314598
3373.217464,-9326.594869,-962.267725,536.266849
3373.217802,-8068.244768,-1036.288319,919.314598
3373.218139,-8734.430116,0.000000,766.095498
3373.218477,-9992.780217,370.102971,-1072.533697
3373.218814,-11621.233289,1258.350101,-2604.724693
3373.219152,-11251.130318,518.144159,-3140.991542
3373.219489,-9696.697840,-1184.329507,-3983.696590
3373.219826,-8734.430116,-888.247130,-1149.143247
3373.220164,-8512.368333,-2590.720797,-383.047749
3373.220501,-9622.677246,-2960.823768,536.266849
3373.220839,-11399.171507,-2220.617826,536.266849
3373.221176,-11251.130318,-1406.391290,76.609550
3373.221513,-10510.924376,-1110.308913,383.047749
3373.221851,-10510.924376,-1406.391290,919.314598
3373.222188,-10362.883188,-962.267725,459.657299
3373.222526,-9400.615463,-1184.329507,-459.657299
3373.222863,-9992.780217,-148.041188,995.924147
3373.223201,-10584.944971,-296.082377,1149.143247
3373.223538,-10436.903782,296.082377,1149.143247
3373.223875,-10362.883188,1480.411884,1302.362347
3373.224213,-10510.924376,1406.391290,1685.410096
3373.224550,-10066.800811,1702.473667,536.266849
3373.224888,-10214.842000,1110.308913,-383.047749
3373.225225,-10362.883188,1406.391290,-383.047749
3373.225562,-9178.553681,666.185348,-766.095498
3373.225900,-9252.574275,592.164754,689.485948
3373.226237,-9252.574275,1184.329507,153.219100
3373.226575,-9178.553681,814.226536,-1225.752797
3373.226912,-10066.800811,1184.329507,-2298.286494
3373.227250,-9844.739029,-148.041188,-2298.286494
3373.227587,-9030.512492,-740.205942,-1149.143247
3373.227924,-9548.656652,-1924.535449,1455.581446
3373.228262,-8882.471304,-1480.411884,1685.410096
3373.228599,-8586.388927,-1406.391290,1302.362347
3373.228937,-10436.903782,-1554.432478,1838.629195
3373.229274,-10436.903782,-1110.308913,1608.800546
3373.229611,-10288.862594,-1110.308913,919.314598
3373.229949,-10955.047942,-740.205942,2221.676944
3373.230286,-10807.006753,-296.082377,1685.410096
3373.230624,-10436.903782,-592.164754,383.047749
3373.230961,-9622.677246,-740.205942,766.095498
3373.231299,-9474.636058,-1110.308913,612.876398
3373.231636,-9548.656652,-740.205942,919.314598
3373.231973,-10584.944971,-1036.288319,1762.019645
3373.232311,-11177.109724,0.000000,1838.629195
3373.232648,-11177.109724,222.061783,-1532.190996
3373.232986,-11917.315666,444.123565,-1532.190996
3373.233323,-11251.130318,-666.185348,-842.705048
3373.233660,-9252.574275,-1554.432478,-1225.752797
3373.233998,-9252.574275,-1776.494261,459.657299
3373.234335,-9918.759623,-592.164754,689.485948
3373.234673,-9326.594869,-1406.391290,0.000000
3373.235010,-11251.130318,-1850.514855,0.000000
3373.235347,-10510.924376,-814.226536,-536.266849
3373.235685,-8808.450710,-370.102971,-306.438199
3373.236022,-9622.677246,-1628.453072,1378.971896
3373.236360,-8734.430116,-592.164754,1302.362347
3373.236697,-8438.347739,-1406.391290,1072.533697
3373.237035,-10066.800811,74.020594,2374.896044
3373.237372,-9252.574275,444.123565,1072.533697
3373.237709,-10214.842000,1924.535449,1149.143247
3373.238047,-11251.130318,2146.597232,842.705048
3373.238384,-10362.883188,2072.576638,153.219100
3373.238722,-9770.718434,2738.761985,153.219100
3373.239059,-9696.697840,1258.350101,-306.438199
3373.239396,-10436.903782,2516.700203,-995.924147
3373.239734,-9992.780217,740.205942,-1225.752797
3373.240071,-10732.986159,-518.144159,-459.657299
3373.240409,-9918.759623,-518.144159,689.485948
3373.240746,-9548.656652,-814.226536,-383.047749
3373.241084,-9918.759623,592.164754,-536.266849
3373.241421,-10881.027347,-1332.370696,-2221.676944
3373.241758,-10214.842000,-888.247130,-2298.286494
3373.242096,-10214.842000,-2664.741391,-459.657299
3373.242433,-10362.883188,-2294.638420,1378.971896
3373.242771,-9548.656652,-1554.432478,-995.924147
3373.243108,-9548.656652,-1924.535449,-995.924147
3373.243445,-9474.636058,-1924.535449,-536.266849
3373.243783,-8512.368333,-2812.782580,-1072.533697
3373.244120,-9474.636058,-2738.761985,842.705048
3373.244458,-10362.883188,-1036.288319,1225.752797
3373.244795,-10584.944971,-962.267725,919.314598
3373.245133,-10732.986159,-296.082377,1072.533697
3373.245470,-10288.862594,0.000000,1378.971896
3373.245807,-10881.027347,-592.164754,2298.286494
3373.246145,-10436.903782,-518.144159,1378.971896
3373.246482,-9770.718434,518.144159,1455.581446
3373.246820,-9770.718434,814.226536,612.876398
3373.247157,-10881.027347,740.205942,-842.705048
3373.247494,-10807.006753,740.205942,-1072.533697
3373.247832,-9992.780217,74.020594,-1455.581446
3373.248169,-9030.512492,1184.329507,-995.924147
3373.248507,-10140.821405,0.000000,229.828649
3373.248844,-10510.924376,444.123565,383.047749
3373.249182,-9326.594869,0.000000,0.000000
3373.249519,-10436.903782,444.123565,612.876398
3373.249856,-9770.718434,814.226536,1225.752797
3373.250194,-9400.615463,-518.144159,1455.581446
3373.250531,-10066.800811,0.000000,2987.772442
3373.250869,-10066.800811,0.000000,2145.067394
3373.251206,-9474.636058,1184.329507,1455.581446
3373.251543,-10510.924376,814.226536,1149.143247
3373.251881,-9770.718434,1850.514855,-229.828649
3373.252218,-9178.553681,666.185348,-1378.971896
3373.252556,-9548.656652,0.000000,459.657299
3373.252893,-9474.636058,222.061783,76.609550
3373.253231,-9326.594869,-444.123565,-1072.533697
3373.253568,-9474.636058,0.000000,-842.705048
3373.253905,-10510.924376,-444.123565,-383.047749
3373.254243,-10362.883188,-222.061783,-612.876398
3373.254580,-10214.842000,-740.205942,0.000000
3373.254918,-10881.027347,-740.205942,0.000000
3373.255255,-10436.903782,-1480.411884,-1149.143247
3373.255592,-11103.089130,-1998.556043,-2374.896044
3373.255930,-10584.944971,-2294.638420,-995.924147
3373.256267,-9252.574275,-2590.720797,-919.314598
3373.256605,-9844.739029,-2516.700203,306.438199
3373.256942,-10214.842000,-2072.576638,0.000000
3373.257280,-9474.636058,-1554.432478,-612.876398
3373.257617,-11177.109724,-1628.453072,-153.219100
3373.257954,-10584.944971,-1998.556043,459.657299
3373.258292,-9844.739029,-1110.308913,1838.629195
3373.258629,-10140.821405,-1332.370696,3830.477490
3373.258967,-9178.553681,-888.247130,2911.162892
3373.259304,-9548.656652,814.226536,1378.971896
3373.259641,-11325.150913,814.226536,1455.581446
3373.259979,-11325.150913,888.247130,612.876398
3373.260316,-10140.821405,814.226536,-306.438199
3373.260653,-9548.656652,666.185348,1991.848295
3373.260991,-8660.409521,962.267725,1225.752797
3373.261328,-8660.409521,1332.370696,536.266849
3373.261665,-9770.718434,1110.308913,-689.485948
3373.262003,-9252.574275,888.247130,-689.485948
3373.262340,-9992.780217,592.164754,-1149.143247
3373.262678,-10732.986159,444.123565,-612.876398
3373.263015,-10140.821405,1184.329507,-766.095498
3373.263352,-9252.574275,814.226536,-1455.581446
3373.263690,-9326.594869,740.205942,-1991.848295
3373.264027,-8586.388927,74.020594,-2298.286494
3373.264364,-9178.553681,-740.205942,-1915.238745
3373.264702,-9696.697840,-2812.782580,919.314598
3373.265039,-10214.842000,-1258.350101,3064.381992
3373.265376,-9918.759623,-148.041188,1915.238745
3373.265714,-11473.192101,-888.247130,919.314598
3373.266051,-11177.109724,0.000000,0.000000
3373.266388,-9770.718434,-518.144159,-766.095498
3373.266726,-10066.800811,-888.247130,995.924147
3373.267063,-9548.656652,-222.061783,995.924147
3373.267400,-9992.780217,-592.164754,-306.438199
3373.267738,-10807.006753,-814.226536,-1838.629195
3373.268075,-9992.780217,-1110.308913,-1302.362347
3373.268413,-9622.677246,-1184.329507,383.047749
3373.268750,-9992.780217,-2072.576638,919.314598
3373.269087,-10436.903782,-1036.288319,612.876398
3373.269425,-11029.068536,-740.205942,-919.314598
3373.269762,-10436.903782,-1258.350101,-1532.190996
3373.270099,-9548.656652,-1702.473667,-919.314598
3373.270437,-9548.656652,-1702.473667,229.828649
3373.270774,-9770.718434,-2368.659014,2451.505594
3373.271111,-9992.780217,-592.164754,2987.772442
3373.271449,-10658.965565,444.123565,1225.752797
3373.271786,-11177.109724,222.061783,229.828649
3373.272123,-10955.047942,0.000000,-383.047749
3373.272461,-9400.615463,444.123565,1072.533697
3373.272798,-8956.491898,222.061783,3064.381992
3373.273135,-9252.574275,74.020594,4673.182538
3373.273473,-9770.718434,2072.576638,3217.601092
3373.273810,-10807.006753,1998.556043,1149.143247
3373.274148,-10881.027347,2442.679609,0.000000
3373.274485,-10288.862594,2738.761985,-153.219100
3373.274822,-9622.677246,1554.432478,-612.876398
3373.275160,-8734.430116,444.123565,0.000000
3373.275497,-8882.471304,1554.432478,-689.485948
3373.275834,-8882.471304,666.185348,-1838.629195
3373.276172,-9548.656652,222.061783,-1608.800546
3373.276509,-9622.677246,74.020594,-1149.143247
3373.276846,-9696.697840,-1258.350101,-919.314598
3373.277184,-9474.636058,-1110.308913,-153.219100
3373.277521,-10066.800811,-1554.432478,153.219100
3373.277858,-10214.842000,-1036.288319,-995.924147
3373.278196,-10955.047942,-1332.370696,-1532.190996
3373.278533,-9548.656652,-1776.494261,-766.095498
3373.278870,-9326.594869,-2516.700203,612.876398
3373.279208,-10584.944971,-2294.638420,3140.991542
3373.279545,-11473.192101,-1480.411884,1838.629195
3373.279883,-10881.027347,-1110.308913,-383.047749
3373.280220,-10658.965565,-1110.308913,-689.485948
3373.280557,-9844.739029,-1998.556043,229.828649
3373.280895,-9474.636058,-1480.411884,1378.971896
3373.281232,-10288.862594,-1776.494261,2757.943793
3373.281569,-10288.862594,-814.226536,1762.019645
3373.281907,-9622.677246,518.144159,0.000000
3373.282244,-11621.233289,1480.411884,-919.314598
3373.282581,-11325.150913,518.144159,-1838.629195
3373.282919,-10436.903782,-370.102971,-1685.410096
3373.283256,-9844.739029,-444.123565,-229.828649
3373.283593,-9178.553681,222.061783,0.000000
3373.283931,-8882.471304,-444.123565,-1455.581446
3373.284268,-9474.636058,-740.205942,-1302.362347
3373.284605,-10658.965565,-370.102971,0.000000
3373.284943,-9770.718434,296.082377,1149.143247
3373.285280,-10214.842000,370.102971,2451.505594
3373.285618,-9992.780217,666.185348,2604.724693
3373.285955,-10584.944971,1184.329507,842.705048
3373.286292,-11251.130318,1480.411884,383.047749
3373.286630,-9548.656652,962.267725,1532.190996
3373.286967,-8142.265362,592.164754,1302.362347
3373.287304,-9770.718434,888.247130,2221.676944
3373.287642,-10214.842000,1406.391290,842.705048
3373.287979,-9178.553681,1628.453072,-1225.752797
3373.288316,-9770.718434,1776.494261,-1302.362347
3373.288654,-10214.842000,1628.453072,-1378.971896
3373.288991,-9252.574275,296.082377,-1072.533697
3373.289328,-9770.718434,-592.164754,919.314598
3373.289666,-9696.697840,-296.082377,2298.286494
3373.290003,-11177.109724,-518.144159,1378.971896
3373.290340,-11399.171507,74.020594,-459.657299
3373.290678,-10436.903782,-888.247130,-1991.848295
3373.291015,-9770.718434,-1258.350101,-1532.190996
3373.291353,-9992.780217,-2738.761985,383.047749
3373.291690,-9770.718434,-2368.659014,1149.143247
3373.292027,-9326.594869,-2590.720797,76.609550
3373.292365,-10807.006753,-1406.391290,76.609550
3373.292702,-11547.212695,-1332.370696,-383.047749
3373.293039,-10066.800811,-1406.391290,153.219100
3373.293377,-10066.800811,-1480.411884,2374.896044
3373.293714,-10510.924376,-1036.288319,3370.820191
3373.294051,-11029.068536,0.000000,2221.676944
3373.294389,-10955.047942,222.061783,689.485948
3373.294726,-10584.944971,0.000000,766.095498
3373.295063,-9474.636058,444.123565,689.485948
3373.295401,-9918.759623,74.020594,2298.286494
3373.295738,-10584.944971,518.144159,3600.648841
3373.296075,-9548.656652,962.267725,306.438199
3373.296413,-10584.944971,1184.329507,-1915.238745
3373.296750,-10881.027347,1184.329507,-2298.286494
3373.297088,-9104.533087,148.041188,-1915.238745
3373.297425,-8142.265362,-444.123565,-1149.143247
3373.297762,-7550.100608,0.000000,1149.143247
3373.298100,-8808.450710,0.000000,1378.971896
3373.298437,-11103.089130,74.020594,76.609550
3373.298774,-11103.089130,592.164754,-1762.019645
3373.299112,-9696.697840,-666.185348,-1762.019645
3373.299449,-10066.800811,-1258.350101,1225.752797
3373.299786,-9770.718434,-814.226536,2221.676944
3373.300124,-8734.430116,-592.164754,306.438199
3373.300461,-10510.924376,-666.185348,229.828649
3373.300798,-10955.047942,-296.082377,229.828649
3373.301136,-10288.862594,-518.144159,229.828649
3373.301473,-9400.615463,-1332.370696,383.047749
3373.301810,-9770.718434,-962.267725,2528.115143
3373.302148,-9844.739029,296.082377,919.314598
3373.302485,-10362.883188,296.082377,-1762.019645
3373.302823,-11177.109724,0.000000,-1532.190996
3373.303160,-9918.759623,-740.205942,-1149.143247
3373.303497,-10140.821405,-1480.411884,153.219100
3373.303835,-10436.903782,-962.267725,1072.533697
3373.304172,-10436.903782,0.000000,459.657299
3373.304509,-10214.842000,-74.020594,-1608.800546
3373.304847,-10288.862594,-1110.308913,-2451.505594
3373.305184,-9844.739029,-1184.329507,-1455.581446
3373.305521,-9548.656652,-1850.514855,842.705048
3373.305859,-9696.697840,-1258.350101,2298.286494
3373.306196,-9770.718434,-296.082377,1455.581446
3373.306533,-10881.027347,222.061783,306.438199
3373.306871,-11251.130318,666.185348,-1378.971896
3373.307208,-10362.883188,0.000000,-1225.752797
3373.307545,-9474.636058,148.041188,1455.581446
3373.307883,-9400.615463,296.082377,3600.648841
3373.308220,-8660.409521,2072.576638,2681.334243
3373.308558,-9326.594869,2442.679609,-919.314598
3373.308895,-11251.130318,2294.638420,-1302.362347
3373.309232,-10066.800811,1184.329507,-766.095498
3373.309570,-8290.306550,666.185348,1685.410096
3373.309907,-9178.553681,444.123565,2987.772442
3373.310244,-9400.615463,0.000000,2221.676944
3373.310582,-9474.636058,1332.370696,153.219100
3373.310919,-9844.739029,296.082377,-1225.752797
3373.311256,-10214.842000,0.000000,-689.485948
3373.311594,-9474.636058,-740.205942,-995.924147
3373.311931,-9178.553681,-1776.494261,229.828649
3373.312268,-9104.533087,-1554.432478,1072.533697
3373.312606,-9178.553681,-1924.535449,-536.266849
3373.312943,-10510.924376,-814.226536,-1149.143247
3373.313280,-10362.883188,-1628.453072,-842.705048
3373.313618,-10584.944971,-1702.473667,0.000000
3373.313955,-11843.295072,-2072.576638,2221.676944
3373.314293,-11029.068536,-1628.453072,1991.848295
3373.314630,-10362.883188,-1110.308913,1455.581446
3373.314967,-11843.295072,-740.205942,766.095498
3373.315305,-11695.253884,-518.144159,0.000000
3373.315642,-10584.944971,-962.267725,0.000000
3373.315979,-10436.903782,-1628.453072,2604.724693
3373.316317,-9844.739029,-370.102971,2145.067394
3373.316654,-9548.656652,-518.144159,1149.143247
3373.316991,-11251.130318,222.061783,0.000000
3373.317329,-10288.862594,-222.061783,-1378.971896
3373.317666,-8660.409521,296.082377,-1225.752797
3373.318003,-9178.553681,-518.144159,0.000000
3373.318341,-9252.574275,-370.102971,0.000000
3373.318678,-8956.491898,370.102971,-1072.533697
3373.319015,-9696.697840,592.164754,-919.314598
3373.319353,-9474.636058,518.144159,-2221.676944
3373.319690,-8808.450710,-666.185348,-2145.067394
3373.320028,-8586.388927,-888.247130,919.314598
3373.320365,-9548.656652,-1184.329507,2528.115143
3373.320702,-10214.842000,148.041188,2681.334243
3373.321040,-10362.883188,1258.350101,1072.533697
3373.321377,-10955.047942,592.164754,459.657299
3373.321714,-10436.903782,1258.350101,-229.828649
3373.322052,-10140.821405,296.082377,1378.971896
3373.322389,-10288.862594,1110.308913,2374.896044
3373.322726,-9326.594869,592.164754,229.828649
3373.323064,-10732.986159,1406.391290,0.000000
3373.323401,-11029.068536,592.164754,-459.657299
3373.323738,-9992.780217,0.000000,-459.657299
3373.324076,-10510.924376,-814.226536,1838.629195
3373.324413,-9696.697840,-222.061783,1302.362347
3373.324750,-9696.697840,-1184.329507,612.876398
3373.325088,-9844.739029,-1036.288319,-383.047749
3373.325425,-9770.718434,-444.123565,-1532.190996
3373.325763,-10584.944971,-1628.453072,-1302.362347
3373.326100,-10288.862594,-2072.576638,-1378.971896
3373.326437,-9474.636058,-2516.700203,0.000000
3373.326775,-10214.842000,-2220.617826,612.876398
3373.327112,-9474.636058,-1776.494261,-919.314598
3373.327449,-10362.883188,-1850.514855,-1838.629195
3373.327787,-9548.656652,-2442.679609,-1762.019645
3373.328124,-9548.656652,-2960.823768,-1149.143247
3373.328461,-9918.759623,-2812.782580,2298.286494
3373.328799,-10214.842000,-1036.288319,3677.258390
3373.329136,-10288.862594,-444.123565,2604.724693
3373.329473,-12139.377449,1332.370696,1532.190996
3373.329811,-11399.171507,1406.391290,-306.438199
3373.330148,-10510.924376,666.185348,1225.752797
3373.330485,-10658.965565,814.226536,3140.991542
3373.330823,-10288.862594,1332.370696,2528.115143
3373.331160,-10066.800811,2590.720797,0.000000
3373.331498,-10732.986159,1702.473667,-919.314598
3373.331835,-9622.677246,2072.576638,-919.314598
3373.332172,-9326.594869,1036.288319,-1302.362347
3373.332510,-9622.677246,1258.350101,459.657299
3373.332847,-8956.491898,2072.576638,-306.438199
3373.333184,-9326.594869,1332.370696,-1302.362347
3373.333522,-9770.718434,666.185348,-1915.238745
3373.333859,-9548.656652,-370.102971,-1455.581446
3373.334196,-9252.574275,-666.185348,766.095498
3373.334534,-9400.615463,-666.185348,2604.724693
3373.334871,-9918.759623,74.020594,2528.115143
3373.335208,-9474.636058,-222.061783,0.000000
3373.335546,-9992.780217,-296.082377,-76.609550
3373.335883,-10066.800811,-888.247130,0.000000
3373.336220,-9030.512492,-1554.432478,612.876398
3373.336558,-8882.471304,-370.102971,2681.334243
3373.336895,-11029.068536,-444.123565,2298.286494
3373.337233,-10066.800811,74.020594,153.219100
3373.337570,-10881.027347,0.000000,0.000000
3373.337907,-11177.109724,-518.144159,76.609550
3373.338245,-10288.862594,222.061783,-383.047749
3373.338582,-10807.006753,-1036.288319,-459.657299
3373.338919,-9770.718434,-1702.473667,229.828649
3373.339257,-9474.636058,-2368.659014,-153.219100
3373.339594,-10732.986159,-1628.453072,0.000000
3373.339931,-10510.924376,-1554.432478,-459.657299
3373.340269,-10288.862594,-1628.453072,-612.876398
3373.340606,-10732.986159,-2220.617826,76.609550
3373.340943,-10881.027347,-1998.556043,-536.266849
3373.341281,-9918.759623,-1998.556043,-306.438199
3373.341618,-9400.615463,-2072.576638,-995.924147
3373.341955,-9178.553681,-1924.535449,842.705048
3373.342293,-8438.347739,-2146.597232,306.438199
3373.342630,-9992.780217,-1480.411884,2528.115143
3373.342968,-10807.006753,-74.020594,2834.553343
3373.343305,-10214.842000,370.102971,1225.752797
3373.343642,-10510.924376,888.247130,612.876398
3373.343980,-9918.759623,1554.432478,229.828649
3373.344317,-8660.409521,1184.329507,1072.533697
3373.344654,-9474.636058,296.082377,2451.505594
3373.344992,-10362.883188,2220.617826,2221.676944
3373.345329,-9844.739029,2886.803174,-842.705048
3373.345666,-11473.192101,2220.617826,-1225.752797
3373.346004,-9918.759623,2368.659014,-1991.848295
3373.346341,-8660.409521,814.226536,-2604.724693
3373.346678,-9918.759623,518.144159,-919.314598
3373.347016,-9770.718434,1184.329507,-1072.533697
3373.347353,-9400.615463,222.061783,-995.924147
3373.347690,-10288.862594,-592.164754,76.609550
3373.348028,-10955.047942,-814.226536,0.000000
3373.348365,-9622.677246,-740.205942,-766.095498
3373.348703,-10066.800811,-1110.308913,229.828649
3373.349040,-10066.800811,-1184.329507,689.485948
3373.349377,-9696.697840,-1554.432478,306.438199
3373.349715,-10362.883188,-1258.350101,536.266849
3373.350052,-9548.656652,-1554.432478,842.705048
3373.350389,-10362.883188,-1332.370696,1225.752797
3373.350727,-10955.047942,-1332.370696,1838.629195
3373.351064,-10732.986159,-1110.308913,1762.019645
3373.351401,-10140.821405,-1036.288319,919.314598
3373.351739,-9770.718434,-962.267725,536.266849
3373.352076,-9844.739029,-444.123565,1149.143247
3373.352413,-9474.636058,-222.061783,919.314598
3373.352751,-10066.800811,0.000000,229.828649
3373.353088,-11251.130318,370.102971,153.219100
3373.353426,-10955.047942,444.123565,-1532.190996
3373.353763,-10140.821405,222.061783,-1532.190996
3373.354100,-10807.006753,-666.185348,-1072.533697
3373.354438,-8882.471304,-814.226536,-1149.143247
3373.354775,-9400.615463,-1702.473667,919.314598
3373.355112,-9696.697840,-1480.411884,2681.334243
3373.355450,-9696.697840,-444.123565,1915.238745
3373.355787,-10584.944971,-666.185348,612.876398
3373.356124,-10362.883188,-296.082377,612.876398
3373.356462,-9178.553681,-518.144159,1302.362347
3373.356799,-9770.718434,-666.185348,2451.505594
3373.357136,-9696.697840,666.185348,2374.896044
3373.357473,-10066.800811,592.164754,1149.143247
3373.357811,-10658.965565,1628.453072,536.266849
3373.358148,-10510.924376,592.164754,229.828649
3373.358485,-9178.553681,296.082377,153.219100
3373.358822,-7920.203579,-740.205942,306.438199
3373.359160,-9474.636058,-148.041188,2145.067394
3373.359497,-10140.821405,666.185348,536.266849
3373.359834,-9548.656652,296.082377,-2221.676944
3373.360171,-10362.883188,592.164754,-1762.019645
3373.360508,-10436.903782,-740.205942,-536.266849
3373.360846,-9844.739029,222.061783,-766.095498
3373.361183,-10288.862594,-222.061783,229.828649
3373.361520,-11103.089130,-1332.370696,-383.047749
3373.361857,-10658.965565,-1258.350101,-2145.067394
3373.362195,-10362.883188,-1258.350101,-1838.629195
3373.362532,-9474.636058,-1332.370696,-459.657299
3373.362869,-9326.594869,-2294.638420,-919.314598
3373.363206,-10584.944971,-666.185348,229.828649
3373.363543,-11029.068536,-1480.411884,-76.609550
3373.363881,-10510.924376,-1480.411884,-459.657299
3373.364218,-10436.903782,-962.267725,76.609550
3373.364555,-10214.842000,-296.082377,1991.848295
3373.364892,-9696.697840,-1184.329507,2451.505594
3373.365230,-9178.553681,-1036.288319,2987.772442
3373.365567,-10140.821405,370.102971,2757.943793
3373.365904,-10732.986159,148.041188,1302.362347
3373.366241,-10510.924376,444.123565,-459.657299
3373.366578,-9918.759623,888.247130,-1302.362347
3373.366916,-9474.636058,740.205942,-1378.971896
3373.367253,-9030.512492,296.082377,-536.266849
3373.367590,-9104.533087,444.123565,-536.266849
3373.367927,-8734.430116,0.000000,-1608.800546
3373.368265,-10288.862594,518.144159,-766.095498
3373.368602,-9992.780217,-518.144159,-306.438199
3373.368939,-8882.471304,-1554.432478,536.266849
3373.369276,-9992.780217,-1850.514855,2604.724693
3373.369613,-10510.924376,-148.041188,1762.019645
3373.369951,-9918.759623,148.041188,153.219100
3373.370288,-11029.068536,740.205942,0.000000
3373.370625,-10807.006753,-74.020594,-995.924147
3373.370962,-10436.903782,222.061783,-383.047749
3373.371300,-10066.800811,-518.144159,1149.143247
3373.371637,-10214.842000,-296.082377,1455.581446
3373.371974,-9992.780217,0.000000,306.438199
3373.372311,-10214.842000,592.164754,612.876398
3373.372648,-10066.800811,222.061783,306.438199
3373.372986,-10362.883188,-74.020594,536.266849
3373.373323,-11325.150913,74.020594,1838.629195
3373.373660,-10510.924376,962.267725,919.314598
3373.373997,-10140.821405,148.041188,-1072.533697
3373.374334,-10732.986159,592.164754,-1685.410096
3373.374672,-9622.677246,-1332.370696,-1532.190996
3373.375009,-8882.471304,-296.082377,-459.657299
3373.375346,-8956.491898,-1850.514855,-153.219100
3373.375683,-9622.677246,-1850.514855,1149.143247
3373.376021,-10214.842000,-1332.370696,-536.266849
3373.376358,-9548.656652,-888.247130,-1302.362347
3373.376695,-9622.677246,-592.164754,-306.438199
3373.377032,-9992.780217,-888.247130,76.609550
3373.377369,-9770.718434,-962.267725,1378.971896
3373.377707,-10362.883188,-444.123565,1762.019645
3373.378044,-9918.759623,518.144159,1762.019645
3373.378381,-10658.965565,74.020594,995.924147
3373.378718,-10732.986159,296.082377,1685.410096
3373.379056,-9622.677246,0.000000,2221.676944
3373.379393,-10658.965565,296.082377,3907.087040
3373.379730,-11251.130318,1406.391290,3064.381992
3373.380067,-9992.780217,1332.370696,766.095498
3373.380404,-9844.739029,1184.329507,0.000000
3373.380742,-9770.718434,1406.391290,153.219100
3373.381079,-9104.533087,592.164754,-306.438199
3373.381416,-9622.677246,518.144159,153.219100
3373.381753,-10658.965565,0.000000,459.657299
3373.382091,-10807.006753,-222.061783,-229.828649
3373.382428,-9622.677246,-222.061783,-2374.896044
3373.382765,-9400.615463,-592.164754,-2298.286494
3373.383102,-8586.388927,-1776.494261,-1532.190996
3373.383439,-8586.388927,-3256.906145,-459.657299
3373.383777,-9178.553681,-2442.679609,1302.362347
3373.384114,-9992.780217,-2664.741391,1838.629195
3373.384451,-11177.109724,-1850.514855,306.438199
3373.384788,-11029.068536,-2072.576638,0.000000
3373.385126,-10510.924376,-1776.494261,689.485948
3373.385463,-9844.739029,-1776.494261,766.095498
3373.385800,-9918.759623,-1628.453072,766.095498
3373.386137,-10066.800811,-740.205942,766.095498
3373.386474,-11029.068536,-962.267725,-612.876398
3373.386812,-10955.047942,0.000000,-842.705048
3373.387149,-10732.986159,-222.061783,-612.876398
3373.387486,-10066.800811,-370.102971,0.000000
3373.387823,-10732.986159,-518.144159,1378.971896
3373.388161,-10362.883188,148.041188,689.485948
3373.388498,-9770.718434,444.123565,-459.657299
3373.388835,-10140.821405,444.123565,-919.314598
3373.389172,-10807.006753,-148.041188,-1378.971896
3373.389509,-9918.759623,-666.185348,-995.924147
3373.389847,-9918.759623,-1110.308913,459.657299
3373.390184,-9326.594869,-1110.308913,919.314598
3373.390521,-8660.409521,0.000000,76.609550
3373.390858,-10140.821405,148.041188,-76.609550
3373.391196,-10436.903782,0.000000,-612.876398
3373.391533,-9178.553681,-740.205942,-689.485948
3373.391870,-9252.574275,-666.185348,2987.772442
3373.392207,-10362.883188,148.041188,4213.525239
3373.392544,-10288.862594,1184.329507,2145.067394
3373.392882,-10807.006753,2368.659014,689.485948
3373.393219,-9844.739029,1406.391290,459.657299
3373.393556,-9400.615463,1406.391290,1072.533697
3373.393893,-10288.862594,518.144159,2451.505594
3373.394230,-11177.109724,222.061783,2221.676944
3373.394568,-9918.759623,962.267725,459.657299
3373.394905,-9918.759623,1924.535449,-306.438199
3373.395242,-9474.636058,1110.308913,-689.485948
3373.395579,-9030.512492,518.144159,-766.095498
3373.395917,-10066.800811,-666.185348,1302.362347
3373.396254,-10584.944971,0.000000,612.876398
3373.396591,-10288.862594,0.000000,612.876398
3373.396928,-10955.047942,-370.102971,-919.314598
3373.397265,-9844.739029,-666.185348,-3447.429741
3373.397603,-9474.636058,-1554.432478,-2068.457845
3373.397940,-9622.677246,-2294.638420,612.876398
3373.398277,-9326.594869,-1776.494261,919.314598
3373.398614,-9992.780217,-1776.494261,-612.876398
3373.398952,-11029.068536,-1480.411884,-1072.533697
3373.399289,-10362.883188,-1332.370696,-612.876398
3373.399626,-8882.471304,-1036.288319,153.219100
3373.399963,-10584.944971,-1036.288319,3447.429741
3373.400300,-10732.986159,-1258.350101,3907.087040
3373.400638,-10140.821405,-518.144159,1685.410096
3373.400975,-10288.862594,518.144159,306.438199
3373.401312,-11251.130318,592.164754,153.219100
3373.401649,-10288.862594,962.267725,-1225.752797
3373.401987,-9770.718434,74.020594,0.000000
3373.402324,-9918.759623,370.102971,689.485948
3373.402661,-8734.430116,148.041188,-842.705048
3373.402998,-9844.739029,1184.329507,-689.485948
3373.403335,-10658.965565,1110.308913,-1302.362347
3373.403673,-10288.862594,1628.453072,-2528.115143
3373.404010,-10510.924376,-222.061783,-919.314598
3373.404347,-9696.697840,296.082377,689.485948
3373.404684,-8290.306550,-222.061783,842.705048
3373.405022,-9474.636058,222.061783,306.438199
3373.405359,-10140.821405,592.164754,-612.876398
3373.405696,-10658.965565,-148.041188,-459.657299
3373.406033,-10362.883188,-1554.432478,919.314598
3373.406370,-9474.636058,-592.164754,2145.067394
3373.406708,-9992.780217,370.102971,2298.286494
3373.407045,-10955.047942,814.226536,-995.924147
3373.407382,-9696.697840,-148.041188,-2451.505594
3373.407719,-8290.306550,-666.185348,-1302.362347
3373.408057,-7920.203579,-962.267725,306.438199
3373.408394,-9178.553681,-1036.288319,1838.629195
3373.408731,-9844.739029,-296.082377,1072.533697
3373.409068,-10955.047942,-518.144159,-383.047749
3373.409405,-11769.274478,-222.061783,153.219100
3373.409743,-10362.883188,-370.102971,-536.266849
3373.410080,-10066.800811,-1036.288319,0.000000
3373.410417,-10807.006753,-1184.329507,842.705048
3373.410754,-11325.150913,-666.185348,612.876398
3373.411092,-10881.027347,-666.185348,-1532.190996
3373.411429,-10436.903782,-1702.473667,-1378.971896
3373.411766,-9474.636058,-814.226536,-1838.629195
3373.412103,-9030.512492,-1332.370696,-612.876398
3373.412440,-10288.862594,-1406.391290,1225.752797
3373.412778,-9548.656652,-1998.556043,1302.362347
3373.413115,-10510.924376,-1628.453072,2068.457845
3373.413452,-11177.109724,-888.247130,2451.505594
3373.413789,-10584.944971,-518.144159,1685.410096
3373.414126,-9474.636058,-962.267725,2374.896044
3373.414464,-9252.574275,0.000000,3677.258390
3373.414801,-9918.759623,296.082377,3524.039291
3373.415138,-10362.883188,740.205942,1532.190996
3373.415475,-10510.924376,1776.494261,-612.876398
3373.415813,-9844.739029,1184.329507,-1838.629195
3373.416150,-9326.594869,888.247130,-1378.971896
3373.416487,-8216.285956,296.082377,306.438199
3373.416824,-8956.491898,0.000000,536.266849
3373.417161,-9696.697840,814.226536,-383.047749
3373.417499,-10807.006753,1480.411884,-766.095498
3373.417836,-10214.842000,592.164754,-1915.238745
3373.418173,-10140.821405,-370.102971,-1838.629195
3373.418510,-11029.068536,-1332.370696,306.438199
3373.418848,-9326.594869,-740.205942,766.095498
3373.419185,-9104.533087,-1184.329507,1149.143247
3373.419522,-10658.965565,-444.123565,536.266849
3373.419859,-9770.718434,296.082377,-1455.581446
3373.420196,-10140.821405,-740.205942,-689.485948
3373.420534,-11251.130318,-1480.411884,1532.190996
3373.420871,-10510.924376,-296.082377,919.314598
3373.421208,-10436.903782,222.061783,1378.971896
3373.421545,-11177.109724,-148.041188,153.219100
3373.421883,-10140.821405,296.082377,229.828649
3373.422220,-9474.636058,0.000000,-459.657299
3373.422557,-9548.656652,-370.102971,1302.362347
3373.422894,-10066.800811,-444.123565,1991.848295
3373.423231,-9992.780217,74.020594,459.657299
3373.423569,-10066.800811,666.185348,-1455.581446
3373.423906,-10066.800811,-370.102971,-1608.800546
3373.424243,-9474.636058,-370.102971,-1225.752797
3373.424580,-9030.512492,-1776.494261,306.438199
3373.424918,-8956.491898,-814.226536,536.266849
3373.425255,-9548.656652,-888.247130,-383.047749
3373.425592,-11547.212695,-296.082377,-612.876398
3373.425929,-9992.780217,0.000000,-2145.067394
3373.426266,-9474.636058,-740.205942,-1991.848295
3373.426604,-9400.615463,-962.267725,1455.581446
3373.426941,-9178.553681,-370.102971,2757.943793
3373.427278,-10288.862594,-444.123565,2374.896044
3373.427615,-11473.192101,1184.329507,1149.143247
3373.427953,-10807.006753,1406.391290,76.609550
3373.428290,-10140.821405,1332.370696,-153.219100
3373.428627,-11473.192101,296.082377,1072.533697
3373.428964,-10807.006753,148.041188,1532.190996
3373.429301,-9030.512492,592.164754,1532.190996
3373.429639,-10214.842000,888.247130,689.485948
3373.429976,-10881.027347,814.226536,0.000000
3373.430313,-9030.512492,666.185348,-2451.505594
3373.430650,-8660.409521,-370.102971,-306.438199
3373.430987,-10436.903782,-1332.370696,1455.581446
3373.431325,-9622.677246,-888.247130,229.828649
3373.431662,-9548.656652,-444.123565,-1378.971896
3373.431999,-9696.697840,370.102971,-1378.971896
3373.432336,-8956.491898,-666.185348,-1991.848295
3373.432674,-10288.862594,-1406.391290,0.000000
3373.433011,-10658.965565,-1924.535449,1072.533697
3373.433348,-9178.553681,-1258.350101,919.314598
3373.433685,-10510.924376,-666.185348,1915.238745
3373.434022,-11399.171507,-1480.411884,229.828649
3373.434360,-9844.739029,-2146.597232,-306.438199
3373.434697,-10288.862594,-1776.494261,1608.800546
3373.435034,-9844.739029,-740.205942,2681.334243
3373.435371,-9844.739029,370.102971,2451.505594
3373.435709,-10732.986159,740.205942,689.485948
3373.436046,-11547.212695,1036.288319,612.876398
3373.436383,-10955.047942,444.123565,459.657299
3373.436720,-10288.862594,222.061783,1302.362347
3373.437057,-9844.739029,370.102971,2298.286494
3373.437395,-9992.780217,592.164754,1072.533697
3373.437732,-9400.615463,814.226536,-1149.143247
3373.438069,-10584.944971,444.123565,-842.705048
3373.438406,-9400.615463,222.061783,-1685.410096
3373.438744,-8660.409521,-740.205942,-1762.019645
3373.439081,-10140.821405,-444.123565,459.657299
3373.439418,-9474.636058,-444.123565,229.828649
3373.439755,-9252.574275,-666.185348,0.000000
3373.440092,-10584.944971,-296.082377,306.438199
3373.440430,-9844.739029,-814.226536,-459.657299
3373.440767,-8882.471304,-222.061783,76.609550
3373.441104,-10362.883188,-444.123565,1838.629195
3373.441441,-11251.130318,-1184.329507,1455.581446
3373.441779,-10214.842000,-296.082377,-383.047749
3373.442116,-10510.924376,-296.082377,689.485948
3373.442453,-9844.739029,296.082377,689.485948
3373.442790,-9252.574275,-296.082377,-306.438199
3373.443127,-10362.883188,-370.102971,1149.143247
3373.443465,-10362.883188,-370.102971,0.000000
3373.443802,-9622.677246,74.020594,-1072.533697
3373.444139,-10436.903782,296.082377,-842.705048
3373.444476,-10955.047942,0.000000,-689.485948
3373.444814,-10214.842000,-888.247130,0.000000
3373.445151,-10288.862594,-1184.329507,1378.971896
3373.445488,-10214.842000,-518.144159,1455.581446
3373.445825,-10066.800811,-1110.308913,-842.705048
3373.446162,-9992.780217,-1258.350101,-1608.800546
3373.446500,-9548.656652,-1480.411884,-2451.505594
3373.446837,-9770.718434,-2516.700203,-1532.190996
3373.447174,-9474.636058,-2368.659014,229.828649
3373.447511,-9104.533087,-1406.391290,919.314598
3373.447849,-10214.842000,-518.144159,1532.190996
3373.448186,-11325.150913,148.041188,229.828649
3373.448523,-10807.006753,148.041188,0.000000
3373.448860,-9474.636058,-666.185348,689.485948
3373.449197,-9474.636058,-222.061783,2911.162892
3373.449535,-9548.656652,592.164754,2451.505594
3373.449872,-9622.677246,592.164754,1302.362347
3373.450209,-11251.130318,1332.370696,995.924147
3373.450546,-10362.883188,1480.411884,306.438199
3373.450883,-9326.594869,2146.597232,0.000000
3373.451221,-9844.739029,1406.391290,995.924147
3373.451558,-9770.718434,962.267725,383.047749
3373.451895,-8956.491898,1184.329507,-689.485948
3373.452232,-9474.636058,1036.288319,-612.876398
3373.452570,-10066.800811,592.164754,-919.314598
3373.452907,-9474.636058,444.123565,-1915.238745
3373.453244,-10584.944971,0.000000,-766.095498
3373.453581,-10066.800811,-888.247130,-153.219100
3373.453918,-9474.636058,-1036.288319,0.000000
3373.454256,-9918.759623,-296.082377,306.438199
3373.454593,-9844.739029,-1036.288319,0.000000
3373.454930,-9844.739029,-296.082377,-459.657299
3373.455267,-10955.047942,-2368.659014,536.266849
3373.455605,-10362.883188,-1998.556043,2604.724693
3373.455942,-9770.718434,-962.267725,2374.896044
3373.456279,-10732.986159,-814.226536,1225.752797
3373.456616,-10658.965565,0.000000,1225.752797
3373.456953,-9548.656652,-296.082377,-612.876398
3373.457291,-9770.718434,-1998.556043,383.047749
3373.457628,-9918.759623,-1850.514855,1685.410096
3373.457965,-9252.574275,-1332.370696,1225.752797
3373.458302,-9548.656652,-1110.308913,-306.438199
3373.458640,-10436.903782,-148.041188,0.000000
3373.458977,-10436.903782,-888.247130,0.000000
3373.459314,-11029.068536,-444.123565,229.828649
3373.459652,-11103.089130,0.000000,995.924147
3373.459989,-9992.780217,-370.102971,-229.828649
3373.460326,-10288.862594,-296.082377,-995.924147
3373.460663,-9770.718434,-1184.329507,-1378.971896
3373.461001,-8882.471304,-1332.370696,-689.485948
3373.461338,-9844.739029,-962.267725,306.438199
3373.461675,-10955.047942,-1184.329507,536.266849
3373.462013,-10807.006753,740.205942,306.438199
3373.462350,-10066.800811,592.164754,-689.485948
3373.462687,-10955.047942,740.205942,536.266849
3373.463024,-10732.986159,592.164754,1378.971896
3373.463362,-8364.327145,0.000000,1532.190996
3373.463699,-9992.780217,1480.411884,3447.429741
3373.464036,-10955.047942,1258.350101,3140.991542
3373.464374,-10362.883188,2368.659014,-306.438199
3373.464711,-10214.842000,814.226536,0.000000
3373.465048,-9696.697840,1406.391290,306.438199
3373.465385,-9918.759623,592.164754,153.219100
3373.465723,-10658.965565,814.226536,-229.828649
3373.466060,-9252.574275,1110.308913,-842.705048
3373.466397,-8882.471304,592.164754,-1455.581446
3373.466735,-10214.842000,222.061783,-1302.362347
3373.467072,-9622.677246,-666.185348,-1302.362347
3373.467409,-8216.285956,-1184.329507,153.219100
3373.467746,-10214.842000,-1924.535449,459.657299
3373.468084,-10658.965565,-962.267725,-1302.362347
3373.468421,-10510.924376,-1184.329507,-2451.505594
3373.468758,-10658.965565,-2368.659014,-1225.752797
3373.469095,-9252.574275,-2886.803174,-536.266849
3373.469433,-9326.594869,-2886.803174,1378.971896
3373.469770,-11251.130318,-2368.659014,3370.820191
3373.470107,-10510.924376,-1850.514855,1608.800546
3373.470445,-9992.780217,-740.205942,995.924147
3373.470782,-12065.356855,-444.123565,1685.410096
3373.471119,-11695.253884,-370.102971,1072.533697
3373.471456,-10732.986159,-1110.308913,1455.581446
3373.471794,-10510.924376,-74.020594,2374.896044
3373.472131,-9622.677246,740.205942,1149.143247
3373.472468,-9622.677246,962.267725,-919.314598
3373.472806,-10807.006753,1258.350101,-842.705048
3373.473143,-9844.739029,518.144159,-1225.752797
3373.473480,-9622.677246,592.164754,-1072.533697
3373.473817,-10732.986159,0.000000,689.485948
3373.474155,-9622.677246,-222.061783,229.828649
3373.474492,-8882.471304,0.000000,-1378.971896
3373.474829,-9918.759623,518.144159,-536.266849
3373.475167,-9474.636058,-296.082377,459.657299
3373.475504,-9252.574275,74.020594,766.095498
3373.475841,-10362.883188,-666.185348,1532.190996
3373.476178,-10140.821405,592.164754,689.485948
3373.476516,-9844.739029,0.000000,-306.438199
3373.476853,-10881.027347,296.082377,459.657299
3373.477190,-8660.409521,888.247130,229.828649
3373.477528,-9252.574275,148.041188,842.705048
3373.477865,-10214.842000,0.000000,2451.505594
3373.478202,-10732.986159,518.144159,1455.581446
3373.478539,-10436.903782,1702.473667,0.000000
3373.478877,-10807.006753,592.164754,-383.047749
3373.479214,-9844.739029,666.185348,153.219100
3373.479551,-9548.656652,-370.102971,153.219100
3373.479889,-10658.965565,-370.102971,1072.533697
3373.480226,-9622.677246,148.041188,459.657299
3373.480563,-11251.130318,-296.082377,-459.657299
3373.480900,-11473.192101,-592.164754,-1838.629195
3373.481238,-10214.842000,-1406.391290,-1838.629195
3373.481575,-8512.368333,-1332.370696,-1225.752797
3373.481912,-8808.450710,-3849.070898,612.876398
3373.482250,-10066.800811,-2886.803174,1302.362347
3373.482587,-9992.780217,-2072.576638,0.000000
3373.482924,-11325.150913,-1850.514855,229.828649
3373.483261,-10584.944971,-1998.556043,842.705048
3373.483599,-9474.636058,-1554.432478,1072.533697
3373.483936,-10214.842000,-1850.514855,3064.381992
3373.484273,-10881.027347,-1406.391290,3064.381992
3373.484611,-10140.821405,-1258.350101,1838.629195
3373.484948,-10140.821405,740.205942,842.705048
3373.485285,-9992.780217,74.020594,536.266849
3373.485622,-9400.615463,222.061783,1608.800546
3373.485960,-9622.677246,370.102971,1532.190996
3373.486297,-10510.924376,1110.308913,2374.896044
3373.486634,-10510.924376,1850.514855,919.314598
3373.486972,-10436.903782,2664.741391,-612.876398
3373.487309,-10807.006753,1628.453072,-1302.362347
3373.487646,-9844.739029,740.205942,-1225.752797
3373.487983,-9178.553681,888.247130,-919.314598
3373.488321,-9770.718434,296.082377,-459.657299
3373.488658,-8290.306550,1036.288319,-2451.505594
3373.488995,-9104.533087,-740.205942,-3677.258390
3373.489333,-10436.903782,-444.123565,-1608.800546
3373.489670,-9622.677246,-740.205942,-306.438199
3373.490007,-9548.656652,-1850.514855,1149.143247
3373.490344,-10510.924376,-1036.288319,2451.505594
3373.490682,-9918.759623,-1406.391290,1378.971896
3373.491019,-9548.656652,740.205942,76.609550
3373.491356,-10436.903782,-1036.288319,459.657299
3373.491694,-10066.800811,-1776.494261,229.828649
3373.492031,-9474.636058,-1628.453072,1455.581446
3373.492368,-11029.068536,-296.082377,2145.067394
3373.492705,-10436.903782,592.164754,76.609550
3373.493043,-10140.821405,666.185348,-2068.457845
3373.493380,-10510.924376,962.267725,-1991.848295
3373.493717,-10214.842000,0.000000,-536.266849
3373.494055,-9622.677246,-1702.473667,229.828649
3373.494392,-9992.780217,-1184.329507,1838.629195
3373.494729,-10436.903782,-592.164754,1685.410096
3373.495066,-10362.883188,0.000000,-153.219100
3373.495404,-11843.295072,296.082377,-995.924147
3373.495741,-10955.047942,-666.185348,-459.657299
3373.496078,-9030.512492,-1702.473667,153.219100
3373.496416,-9400.615463,-1850.514855,2068.457845
3373.496753,-10362.883188,-814.226536,1378.971896
3373.497090,-9474.636058,-148.041188,-612.876398
3373.497427,-10658.965565,-444.123565,-766.095498
3373.497765,-8956.491898,-592.164754,0.000000
3373.498102,-8142.265362,-962.267725,1608.800546
3373.498439,-9844.739029,0.000000,4290.134789
3373.498776,-10362.883188,962.267725,2757.943793
3373.499114,-10066.800811,2294.638420,459.657299
3373.499451,-11325.150913,2146.597232,459.657299
3373.499788,-10140.821405,1184.329507,229.828649
3373.500126,-9400.615463,-370.102971,1455.581446
3373.500463,-9622.677246,518.144159,3907.087040
3373.500800,-9252.574275,666.185348,1685.410096
3373.501137,-9844.739029,1554.432478,-1532.190996
3373.501475,-10066.800811,814.226536,-3140.991542
3373.501812,-9622.677246,-740.205942,-3524.039291
3373.502149,-8364.327145,-1258.350101,-2221.676944
3373.502487,-8808.450710,-1998.556043,689.485948
3373.502824,-9474.636058,-1480.411884,1225.752797
3373.503161,-9992.780217,-1258.350101,-306.438199
3373.503498,-12953.603985,222.061783,-766.095498
3373.503836,-11843.295072,-1480.411884,-919.314598
3373.504173,-10584.944971,-2738.761985,459.657299
3373.504510,-9474.636058,-3478.967927,2911.162892
3373.504848,-9400.615463,-2516.700203,2911.162892
3373.505185,-10362.883188,-1554.432478,459.657299
3373.505522,-11695.253884,-814.226536,-536.266849
3373.505859,-10807.006753,0.000000,-766.095498
3373.506197,-9400.615463,-444.123565,-536.266849
3373.506534,-9770.718434,-962.267725,2221.676944
3373.506871,-10732.986159,-296.082377,2681.334243
3373.507209,-10362.883188,0.000000,842.705048
3373.507546,-10066.800811,518.144159,0.000000
3373.507883,-10214.842000,74.020594,-306.438199
3373.508220,-9474.636058,0.000000,229.828649
3373.508558,-9474.636058,-222.061783,995.924147
3373.508895,-9770.718434,0.000000,1072.533697
3373.509232,-9252.574275,222.061783,-612.876398
3373.509570,-10214.842000,222.061783,-2374.896044
3373.509907,-9770.718434,1110.308913,-2604.724693
3373.510244,-8808.450710,0.000000,-2221.676944
3373.510581,-9474.636058,-962.267725,0.000000
3373.510919,-9474.636058,0.000000,995.924147
3373.511256,-9548.656652,814.226536,459.657299
3373.511593,-10436.903782,814.226536,-153.219100
3373.511931,-10510.924376,222.061783,-306.438199
3373.512268,-9992.780217,0.000000,229.828649
3373.512605,-10362.883188,-814.226536,2068.457845
3373.512942,-10732.986159,-370.102971,2987.772442
3373.513280,-9030.512492,148.041188,1608.800546
3373.513617,-9696.697840,-222.061783,383.047749
3373.513954,-10066.800811,592.164754,383.047749
3373.514292,-10066.800811,444.123565,229.828649
3373.514629,-10955.047942,-296.082377,995.924147
3373.514966,-10510.924376,-666.185348,995.924147
3373.515303,-10066.800811,-222.061783,0.000000
3373.515641,-9400.615463,0.000000,-1072.533697
3373.515978,-8956.491898,-962.267725,-1685.410096
3373.516315,-8734.430116,-444.123565,-1302.362347
3373.516653,-9326.594869,-1332.370696,-689.485948
3373.516990,-11769.274478,-2220.617826,0.000000
3373.517327,-11621.233289,-2516.700203,-306.438199
3373.517664,-10436.903782,-1184.329507,-1149.143247
3373.518002,-9992.780217,-888.247130,383.047749
3373.518339,-9178.553681,-814.226536,842.705048
3373.518676,-9326.594869,-1332.370696,1838.629195
3373.519014,-10807.006753,-962.267725,2068.457845
3373.519351,-10584.944971,-74.020594,1378.971896
3373.519688,-11695.253884,370.102971,1225.752797
3373.520025,-11251.130318,1184.329507,1302.362347
3373.520363,-9474.636058,518.144159,766.095498
3373.520700,-9030.512492,2146.597232,2298.286494
3373.521037,-9548.656652,2886.803174,2757.943793
3373.521375,-10732.986159,2368.659014,1532.190996
3373.521712,-10955.047942,2368.659014,-689.485948
3373.522049,-11029.068536,2220.617826,-766.095498
3373.522386,-9326.594869,1702.473667,-766.095498
3373.522724,-7698.141797,518.144159,-383.047749
3373.523061,-8364.327145,1036.288319,766.095498
3373.523398,-9104.533087,74.020594,-306.438199
3373.523736,-9548.656652,518.144159,-1225.752797
3373.524073,-10881.027347,-666.185348,-1685.410096
3373.524410,-9252.574275,0.000000,-1225.752797
3373.524747,-9252.574275,-1850.514855,-76.609550
3373.525085,-9474.636058,-1776.494261,1608.800546
3373.525422,-8882.471304,-1776.494261,1302.362347
3373.525759,-9696.697840,-1628.453072,383.047749
3373.526096,-10955.047942,-1776.494261,766.095498
3373.526434,-11621.233289,-518.144159,0.000000
3373.526771,-11029.068536,-962.267725,459.657299
3373.527108,-11177.109724,-1850.514855,1532.190996
3373.527446,-9770.718434,-1628.453072,1532.190996
3373.527783,-8882.471304,-1332.370696,1149.143247
3373.528120,-10658.965565,-592.164754,919.314598
3373.528457,-11251.130318,-962.267725,-689.485948
3373.528795,-11103.089130,-666.185348,-1225.752797
3373.529132,-11695.253884,-1184.329507,842.705048
3373.529469,-10214.842000,-1110.308913,536.266849
3373.529807,-9622.677246,-888.247130,153.219100
3373.530144,-10288.862594,-444.123565,153.219100
3373.530481,-9474.636058,-888.247130,-995.924147
3373.530818,-9844.739029,-962.267725,-536.266849
3373.531156,-11029.068536,-1850.514855,459.657299
3373.531493,-10807.006753,-2072.576638,1149.143247
3373.531830,-9622.677246,-296.082377,0.000000
3373.532168,-9548.656652,0.000000,-459.657299
3373.532505,-9252.574275,740.205942,-766.095498
3373.532842,-8734.430116,-370.102971,-1915.238745
3373.533179,-9178.553681,-666.185348,76.609550
3373.533517,-9844.739029,0.000000,1762.019645
3373.533854,-9622.677246,740.205942,1532.190996
3373.534191,-10732.986159,1998.556043,1608.800546
3373.534529,-9548.656652,1480.411884,689.485948
3373.534866,-9178.553681,1480.411884,1762.019645
3373.535203,-10658.965565,1110.308913,2374.896044
3373.535540,-10955.047942,1776.494261,1838.629195
3373.535878,-10362.883188,1110.308913,0.000000
3373.536215,-9992.780217,814.226536,-1225.752797
3373.536552,-9030.512492,1036.288319,-1225.752797
3373.536890,-9030.512492,666.185348,-1072.533697
3373.537227,-9696.697840,-592.164754,-766.095498
3373.537564,-9696.697840,0.000000,-1149.143247
3373.537901,-10140.821405,0.000000,-1072.533697
3373.538239,-11251.130318,0.000000,-2145.067394
3373.538576,-11325.150913,-1036.288319,-1225.752797
3373.538913,-9548.656652,-2368.659014,-766.095498
3373.539251,-9622.677246,-2368.659014,1455.581446
3373.539588,-10584.944971,-1850.514855,2987.772442
3373.539925,-10140.821405,-2220.617826,1455.581446
3373.540262,-10658.965565,-2146.597232,1149.143247
3373.540600,-11399.171507,-1110.308913,1225.752797
3373.540937,-10362.883188,-1332.370696,536.266849
3373.541274,-10584.944971,-1406.391290,1302.362347
3373.541612,-9770.718434,-1406.391290,1455.581446
3373.541949,-8882.471304,0.000000,1532.190996
3373.542286,-9178.553681,74.020594,612.876398
3373.542623,-9696.697840,666.185348,689.485948
3373.542961,-10214.842000,962.267725,0.000000
3373.543298,-10510.924376,0.000000,76.609550
3373.543635,-10140.821405,814.226536,536.266849
3373.543973,-10066.800811,222.061783,1225.752797
3373.544310,-10436.903782,518.144159,306.438199
3373.544647,-9918.759623,74.020594,0.000000
3373.544984,-9400.615463,518.144159,0.000000
3373.545322,-8660.409521,-370.102971,0.000000
3373.545659,-10066.800811,-370.102971,1225.752797
3373.545996,-10066.800811,888.247130,536.266849
3373.546334,-9770.718434,518.144159,-1838.629195
3373.546671,-10436.903782,296.082377,-919.314598
3373.547008,-9474.636058,-444.123565,-995.924147
3373.547345,-8956.491898,-148.041188,1225.752797
3373.547683,-10807.006753,0.000000,3447.429741
3373.548020,-11103.089130,592.164754,1838.629195
3373.548357,-11103.089130,962.267725,153.219100
3373.548695,-10732.986159,0.000000,995.924147
3373.549032,-9252.574275,-592.164754,766.095498
3373.549369,-7994.224174,0.000000,76.609550
3373.549706,-9992.780217,0.000000,-153.219100
3373.550044,-9252.574275,666.185348,-229.828649
3373.550381,-9844.739029,296.082377,-1378.971896
3373.550718,-10955.047942,444.123565,-2604.724693
3373.551056,-8956.491898,74.020594,-3217.601092
3373.551393,-9400.615463,-1480.411884,-1302.362347
3373.551730,-10881.027347,-2146.597232,306.438199
3373.552067,-9400.615463,-2072.576638,-306.438199
3373.552405,-8882.471304,-2146.597232,-612.876398
3373.552742,-11399.171507,-1554.432478,689.485948
3373.553079,-11399.171507,-2072.576638,0.000000
3373.553417,-10214.842000,-1998.556043,0.000000
3373.553754,-11251.130318,-1702.473667,1762.019645
3373.554091,-10732.986159,-1480.411884,689.485948
3373.554428,-9770.718434,222.061783,0.000000
3373.554766,-10658.965565,-1110.308913,1072.533697
3373.555103,-9770.718434,-370.102971,1762.019645
3373.555440,-9548.656652,740.205942,1378.971896
3373.555777,-11473.192101,296.082377,3140.991542
3373.556115,-10362.883188,592.164754,2145.067394
3373.556452,-9326.594869,1184.329507,459.657299
3373.556789,-10955.047942,1924.535449,1225.752797
3373.557127,-9992.780217,1406.391290,383.047749
3373.557464,-9104.533087,666.185348,-153.219100
3373.557801,-7698.141797,518.144159,689.485948
3373.558138,-7698.141797,1406.391290,1838.629195
3373.558476,-9770.718434,814.226536,229.828649
3373.558813,-10807.006753,814.226536,-995.924147
3373.559150,-10807.006753,1332.370696,-1991.848295
3373.559488,-9918.759623,-444.123565,-1532.190996
3373.559825,-10140.821405,-962.267725,459.657299
3373.560162,-9178.553681,-740.205942,536.266849
3373.560499,-9178.553681,0.000000,383.047749
3373.560837,-10658.965565,0.000000,0.000000
3373.561174,-10584.944971,-1554.432478,-1225.752797
3373.561511,-9622.677246,-1480.411884,0.000000
3373.561849,-10214.842000,-2294.638420,2374.896044
3373.562186,-10288.862594,0.000000,2451.505594
3373.562523,-10362.883188,222.061783,842.705048
3373.562860,-12509.480420,-222.061783,919.314598
3373.563198,-11621.233289,-370.102971,383.047749
3373.563535,-9622.677246,74.020594,383.047749
3373.563872,-10140.821405,-1258.350101,1378.971896
3373.564210,-9918.759623,-592.164754,689.485948
3373.564547,-9474.636058,-1110.308913,-689.485948
3373.564884,-9622.677246,0.000000,-1685.410096
3373.565221,-9622.677246,-740.205942,-689.485948
3373.565559,-9844.739029,-148.041188,-842.705048
3373.565896,-10584.944971,-814.226536,-995.924147
3373.566233,-9918.759623,-962.267725,-383.047749
3373.566571,-9252.574275,-1332.370696,-153.219100
3373.566908,-10288.862594,-814.226536,-306.438199
3373.567245,-9992.780217,-666.185348,0.000000
3373.567582,-9844.739029,-1110.308913,536.266849
3373.567920,-9548.656652,-1776.494261,1455.581446
3373.568257,-9770.718434,-1258.350101,2298.286494
3373.568594,-9770.718434,222.061783,1378.971896
3373.568932,-9992.780217,666.185348,383.047749
3373.569269,-10658.965565,1184.329507,842.705048
3373.569606,-10288.862594,1850.514855,459.657299
3373.569943,-10288.862594,962.267725,1225.752797
3373.570281,-10732.986159,1554.432478,1762.019645
3373.570618,-10140.821405,444.123565,229.828649
3373.570955,-10066.800811,1998.556043,0.000000
3373.571293,-10584.944971,814.226536,536.266849
3373.571630,-9474.636058,814.226536,-383.047749
3373.571967,-8512.368333,518.144159,-689.485948
3373.572304,-9992.780217,0.000000,-383.047749
3373.572642,-10140.821405,0.000000,-1991.848295
3373.572979,-10066.800811,-592.164754,-2528.115143
3373.573316,-9548.656652,-962.267725,-766.095498
3373.573654,-8956.491898,-1702.473667,-842.705048
3373.573991,-8586.388927,-1850.514855,383.047749
3373.574328,-9400.615463,-1702.473667,995.924147
3373.574666,-10140.821405,-1998.556043,919.314598
3373.575003,-10066.800811,-1554.432478,0.000000
3373.575340,-10955.047942,-1480.411884,383.047749
3373.575677,-11177.109724,-1776.494261,1685.410096
3373.576015,-9918.759623,-1702.473667,1378.971896
3373.576352,-10140.821405,-1776.494261,2374.896044
3373.576689,-10436.903782,0.000000,1608.800546
3373.577027,-10362.883188,666.185348,689.485948
3373.577364,-11399.171507,370.102971,459.657299
3373.577701,-10362.883188,0.000000,0.000000
3373.578038,-9918.759623,0.000000,919.314598
3373.578376,-11325.150913,0.000000,2528.115143
3373.578713,-10732.986159,1036.288319,842.705048
3373.579050,-10214.842000,1184.329507,-76.609550
3373.579388,-10955.047942,444.123565,229.828649
3373.579725,-9030.512492,666.185348,-919.314598
3373.580062,-9030.512492,-1184.329507,-536.266849
3373.580399,-10214.842000,-296.082377,1225.752797
3373.580737,-9104.533087,-740.205942,-842.705048
3373.581074,-9326.594869,222.061783,-1072.533697
3373.581411,-9696.697840,592.164754,-76.609550
3373.581749,-9030.512492,444.123565,76.609550
3373.582086,-9474.636058,444.123565,153.219100
3373.582423,-9918.759623,-592.164754,1608.800546
3373.582760,-10288.862594,666.185348,842.705048
3373.583098,-10214.842000,814.226536,0.000000
3373.583435,-10288.862594,518.144159,229.828649
3373.583772,-9622.677246,-148.041188,1149.143247
3373.584110,-9548.656652,0.000000,1302.362347
3373.584447,-10066.800811,0.000000,2374.896044
3373.584784,-11251.130318,370.102971,1302.362347
3373.585121,-10140.821405,814.226536,-1378.971896
3373.585459,-11547.212695,1332.370696,-1225.752797
3373.585796,-10066.800811,74.020594,-536.266849
3373.586133,-9622.677246,-1184.329507,-689.485948
3373.586471,-9400.615463,-1554.432478,306.438199
3373.586808,-9474.636058,-1406.391290,0.000000
3373.587145,-10658.965565,-888.247130,-1532.190996
3373.587482,-11177.109724,-592.164754,-2451.505594
3373.587820,-10362.883188,-1924.535449,-1991.848295
3373.588157,-9992.780217,-2368.659014,-995.924147
3373.588494,-9252.574275,-3034.844362,0.000000
3373.588832,-9400.615463,-2294.638420,1378.971896
3373.589169,-9326.594869,-1110.308913,1072.533697
3373.589506,-10658.965565,-1258.350101,612.876398
3373.589843,-11029.068536,-666.185348,1149.143247
3373.590181,-9622.677246,-1258.350101,1302.362347
3373.590518,-9918.759623,-1480.411884,2987.772442
3373.590855,-10214.842000,-444.123565,2911.162892
3373.591193,-9474.636058,592.164754,1302.362347
3373.591530,-10214.842000,1480.411884,0.000000
3373.591867,-11399.171507,1332.370696,0.000000
3373.592204,-9696.697840,1036.288319,-306.438199
3373.592542,-9548.656652,666.185348,1149.143247
3373.592879,-10214.842000,592.164754,2145.067394
3373.593216,-9474.636058,1036.288319,536.266849
3373.593554,-10140.821405,1998.556043,-689.485948
3373.593891,-11325.150913,1480.411884,-842.705048
3373.594228,-10362.883188,370.102971,-1378.971896
3373.594565,-8364.327145,-444.123565,-766.095498
3373.594903,-9844.739029,-814.226536,919.314598
3373.595240,-10066.800811,-222.061783,-306.438199
3373.595577,-9992.780217,-148.041188,-919.314598
3373.595915,-10436.903782,0.000000,-842.705048
3373.596252,-9326.594869,-592.164754,-1072.533697
3373.596589,-9918.759623,-1258.350101,766.095498
3373.596926,-10140.821405,-814.226536,2068.457845
3373.597264,-10362.883188,-592.164754,1302.362347
3373.597601,-10436.903782,0.000000,689.485948
3373.597938,-10807.006753,444.123565,459.657299
3373.598276,-9770.718434,-148.041188,459.657299
3373.598613,-9844.739029,-592.164754,612.876398
3373.598950,-9696.697840,-888.247130,1685.410096
3373.599287,-9622.677246,-444.123565,459.657299
3373.599625,-10584.944971,148.041188,-689.485948
3373.599962,-11547.212695,0.000000,-1072.533697
3373.600299,-9696.697840,-740.205942,-1532.190996
3373.600637,-9400.615463,-2072.576638,766.095498
3373.600974,-9992.780217,-1258.350101,2911.162892
3373.601311,-10214.842000,-814.226536,1302.362347
3373.601648,-10510.924376,-666.185348,-1302.362347
3373.601986,-11399.171507,-2368.659014,-689.485948
3373.602323,-10066.800811,-2072.576638,0.000000
3373.602660,-8438.347739,-2072.576638,383.047749
3373.602998,-9474.636058,-1258.350101,2298.286494
3373.603335,-9770.718434,-1258.350101,919.314598
3373.603672,-10436.903782,-444.123565,-766.095498
3373.604009,-11769.274478,222.061783,459.657299
3373.604347,-9622.677246,888.247130,306.438199
3373.604684,-9474.636058,-296.082377,2145.067394
3373.605021,-9696.697840,222.061783,3294.210641
3373.605359,-9326.594869,1776.494261,2374.896044
3373.605696,-10658.965565,1702.473667,1838.629195
3373.606033,-11917.315666,814.226536,919.314598
3373.606370,-10362.883188,1924.535449,-1225.752797
3373.606708,-10066.800811,1036.288319,0.000000
3373.607045,-10510.924376,296.082377,995.924147
3373.607382,-8364.327145,740.205942,-612.876398
3373.607720,-8956.491898,814.226536,-2221.676944
3373.608057,-9770.718434,444.123565,-1608.800546
3373.608394,-10066.800811,-1332.370696,-1225.752797
3373.608731,-9326.594869,-1406.391290,-1225.752797
3373.609069,-9548.656652,-1406.391290,842.705048
3373.609406,-9178.553681,-888.247130,1225.752797
3373.609743,-10584.944971,-518.144159,-459.657299
3373.610081,-11843.295072,-814.226536,-2221.676944
3373.610418,-9252.574275,-1184.329507,-1532.190996
3373.610755,-8808.450710,-2664.741391,1149.143247
3373.611092,-9992.780217,-2220.617826,2145.067394
3373.611430,-10436.903782,-1184.329507,1225.752797
3373.611767,-10510.924376,-666.185348,76.609550
3373.612104,-11843.295072,-666.185348,306.438199
3373.612442,-9770.718434,-370.102971,-229.828649
3373.612779,-8660.409521,-444.123565,919.314598
3373.613116,-10658.965565,0.000000,3830.477490
3373.613453,-10732.986159,0.000000,2145.067394
3373.613791,-11029.068536,814.226536,-153.219100
3373.614128,-11991.336260,1184.329507,-306.438199
3373.614465,-10584.944971,592.164754,-919.314598
3373.614803,-9178.553681,-962.267725,-383.047749
3373.615140,-9474.636058,-518.144159,919.314598
3373.615477,-9178.553681,0.000000,1072.533697
3373.615814,-9474.636058,74.020594,-153.219100
3373.616152,-10584.944971,-148.041188,-1915.238745
3373.616489,-9252.574275,-592.164754,-1762.019645
3373.616826,-8808.450710,0.000000,-459.657299
3373.617164,-8364.327145,-518.144159,766.095498
3373.617501,-9844.739029,-74.020594,1608.800546
3373.617838,-10510.924376,-296.082377,1149.143247
3373.618175,-10955.047942,1110.308913,536.266849
3373.618513,-10288.862594,296.082377,1532.190996
3373.618850,-9474.636058,296.082377,2451.505594
3373.619187,-9844.739029,0.000000,2451.505594
3373.619525,-10658.965565,592.164754,1455.581446
3373.619862,-9696.697840,1184.329507,153.219100
3373.620199,-11029.068536,592.164754,-1225.752797
3373.620536,-10955.047942,1776.494261,-1608.800546
3373.620874,-8290.306550,1258.350101,-2068.457845
3373.621211,-9844.739029,296.082377,229.828649
3373.621548,-11103.089130,-592.164754,0.000000
3373.621886,-10066.800811,-592.164754,-1455.581446
3373.622223,-9992.780217,-148.041188,-766.095498
3373.622560,-10584.944971,-962.267725,-383.047749
3373.622897,-9844.739029,-1998.556043,-842.705048
3373.623235,-9474.636058,-2960.823768,0.000000
3373.623572,-10066.800811,-2368.659014,1455.581446
3373.623909,-10288.862594,-2072.576638,459.657299
3373.624247,-10807.006753,-962.267725,-1072.533697
3373.624584,-10362.883188,-1998.556043,-766.095498
3373.624921,-8956.491898,-1480.411884,842.705048
3373.625258,-8364.327145,-888.247130,1838.629195
3373.625596,-11251.130318,-370.102971,2757.943793
3373.625933,-11251.130318,-296.082377,1072.533697
3373.626270,-10510.924376,296.082377,383.047749
3373.626608,-11103.089130,370.102971,2145.067394
3373.626945,-10140.821405,2220.617826,1225.752797
3373.627282,-9622.677246,1036.288319,536.266849
3373.627619,-10362.883188,814.226536,995.924147
3373.627957,-10066.800811,1480.411884,0.000000
3373.628294,-10436.903782,2220.617826,-842.705048
3373.628631,-9844.739029,2960.823768,-919.314598
3373.628969,-9104.533087,2220.617826,-2068.457845
3373.629306,-9918.759623,888.247130,-1991.848295
3373.629643,-10436.903782,0.000000,-842.705048
3373.629980,-8068.244768,666.185348,-1225.752797
3373.630318,-8438.347739,814.226536,-766.095498
3373.630655,-10214.842000,370.102971,-1149.143247
3373.630992,-10807.006753,0.000000,-2451.505594
3373.631330,-10362.883188,-518.144159,-1302.362347
3373.631667,-8290.306550,74.020594,-536.266849
3373.632004,-9178.553681,666.185348,153.219100
3373.632341,-10214.842000,814.226536,-1302.362347
3373.632679,-10658.965565,444.123565,-1991.848295
3373.633016,-11029.068536,1480.411884,-1532.190996
3373.633353,-9104.533087,1480.411884,-689.485948
3373.633691,-9992.780217,888.247130,-229.828649
3373.634028,-11103.089130,0.000000,-383.047749
3373.634365,-10658.965565,1850.514855,-1991.848295
3373.634702,-9844.739029,592.164754,-2221.676944
3373.635040,-9548.656652,1184.329507,-1378.971896
3373.635377,-9696.697840,1628.453072,-1685.410096
3373.635714,-10732.986159,518.144159,-3753.867940
3373.636052,-9400.615463,0.000000,-3677.258390
3373.636389,-9844.739029,0.000000,-1225.752797
3373.636726,-11103.089130,444.123565,-2145.067394
3373.637063,-9252.574275,1332.370696,-4060.306139
3373.637401,-10066.800811,518.144159,-2757.943793
3373.637738,-10510.924376,0.000000,-2528.115143
3373.638075,-9622.677246,0.000000,-1991.848295
3373.638413,-9252.574275,666.185348,-459.657299
3373.638750,-10066.800811,1406.391290,153.219100
3373.639087,-10732.986159,1850.514855,-995.924147
3373.639424,-10362.883188,2590.720797,-2451.505594
3373.639762,-9992.780217,2664.741391,-766.095498
3373.640099,-11029.068536,2146.597232,-306.438199
3373.640436,-9252.574275,2960.823768,-1532.190996
3373.640774,-8882.471304,4145.153275,-76.609550
3373.641111,-9844.739029,3552.988522,689.485948
3373.641448,-11843.295072,3182.885551,383.047749
3373.641785,-11769.274478,4071.132681,-1991.848295
3373.642123,-9326.594869,4663.297435,-2221.676944
3373.642460,-9918.759623,3256.906145,-1991.848295
3373.642797,-9474.636058,1924.535449,-3907.087040
3373.643135,-7550.100608,1998.556043,-4596.572988
3373.643472,-7476.080014,1184.329507,-3217.601092
3373.643809,-10140.821405,518.144159,-919.314598
3373.644146,-11177.109724,1258.350101,-2681.334243
3373.644484,-10584.944971,962.267725,-3370.820191
3373.644821,-8956.491898,2072.576638,-2757.943793
3373.645158,-9844.739029,1406.391290,-1072.533697
3373.645496,-12435.459826,666.185348,-1532.190996
3373.645833,-9992.780217,296.082377,-3830.477490
3373.646170,-8216.285956,222.061783,-2374.896044
3373.646507,-9474.636058,0.000000,612.876398
3373.646845,-11769.274478,-592.164754,76.609550
3373.647182,-11029.068536,1184.329507,-1915.238745
3373.647519,-9474.636058,2146.597232,-1991.848295
3373.647857,-10140.821405,2294.638420,-842.705048
3373.648194,-12731.542202,888.247130,-459.657299
3373.648531,-11695.253884,2294.638420,-1532.190996
3373.648868,-8068.244768,2664.741391,-1991.848295
3373.649206,-9622.677246,2886.803174,-383.047749
3373.649543,-11103.089130,2146.597232,-1378.971896
3373.649880,-11695.253884,370.102971,-1838.629195
3373.650218,-9030.512492,1628.453072,-1302.362347
3373.650555,-7772.162391,1554.432478,-2221.676944
3373.650892,-10288.862594,2812.782580,-2298.286494
3373.651229,-10881.027347,1628.453072,-4060.306139
3373.651567,-8882.471304,0.000000,-4290.134789
3373.651904,-7846.182985,0.000000,-2374.896044
3373.652241,-9030.512492,1554.432478,-1149.143247
3373.652579,-10807.006753,2886.803174,-1915.238745
3373.652916,-10140.821405,1998.556043,-3983.696590
3373.653253,-7846.182985,148.041188,-1838.629195
3373.653590,-8734.430116,740.205942,1915.238745
3373.653928,-10066.800811,2294.638420,2451.505594
3373.654265,-12509.480420,3849.070898,-306.438199
3373.654602,-12065.356855,2886.803174,-4136.915689
3373.654940,-9770.718434,2442.679609,-3830.477490
3373.655277,-8438.347739,1776.494261,-842.705048
3373.655614,-10066.800811,1924.535449,1149.143247
3373.655952,-11325.150913,2146.597232,-2528.115143
3373.656289,-10584.944971,2590.720797,-6128.763984
3373.656626,-9474.636058,2886.803174,-4366.744339
3373.656963,-9252.574275,1998.556043,-1302.362347
3373.657301,-10066.800811,296.082377,-766.095498
3373.657638,-11251.130318,592.164754,-1838.629195
3373.657975,-11251.130318,1184.329507,-995.924147
3373.658313,-10436.903782,592.164754,-2451.505594
3373.658650,-9918.759623,148.041188,-2834.553343
3373.658987,-9178.553681,-518.144159,-2987.772442
3373.659324,-9548.656652,-666.185348,-3064.381992
3373.659662,-8882.471304,74.020594,-3370.820191
3373.659999,-8142.265362,-370.102971,-1685.410096
3373.660336,-9474.636058,0.000000,76.609550
3373.660674,-11103.089130,1036.288319,-689.485948
3373.661011,-11547.212695,3627.009116,-1915.238745
3373.661348,-11843.295072,3849.070898,-1378.971896
3373.661685,-10658.965565,3404.947333,-1532.190996
3373.662023,-9770.718434,2886.803174,-766.095498
3373.662360,-8808.450710,2294.638420,-459.657299
3373.662697,-8586.388927,2664.741391,383.047749
3373.663035,-11325.150913,3108.864956,842.705048
3373.663372,-12287.418637,2738.761985,0.000000
3373.663709,-10807.006753,3627.009116,-2374.896044
3373.664046,-9918.759623,4367.215058,-2911.162892
3373.664384,-10288.862594,4737.318029,-2681.334243
3373.664721,-10955.047942,2886.803174,-5056.230287
3373.665058,-8438.347739,2368.659014,-6205.373534
3373.665396,-7550.100608,2738.761985,-5209.449386
3373.665733,-8660.409521,1184.329507,-3140.991542
3373.666070,-9992.780217,518.144159,-2145.067394
3373.666408,-9030.512492,-518.144159,-2298.286494
3373.666745,-9030.512492,222.061783,842.705048
3373.667082,-9992.780217,592.164754,2068.457845
3373.667419,-12361.439231,1702.473667,612.876398
3373.667757,-12139.377449,2960.823768,-2374.896044
3373.668094,-10288.862594,3034.844362,-3064.381992
3373.668431,-8882.471304,2072.576638,-2987.772442
3373.668769,-8956.491898,444.123565,-2145.067394
3373.669106,-8808.450710,1110.308913,-1838.629195
3373.669443,-8882.471304,888.247130,-2374.896044
3373.669781,-10584.944971,1332.370696,-2221.676944
3373.670118,-11695.253884,1628.453072,-1915.238745
3373.670455,-11621.233289,1998.556043,-995.924147
3373.670792,-11769.274478,2960.823768,-459.657299
3373.671130,-11029.068536,1924.535449,-1608.800546
3373.671467,-9770.718434,2294.638420,-1762.019645
3373.671804,-9474.636058,962.267725,-1149.143247
3373.672142,-8808.450710,0.000000,-383.047749
3373.672479,-9474.636058,0.000000,-383.047749
3373.672816,-10658.965565,-370.102971,-2068.457845
3373.673153,-9918.759623,0.000000,-2451.505594
3373.673491,-9400.615463,148.041188,-2374.896044
3373.673828,-9474.636058,1480.411884,-1225.752797
3373.674165,-10510.924376,1776.494261,-1762.019645
3373.674503,-11177.109724,3108.864956,-1915.238745
3373.674840,-10584.944971,2664.741391,-2374.896044
3373.675177,-9548.656652,2146.597232,-1532.190996
3373.675515,-8364.327145,2368.659014,-306.438199
3373.675852,-8882.471304,1776.494261,383.047749
3373.676189,-9252.574275,1628.453072,306.438199
3373.676526,-9474.636058,2220.617826,-842.705048
3373.676864,-11399.171507,3034.844362,-1072.533697
3373.677201,-11769.274478,4293.194464,-2604.724693
3373.677538,-11843.295072,3997.112087,-3907.087040
3373.677876,-10658.965565,3256.906145,-4366.744339
3373.678213,-8364.327145,2146.597232,-4596.572988
3373.678550,-7846.182985,962.267725,-2145.067394
3373.678888,-7994.224174,296.082377,-1302.362347
3373.679225,-8586.388927,0.000000,-1225.752797
3373.679562,-10362.883188,518.144159,-766.095498
3373.679899,-11769.274478,-74.020594,-383.047749
3373.680237,-11029.068536,0.000000,-459.657299
3373.680574,-11251.130318,-888.247130,0.000000
3373.680911,-10807.006753,222.061783,0.000000
3373.681249,-10140.821405,-370.102971,-1149.143247
3373.681586,-10140.821405,74.020594,-1762.019645
3373.681923,-9474.636058,-370.102971,-1838.629195
3373.682260,-9252.574275,222.061783,-1455.581446
3373.682598,-9474.636058,814.226536,-2068.457845
3373.682935,-10140.821405,740.205942,-1455.581446
3373.683272,-10510.924376,1332.370696,-1915.238745
3373.683610,-10436.903782,1998.556043,-2145.067394
3373.683947,-11399.171507,2368.659014,-2374.896044
3373.684284,-10510.924376,2886.803174,-3217.601092
3373.684622,-10066.800811,2294.638420,-3217.601092
3373.684959,-8882.471304,1924.535449,-3064.381992
3373.685296,-8660.409521,2072.576638,-2757.943793
3373.685633,-9548.656652,1998.556043,-2451.505594
3373.685971,-10140.821405,2442.679609,-3830.477490
3373.686308,-9696.697840,3701.029710,-4136.915689
3373.686645,-10436.903782,3108.864956,-3140.991542
3373.686983,-9844.739029,2664.741391,-2987.772442
3373.687320,-9326.594869,2664.741391,-3217.601092
3373.687657,-9474.636058,2516.700203,-2221.676944
3373.687994,-9326.594869,2738.761985,-1838.629195
3373.688332,-9474.636058,1776.494261,-1915.238745
3373.688669,-10214.842000,2368.659014,0.000000
3373.689006,-9992.780217,3923.091493,-1149.143247
3373.689344,-10214.842000,4515.256246,-2145.067394
3373.689681,-10066.800811,5181.441594,-2451.505594
3373.690018,-9696.697840,3627.009116,-2451.505594
3373.690356,-9548.656652,3330.926739,-766.095498
3373.690693,-9474.636058,3478.967927,0.000000
3373.691030,-10214.842000,3997.112087,0.000000
3373.691367,-11399.171507,3478.967927,-1685.410096
3373.691705,-9844.739029,2368.659014,-2298.286494
3373.692042,-9696.697840,1924.535449,-1072.533697
3373.692379,-9622.677246,1554.432478,-1225.752797
3373.692717,-10658.965565,2960.823768,-2451.505594
3373.693054,-10214.842000,2516.700203,-4903.011187
3373.693391,-9104.533087,1776.494261,-5209.449386
3373.693729,-9178.553681,-296.082377,-3217.601092
3373.694066,-9696.697840,-592.164754,-995.924147
3373.694403,-9474.636058,740.205942,-229.828649
3373.694740,-10732.986159,444.123565,76.609550
3373.695078,-11103.089130,814.226536,-229.828649
3373.695415,-11325.150913,888.247130,-536.266849
3373.695752,-11029.068536,1776.494261,306.438199
3373.696090,-9770.718434,1924.535449,-1072.533697
3373.696427,-10214.842000,1184.329507,0.000000
3373.696764,-10955.047942,518.144159,-383.047749
3373.697101,-8586.388927,814.226536,76.609550
3373.697439,-9474.636058,1924.535449,1762.019645
3373.697776,-11843.295072,2442.679609,536.266849
3373.698113,-12435.459826,4219.173869,-3447.429741
3373.698451,-10510.924376,3552.988522,-5515.887586
3373.698788,-7624.121203,2590.720797,-3983.696590
3373.699125,-7698.141797,1554.432478,-919.314598
3373.699463,-9548.656652,1036.288319,-2374.896044
3373.699800,-9992.780217,2368.659014,-1838.629195
3373.700137,-9696.697840,1998.556043,-3447.429741
3373.700474,-9326.594869,1184.329507,-3830.477490
3373.700812,-9474.636058,740.205942,-4366.744339
3373.701149,-9326.594869,-222.061783,-2451.505594
3373.701486,-9622.677246,444.123565,-2221.676944
3373.701824,-9696.697840,370.102971,-2911.162892
3373.702161,-10288.862594,1924.535449,-2298.286494
3373.702498,-9770.718434,1332.370696,-3447.429741
3373.702836,-9178.553681,666.185348,-3600.648841
3373.703173,-9474.636058,-222.061783,-995.924147
3373.703510,-10066.800811,-222.061783,766.095498
3373.703847,-10584.944971,518.144159,689.485948
3373.704185,-11177.109724,1850.514855,-1532.190996
3373.704522,-11695.253884,1776.494261,-1991.848295
3373.704859,-11917.315666,1036.288319,-1991.848295
3373.705197,-9992.780217,740.205942,-1685.410096
3373.705534,-9474.636058,1850.514855,-919.314598
3373.705871,-10584.944971,2664.741391,-2374.896044
3373.706208,-9326.594869,2442.679609,-5209.449386
3373.706546,-9548.656652,814.226536,-4136.915689
3373.706883,-9770.718434,222.061783,-1762.019645
3373.707220,-10362.883188,-666.185348,-612.876398
3373.707558,-10510.924376,1554.432478,-842.705048
3373.707895,-9770.718434,1776.494261,-2911.162892
3373.708232,-10732.986159,740.205942,-2068.457845
3373.708570,-9992.780217,1184.329507,-1915.238745
3373.708907,-9770.718434,1850.514855,-383.047749
3373.709244,-9474.636058,4071.132681,0.000000
3373.709581,-9844.739029,3182.885551,-2221.676944
3373.709919,-9770.718434,2368.659014,-2911.162892
3373.710256,-8290.306550,1406.391290,-1225.752797
3373.710593,-8364.327145,2368.659014,1072.533697
3373.710931,-9548.656652,4145.153275,1838.629195
3373.711268,-12139.377449,3997.112087,1149.143247
3373.711605,-12435.459826,4071.132681,-2145.067394
3373.711943,-9400.615463,4071.132681,-2068.457845
3373.712280,-8068.244768,6957.935855,459.657299
3373.712617,-11029.068536,5625.565159,-536.266849
3373.712954,-11473.192101,4515.256246,-3524.039291
3373.713292,-10214.842000,2590.720797,-4443.353888
3373.713629,-7031.956449,2738.761985,-2834.553343
3373.713966,-9474.636058,1924.535449,-153.219100
3373.714304,-11621.233289,1924.535449,-2145.067394
3373.714641,-11103.089130,740.205942,-4443.353888
3373.714978,-8142.265362,2220.617826,-4673.182538
3373.715315,-7920.203579,1332.370696,-1608.800546
3373.715653,-12213.398043,1554.432478,0.000000
3373.715990,-11843.295072,1332.370696,-3907.087040
3373.716327,-9844.739029,1332.370696,-3907.087040
3373.716665,-9400.615463,592.164754,-2298.286494
3373.717002,-10214.842000,-444.123565,-612.876398
3373.717339,-9548.656652,0.000000,-1225.752797
3373.717677,-9474.636058,74.020594,-1532.190996
3373.718014,-10214.842000,888.247130,-842.705048
3373.718351,-11547.212695,74.020594,-1532.190996
3373.718688,-11177.109724,1184.329507,-1838.629195
3373.719026,-10658.965565,1628.453072,-536.266849
3373.719363,-11103.089130,2146.597232,-919.314598
3373.719700,-10362.883188,2294.638420,-2145.067394
3373.720038,-10436.903782,1628.453072,-1532.190996
3373.720375,-9326.594869,592.164754,0.000000
3373.720712,-9474.636058,148.041188,-1149.143247
3373.721050,-9918.759623,1332.370696,-1072.533697
3373.721387,-9918.759623,1110.308913,-1608.800546
3373.721724,-10288.862594,222.061783,-2451.505594
3373.722061,-10066.800811,-592.164754,-3677.258390
3373.722399,-9400.615463,370.102971,-1838.629195
3373.722736,-8734.430116,592.164754,-536.266849
3373.723073,-8586.388927,0.000000,-306.438199
3373.723411,-10214.842000,74.020594,0.000000
3373.723748,-10362.883188,0.000000,-306.438199
