#time,accel_x,accel_y,accel_z
3416.776286,-9918.759623,-740.205942,0.000000
3416.776623,-9400.615463,-666.185348,0.000000
3416.776961,-9622.677246,-1184.329507,0.000000
3416.777299,-10362.883188,-592.164754,766.095498
3416.777637,-9770.718434,-148.041188,0.000000
3416.777975,-10066.800811,-518.144159,383.047749
3416.778313,-10140.821405,-666.185348,612.876398
3416.778651,-9844.739029,74.020594,1455.581446
3416.778988,-10584.944971,666.185348,1608.800546
3416.779326,-10732.986159,1036.288319,1149.143247
3416.779664,-10214.842000,1406.391290,229.828649
3416.780002,-11177.109724,74.020594,842.705048
3416.780340,-11547.212695,222.061783,689.485948
3416.780678,-9696.697840,0.000000,-383.047749
3416.781016,-9252.574275,74.020594,76.609550
3416.781354,-10066.800811,-814.226536,612.876398
3416.781691,-10066.800811,-1628.453072,-612.876398
3416.782029,-9918.759623,-1110.308913,-229.828649
3416.782367,-8956.491898,-1850.514855,-612.876398
3416.782705,-9548.656652,-1628.453072,536.266849
3416.783043,-9992.780217,-2516.700203,459.657299
3416.783381,-9696.697840,-2294.638420,689.485948
3416.783719,-10140.821405,-2220.617826,1378.971896
3416.784056,-9992.780217,-1702.473667,1149.143247
3416.784394,-9992.780217,-1850.514855,1532.190996
3416.784732,-10658.965565,-2886.803174,1302.362347
3416.785070,-10362.883188,-2368.659014,2451.505594
3416.785408,-10436.903782,-1480.411884,2528.115143
3416.785746,-9030.512492,-592.164754,2757.943793
3416.786084,-10214.842000,370.102971,3064.381992
3416.786421,-10955.047942,-814.226536,2834.553343
3416.786759,-10436.903782,-222.061783,2911.162892
3416.787097,-9992.780217,0.000000,4596.572988
3416.787435,-10288.862594,222.061783,4979.620737
3416.787773,-10510.924376,0.000000,3907.087040
3416.788111,-11621.233289,-666.185348,3447.429741
3416.788449,-10214.842000,-1110.308913,2451.505594
3416.788786,-9400.615463,-888.247130,3140.991542
3416.789124,-9400.615463,-1110.308913,2681.334243
3416.789462,-9400.615463,-2146.597232,536.266849
3416.789800,-8882.471304,-2590.720797,76.609550
3416.790138,-8882.471304,-3701.029710,0.000000
3416.790476,-8364.327145,-4071.132681,1302.362347
3416.790814,-9030.512492,-3478.967927,2528.115143
3416.791151,-9696.697840,-3478.967927,2757.943793
3416.791489,-10214.842000,-2146.597232,1455.581446
3416.791827,-11103.089130,-3627.009116,2068.457845
3416.792165,-10955.047942,-4071.132681,3524.039291
3416.792503,-9696.697840,-4145.153275,4213.525239
3416.792841,-10584.944971,-3330.926739,3753.867940
3416.793179,-11103.089130,-2368.659014,2834.553343
3416.793516,-11029.068536,-2664.741391,1225.752797
3416.793854,-10436.903782,-3034.844362,1149.143247
3416.794192,-10214.842000,-4441.235652,1685.410096
3416.794530,-9252.574275,-4071.132681,2911.162892
3416.794868,-10140.821405,-3034.844362,3140.991542
3416.795206,-11547.212695,-2368.659014,2757.943793
3416.795544,-11325.150913,-1850.514855,1685.410096
3416.795881,-11251.130318,-1702.473667,0.000000
3416.796219,-10288.862594,-1776.494261,383.047749
3416.796557,-9918.759623,-2738.761985,-306.438199
3416.796895,-9326.594869,-3923.091493,842.705048
3416.797233,-9992.780217,-4145.153275,1838.629195
3416.797571,-9770.718434,-4145.153275,2298.286494
3416.797909,-9474.636058,-3997.112087,1762.019645
3416.798246,-9030.512492,-3775.050304,2451.505594
3416.798584,-8512.368333,-3330.926739,4136.915689
3416.798922,-9844.739029,-2516.700203,5362.668486
3416.799260,-11103.089130,-1110.308913,4519.963438
3416.799598,-10362.883188,0.000000,2451.505594
3416.799936,-10584.944971,666.185348,3294.210641
3416.800274,-11177.109724,-370.102971,2681.334243
3416.800611,-9918.759623,-1776.494261,3140.991542
3416.800949,-7846.182985,-1184.329507,3983.696590
3416.801287,-7476.080014,-1184.329507,3983.696590
3416.801625,-10140.821405,-1036.288319,4290.134789
3416.801963,-11621.233289,-1332.370696,3677.258390
3416.802301,-10362.883188,0.000000,2145.067394
3416.802639,-9696.697840,1998.556043,1302.362347
3416.802976,-10658.965565,2664.741391,919.314598
3416.803314,-11251.130318,740.205942,-766.095498
3416.803652,-10214.842000,-1850.514855,-1991.848295
3416.803990,-7846.182985,-3182.885551,842.705048
3416.804328,-8808.450710,-4589.276840,4443.353888
3416.804666,-10881.027347,-5477.523971,5592.497135
3416.805004,-11029.068536,-3701.029710,1991.848295
3416.805341,-9252.574275,-3330.926739,612.876398
3416.805679,-9030.512492,-2516.700203,1991.848295
3416.806017,-10881.027347,-3108.864956,2528.115143
3416.806355,-10288.862594,-2294.638420,1838.629195
3416.806693,-9770.718434,-2368.659014,2374.896044
3416.807031,-11547.212695,-1850.514855,2451.505594
3416.807369,-11547.212695,-1628.453072,2298.286494
3416.807706,-10658.965565,-2294.638420,1991.848295
3416.808044,-8586.388927,-3849.070898,2298.286494
3416.808382,-8068.244768,-4589.276840,2451.505594
3416.808720,-8882.471304,-2368.659014,4136.915689
3416.809058,-9918.759623,-1776.494261,4519.963438
3416.809396,-11399.171507,0.000000,2604.724693
3416.809734,-12139.377449,592.164754,-306.438199
3416.810071,-11029.068536,0.000000,0.000000
3416.810409,-10140.821405,-962.267725,2068.457845
3416.810747,-9844.739029,-2664.741391,2528.115143
3416.811085,-9474.636058,-1332.370696,1378.971896
3416.811423,-9400.615463,-1480.411884,-842.705048
3416.811761,-10510.924376,-3182.885551,1532.190996
3416.812099,-9992.780217,-4441.235652,2528.115143
3416.812437,-8586.388927,-4737.318029,5056.230287
3416.812774,-8438.347739,-2812.782580,5439.278036
3416.813112,-9474.636058,-740.205942,3677.258390
3416.813450,-12213.398043,0.000000,1991.848295
3416.813788,-11769.274478,-1332.370696,1378.971896
3416.814126,-10807.006753,-2368.659014,2451.505594
3416.814464,-9844.739029,-1258.350101,4673.182538
3416.814802,-8734.430116,-1850.514855,4826.401637
3416.815139,-9770.718434,-2368.659014,3524.039291
3416.815477,-8364.327145,-4589.276840,2374.896044
3416.815815,-9474.636058,-4959.379811,4596.572988
3416.816153,-9992.780217,-2220.617826,4443.353888
3416.816491,-9474.636058,-518.144159,1685.410096
3416.816829,-11399.171507,-1036.288319,459.657299
3416.817167,-11769.274478,-2368.659014,-306.438199
3416.817504,-10288.862594,-3330.926739,0.000000
3416.817842,-8882.471304,-3034.844362,1302.362347
3416.818180,-7254.018232,-3034.844362,2068.457845
3416.818518,-11843.295072,-5033.400406,3447.429741
3416.818856,-12879.583391,-6809.894666,1532.190996
3416.819194,-8364.327145,-5625.565159,919.314598
3416.819532,-8808.450710,-4367.215058,4519.963438
3416.819869,-10658.965565,-3849.070898,4443.353888
3416.820207,-12879.583391,-3775.050304,1685.410096
3416.820545,-11547.212695,-1998.556043,612.876398
3416.820883,-8364.327145,-1332.370696,2068.457845
3416.821221,-10807.006753,-1998.556043,5056.230287
3416.821559,-13915.871710,-2220.617826,3907.087040
3416.821897,-10362.883188,-2516.700203,995.924147
3416.822234,-6513.812290,-1776.494261,2145.067394
3416.822572,-7179.997637,-2886.803174,5669.106685
3416.822910,-11029.068536,-2664.741391,5822.325785
3416.823248,-10140.821405,-1036.288319,1532.190996
3416.823586,-8216.285956,222.061783,2068.457845
3416.823924,-11103.089130,74.020594,3600.648841
3416.824262,-12435.459826,-148.041188,1838.629195
3416.824599,-9992.780217,-444.123565,536.266849
3416.824937,-7846.182985,0.000000,1225.752797
3416.825275,-9178.553681,-2294.638420,1762.019645
3416.825613,-10881.027347,-2960.823768,689.485948
3416.825951,-7550.100608,-3108.864956,1838.629195
3416.826289,-7105.977043,-3478.967927,3830.477490
3416.826627,-10436.903782,-3997.112087,3447.429741
3416.826964,-11029.068536,-1702.473667,1455.581446
3416.827302,-10140.821405,-1924.535449,3370.820191
3416.827640,-11399.171507,-1036.288319,4366.744339
3416.827978,-10955.047942,-1998.556043,2528.115143
3416.828316,-11621.233289,-962.267725,3753.867940
3416.828654,-11473.192101,-1480.411884,3983.696590
3416.828992,-10436.903782,-2442.679609,1762.019645
3416.829329,-10066.800811,-3182.885551,1608.800546
3416.829667,-9030.512492,-4737.318029,2911.162892
3416.830005,-7698.141797,-3404.947333,3600.648841
3416.830343,-9474.636058,-3478.967927,2681.334243
3416.830681,-10955.047942,-2368.659014,2451.505594
3416.831019,-11029.068536,-2146.597232,306.438199
3416.831357,-11103.089130,-1332.370696,536.266849
3416.831694,-10955.047942,-222.061783,995.924147
3416.832032,-11029.068536,-2590.720797,229.828649
3416.832370,-9548.656652,-3330.926739,0.000000
3416.832708,-9474.636058,-3923.091493,1915.238745
3416.833046,-9844.739029,-3034.844362,2987.772442
3416.833383,-9770.718434,-3627.009116,1532.190996
3416.833721,-10436.903782,-3034.844362,1838.629195
3416.834059,-9252.574275,-3849.070898,1378.971896
3416.834396,-9030.512492,-3552.988522,2298.286494
3416.834734,-9696.697840,-2812.782580,4136.915689
3416.835072,-9252.574275,148.041188,3830.477490
3416.835409,-10955.047942,0.000000,3370.820191
3416.835747,-11769.274478,1184.329507,1838.629195
3416.836085,-10732.986159,1036.288319,2145.067394
3416.836422,-10584.944971,370.102971,3983.696590
3416.836760,-7846.182985,296.082377,2911.162892
3416.837098,-7846.182985,-296.082377,1991.848295
3416.837436,-10066.800811,-1702.473667,2068.457845
3416.837773,-9474.636058,-2664.741391,689.485948
3416.838111,-9326.594869,-1036.288319,842.705048
3416.838449,-9844.739029,740.205942,1378.971896
3416.838786,-10214.842000,1776.494261,0.000000
3416.839124,-11917.315666,-222.061783,-1762.019645
3416.839462,-10955.047942,-814.226536,-1455.581446
3416.839799,-8364.327145,-2886.803174,459.657299
3416.840137,-8364.327145,-3256.906145,3064.381992
3416.840475,-9178.553681,-3701.029710,2911.162892
3416.840812,-10955.047942,-5181.441594,1455.581446
3416.841150,-9992.780217,-4441.235652,459.657299
3416.841488,-8734.430116,-4441.235652,1455.581446
3416.841825,-10362.883188,-2664.741391,3294.210641
3416.842163,-12139.377449,-2664.741391,2681.334243
3416.842501,-12435.459826,-888.247130,229.828649
3416.842838,-11399.171507,-296.082377,-536.266849
3416.843176,-9918.759623,-296.082377,842.705048
3416.843514,-10362.883188,-1850.514855,2451.505594
3416.843851,-10881.027347,-1554.432478,2145.067394
3416.844189,-8882.471304,0.000000,76.609550
3416.844527,-11103.089130,-666.185348,-766.095498
3416.844864,-10584.944971,-2072.576638,-689.485948
3416.845202,-8586.388927,-3256.906145,842.705048
3416.845540,-10732.986159,-518.144159,1915.238745
3416.845877,-9474.636058,1998.556043,-766.095498
3416.846215,-10881.027347,2072.576638,-1762.019645
3416.846553,-10732.986159,962.267725,-612.876398
3416.846891,-9252.574275,-1776.494261,0.000000
3416.847228,-11325.150913,-1480.411884,2681.334243
3416.847566,-9844.739029,740.205942,2145.067394
3416.847904,-8512.368333,0.000000,766.095498
3416.848241,-9696.697840,-296.082377,-459.657299
3416.848579,-6661.853478,-1480.411884,-995.924147
3416.848917,-7698.141797,222.061783,1532.190996
3416.849254,-10362.883188,1554.432478,1608.800546
3416.849592,-11029.068536,2294.638420,-919.314598
3416.849930,-12731.542202,4219.173869,-1149.143247
3416.850267,-10140.821405,1406.391290,-612.876398
3416.850605,-9844.739029,-592.164754,2451.505594
3416.850943,-10288.862594,592.164754,3524.039291
3416.851280,-8586.388927,1998.556043,766.095498
3416.851618,-11843.295072,370.102971,-536.266849
3416.851956,-10214.842000,-2072.576638,-1608.800546
3416.852293,-8734.430116,-2590.720797,-842.705048
3416.852631,-9474.636058,-666.185348,-612.876398
3416.852969,-8660.409521,814.226536,-2374.896044
3416.853306,-11399.171507,148.041188,-2681.334243
3416.853644,-9992.780217,-370.102971,-3447.429741
3416.853982,-9992.780217,-2960.823768,-1225.752797
3416.854319,-11547.212695,-1332.370696,1149.143247
3416.854657,-11473.192101,-2442.679609,229.828649
3416.854995,-11843.295072,-2960.823768,-842.705048
3416.855333,-7550.100608,-4515.256246,536.266849
3416.855670,-7550.100608,-4589.276840,3140.991542
3416.856008,-9622.677246,-2886.803174,2681.334243
3416.856346,-10658.965565,-1480.411884,0.000000
3416.856683,-11917.315666,1480.411884,0.000000
3416.857021,-11621.233289,1184.329507,-459.657299
3416.857359,-9992.780217,-1258.350101,1378.971896
3416.857696,-9992.780217,0.000000,1608.800546
3416.858034,-9104.533087,222.061783,2451.505594
3416.858372,-9696.697840,1850.514855,1608.800546
3416.858709,-8808.450710,1702.473667,-229.828649
3416.859047,-10584.944971,-1258.350101,2298.286494
3416.859385,-11917.315666,296.082377,1532.190996
3416.859722,-9252.574275,1554.432478,-306.438199
3416.860060,-10732.986159,2590.720797,459.657299
3416.860398,-10732.986159,1628.453072,-995.924147
3416.860735,-8438.347739,-370.102971,0.000000
3416.861073,-9770.718434,444.123565,383.047749
3416.861411,-8290.306550,296.082377,459.657299
3416.861748,-11399.171507,888.247130,0.000000
3416.862086,-11251.130318,444.123565,-766.095498
3416.862424,-8808.450710,-2368.659014,919.314598
3416.862761,-10140.821405,-1850.514855,3140.991542
3416.863099,-8068.244768,-666.185348,1762.019645
3416.863437,-9252.574275,-518.144159,1378.971896
3416.863774,-10066.800811,74.020594,153.219100
3416.864112,-9770.718434,-2368.659014,306.438199
3416.864450,-12213.398043,-2368.659014,1915.238745
3416.864788,-10066.800811,-740.205942,995.924147
3416.865125,-10436.903782,0.000000,1455.581446
3416.865463,-9992.780217,1332.370696,-1302.362347
3416.865801,-7994.224174,-2146.597232,-1838.629195
3416.866138,-11473.192101,-2146.597232,1608.800546
3416.866476,-9400.615463,-1850.514855,-459.657299
3416.866814,-10140.821405,-1480.411884,-1225.752797
3416.867151,-11917.315666,-1110.308913,-2221.676944
3416.867489,-10214.842000,-3923.091493,-2298.286494
3416.867827,-9770.718434,-2590.720797,-536.266849
3416.868164,-8364.327145,-1110.308913,76.609550
3416.868502,-9844.739029,-740.205942,-229.828649
3416.868840,-13397.727550,-370.102971,-1608.800546
3416.869177,-11991.336260,-2664.741391,-2221.676944
3416.869515,-10362.883188,-1406.391290,1149.143247
3416.869853,-8808.450710,222.061783,2451.505594
3416.870190,-8956.491898,1036.288319,612.876398
3416.870528,-10288.862594,2368.659014,-2221.676944
3416.870866,-9252.574275,148.041188,-383.047749
3416.871203,-10807.006753,296.082377,2451.505594
3416.871541,-9400.615463,2146.597232,2451.505594
3416.871879,-10436.903782,2368.659014,1302.362347
3416.872216,-11843.295072,2590.720797,-612.876398
3416.872554,-8216.285956,1702.473667,-1532.190996
3416.872892,-8216.285956,1110.308913,1838.629195
3416.873229,-6661.853478,1332.370696,2298.286494
3416.873567,-8142.265362,1776.494261,1072.533697
3416.873905,-11177.109724,2442.679609,-1378.971896
3416.874243,-11103.089130,74.020594,-2374.896044
3416.874580,-10140.821405,-1554.432478,-153.219100
3416.874918,-8068.244768,74.020594,1072.533697
3416.875256,-8660.409521,962.267725,766.095498
3416.875593,-11325.150913,1850.514855,-1991.848295
3416.875931,-9548.656652,-740.205942,-2834.553343
3416.876269,-11769.274478,-1776.494261,1149.143247
3416.876606,-10584.944971,-1628.453072,1762.019645
3416.876944,-10732.986159,-3034.844362,1915.238745
3416.877282,-12139.377449,-1110.308913,459.657299
3416.877619,-9548.656652,-2368.659014,612.876398
3416.877957,-9548.656652,-2442.679609,3677.258390
3416.878295,-9548.656652,-296.082377,4519.963438
3416.878632,-10881.027347,0.000000,3064.381992
3416.878970,-13989.892304,592.164754,0.000000
3416.879308,-11325.150913,-1554.432478,-1225.752797
3416.879645,-11029.068536,-2590.720797,2451.505594
3416.879983,-8438.347739,-666.185348,3217.601092
3416.880321,-5773.606348,370.102971,459.657299
3416.880658,-10214.842000,0.000000,-612.876398
3416.880996,-9844.739029,-1480.411884,-2374.896044
3416.881334,-9252.574275,-2146.597232,0.000000
3416.881671,-9548.656652,-370.102971,1608.800546
3416.882009,-9104.533087,-1036.288319,766.095498
3416.882347,-11399.171507,222.061783,-1225.752797
3416.882685,-9992.780217,370.102971,-2221.676944
3416.883022,-7772.162391,-592.164754,229.828649
3416.883360,-8364.327145,0.000000,2145.067394
3416.883698,-8734.430116,666.185348,842.705048
3416.884035,-12953.603985,1480.411884,-153.219100
3416.884373,-12805.562797,1110.308913,-1225.752797
3416.884711,-9770.718434,-74.020594,689.485948
3416.885048,-9252.574275,1406.391290,2987.772442
3416.885386,-8068.244768,2368.659014,2068.457845
3416.885724,-10214.842000,3997.112087,-153.219100
3416.886061,-10362.883188,2664.741391,-2834.553343
3416.886399,-11325.150913,-666.185348,76.609550
3416.886737,-11917.315666,74.020594,2221.676944
3416.887074,-9178.553681,592.164754,76.609550
3416.887412,-9030.512492,962.267725,-612.876398
3416.887750,-9104.533087,-444.123565,-2298.286494
3416.888087,-8734.430116,-2664.741391,-1991.848295
3416.888425,-8438.347739,-1924.535449,-153.219100
3416.888763,-8142.265362,-1628.453072,-459.657299
3416.889100,-10066.800811,-1258.350101,-2451.505594
3416.889438,-11029.068536,-2368.659014,-3064.381992
3416.889776,-9400.615463,-3923.091493,-1225.752797
3416.890113,-9918.759623,-3108.864956,1991.848295
3416.890451,-9474.636058,-2220.617826,2145.067394
3416.890789,-10807.006753,-1850.514855,995.924147
3416.891126,-11177.109724,-2072.576638,612.876398
3416.891464,-11325.150913,-3108.864956,2374.896044
3416.891802,-12583.501014,-2516.700203,4290.134789
3416.892140,-10658.965565,-1258.350101,3370.820191
3416.892477,-10732.986159,74.020594,1455.581446
3416.892815,-9918.759623,1184.329507,0.000000
3416.893153,-9844.739029,74.020594,766.095498
3416.893490,-10066.800811,1702.473667,1685.410096
3416.893828,-9992.780217,1850.514855,1225.752797
3416.894166,-11695.253884,1850.514855,0.000000
3416.894503,-11251.130318,1850.514855,-842.705048
3416.894841,-8956.491898,-148.041188,1762.019645
3416.895179,-8364.327145,1110.308913,3524.039291
3416.895516,-7179.997637,1258.350101,1685.410096
3416.895854,-10214.842000,1406.391290,766.095498
3416.896192,-9622.677246,740.205942,-1991.848295
3416.896529,-9104.533087,-592.164754,-689.485948
3416.896867,-10214.842000,296.082377,1762.019645
3416.897205,-7624.121203,1184.329507,76.609550
3416.897542,-9178.553681,1776.494261,-383.047749
3416.897880,-9178.553681,2220.617826,-2298.286494
3416.898218,-9030.512492,-296.082377,-842.705048
3416.898555,-11399.171507,-296.082377,1149.143247
3416.898893,-9178.553681,592.164754,766.095498
3416.899231,-10955.047942,666.185348,612.876398
3416.899568,-11325.150913,666.185348,-153.219100
3416.899906,-9474.636058,-962.267725,229.828649
3416.900244,-11029.068536,-592.164754,2757.943793
3416.900581,-9918.759623,-1480.411884,1838.629195
3416.900919,-10881.027347,-296.082377,536.266849
3416.901257,-12657.521608,444.123565,-1072.533697
3416.901595,-10362.883188,0.000000,-2834.553343
3416.901932,-9992.780217,-962.267725,-1915.238745
3416.902270,-8586.388927,-1110.308913,-2451.505594
3416.902608,-10510.924376,-666.185348,-2221.676944
3416.902945,-11621.233289,-666.185348,-3294.210641
3416.903283,-8808.450710,-2590.720797,-2528.115143
3416.903621,-9770.718434,-2738.761985,229.828649
3416.903958,-9992.780217,-2738.761985,1378.971896
3416.904296,-10510.924376,-2442.679609,1532.190996
3416.904634,-10807.006753,-962.267725,76.609550
3416.904971,-8438.347739,-1554.432478,76.609550
3416.905309,-10658.965565,-296.082377,2681.334243
3416.905647,-10584.944971,296.082377,1838.629195
3416.905984,-10362.883188,814.226536,612.876398
3416.906322,-10658.965565,1998.556043,-383.047749
3416.906660,-9474.636058,1702.473667,919.314598
3416.906997,-10214.842000,2294.638420,2145.067394
3416.907335,-8512.368333,2294.638420,1302.362347
3416.907673,-9474.636058,2220.617826,1685.410096
3416.908010,-9622.677246,2294.638420,306.438199
3416.908348,-9178.553681,2516.700203,1072.533697
3416.908686,-10732.986159,1776.494261,2451.505594
3416.909023,-9104.533087,2072.576638,766.095498
3416.909361,-9178.553681,1184.329507,0.000000
3416.909699,-10510.924376,2442.679609,-766.095498
3416.910036,-8660.409521,1258.350101,-919.314598
3416.910374,-9622.677246,-518.144159,0.000000
3416.910712,-9548.656652,-518.144159,-383.047749
3416.911050,-9104.533087,-1406.391290,-1225.752797
3416.911387,-11251.130318,-1480.411884,-383.047749
3416.911725,-9400.615463,-2146.597232,153.219100
3416.912063,-10066.800811,-2220.617826,1838.629195
3416.912400,-10807.006753,-444.123565,919.314598
3416.912738,-10807.006753,-2146.597232,766.095498
3416.913076,-12805.562797,-1554.432478,766.095498
3416.913413,-11103.089130,-2738.761985,689.485948
3416.913751,-9992.780217,-3182.885551,2987.772442
3416.914089,-9252.574275,-1406.391290,3064.381992
3416.914426,-9400.615463,-1110.308913,1455.581446
3416.914764,-11547.212695,-1258.350101,612.876398
3416.915102,-9770.718434,-1110.308913,-995.924147
3416.915439,-11325.150913,-2368.659014,1915.238745
3416.915777,-10510.924376,518.144159,459.657299
3416.916115,-9178.553681,518.144159,-1072.533697
3416.916452,-11177.109724,222.061783,-995.924147
3416.916790,-8068.244768,-962.267725,-1532.190996
3416.917128,-9104.533087,-1850.514855,229.828649
3416.917465,-10510.924376,-592.164754,1915.238745
3416.917803,-9474.636058,74.020594,-306.438199
3416.918141,-11843.295072,1110.308913,-1302.362347
3416.918478,-10510.924376,74.020594,-1072.533697
3416.918816,-8956.491898,-592.164754,306.438199
3416.919154,-8882.471304,222.061783,1302.362347
3416.919492,-8364.327145,1332.370696,689.485948
3416.919829,-10807.006753,1850.514855,0.000000
3416.920167,-10584.944971,1480.411884,0.000000
3416.920505,-9326.594869,1480.411884,1685.410096
3416.920842,-9326.594869,2664.741391,1915.238745
3416.921180,-9844.739029,3256.906145,1072.533697
3416.921518,-11029.068536,2368.659014,-766.095498
3416.921855,-9474.636058,1406.391290,-1149.143247
3416.922193,-9992.780217,-148.041188,1762.019645
3416.922531,-10436.903782,1480.411884,1149.143247
3416.922868,-9622.677246,1480.411884,-1608.800546
3416.923206,-10066.800811,1702.473667,-3140.991542
3416.923544,-8660.409521,-296.082377,-3524.039291
3416.923881,-9548.656652,-2368.659014,-1225.752797
3416.924219,-10214.842000,-444.123565,0.000000
3416.924557,-8660.409521,-1258.350101,-1302.362347
3416.924894,-11843.295072,-1406.391290,-1302.362347
3416.925232,-9992.780217,-2146.597232,-1838.629195
3416.925570,-10288.862594,-3256.906145,2068.457845
3416.925907,-10066.800811,-2368.659014,2834.553343
3416.926245,-10140.821405,-1850.514855,612.876398
3416.926583,-12435.459826,-1850.514855,0.000000
3416.926920,-10584.944971,-2368.659014,-153.219100
3416.927258,-9474.636058,-2738.761985,2834.553343
3416.927596,-10436.903782,-666.185348,3294.210641
3416.927933,-9326.594869,-518.144159,1608.800546
3416.928271,-11695.253884,296.082377,2451.505594
3416.928609,-10436.903782,0.000000,1838.629195
3416.928947,-10140.821405,-740.205942,3830.477490
3416.929284,-11103.089130,1406.391290,3370.820191
3416.929622,-8290.306550,2368.659014,536.266849
3416.929960,-11991.336260,2220.617826,766.095498
3416.930297,-11251.130318,370.102971,-76.609550
3416.930635,-7328.038826,-370.102971,-229.828649
3416.930972,-9326.594869,1110.308913,2145.067394
3416.931310,-8586.388927,2442.679609,-306.438199
3416.931647,-9548.656652,1998.556043,-3753.867940
3416.931984,-10362.883188,666.185348,-2834.553343
3416.932322,-7179.997637,-1332.370696,-536.266849
3416.932659,-8438.347739,-592.164754,2911.162892
3416.932996,-9622.677246,1110.308913,2298.286494
3416.933334,-10066.800811,1258.350101,-306.438199
3416.933671,-10732.986159,962.267725,-1072.533697
3416.934008,-10881.027347,-1554.432478,1072.533697
3416.934346,-11177.109724,-296.082377,2528.115143
3416.934683,-9474.636058,-148.041188,1072.533697
3416.935020,-10140.821405,740.205942,-536.266849
3416.935358,-10066.800811,-444.123565,-1915.238745
3416.935695,-10214.842000,-1258.350101,-1532.190996
3416.936032,-10658.965565,-888.247130,229.828649
3416.936370,-8956.491898,0.000000,-1302.362347
3416.936707,-10955.047942,-148.041188,-1225.752797
3416.937044,-11991.336260,-666.185348,-1762.019645
3416.937382,-9696.697840,-2664.741391,-995.924147
3416.937719,-9992.780217,-2664.741391,306.438199
3416.938056,-9474.636058,-1554.432478,-612.876398
3416.938394,-11399.171507,-1332.370696,-1991.848295
3416.938731,-11325.150913,-2294.638420,-2911.162892
3416.939069,-8956.491898,-4515.256246,-995.924147
3416.939406,-9548.656652,-2664.741391,1991.848295
3416.939743,-9992.780217,-1924.535449,1072.533697
3416.940081,-11399.171507,-1406.391290,-1225.752797
3416.940418,-10362.883188,-370.102971,-3370.820191
3416.940755,-7254.018232,-2146.597232,-842.705048
3416.941093,-9622.677246,-1702.473667,3907.087040
3416.941430,-9622.677246,148.041188,4366.744339
3416.941767,-10732.986159,1480.411884,2987.772442
3416.942105,-11843.295072,2368.659014,1149.143247
3416.942442,-9992.780217,1702.473667,1225.752797
3416.942779,-11325.150913,2368.659014,4213.525239
3416.943117,-9992.780217,2738.761985,3677.258390
3416.943454,-9622.677246,2886.803174,1378.971896
3416.943791,-9474.636058,4367.215058,-995.924147
3416.944129,-9252.574275,2442.679609,-612.876398
3416.944466,-9548.656652,1924.535449,1455.581446
3416.944803,-8660.409521,2516.700203,0.000000
3416.945141,-9992.780217,2294.638420,-1302.362347
3416.945478,-11029.068536,2368.659014,-2528.115143
3416.945815,-7920.203579,-370.102971,-2298.286494
3416.946153,-9178.553681,-1628.453072,1915.238745
3416.946490,-9326.594869,-888.247130,2451.505594
3416.946827,-9474.636058,-592.164754,766.095498
3416.947165,-11547.212695,-814.226536,76.609550
3416.947502,-8882.471304,-2812.782580,0.000000
3416.947839,-9992.780217,-4515.256246,2911.162892
3416.948177,-10362.883188,-1628.453072,3064.381992
3416.948514,-9696.697840,666.185348,383.047749
3416.948852,-11991.336260,962.267725,-2374.896044
3416.949189,-10584.944971,-2590.720797,-2451.505594
3416.949526,-10288.862594,-3552.988522,1685.410096
3416.949864,-9548.656652,-1702.473667,1532.190996
3416.950201,-9252.574275,-814.226536,0.000000
3416.950538,-11695.253884,-814.226536,-919.314598
3416.950876,-12361.439231,-2368.659014,-842.705048
3416.951213,-9844.739029,-3627.009116,842.705048
3416.951550,-8808.450710,-2516.700203,3294.210641
3416.951888,-9326.594869,-592.164754,2528.115143
3416.952225,-11917.315666,-370.102971,-2221.676944
3416.952562,-10732.986159,-1184.329507,-3447.429741
3416.952900,-10436.903782,-2516.700203,-1225.752797
3416.953237,-10066.800811,-1258.350101,383.047749
3416.953574,-9178.553681,592.164754,-1608.800546
3416.953912,-9844.739029,1776.494261,-2145.067394
3416.954249,-9252.574275,-592.164754,-2757.943793
3416.954586,-9326.594869,-1924.535449,0.000000
3416.954924,-10288.862594,0.000000,2757.943793
3416.955261,-10066.800811,1924.535449,2451.505594
3416.955598,-11325.150913,3182.885551,-306.438199
3416.955936,-10362.883188,2368.659014,-1302.362347
3416.956273,-9548.656652,1036.288319,1762.019645
3416.956610,-9178.553681,1850.514855,3600.648841
3416.956948,-8956.491898,2368.659014,1762.019645
3416.957285,-10066.800811,3256.906145,-1608.800546
3416.957622,-10214.842000,1258.350101,-2298.286494
3416.957960,-8956.491898,0.000000,-1149.143247
3416.958297,-8216.285956,814.226536,153.219100
3416.958634,-7550.100608,0.000000,-1225.752797
3416.958972,-10066.800811,370.102971,-1225.752797
3416.959309,-9252.574275,518.144159,-3064.381992
3416.959647,-8512.368333,-740.205942,-1225.752797
3416.959984,-11029.068536,-2664.741391,1225.752797
3416.960321,-11695.253884,-2294.638420,1455.581446
3416.960659,-12213.398043,-1924.535449,-689.485948
3416.960996,-10510.924376,-2294.638420,-1149.143247
3416.961333,-9548.656652,-3182.885551,1608.800546
3416.961671,-10214.842000,-2442.679609,2681.334243
3416.962008,-10955.047942,-2664.741391,2374.896044
3416.962345,-12657.521608,-2368.659014,306.438199
3416.962683,-11769.274478,-1480.411884,153.219100
3416.963020,-11251.130318,-2738.761985,1915.238745
3416.963357,-9844.739029,-2146.597232,3830.477490
3416.963695,-9622.677246,-888.247130,3294.210641
3416.964032,-11695.253884,0.000000,2451.505594
3416.964369,-11325.150913,370.102971,459.657299
3416.964707,-9622.677246,-1036.288319,1378.971896
3416.965044,-9844.739029,-370.102971,3600.648841
3416.965381,-9326.594869,-296.082377,2298.286494
3416.965719,-10807.006753,1998.556043,383.047749
3416.966056,-9400.615463,1924.535449,-2374.896044
3416.966393,-8068.244768,-592.164754,-995.924147
3416.966731,-9400.615463,148.041188,1072.533697
3416.967068,-7846.182985,1258.350101,0.000000
3416.967405,-9400.615463,2072.576638,76.609550
3416.967743,-10658.965565,1258.350101,-1149.143247
3416.968080,-10066.800811,-296.082377,-76.609550
3416.968417,-9548.656652,1110.308913,2221.676944
3416.968755,-8660.409521,296.082377,1838.629195
3416.969092,-10510.924376,1850.514855,0.000000
3416.969430,-11399.171507,1850.514855,-1225.752797
3416.969767,-10584.944971,740.205942,-459.657299
3416.970104,-9474.636058,370.102971,-1225.752797
3416.970442,-8734.430116,962.267725,-1072.533697
3416.970779,-10510.924376,888.247130,-1532.190996
3416.971116,-11843.295072,74.020594,-2987.772442
3416.971454,-9474.636058,-666.185348,-1838.629195
3416.971791,-9474.636058,-888.247130,0.000000
3416.972128,-9030.512492,74.020594,306.438199
3416.972466,-11991.336260,-666.185348,-995.924147
3416.972803,-11473.192101,-1554.432478,-2681.334243
3416.973140,-9252.574275,-3256.906145,-2145.067394
3416.973478,-10066.800811,-4293.194464,612.876398
3416.973815,-9326.594869,-2886.803174,766.095498
3416.974152,-10436.903782,-2590.720797,-1762.019645
3416.974490,-10732.986159,-2294.638420,-3907.087040
3416.974827,-9400.615463,-4885.359217,-2145.067394
3416.975164,-10214.842000,-3478.967927,1302.362347
3416.975502,-9178.553681,-2664.741391,1532.190996
3416.975839,-9992.780217,-2516.700203,1608.800546
3416.976176,-11621.233289,-1110.308913,842.705048
3416.976514,-9918.759623,-1406.391290,1302.362347
3416.976851,-10807.006753,-1258.350101,4060.306139
3416.977188,-10881.027347,-740.205942,4366.744339
3416.977526,-10955.047942,0.000000,3907.087040
3416.977863,-11547.212695,2368.659014,1915.238745
3416.978200,-9474.636058,1036.288319,612.876398
3416.978538,-10436.903782,1184.329507,2451.505594
3416.978875,-9400.615463,1998.556043,689.485948
3416.979212,-8882.471304,3108.864956,0.000000
3416.979550,-9918.759623,3923.091493,-766.095498
3416.979887,-8734.430116,2590.720797,0.000000
3416.980225,-10362.883188,2072.576638,1455.581446
3416.980562,-10140.821405,2368.659014,612.876398
3416.980899,-9178.553681,2664.741391,-459.657299
3416.981237,-10436.903782,1406.391290,-306.438199
3416.981574,-8660.409521,296.082377,-229.828649
3416.981911,-8142.265362,-888.247130,766.095498
3416.982249,-8512.368333,-296.082377,1225.752797
3416.982586,-9548.656652,0.000000,153.219100
3416.982923,-11547.212695,-814.226536,-1225.752797
3416.983261,-9252.574275,-2072.576638,-1225.752797
3416.983598,-8216.285956,-2220.617826,1532.190996
3416.983935,-8808.450710,-1184.329507,3140.991542
3416.984273,-10510.924376,-2146.597232,1532.190996
3416.984610,-11769.274478,-666.185348,306.438199
3416.984947,-10658.965565,-1406.391290,-995.924147
3416.985285,-11029.068536,-1998.556043,612.876398
3416.985622,-11473.192101,-1258.350101,1608.800546
3416.985959,-10510.924376,-2220.617826,-383.047749
3416.986297,-11843.295072,-518.144159,-1302.362347
3416.986634,-10362.883188,-2590.720797,-2681.334243
3416.986971,-10140.821405,-4071.132681,-536.266849
3416.987309,-9474.636058,-3330.926739,76.609550
3416.987646,-8068.244768,-2146.597232,0.000000
3416.987983,-10732.986159,-962.267725,-919.314598
3416.988321,-10436.903782,-1998.556043,-2451.505594
3416.988658,-12139.377449,-3404.947333,0.000000
3416.988995,-11177.109724,-1110.308913,306.438199
3416.989333,-10066.800811,-148.041188,536.266849
3416.989670,-10732.986159,962.267725,-766.095498
3416.990008,-8586.388927,222.061783,-1532.190996
3416.990345,-9326.594869,-1332.370696,766.095498
3416.990682,-9030.512492,0.000000,1378.971896
3416.991020,-8290.306550,1258.350101,1149.143247
3416.991357,-11917.315666,2368.659014,1149.143247
3416.991694,-10214.842000,2220.617826,-383.047749
3416.992032,-9770.718434,1776.494261,1302.362347
3416.992369,-9696.697840,3997.112087,3064.381992
3416.992706,-9030.512492,2960.823768,1225.752797
3416.993044,-10807.006753,2960.823768,459.657299
3416.993381,-8808.450710,1998.556043,-1762.019645
3416.993718,-7846.182985,-296.082377,0.000000
3416.994056,-9326.594869,1036.288319,995.924147
3416.994393,-8808.450710,962.267725,-1455.581446
3416.994730,-10510.924376,296.082377,-1608.800546
3416.995068,-8734.430116,740.205942,-3064.381992
3416.995405,-9400.615463,-1628.453072,153.219100
3416.995742,-10584.944971,-592.164754,1225.752797
3416.996080,-9992.780217,-1628.453072,689.485948
3416.996417,-11991.336260,-1850.514855,229.828649
3416.996754,-10807.006753,-2442.679609,-536.266849
3416.997092,-10288.862594,-3701.029710,1991.848295
3416.997429,-9844.739029,-2960.823768,3217.601092
3416.997766,-8216.285956,-2738.761985,2145.067394
3416.998104,-12139.377449,-2146.597232,2145.067394
3416.998441,-11991.336260,-1850.514855,536.266849
3416.998778,-10288.862594,-2812.782580,2221.676944
3416.999116,-11251.130318,-2368.659014,3753.867940
3416.999453,-9400.615463,-1036.288319,2145.067394
3416.999791,-10436.903782,0.000000,2145.067394
3417.000128,-9474.636058,-1036.288319,766.095498
3417.000465,-9178.553681,-1628.453072,1378.971896
3417.000803,-11103.089130,-444.123565,1149.143247
3417.001140,-10214.842000,222.061783,1149.143247
3417.001477,-10658.965565,-444.123565,-919.314598
3417.001815,-10288.862594,888.247130,-1762.019645
3417.002152,-8438.347739,0.000000,-1225.752797
3417.002489,-9326.594869,0.000000,-842.705048
3417.002827,-8586.388927,740.205942,-919.314598
3417.003164,-10288.862594,1036.288319,-1302.362347
3417.003501,-11103.089130,1184.329507,-1378.971896
3417.003839,-10584.944971,296.082377,-919.314598
3417.004176,-10140.821405,1702.473667,766.095498
3417.004513,-8586.388927,1480.411884,-612.876398
3417.004851,-10288.862594,592.164754,842.705048
3417.005188,-10214.842000,1628.453072,689.485948
3417.005525,-9992.780217,222.061783,536.266849
3417.005863,-10658.965565,740.205942,766.095498
3417.006200,-9622.677246,1628.453072,-306.438199
3417.006537,-10881.027347,1628.453072,-1072.533697
3417.006875,-9548.656652,1998.556043,-3370.820191
3417.007212,-7476.080014,592.164754,-2911.162892
3417.007549,-9030.512492,1258.350101,-1608.800546
3417.007887,-9474.636058,518.144159,-2451.505594
3417.008224,-10658.965565,-1110.308913,-2145.067394
3417.008561,-10658.965565,-2146.597232,-1532.190996
3417.008899,-9918.759623,-2960.823768,842.705048
3417.009236,-10214.842000,-2738.761985,2221.676944
3417.009573,-9400.615463,-2664.741391,459.657299
3417.009911,-10214.842000,-2294.638420,766.095498
3417.010248,-11251.130318,-3330.926739,612.876398
3417.010586,-10658.965565,-3478.967927,1762.019645
3417.010923,-11991.336260,-3182.885551,2528.115143
3417.011260,-10066.800811,-2146.597232,1532.190996
3417.011598,-9400.615463,-1628.453072,229.828649
3417.011935,-9918.759623,-1702.473667,536.266849
3417.012272,-9030.512492,-2368.659014,2145.067394
3417.012610,-10732.986159,-1776.494261,4519.963438
3417.012947,-11473.192101,1184.329507,3983.696590
3417.013284,-11399.171507,1184.329507,1455.581446
3417.013622,-11325.150913,1998.556043,306.438199
3417.013959,-9770.718434,0.000000,1149.143247
3417.014296,-9844.739029,-296.082377,3217.601092
3417.014634,-7772.162391,1776.494261,2604.724693
3417.014971,-8882.471304,1998.556043,2068.457845
3417.015308,-11695.253884,2294.638420,766.095498
3417.015646,-9918.759623,1628.453072,-1302.362347
3417.015983,-9844.739029,888.247130,536.266849
3417.016320,-8512.368333,3552.988522,-689.485948
3417.016658,-9030.512492,1776.494261,-1915.238745
3417.016995,-10584.944971,2072.576638,-2145.067394
3417.017332,-8586.388927,296.082377,-2987.772442
3417.017670,-9030.512492,-74.020594,0.000000
3417.018007,-8882.471304,1036.288319,153.219100
3417.018344,-9918.759623,814.226536,-612.876398
3417.018682,-11843.295072,-518.144159,-1072.533697
3417.019019,-9770.718434,-2442.679609,0.000000
3417.019356,-8882.471304,-1776.494261,3370.820191
3417.019694,-10510.924376,-814.226536,3524.039291
3417.020031,-10436.903782,518.144159,689.485948
3417.020369,-11621.233289,-962.267725,-1532.190996
3417.020706,-10658.965565,-2368.659014,-1838.629195
3417.021043,-8364.327145,-3108.864956,306.438199
3417.021381,-8438.347739,-1924.535449,1225.752797
3417.021718,-8956.491898,-740.205942,-612.876398
3417.022055,-12287.418637,-1184.329507,-1762.019645
3417.022393,-11843.295072,-1110.308913,-2834.553343
3417.022730,-10214.842000,-2886.803174,0.000000
3417.023067,-11695.253884,-1776.494261,1532.190996
3417.023405,-10807.006753,-1036.288319,-1149.143247
3417.023742,-10955.047942,-2146.597232,-2834.553343
3417.024079,-8290.306550,-3849.070898,-1149.143247
3417.024417,-7920.203579,-4515.256246,1915.238745
3417.024754,-10881.027347,-1110.308913,3370.820191
3417.025091,-10955.047942,444.123565,229.828649
3417.025429,-12805.562797,1184.329507,-995.924147
3417.025766,-12213.398043,518.144159,-1302.362347
3417.026103,-9696.697840,-1258.350101,2068.457845
3417.026441,-8882.471304,444.123565,4443.353888
3417.026778,-7994.224174,2294.638420,2681.334243
3417.027115,-9696.697840,3108.864956,612.876398
3417.027453,-9474.636058,2146.597232,-919.314598
3417.027790,-9326.594869,222.061783,842.705048
3417.028127,-10066.800811,2442.679609,1915.238745
3417.028465,-10436.903782,3478.967927,766.095498
3417.028802,-10436.903782,3256.906145,-459.657299
3417.029139,-8068.244768,1702.473667,-995.924147
3417.029477,-8068.244768,148.041188,1608.800546
3417.029814,-8438.347739,1480.411884,1455.581446
3417.030151,-9474.636058,1850.514855,-306.438199
3417.030489,-11029.068536,1406.391290,-1991.848295
3417.030826,-10436.903782,-888.247130,-2911.162892
3417.031164,-9252.574275,-2368.659014,-459.657299
3417.031501,-9030.512492,-1036.288319,2374.896044
3417.031838,-8512.368333,222.061783,1762.019645
3417.032175,-12435.459826,-222.061783,-1072.533697
3417.032513,-11251.130318,-962.267725,-1991.848295
3417.032850,-10066.800811,-3330.926739,1149.143247
3417.033187,-10658.965565,-2812.782580,4443.353888
3417.033524,-9844.739029,-666.185348,2757.943793
3417.033862,-12435.459826,-296.082377,1915.238745
3417.034199,-10584.944971,-1036.288319,-459.657299
3417.034536,-9474.636058,-3330.926739,1532.190996
3417.034873,-10807.006753,-1850.514855,4443.353888
3417.035211,-9992.780217,-444.123565,2681.334243
3417.035548,-12287.418637,370.102971,306.438199
3417.035885,-10807.006753,370.102971,-1532.190996
3417.036223,-8660.409521,-1924.535449,-919.314598
3417.036560,-9326.594869,-370.102971,842.705048
3417.036897,-8660.409521,0.000000,-383.047749
3417.037234,-10658.965565,148.041188,-1302.362347
3417.037572,-11695.253884,370.102971,-1915.238745
3417.037909,-9474.636058,-1554.432478,-1225.752797
3417.038246,-9104.533087,0.000000,536.266849
3417.038583,-7920.203579,814.226536,-612.876398
3417.038921,-10732.986159,1110.308913,-689.485948
3417.039258,-11177.109724,1480.411884,-1302.362347
3417.039595,-8290.306550,-814.226536,-689.485948
3417.039932,-9030.512492,1332.370696,1608.800546
3417.040270,-8734.430116,1480.411884,153.219100
3417.040607,-11991.336260,2664.741391,-383.047749
3417.040944,-10955.047942,2368.659014,-2451.505594
3417.041281,-7698.141797,1036.288319,-766.095498
3417.041619,-9770.718434,1258.350101,3600.648841
3417.041956,-10066.800811,1184.329507,2451.505594
3417.042293,-11843.295072,2664.741391,153.219100
3417.042630,-11251.130318,1554.432478,-1608.800546
3417.042968,-8734.430116,-592.164754,76.609550
3417.043305,-10140.821405,-1258.350101,2298.286494
3417.043642,-9104.533087,222.061783,1302.362347
3417.043979,-9918.759623,888.247130,-1991.848295
3417.044317,-10066.800811,1332.370696,-4979.620737
3417.044654,-8808.450710,-2294.638420,-4443.353888
3417.044991,-10658.965565,-3552.988522,-1608.800546
3417.045328,-7328.038826,-3552.988522,-766.095498
3417.045666,-9844.739029,-3404.947333,2451.505594
3417.046003,-11399.171507,-2368.659014,2451.505594
3417.046340,-9252.574275,-3701.029710,1915.238745
3417.046677,-10732.986159,-3330.926739,4443.353888
3417.047015,-11177.109724,-2886.803174,3524.039291
3417.047352,-11917.315666,-1850.514855,2834.553343
3417.047689,-11991.336260,-296.082377,1915.238745
3417.048026,-8882.471304,-2368.659014,612.876398
3417.048364,-9030.512492,-888.247130,2604.724693
3417.048701,-9770.718434,-148.041188,2834.553343
3417.049038,-9696.697840,1480.411884,2068.457845
3417.049375,-11991.336260,2590.720797,459.657299
3417.049713,-10658.965565,666.185348,-1072.533697
3417.050050,-10584.944971,0.000000,2298.286494
3417.050387,-9844.739029,1332.370696,2451.505594
3417.050724,-9030.512492,2146.597232,1455.581446
3417.051062,-10288.862594,3552.988522,-153.219100
3417.051399,-9844.739029,1184.329507,-1685.410096
3417.051736,-9622.677246,-518.144159,-689.485948
3417.052073,-9474.636058,0.000000,0.000000
3417.052411,-9178.553681,518.144159,0.000000
3417.052748,-11103.089130,74.020594,76.609550
3417.053085,-8364.327145,444.123565,-1762.019645
3417.053422,-7550.100608,222.061783,-1762.019645
3417.053760,-9622.677246,370.102971,-306.438199
3417.054097,-10732.986159,148.041188,-1608.800546
3417.054434,-11695.253884,1332.370696,-842.705048
3417.054771,-9844.739029,0.000000,-612.876398
3417.055109,-8364.327145,-370.102971,1225.752797
3417.055446,-9770.718434,-296.082377,1072.533697
3417.055783,-8882.471304,-296.082377,306.438199
3417.056120,-10140.821405,-296.082377,-1072.533697
3417.056458,-10214.842000,-370.102971,-612.876398
3417.056795,-10362.883188,-1554.432478,1608.800546
3417.057132,-11251.130318,-74.020594,919.314598
3417.057469,-11547.212695,-740.205942,-536.266849
3417.057807,-10955.047942,296.082377,-2681.334243
3417.058144,-8586.388927,-1628.453072,-1838.629195
3417.058481,-8734.430116,-3256.906145,919.314598
3417.058818,-9030.512492,-1998.556043,536.266849
3417.059156,-9844.739029,-1332.370696,-153.219100
3417.059493,-13323.706956,-296.082377,-383.047749
3417.059830,-12139.377449,-1406.391290,-2145.067394
3417.060167,-9770.718434,-2368.659014,383.047749
3417.060505,-9918.759623,-2146.597232,3217.601092
3417.060842,-8660.409521,-1110.308913,2221.676944
3417.061179,-9992.780217,148.041188,1302.362347
3417.061517,-9696.697840,-296.082377,536.266849
3417.061854,-10510.924376,-592.164754,1991.848295
3417.062191,-11399.171507,74.020594,2298.286494
3417.062528,-9548.656652,1480.411884,2757.943793
3417.062866,-10732.986159,2368.659014,2528.115143
3417.063203,-10584.944971,2368.659014,0.000000
3417.063540,-8808.450710,1110.308913,-306.438199
3417.063877,-8660.409521,1850.514855,1378.971896
3417.064215,-9178.553681,1776.494261,1149.143247
3417.064552,-11251.130318,2368.659014,-153.219100
3417.064889,-11251.130318,1332.370696,-2145.067394
3417.065226,-9104.533087,-444.123565,-842.705048
3417.065564,-7994.224174,-148.041188,995.924147
3417.065901,-7476.080014,444.123565,459.657299
3417.066238,-11325.150913,148.041188,536.266849
3417.066575,-11917.315666,-222.061783,-1915.238745
3417.066913,-9474.636058,-2146.597232,-842.705048
3417.067250,-8956.491898,-1554.432478,1991.848295
3417.067587,-9030.512492,-1924.535449,1991.848295
3417.067924,-10214.842000,-1184.329507,383.047749
3417.068262,-9622.677246,-1776.494261,-1378.971896
3417.068599,-9548.656652,-3182.885551,229.828649
3417.068936,-10955.047942,-740.205942,3217.601092
3417.069273,-12065.356855,296.082377,2681.334243
3417.069611,-12509.480420,888.247130,-612.876398
3417.069948,-10436.903782,-370.102971,-1915.238745
3417.070285,-9992.780217,-1480.411884,842.705048
3417.070622,-10140.821405,-1406.391290,1838.629195
3417.070960,-9104.533087,-1480.411884,689.485948
3417.071297,-10510.924376,-666.185348,536.266849
3417.071634,-10288.862594,1036.288319,-995.924147
3417.071971,-10288.862594,-370.102971,-383.047749
3417.072309,-10955.047942,666.185348,-536.266849
3417.072646,-8660.409521,-740.205942,-2374.896044
3417.072983,-10584.944971,0.000000,-1072.533697
3417.073320,-11029.068536,-296.082377,-1378.971896
3417.073658,-8586.388927,-740.205942,-612.876398
3417.073995,-8956.491898,-740.205942,766.095498
3417.074332,-7994.224174,-370.102971,-1302.362347
3417.074669,-8808.450710,0.000000,306.438199
3417.075007,-9918.759623,518.144159,306.438199
3417.075344,-10436.903782,-1332.370696,1915.238745
3417.075681,-11843.295072,666.185348,2604.724693
3417.076018,-10510.924376,2294.638420,1149.143247
3417.076356,-11177.109724,1702.473667,766.095498
3417.076693,-10510.924376,1850.514855,-842.705048
3417.077030,-8068.244768,-518.144159,-153.219100
3417.077367,-9178.553681,-444.123565,2145.067394
3417.077705,-9622.677246,962.267725,1532.190996
3417.078042,-10881.027347,592.164754,0.000000
3417.078379,-11843.295072,1702.473667,-2068.457845
3417.078716,-9030.512492,222.061783,-1072.533697
3417.079054,-9548.656652,0.000000,1532.190996
3417.079391,-8956.491898,74.020594,1149.143247
3417.079728,-9770.718434,-370.102971,229.828649
3417.080065,-11325.150913,-1332.370696,0.000000
3417.080403,-10436.903782,-2664.741391,-306.438199
3417.080740,-10732.986159,-2368.659014,995.924147
3417.081077,-9178.553681,-962.267725,0.000000
3417.081414,-8290.306550,-1110.308913,-1915.238745
3417.081752,-9474.636058,-370.102971,-2451.505594
3417.082089,-8364.327145,-3330.926739,-1838.629195
3417.082426,-10140.821405,-2886.803174,1762.019645
3417.082763,-10955.047942,-1332.370696,3677.258390
3417.083101,-11325.150913,0.000000,3677.258390
3417.083438,-11103.089130,1184.329507,1532.190996
3417.083775,-9770.718434,0.000000,2145.067394
3417.084112,-11917.315666,-592.164754,3830.477490
3417.084450,-9770.718434,814.226536,2145.067394
3417.084787,-10362.883188,148.041188,1302.362347
3417.085124,-11843.295072,1554.432478,689.485948
3417.085461,-10140.821405,222.061783,-536.266849
3417.085799,-9770.718434,148.041188,612.876398
3417.086136,-8216.285956,1110.308913,-1685.410096
3417.086473,-7328.038826,1776.494261,-1532.190996
3417.086811,-10362.883188,2368.659014,-2145.067394
3417.087148,-10214.842000,-814.226536,-2604.724693
3417.087485,-10362.883188,-1332.370696,-919.314598
3417.087822,-9844.739029,-370.102971,0.000000
3417.088160,-9178.553681,-1258.350101,766.095498
3417.088497,-10140.821405,-1110.308913,1302.362347
3417.088834,-8290.306550,-1554.432478,229.828649
3417.089171,-9252.574275,-1998.556043,1378.971896
3417.089509,-10510.924376,-222.061783,842.705048
3417.089846,-10140.821405,-666.185348,-919.314598
3417.090183,-11399.171507,-518.144159,-2298.286494
3417.090520,-9326.594869,-518.144159,-1532.190996
3417.090858,-9104.533087,-444.123565,1149.143247
3417.091195,-10362.883188,962.267725,1915.238745
3417.091532,-10140.821405,1332.370696,153.219100
3417.091869,-11547.212695,814.226536,-1608.800546
3417.092207,-11177.109724,-444.123565,-1378.971896
3417.092544,-9548.656652,-1850.514855,0.000000
3417.092881,-9770.718434,-888.247130,612.876398
3417.093218,-8808.450710,-296.082377,-1225.752797
3417.093556,-9770.718434,0.000000,-2451.505594
3417.093893,-9770.718434,-962.267725,-1991.848295
3417.094230,-9474.636058,-1702.473667,842.705048
3417.094567,-11177.109724,-1258.350101,1455.581446
3417.094905,-11251.130318,-592.164754,383.047749
3417.095242,-10881.027347,-1036.288319,-612.876398
3417.095579,-9696.697840,-1998.556043,0.000000
3417.095916,-8364.327145,-3256.906145,2911.162892
3417.096254,-9326.594869,-296.082377,3370.820191
3417.096591,-11325.150913,370.102971,2298.286494
3417.096928,-11843.295072,740.205942,-229.828649
3417.097265,-10214.842000,370.102971,0.000000
3417.097603,-10732.986159,-666.185348,2757.943793
3417.097940,-9326.594869,740.205942,2374.896044
3417.098277,-8438.347739,962.267725,1762.019645
3417.098614,-9918.759623,814.226536,1762.019645
3417.098952,-9770.718434,740.205942,1455.581446
3417.099289,-10066.800811,1332.370696,2068.457845
3417.099626,-10732.986159,1480.411884,2604.724693
3417.099963,-11325.150913,1258.350101,689.485948
3417.100301,-11325.150913,592.164754,-2145.067394
3417.100638,-8660.409521,0.000000,-1991.848295
3417.100975,-7994.224174,-1776.494261,842.705048
3417.101312,-7920.203579,-666.185348,459.657299
3417.101650,-8438.347739,592.164754,-2374.896044
3417.101987,-11547.212695,-666.185348,-3217.601092
3417.102324,-10510.924376,-2146.597232,-1915.238745
3417.102661,-9770.718434,-3182.885551,536.266849
3417.102999,-10510.924376,-1480.411884,3064.381992
3417.103336,-9696.697840,-296.082377,1608.800546
3417.103673,-11029.068536,-592.164754,-229.828649
3417.104010,-10881.027347,-1776.494261,-842.705048
3417.104348,-8734.430116,-2442.679609,995.924147
3417.104685,-10807.006753,-888.247130,3370.820191
3417.105022,-10288.862594,-1258.350101,612.876398
3417.105359,-10955.047942,-814.226536,-2068.457845
3417.105697,-10584.944971,962.267725,-1532.190996
3417.106034,-9104.533087,518.144159,0.000000
3417.106371,-10140.821405,1480.411884,76.609550
3417.106708,-10807.006753,666.185348,-2068.457845
3417.107046,-11251.130318,-74.020594,-2911.162892
3417.107383,-9844.739029,-888.247130,-1685.410096
3417.107720,-8438.347739,-2220.617826,1149.143247
3417.108057,-9474.636058,0.000000,1532.190996
3417.108395,-9474.636058,1332.370696,-1532.190996
3417.108732,-10658.965565,296.082377,-2145.067394
3417.109069,-10658.965565,-666.185348,-2834.553343
3417.109406,-9400.615463,-2738.761985,-306.438199
3417.109744,-10214.842000,-1110.308913,1685.410096
3417.110081,-9622.677246,518.144159,76.609550
3417.110418,-9918.759623,1406.391290,-612.876398
3417.110755,-9548.656652,222.061783,-995.924147
3417.111093,-8882.471304,-1184.329507,2298.286494
3417.111430,-10732.986159,-666.185348,5056.230287
3417.111767,-11325.150913,1110.308913,3447.429741
3417.112105,-12065.356855,592.164754,1685.410096
3417.112442,-10881.027347,518.144159,76.609550
3417.112779,-8586.388927,-2294.638420,1838.629195
3417.113116,-8956.491898,-666.185348,3677.258390
3417.113454,-8734.430116,1628.453072,1302.362347
3417.113791,-9770.718434,666.185348,-459.657299
3417.114128,-10881.027347,296.082377,-2451.505594
3417.114465,-9104.533087,-1110.308913,-2451.505594
3417.114803,-10436.903782,-1036.288319,1149.143247
3417.115140,-9178.553681,-148.041188,536.266849
3417.115477,-9770.718434,-962.267725,0.000000
3417.115814,-10955.047942,-1036.288319,612.876398
3417.116152,-9844.739029,-3108.864956,689.485948
3417.116489,-10510.924376,-3256.906145,3524.039291
3417.116826,-11103.089130,-1628.453072,1378.971896
3417.117163,-11399.171507,-148.041188,-306.438199
3417.117501,-11325.150913,296.082377,-1225.752797
3417.117838,-8512.368333,-1998.556043,-1378.971896
3417.118175,-8364.327145,-814.226536,1072.533697
3417.118512,-8290.306550,962.267725,306.438199
3417.118850,-10955.047942,1332.370696,-306.438199
3417.119187,-13249.686362,444.123565,-1378.971896
3417.119524,-9918.759623,-444.123565,76.609550
3417.119861,-8956.491898,222.061783,3294.210641
3417.120199,-9400.615463,1924.535449,3677.258390
3417.120536,-10881.027347,2368.659014,766.095498
3417.120873,-12805.562797,592.164754,-2298.286494
3417.121210,-8660.409521,-814.226536,-2221.676944
3417.121548,-8438.347739,-370.102971,2298.286494
3417.121885,-11029.068536,740.205942,2068.457845
3417.122222,-10807.006753,962.267725,-3370.820191
3417.122559,-9474.636058,0.000000,-4673.182538
3417.122897,-7402.059420,-1258.350101,-2681.334243
3417.123234,-6883.915261,-2368.659014,612.876398
3417.123571,-9992.780217,0.000000,1149.143247
3417.123908,-11103.089130,-444.123565,-1378.971896
3417.124246,-12583.501014,0.000000,-2528.115143
3417.124583,-10288.862594,-2072.576638,-612.876398
3417.124920,-8660.409521,-2664.741391,3524.039291
3417.125257,-9252.574275,-1184.329507,5822.325785
3417.125595,-12139.377449,74.020594,3294.210641
3417.125932,-12657.521608,1332.370696,-612.876398
3417.126269,-11103.089130,74.020594,-1608.800546
3417.126606,-10955.047942,-1776.494261,919.314598
3417.126944,-9548.656652,222.061783,689.485948
3417.127281,-9030.512492,1406.391290,-766.095498
3417.127618,-10658.965565,1628.453072,-1838.629195
3417.127955,-9178.553681,148.041188,-2374.896044
3417.128293,-10955.047942,-814.226536,536.266849
3417.128630,-10584.944971,-592.164754,842.705048
3417.128967,-9770.718434,222.061783,612.876398
3417.129304,-10881.027347,444.123565,-995.924147
3417.129642,-8734.430116,-1776.494261,-3064.381992
3417.129979,-7550.100608,-3404.947333,0.000000
3417.130316,-8660.409521,-1702.473667,1532.190996
3417.130653,-8808.450710,-592.164754,766.095498
3417.130991,-11547.212695,0.000000,-842.705048
3417.131328,-11103.089130,-962.267725,-689.485948
3417.131665,-8956.491898,-1110.308913,766.095498
3417.132002,-10436.903782,0.000000,3524.039291
3417.132340,-10362.883188,1406.391290,1685.410096
3417.132677,-10510.924376,1628.453072,-383.047749
3417.133014,-9992.780217,888.247130,383.047749
3417.133351,-9252.574275,-592.164754,2911.162892
3417.133688,-10362.883188,296.082377,4979.620737
3417.134025,-10955.047942,1480.411884,1991.848295
3417.134362,-11029.068536,2072.576638,-1072.533697
3417.134700,-10584.944971,888.247130,-1608.800546
3417.135037,-9104.533087,-370.102971,536.266849
3417.135374,-8956.491898,-740.205942,3064.381992
3417.135711,-9400.615463,-592.164754,1991.848295
3417.136049,-10955.047942,666.185348,-1225.752797
3417.136386,-10510.924376,-444.123565,-2068.457845
3417.136723,-8956.491898,-3256.906145,0.000000
3417.137060,-8216.285956,-3108.864956,1838.629195
3417.137398,-9474.636058,-1850.514855,1762.019645
3417.137735,-10732.986159,0.000000,-153.219100
3417.138072,-10584.944971,-2442.679609,-2528.115143
3417.138409,-10066.800811,-3775.050304,0.000000
3417.138747,-9252.574275,-2590.720797,995.924147
3417.139084,-8956.491898,-1332.370696,1225.752797
3417.139421,-10658.965565,-296.082377,0.000000
3417.139758,-10436.903782,-962.267725,-2221.676944
3417.140095,-9992.780217,-1702.473667,-306.438199
3417.140433,-9622.677246,-962.267725,1762.019645
3417.140770,-8882.471304,0.000000,2451.505594
3417.141107,-12139.377449,518.144159,1072.533697
3417.141444,-12509.480420,1036.288319,-2145.067394
3417.141782,-10214.842000,444.123565,-1378.971896
3417.142119,-9992.780217,444.123565,1455.581446
3417.142456,-9252.574275,2812.782580,766.095498
3417.142793,-11843.295072,2886.803174,-2221.676944
3417.143131,-12361.439231,2146.597232,-3830.477490
3417.143468,-9696.697840,-1110.308913,-3907.087040
3417.143805,-8734.430116,-222.061783,-995.924147
3417.144142,-8364.327145,-814.226536,842.705048
3417.144479,-10658.965565,-444.123565,153.219100
3417.144817,-9992.780217,148.041188,-766.095498
3417.145154,-8216.285956,0.000000,-689.485948
3417.145491,-10362.883188,-888.247130,2987.772442
3417.145828,-9622.677246,0.000000,1915.238745
3417.146166,-11251.130318,1036.288319,-383.047749
3417.146503,-10807.006753,1554.432478,-995.924147
3417.146840,-8660.409521,-1554.432478,536.266849
3417.147177,-7402.059420,-1036.288319,2757.943793
3417.147515,-6957.935855,0.000000,2221.676944
3417.147852,-9622.677246,222.061783,2451.505594
3417.148189,-12583.501014,592.164754,459.657299
3417.148526,-11621.233289,-814.226536,0.000000
3417.148864,-11177.109724,0.000000,1762.019645
3417.149201,-10140.821405,-888.247130,2451.505594
3417.149538,-9622.677246,444.123565,919.314598
3417.149875,-9178.553681,1110.308913,-842.705048
3417.150212,-9474.636058,148.041188,0.000000
3417.150550,-10807.006753,-1258.350101,153.219100
3417.150887,-11695.253884,-1480.411884,-612.876398
3417.151224,-11695.253884,-1184.329507,-76.609550
3417.151561,-11843.295072,-814.226536,-536.266849
3417.151899,-8660.409521,-1480.411884,-383.047749
3417.152236,-8364.327145,-2516.700203,1225.752797
3417.152573,-9548.656652,-1406.391290,2451.505594
3417.152910,-10955.047942,-1406.391290,1838.629195
3417.153248,-12139.377449,-222.061783,766.095498
3417.153585,-10881.027347,-1554.432478,1532.190996
3417.153922,-10955.047942,-1480.411884,3677.258390
3417.154259,-8364.327145,444.123565,3140.991542
3417.154597,-9326.594869,1850.514855,1685.410096
3417.154934,-10732.986159,2368.659014,-766.095498
3417.155271,-9474.636058,592.164754,-2681.334243
3417.155608,-9474.636058,222.061783,-919.314598
3417.155945,-8956.491898,518.144159,-229.828649
3417.156283,-9992.780217,666.185348,-1302.362347
3417.156620,-10436.903782,2368.659014,-2528.115143
3417.156957,-8216.285956,888.247130,-2374.896044
3417.157294,-8438.347739,-370.102971,76.609550
3417.157632,-8586.388927,296.082377,1225.752797
3417.157969,-10732.986159,-1332.370696,1072.533697
3417.158306,-12953.603985,0.000000,-1225.752797
3417.158643,-9844.739029,-1628.453072,-2911.162892
3417.158981,-9474.636058,-1702.473667,-76.609550
3417.159318,-9030.512492,-1184.329507,-306.438199
3417.159655,-8660.409521,-888.247130,0.000000
3417.159992,-10066.800811,0.000000,-995.924147
3417.160329,-10140.821405,-1258.350101,-536.266849
3417.160667,-12509.480420,-1406.391290,1455.581446
3417.161004,-12583.501014,-888.247130,1072.533697
3417.161341,-9474.636058,370.102971,306.438199
3417.161678,-10214.842000,962.267725,0.000000
3417.162016,-9104.533087,-814.226536,919.314598
3417.162353,-9252.574275,-2072.576638,2451.505594
3417.162690,-10510.924376,-1184.329507,3217.601092
3417.163027,-10881.027347,148.041188,1225.752797
3417.163365,-12879.583391,-296.082377,-2298.286494
3417.163702,-9696.697840,-1258.350101,-2911.162892
3417.164039,-6957.935855,-1998.556043,-919.314598
3417.164376,-6069.688724,592.164754,-306.438199
3417.164714,-7846.182985,148.041188,-536.266849
3417.165051,-11473.192101,518.144159,-689.485948
3417.165388,-11399.171507,-2220.617826,-766.095498
3417.165725,-10881.027347,-2664.741391,1915.238745
3417.166062,-9696.697840,148.041188,3370.820191
3417.166400,-9474.636058,148.041188,2145.067394
3417.166737,-10510.924376,444.123565,536.266849
3417.167074,-9918.759623,-962.267725,-1072.533697
3417.167411,-9400.615463,-1110.308913,1838.629195
3417.167749,-9622.677246,592.164754,2911.162892
3417.168086,-10732.986159,814.226536,1991.848295
3417.168423,-12583.501014,3182.885551,919.314598
3417.168760,-10955.047942,2590.720797,76.609550
3417.169098,-9844.739029,1850.514855,1915.238745
3417.169435,-10214.842000,2368.659014,2374.896044
3417.169772,-9918.759623,1776.494261,2068.457845
3417.170109,-10510.924376,2220.617826,-383.047749
3417.170447,-9548.656652,1776.494261,-1532.190996
3417.170784,-10288.862594,-962.267725,459.657299
3417.171121,-9548.656652,-1406.391290,0.000000
3417.171458,-8438.347739,-888.247130,-995.924147
3417.171795,-8734.430116,0.000000,-1302.362347
3417.172133,-7846.182985,-1924.535449,-1378.971896
3417.172470,-8512.368333,-2516.700203,-612.876398
3417.172807,-10732.986159,-1776.494261,383.047749
3417.173144,-10214.842000,-1554.432478,536.266849
3417.173482,-10955.047942,-1924.535449,-383.047749
3417.173819,-9548.656652,-2664.741391,-383.047749
3417.174156,-8512.368333,-3627.009116,1149.143247
3417.174493,-9696.697840,-1998.556043,1991.848295
3417.174831,-10584.944971,-814.226536,919.314598
3417.175168,-12509.480420,1036.288319,-842.705048
3417.175505,-11843.295072,740.205942,-2911.162892
3417.175842,-10584.944971,-962.267725,-1915.238745
3417.176179,-10140.821405,0.000000,153.219100
3417.176517,-9696.697840,-296.082377,1532.190996
3417.176854,-11103.089130,888.247130,766.095498
3417.177191,-10214.842000,1332.370696,-612.876398
3417.177528,-11177.109724,-444.123565,766.095498
3417.177866,-10807.006753,0.000000,459.657299
3417.178203,-9474.636058,222.061783,-689.485948
3417.178540,-9622.677246,962.267725,-919.314598
3417.178877,-9178.553681,666.185348,-1915.238745
3417.179215,-9548.656652,-370.102971,-1302.362347
3417.179552,-9252.574275,-296.082377,-842.705048
3417.179889,-8660.409521,592.164754,842.705048
3417.180226,-11621.233289,74.020594,536.266849
3417.180564,-10288.862594,-518.144159,-1225.752797
3417.180901,-7105.977043,-1702.473667,-306.438199
3417.181238,-7550.100608,-1554.432478,3064.381992
3417.181575,-8512.368333,-814.226536,3677.258390
3417.181912,-9992.780217,962.267725,1991.848295
3417.182250,-10807.006753,1184.329507,766.095498
3417.182587,-10955.047942,444.123565,1532.190996
3417.182924,-11177.109724,1110.308913,1685.410096
3417.183261,-10214.842000,1628.453072,1455.581446
3417.183599,-10658.965565,666.185348,766.095498
3417.183936,-9474.636058,370.102971,459.657299
3417.184273,-8586.388927,-592.164754,459.657299
3417.184610,-10510.924376,-1480.411884,2374.896044
3417.184948,-10881.027347,-370.102971,1608.800546
3417.185285,-11177.109724,888.247130,0.000000
3417.185622,-11769.274478,888.247130,-1685.410096
3417.185959,-10140.821405,-1332.370696,-1915.238745
3417.186296,-9474.636058,-1480.411884,-306.438199
3417.186634,-9326.594869,-1554.432478,383.047749
3417.186971,-10881.027347,-2294.638420,459.657299
3417.187308,-10510.924376,-1480.411884,459.657299
3417.187645,-9474.636058,-3627.009116,1532.190996
3417.187983,-9474.636058,-3108.864956,1991.848295
3417.188320,-9474.636058,-1776.494261,1838.629195
3417.188657,-10288.862594,-592.164754,766.095498
3417.188994,-10214.842000,-518.144159,-1225.752797
3417.189332,-9992.780217,-962.267725,-229.828649
3417.189669,-9844.739029,-444.123565,1762.019645
3417.190006,-9252.574275,0.000000,2068.457845
3417.190343,-10066.800811,1406.391290,2374.896044
3417.190681,-11991.336260,1184.329507,1378.971896
3417.191018,-10362.883188,888.247130,-306.438199
3417.191355,-10140.821405,0.000000,1302.362347
3417.191692,-10288.862594,1702.473667,1378.971896
3417.192029,-10436.903782,1480.411884,-1302.362347
3417.192367,-9992.780217,2072.576638,-3907.087040
3417.192704,-8438.347739,518.144159,-3217.601092
3417.193041,-9178.553681,222.061783,-1455.581446
3417.193378,-9400.615463,1406.391290,-1991.848295
3417.193716,-9992.780217,1184.329507,-1685.410096
3417.194053,-12213.398043,518.144159,-1149.143247
3417.194390,-9696.697840,-740.205942,-1838.629195
3417.194727,-9400.615463,-2664.741391,1838.629195
3417.195065,-9030.512492,-296.082377,2987.772442
3417.195402,-10658.965565,-1628.453072,2221.676944
3417.195739,-11251.130318,-518.144159,0.000000
3417.196076,-8364.327145,-592.164754,-842.705048
3417.196414,-9696.697840,-2220.617826,2221.676944
3417.196751,-10214.842000,444.123565,2374.896044
3417.197088,-9696.697840,0.000000,0.000000
3417.197425,-12065.356855,74.020594,-536.266849
3417.197762,-9326.594869,-592.164754,-1072.533697
3417.198100,-9992.780217,-1850.514855,2298.286494
3417.198437,-10140.821405,0.000000,2987.772442
3417.198774,-9030.512492,-222.061783,459.657299
3417.199111,-11103.089130,0.000000,76.609550
3417.199449,-11251.130318,-2146.597232,-842.705048
3417.199786,-9548.656652,-2590.720797,0.000000
3417.200123,-9844.739029,-1332.370696,689.485948
3417.200460,-8882.471304,-296.082377,-459.657299
3417.200798,-11177.109724,-592.164754,-2145.067394
3417.201135,-9030.512492,-962.267725,-1685.410096
3417.201472,-8956.491898,-2294.638420,842.705048
3417.201809,-10584.944971,-962.267725,2145.067394
3417.202146,-10732.986159,444.123565,1072.533697
3417.202484,-11769.274478,666.185348,995.924147
3417.202821,-10066.800811,-740.205942,0.000000
3417.203158,-8808.450710,-2072.576638,3294.210641
3417.203495,-10066.800811,0.000000,4903.011187
3417.203833,-9918.759623,1406.391290,4290.134789
3417.204170,-10807.006753,2738.761985,1378.971896
3417.204507,-10362.883188,2442.679609,-766.095498
3417.204844,-9622.677246,1184.329507,0.000000
3417.205182,-9400.615463,814.226536,1608.800546
3417.205519,-9252.574275,814.226536,459.657299
3417.205856,-8734.430116,1554.432478,-842.705048
3417.206193,-9178.553681,1184.329507,-2221.676944
3417.206531,-8808.450710,-1850.514855,-919.314598
3417.206868,-8956.491898,-814.226536,766.095498
3417.207205,-9548.656652,-222.061783,919.314598
3417.207542,-12435.459826,0.000000,-383.047749
3417.207879,-10214.842000,-1406.391290,-2451.505594
3417.208217,-9326.594869,-3108.864956,0.000000
3417.208554,-9400.615463,-1036.288319,1302.362347
3417.208891,-9770.718434,0.000000,-383.047749
3417.209228,-11695.253884,814.226536,-1838.629195
3417.209566,-11695.253884,-666.185348,-3600.648841
3417.209903,-10955.047942,-2516.700203,-1149.143247
3417.210240,-10140.821405,-2442.679609,1378.971896
3417.210577,-8438.347739,-592.164754,2451.505594
3417.210915,-11769.274478,296.082377,1302.362347
3417.211252,-11843.295072,-518.144159,-995.924147
3417.211589,-10214.842000,-1406.391290,-612.876398
3417.211926,-9696.697840,-740.205942,2451.505594
3417.212264,-10140.821405,592.164754,1608.800546
3417.212601,-11917.315666,1480.411884,-1608.800546
3417.212938,-10881.027347,1258.350101,-3064.381992
3417.213275,-7624.121203,-740.205942,-2528.115143
3417.213612,-7179.997637,-1184.329507,689.485948
3417.213950,-8586.388927,-444.123565,2528.115143
3417.214287,-11251.130318,0.000000,0.000000
3417.214624,-10881.027347,-1258.350101,-3217.601092
3417.214961,-6809.894666,-1850.514855,-919.314598
3417.215299,-8364.327145,-2442.679609,3524.039291
3417.215636,-9770.718434,-740.205942,2757.943793
3417.215973,-10436.903782,1258.350101,306.438199
3417.216310,-11917.315666,2442.679609,612.876398
3417.216648,-11029.068536,518.144159,919.314598
3417.216985,-9992.780217,74.020594,2757.943793
3417.217322,-11029.068536,962.267725,2911.162892
3417.217659,-11103.089130,1258.350101,842.705048
3417.217996,-10214.842000,962.267725,689.485948
3417.218334,-9252.574275,444.123565,2145.067394
3417.218671,-9474.636058,222.061783,3370.820191
3417.219008,-11251.130318,1702.473667,2451.505594
3417.219345,-12509.480420,2812.782580,0.000000
3417.219683,-11473.192101,1110.308913,-1685.410096
3417.220020,-9030.512492,-962.267725,0.000000
3417.220357,-8068.244768,-1406.391290,1685.410096
3417.220694,-8586.388927,-888.247130,2298.286494
3417.221032,-10510.924376,296.082377,766.095498
3417.221369,-11103.089130,-444.123565,-1991.848295
3417.221706,-9844.739029,-1628.453072,-2528.115143
3417.222043,-8956.491898,-3849.070898,-229.828649
3417.222381,-9104.533087,-2442.679609,612.876398
3417.222718,-9400.615463,-1924.535449,76.609550
3417.223055,-11103.089130,-1406.391290,-612.876398
3417.223392,-9400.615463,-2738.761985,-1915.238745
3417.223729,-9030.512492,-2664.741391,1532.190996
3417.224067,-9474.636058,-1702.473667,3140.991542
3417.224404,-10807.006753,-518.144159,2681.334243
3417.224741,-12509.480420,-296.082377,153.219100
3417.225078,-10955.047942,370.102971,-1302.362347
3417.225416,-10214.842000,-444.123565,766.095498
3417.225753,-9992.780217,666.185348,1455.581446
3417.226090,-11029.068536,1554.432478,-306.438199
3417.226427,-10510.924376,2220.617826,-2145.067394
3417.226765,-9400.615463,0.000000,-2681.334243
3417.227102,-9326.594869,-666.185348,229.828649
3417.227439,-9844.739029,666.185348,459.657299
3417.227776,-10658.965565,1776.494261,-459.657299
3417.228113,-11769.274478,518.144159,-1762.019645
3417.228451,-9252.574275,-222.061783,-1455.581446
3417.228788,-8364.327145,-592.164754,0.000000
3417.229125,-8512.368333,-888.247130,1762.019645
3417.229462,-10362.883188,-592.164754,1685.410096
3417.229800,-11473.192101,0.000000,-1302.362347
3417.230137,-9696.697840,-888.247130,-2451.505594
3417.230474,-7476.080014,-1406.391290,76.609550
3417.230811,-8290.306550,-1258.350101,1378.971896
3417.231149,-10214.842000,-444.123565,153.219100
3417.231486,-10436.903782,740.205942,-536.266849
3417.231823,-9622.677246,0.000000,842.705048
3417.232160,-9844.739029,-1702.473667,2911.162892
3417.232498,-9696.697840,0.000000,4596.572988
3417.232835,-10510.924376,962.267725,2221.676944
3417.233172,-12139.377449,1406.391290,0.000000
3417.233509,-10362.883188,-592.164754,-1378.971896
3417.233846,-8808.450710,-1258.350101,612.876398
3417.234184,-9030.512492,-592.164754,2145.067394
3417.234521,-9474.636058,148.041188,1302.362347
3417.234858,-12731.542202,666.185348,-1225.752797
3417.235196,-11029.068536,-740.205942,-3294.210641
3417.235533,-9400.615463,-2368.659014,-919.314598
3417.235871,-8290.306550,-1036.288319,2681.334243
3417.236208,-9252.574275,-962.267725,2987.772442
3417.236545,-12435.459826,-370.102971,229.828649
3417.236883,-10807.006753,-444.123565,-1532.190996
3417.237220,-10140.821405,-1702.473667,919.314598
3417.237557,-10066.800811,-1480.411884,2451.505594
3417.237895,-9770.718434,-1036.288319,1302.362347
3417.238232,-10658.965565,296.082377,0.000000
3417.238569,-9252.574275,0.000000,-459.657299
3417.238907,-9030.512492,-370.102971,1072.533697
3417.239244,-9992.780217,296.082377,2757.943793
3417.239581,-10140.821405,888.247130,1915.238745
3417.239919,-11103.089130,2146.597232,766.095498
3417.240256,-10955.047942,1332.370696,-153.219100
3417.240594,-10584.944971,74.020594,1455.581446
3417.240931,-9548.656652,592.164754,2145.067394
3417.241268,-8660.409521,1406.391290,153.219100
3417.241606,-11029.068536,592.164754,-1225.752797
3417.241943,-10140.821405,0.000000,-1991.848295
3417.242280,-8438.347739,-518.144159,-1378.971896
3417.242618,-9400.615463,-296.082377,-842.705048
3417.242955,-9622.677246,74.020594,-2145.067394
3417.243292,-11547.212695,-370.102971,-3600.648841
3417.243630,-10584.944971,-296.082377,-1915.238745
3417.243967,-8734.430116,-1850.514855,0.000000
3417.244305,-9696.697840,-888.247130,2298.286494
3417.244642,-10066.800811,-1554.432478,1302.362347
3417.244979,-12805.562797,-1406.391290,1072.533697
3417.245317,-11325.150913,-1702.473667,306.438199
3417.245654,-10732.986159,-2590.720797,919.314598
3417.245991,-10140.821405,-1184.329507,1838.629195
3417.246329,-9104.533087,-1036.288319,536.266849
3417.246666,-10362.883188,-666.185348,383.047749
3417.247003,-9252.574275,-592.164754,-1991.848295
3417.247341,-8438.347739,-1184.329507,-383.047749
3417.247678,-10732.986159,-296.082377,383.047749
3417.248015,-8882.471304,-518.144159,-689.485948
3417.248353,-10436.903782,-444.123565,229.828649
3417.248690,-11547.212695,-222.061783,689.485948
3417.249028,-8438.347739,-296.082377,919.314598
3417.249365,-9548.656652,814.226536,689.485948
3417.249702,-10510.924376,592.164754,-306.438199
3417.250040,-11177.109724,296.082377,-2298.286494
3417.250377,-9770.718434,0.000000,-1762.019645
3417.250714,-8142.265362,-1628.453072,1762.019645
3417.251052,-9548.656652,-962.267725,3140.991542
3417.251389,-10066.800811,296.082377,1608.800546
3417.251726,-10807.006753,1258.350101,0.000000
3417.252064,-10140.821405,0.000000,306.438199
3417.252401,-7994.224174,-444.123565,2068.457845
3417.252739,-10066.800811,370.102971,3524.039291
3417.253076,-10362.883188,2368.659014,2068.457845
3417.253413,-11695.253884,2072.576638,-383.047749
3417.253751,-12583.501014,1554.432478,-919.314598
3417.254088,-8734.430116,-518.144159,76.609550
3417.254425,-7772.162391,0.000000,2451.505594
3417.254763,-9474.636058,74.020594,2757.943793
3417.255100,-10362.883188,666.185348,76.609550
3417.255437,-11251.130318,74.020594,-1149.143247
3417.255775,-10510.924376,-962.267725,0.000000
3417.256112,-11029.068536,148.041188,459.657299
3417.256449,-10584.944971,0.000000,-919.314598
3417.256787,-9474.636058,-296.082377,-1378.971896
3417.257124,-9474.636058,-1776.494261,-1378.971896
3417.257462,-10288.862594,-3330.926739,-153.219100
3417.257799,-10362.883188,-3552.988522,919.314598
3417.258136,-8956.491898,-2590.720797,919.314598
3417.258474,-10288.862594,-1776.494261,1915.238745
3417.258811,-10584.944971,-1480.411884,0.000000
3417.259148,-9622.677246,-1776.494261,-459.657299
3417.259486,-10066.800811,-1850.514855,1532.190996
3417.259823,-10214.842000,-888.247130,1378.971896
3417.260160,-10436.903782,296.082377,383.047749
3417.260498,-10362.883188,814.226536,229.828649
3417.260835,-8734.430116,-222.061783,306.438199
3417.261173,-9474.636058,-222.061783,1685.410096
3417.261510,-11695.253884,888.247130,1685.410096
3417.261847,-10214.842000,1776.494261,0.000000
3417.262185,-11843.295072,1628.453072,-1608.800546
3417.262522,-9696.697840,1332.370696,-995.924147
3417.262859,-9474.636058,222.061783,-383.047749
3417.263197,-8216.285956,1258.350101,153.219100
3417.263534,-9770.718434,148.041188,-919.314598
3417.263871,-9844.739029,0.000000,-1608.800546
3417.264209,-9474.636058,-370.102971,-1455.581446
3417.264546,-9770.718434,-222.061783,1302.362347
3417.264883,-9400.615463,592.164754,0.000000
3417.265221,-9918.759623,370.102971,-1149.143247
3417.265558,-11399.171507,296.082377,-689.485948
3417.265896,-9326.594869,-1628.453072,-689.485948
3417.266233,-8290.306550,-2220.617826,1225.752797
3417.266570,-9474.636058,-1998.556043,3600.648841
3417.266908,-8956.491898,-296.082377,2068.457845
3417.267245,-10732.986159,666.185348,1762.019645
3417.267582,-11769.274478,0.000000,1225.752797
3417.267920,-10436.903782,0.000000,1225.752797
3417.268257,-10807.006753,370.102971,1532.190996
3417.268594,-10732.986159,370.102971,766.095498
3417.268932,-11029.068536,296.082377,-842.705048
3417.269269,-9030.512492,-962.267725,-1302.362347
3417.269607,-8882.471304,-2146.597232,459.657299
3417.269944,-9548.656652,-370.102971,306.438199
3417.270281,-10214.842000,-370.102971,-1455.581446
3417.270619,-11399.171507,-1184.329507,-1838.629195
3417.270956,-10066.800811,-1184.329507,-1915.238745
3417.271293,-9252.574275,-2812.782580,612.876398
3417.271631,-10584.944971,-1258.350101,2451.505594
3417.271968,-10436.903782,-1776.494261,2068.457845
3417.272305,-11843.295072,-1628.453072,153.219100
3417.272643,-9696.697840,-2368.659014,842.705048
3417.272980,-7624.121203,-2738.761985,2451.505594
3417.273317,-10066.800811,-1258.350101,3907.087040
3417.273655,-10510.924376,-370.102971,689.485948
3417.273992,-10807.006753,888.247130,-1532.190996
3417.274330,-10066.800811,444.123565,-383.047749
3417.274667,-9622.677246,-1554.432478,3294.210641
3417.275004,-9548.656652,1628.453072,2681.334243
3417.275342,-9326.594869,2738.761985,459.657299
3417.275679,-11473.192101,2368.659014,-306.438199
3417.276016,-10140.821405,1850.514855,-1838.629195
3417.276354,-9474.636058,-666.185348,0.000000
3417.276691,-9252.574275,1258.350101,1072.533697
3417.277028,-9400.615463,1406.391290,-612.876398
3417.277366,-12509.480420,1850.514855,-2528.115143
3417.277703,-10658.965565,888.247130,-4749.792088
3417.278041,-7846.182985,-962.267725,-1762.019645
3417.278378,-10066.800811,-592.164754,1072.533697
3417.278715,-9918.759623,-444.123565,-689.485948
3417.279053,-10510.924376,-370.102971,-2145.067394
3417.279390,-10140.821405,-1924.535449,-1149.143247
3417.279727,-8216.285956,-3478.967927,1455.581446
3417.280065,-9548.656652,-2146.597232,2681.334243
3417.280402,-10881.027347,-296.082377,1532.190996
3417.280739,-11843.295072,-444.123565,0.000000
3417.281077,-10955.047942,-592.164754,-919.314598
3417.281414,-9326.594869,-2146.597232,383.047749
3417.281751,-9252.574275,-1554.432478,2451.505594
3417.282089,-8438.347739,0.000000,995.924147
3417.282426,-10288.862594,592.164754,-766.095498
3417.282764,-10362.883188,296.082377,-766.095498
3417.283101,-9918.759623,-666.185348,383.047749
3417.283438,-11029.068536,740.205942,1915.238745
3417.283776,-11029.068536,1702.473667,612.876398
3417.284113,-12213.398043,444.123565,-766.095498
3417.284450,-10436.903782,-518.144159,-995.924147
3417.284788,-9030.512492,-1924.535449,1302.362347
3417.285125,-8512.368333,-444.123565,3217.601092
3417.285462,-10288.862594,296.082377,536.266849
3417.285800,-12879.583391,592.164754,-1762.019645
3417.286137,-11473.192101,1258.350101,-3830.477490
3417.286475,-8216.285956,-1184.329507,-1991.848295
3417.286812,-8586.388927,0.000000,2681.334243
3417.287149,-9030.512492,962.267725,2145.067394
3417.287487,-10732.986159,1554.432478,1378.971896
3417.287824,-11843.295072,370.102971,76.609550
3417.288161,-9178.553681,-2146.597232,1072.533697
3417.288499,-7624.121203,-740.205942,4136.915689
3417.288836,-8956.491898,0.000000,5209.449386
3417.289173,-11473.192101,1110.308913,2145.067394
3417.289511,-10140.821405,0.000000,-2451.505594
3417.289848,-8364.327145,0.000000,0.000000
3417.290185,-10436.903782,-296.082377,2068.457845
3417.290523,-10955.047942,592.164754,0.000000
3417.290860,-10584.944971,1702.473667,-2221.676944
3417.291198,-9474.636058,74.020594,-3140.991542
3417.291535,-9104.533087,-2146.597232,-766.095498
3417.291872,-9770.718434,-2442.679609,1532.190996
3417.292210,-9474.636058,-1480.411884,536.266849
3417.292547,-10510.924376,-1702.473667,-229.828649
3417.292884,-12731.542202,-814.226536,-306.438199
3417.293222,-10732.986159,-2072.576638,-383.047749
3417.293559,-10584.944971,-3182.885551,1072.533697
3417.293896,-9474.636058,-1406.391290,766.095498
3417.294234,-11177.109724,-148.041188,-689.485948
3417.294571,-10955.047942,-592.164754,-1225.752797
3417.294909,-9474.636058,-2664.741391,-842.705048
3417.295246,-8734.430116,-2516.700203,2145.067394
3417.295583,-8808.450710,0.000000,2145.067394
3417.295921,-10510.924376,1110.308913,612.876398
3417.296258,-12213.398043,1924.535449,0.000000
3417.296595,-10955.047942,888.247130,-842.705048
3417.296933,-10066.800811,0.000000,1149.143247
3417.297270,-9252.574275,1480.411884,1915.238745
3417.297607,-9178.553681,1480.411884,0.000000
3417.297945,-9622.677246,888.247130,-2145.067394
3417.298282,-8438.347739,0.000000,-2145.067394
3417.298619,-8586.388927,-148.041188,1072.533697
3417.298957,-8882.471304,444.123565,919.314598
3417.299294,-10658.965565,2812.782580,-612.876398
3417.299632,-11917.315666,1850.514855,-3677.258390
3417.299969,-9474.636058,-962.267725,-2681.334243
3417.300306,-7402.059420,-1702.473667,766.095498
3417.300644,-8438.347739,-1036.288319,3600.648841
3417.300981,-10066.800811,370.102971,2681.334243
3417.301318,-11769.274478,74.020594,-153.219100
3417.301656,-10955.047942,666.185348,-229.828649
3417.301993,-10362.883188,-1184.329507,1762.019645
3417.302330,-9474.636058,-592.164754,2451.505594
3417.302668,-9622.677246,222.061783,1302.362347
3417.303005,-10955.047942,296.082377,229.828649
3417.303343,-9770.718434,-592.164754,-383.047749
3417.303680,-9770.718434,-1332.370696,1838.629195
3417.304017,-9918.759623,148.041188,2451.505594
3417.304355,-10658.965565,888.247130,306.438199
3417.304692,-12657.521608,814.226536,-766.095498
3417.305029,-10140.821405,222.061783,-2145.067394
3417.305367,-8734.430116,-2146.597232,1072.533697
3417.305704,-9474.636058,-888.247130,2987.772442
3417.306041,-10140.821405,-1184.329507,995.924147
3417.306379,-11547.212695,-1036.288319,-306.438199
3417.306716,-10066.800811,-1184.329507,-766.095498
3417.307053,-9104.533087,-2368.659014,0.000000
3417.307391,-9030.512492,-1998.556043,1455.581446
3417.307728,-10288.862594,0.000000,459.657299
3417.308066,-9992.780217,1110.308913,-689.485948
3417.308403,-10214.842000,666.185348,-2221.676944
3417.308740,-10362.883188,-814.226536,-995.924147
3417.309078,-9622.677246,-1702.473667,766.095498
3417.309415,-10214.842000,-148.041188,2757.943793
3417.309752,-11103.089130,888.247130,3677.258390
3417.310090,-9326.594869,888.247130,1915.238745
3417.310427,-9104.533087,296.082377,1532.190996
3417.310764,-9622.677246,814.226536,766.095498
3417.311102,-9696.697840,1110.308913,229.828649
3417.311439,-11399.171507,1110.308913,-1532.190996
3417.311777,-10436.903782,518.144159,-2604.724693
3417.312114,-8808.450710,592.164754,-1838.629195
3417.312451,-8734.430116,370.102971,0.000000
3417.312789,-8956.491898,888.247130,-153.219100
3417.313126,-10584.944971,814.226536,-1608.800546
3417.313463,-10955.047942,-148.041188,-2221.676944
3417.313801,-9918.759623,-2294.638420,-842.705048
3417.314138,-10214.842000,-2072.576638,689.485948
3417.314475,-10436.903782,148.041188,1302.362347
3417.314813,-12213.398043,148.041188,0.000000
3417.315150,-9918.759623,-370.102971,-2145.067394
3417.315487,-7920.203579,-2442.679609,0.000000
3417.315825,-10066.800811,-1924.535449,2911.162892
3417.316162,-9770.718434,-1184.329507,2451.505594
3417.316500,-11695.253884,-148.041188,1302.362347
3417.316837,-11399.171507,0.000000,-383.047749
3417.317174,-9326.594869,-1036.288319,1225.752797
3417.317512,-9474.636058,444.123565,3370.820191
3417.317849,-9474.636058,0.000000,2298.286494
3417.318186,-10510.924376,518.144159,689.485948
3417.318524,-11621.233289,1110.308913,-1225.752797
3417.318861,-10066.800811,-1110.308913,-1225.752797
3417.319198,-8956.491898,-1998.556043,306.438199
3417.319536,-7254.018232,-518.144159,1072.533697
3417.319873,-9474.636058,1036.288319,842.705048
3417.320211,-11251.130318,1406.391290,-1608.800546
3417.320548,-10436.903782,-74.020594,-995.924147
3417.320885,-10066.800811,-1036.288319,0.000000
3417.321223,-9252.574275,-814.226536,229.828649
3417.321560,-10214.842000,-148.041188,842.705048
3417.321897,-10140.821405,0.000000,-153.219100
3417.322235,-8364.327145,-1924.535449,306.438199
3417.322572,-8956.491898,-2220.617826,2604.724693
3417.322909,-10214.842000,518.144159,2911.162892
3417.323247,-11325.150913,1480.411884,306.438199
3417.323584,-11621.233289,1702.473667,0.000000
3417.323921,-11547.212695,74.020594,1072.533697
3417.324259,-11695.253884,444.123565,1991.848295
3417.324596,-9400.615463,518.144159,995.924147
3417.324934,-9326.594869,1036.288319,689.485948
3417.325271,-9992.780217,0.000000,536.266849
3417.325608,-9030.512492,-814.226536,-995.924147
3417.325946,-8734.430116,-2294.638420,76.609550
3417.326283,-9178.553681,-1110.308913,306.438199
3417.326620,-10807.006753,-666.185348,153.219100
3417.326958,-11843.295072,592.164754,-2068.457845
3417.327295,-10140.821405,0.000000,-1302.362347
3417.327632,-9770.718434,-1332.370696,-612.876398
3417.327970,-7846.182985,-1776.494261,-1149.143247
3417.328307,-9178.553681,-2368.659014,-612.876398
3417.328645,-10362.883188,-2072.576638,-1149.143247
3417.328982,-9030.512492,-2960.823768,-2068.457845
3417.329319,-9696.697840,-1850.514855,766.095498
3417.329657,-10214.842000,-1406.391290,1762.019645
3417.329994,-11103.089130,222.061783,995.924147
3417.330331,-12065.356855,1406.391290,-459.657299
3417.330669,-11473.192101,222.061783,-229.828649
3417.331006,-10881.027347,-888.247130,1608.800546
3417.331343,-9992.780217,-148.041188,2374.896044
3417.331681,-9622.677246,1480.411884,1991.848295
3417.332018,-10658.965565,1702.473667,1378.971896
3417.332355,-9844.739029,1258.350101,-76.609550
3417.332693,-10510.924376,74.020594,995.924147
3417.333030,-10955.047942,1332.370696,842.705048
3417.333368,-10140.821405,1258.350101,-536.266849
3417.333705,-11177.109724,1776.494261,-1302.362347
3417.334042,-8068.244768,740.205942,-2834.553343
3417.334380,-7920.203579,-296.082377,-689.485948
3417.334717,-9178.553681,-148.041188,766.095498
3417.335054,-7846.182985,518.144159,-536.266849
3417.335392,-10214.842000,-296.082377,536.266849
3417.335729,-10362.883188,-148.041188,689.485948
3417.336066,-9474.636058,-962.267725,1685.410096
3417.336404,-10288.862594,-444.123565,2834.553343
3417.336741,-9992.780217,-888.247130,1378.971896
3417.337079,-11473.192101,148.041188,0.000000
3417.337416,-9844.739029,74.020594,153.219100
3417.337753,-9252.574275,-1406.391290,842.705048
3417.338091,-9918.759623,-740.205942,1378.971896
3417.338428,-10214.842000,444.123565,1532.190996
3417.338765,-11177.109724,1702.473667,76.609550
3417.339103,-11769.274478,-592.164754,-306.438199
3417.339440,-11325.150913,-1258.350101,1762.019645
3417.339778,-9992.780217,-296.082377,1455.581446
3417.340115,-10288.862594,-148.041188,1225.752797
3417.340452,-11695.253884,-666.185348,306.438199
3417.340790,-10362.883188,-1554.432478,-919.314598
3417.341127,-9326.594869,-2146.597232,0.000000
3417.341464,-9474.636058,-962.267725,306.438199
3417.341802,-9770.718434,0.000000,-1838.629195
3417.342139,-11547.212695,-888.247130,-3140.991542
3417.342476,-9770.718434,-1480.411884,-2834.553343
3417.342814,-7698.141797,-2442.679609,-229.828649
3417.343151,-8882.471304,-1628.453072,2604.724693
3417.343489,-10140.821405,-592.164754,689.485948
3417.343826,-10732.986159,-370.102971,229.828649
3417.344163,-10214.842000,-148.041188,383.047749
3417.344501,-10140.821405,-1628.453072,3064.381992
3417.344838,-10140.821405,740.205942,2374.896044
3417.345175,-9548.656652,1850.514855,459.657299
3417.345513,-11399.171507,1332.370696,383.047749
3417.345850,-10140.821405,962.267725,-536.266849
3417.346188,-8438.347739,518.144159,766.095498
3417.346525,-9474.636058,1036.288319,1991.848295
3417.346862,-10214.842000,2146.597232,0.000000
3417.347200,-11251.130318,2368.659014,-2681.334243
3417.347537,-10881.027347,1702.473667,-3677.258390
3417.347874,-8142.265362,-444.123565,-995.924147
3417.348212,-10140.821405,74.020594,1225.752797
3417.348549,-10362.883188,-370.102971,-689.485948
3417.348887,-10436.903782,0.000000,-1685.410096
3417.349224,-9474.636058,-1480.411884,-766.095498
3417.349561,-9104.533087,-3701.029710,1455.581446
3417.349899,-10658.965565,-2664.741391,3447.429741
3417.350236,-11325.150913,-1258.350101,1378.971896
3417.350573,-10732.986159,-518.144159,-1225.752797
3417.350911,-10214.842000,-1184.329507,-1532.190996
3417.351248,-9992.780217,-1850.514855,-306.438199
3417.351585,-9844.739029,-1258.350101,0.000000
3417.351923,-8956.491898,-1184.329507,536.266849
3417.352260,-9918.759623,-740.205942,229.828649
3417.352598,-9992.780217,-370.102971,229.828649
3417.352935,-10362.883188,-1554.432478,1838.629195
3417.353272,-10288.862594,-2220.617826,3600.648841
3417.353610,-10362.883188,-518.144159,3217.601092
3417.353947,-10732.986159,148.041188,1991.848295
3417.354284,-10881.027347,888.247130,459.657299
3417.354622,-8512.368333,-1110.308913,-995.924147
3417.354959,-8956.491898,-518.144159,-919.314598
3417.355297,-9474.636058,0.000000,-1302.362347
3417.355634,-10140.821405,592.164754,-1608.800546
3417.355971,-9770.718434,888.247130,-3370.820191
3417.356309,-8438.347739,-1036.288319,-1915.238745
3417.356646,-9918.759623,-296.082377,1149.143247
3417.356983,-11029.068536,74.020594,1838.629195
3417.357321,-11473.192101,1036.288319,689.485948
3417.357658,-10658.965565,370.102971,76.609550
3417.357996,-10658.965565,-1258.350101,2374.896044
3417.358333,-9770.718434,-1184.329507,3907.087040
3417.358670,-8512.368333,1332.370696,3064.381992
3417.359008,-10584.944971,1776.494261,2145.067394
3417.359345,-11325.150913,1184.329507,229.828649
3417.359682,-9992.780217,740.205942,-1685.410096
3417.360020,-9992.780217,1332.370696,-76.609550
3417.360357,-8808.450710,2146.597232,-1302.362347
3417.360694,-9622.677246,1776.494261,-1302.362347
3417.361032,-10658.965565,444.123565,-1608.800546
3417.361369,-8808.450710,-1924.535449,-919.314598
3417.361707,-8364.327145,-1628.453072,1762.019645
3417.362044,-9400.615463,-1554.432478,2221.676944
3417.362381,-10288.862594,-2146.597232,0.000000
3417.362719,-10214.842000,-1184.329507,-1378.971896
3417.363056,-8956.491898,-1998.556043,-1685.410096
3417.363393,-9030.512492,-2368.659014,76.609550
3417.363731,-10732.986159,-1924.535449,0.000000
3417.364068,-11473.192101,-1702.473667,-842.705048
3417.364406,-11621.233289,-518.144159,-2451.505594
3417.364743,-9548.656652,-2368.659014,-1608.800546
3417.365080,-9696.697840,-3256.906145,2374.896044
3417.365418,-8660.409521,-1924.535449,995.924147
3417.365755,-9844.739029,-666.185348,842.705048
3417.366092,-11843.295072,962.267725,1072.533697
3417.366430,-11399.171507,-962.267725,1072.533697
3417.366767,-12213.398043,-592.164754,3370.820191
3417.367105,-11325.150913,1480.411884,3294.210641
3417.367442,-10807.006753,2738.761985,919.314598
3417.367779,-11103.089130,2738.761985,-1915.238745
3417.368117,-8660.409521,74.020594,-1762.019645
3417.368454,-7994.224174,-1776.494261,1149.143247
3417.368791,-8364.327145,-148.041188,1302.362347
3417.369129,-8438.347739,1924.535449,76.609550
3417.369466,-11399.171507,1998.556043,-1838.629195
3417.369803,-11325.150913,222.061783,-2451.505594
3417.370141,-9400.615463,-962.267725,-919.314598
3417.370478,-6883.915261,0.000000,2451.505594
3417.370816,-7846.182985,296.082377,3140.991542
3417.371153,-10807.006753,1110.308913,229.828649
3417.371490,-10288.862594,1036.288319,-1915.238745
3417.371828,-9844.739029,-1850.514855,0.000000
3417.372165,-9474.636058,-2072.576638,1838.629195
3417.372502,-8586.388927,-296.082377,1685.410096
3417.372840,-11473.192101,518.144159,1072.533697
3417.373177,-11103.089130,-222.061783,0.000000
3417.373515,-9326.594869,-1110.308913,1149.143247
3417.373852,-10214.842000,666.185348,3217.601092
3417.374189,-12213.398043,814.226536,1838.629195
3417.374527,-12139.377449,592.164754,-1072.533697
3417.374864,-10066.800811,-370.102971,-2145.067394
3417.375201,-9030.512492,-2886.803174,1149.143247
3417.375539,-8956.491898,-1258.350101,2604.724693
3417.375876,-9992.780217,-370.102971,766.095498
3417.376214,-12509.480420,-148.041188,-1915.238745
3417.376551,-10881.027347,-1406.391290,-3524.039291
3417.376888,-8956.491898,-4145.153275,76.609550
3417.377226,-8586.388927,-3034.844362,1915.238745
3417.377563,-9400.615463,-1924.535449,689.485948
3417.377900,-11843.295072,-222.061783,-1762.019645
3417.378238,-9918.759623,-592.164754,-2834.553343
3417.378575,-9326.594869,-2368.659014,919.314598
3417.378912,-8882.471304,-1036.288319,2145.067394
3417.379250,-8808.450710,148.041188,1532.190996
3417.379587,-12287.418637,296.082377,612.876398
3417.379925,-11621.233289,518.144159,612.876398
3417.380262,-9400.615463,740.205942,536.266849
3417.380599,-8068.244768,1332.370696,1608.800546
3417.380937,-9770.718434,2516.700203,2911.162892
3417.381274,-12731.542202,2516.700203,-536.266849
3417.381611,-11399.171507,2294.638420,-3217.601092
3417.381949,-8882.471304,740.205942,306.438199
3417.382286,-8364.327145,1258.350101,1762.019645
3417.382624,-9104.533087,2664.741391,689.485948
3417.382961,-12139.377449,3627.009116,-1762.019645
3417.383298,-11399.171507,2664.741391,-3753.867940
3417.383636,-10214.842000,-666.185348,-1915.238745
3417.383973,-9178.553681,370.102971,-995.924147
3417.384310,-7994.224174,814.226536,-766.095498
3417.384648,-10214.842000,-444.123565,-1225.752797
3417.384985,-10807.006753,-370.102971,-2911.162892
3417.385323,-8808.450710,-1480.411884,-1302.362347
3417.385660,-9252.574275,-740.205942,1608.800546
3417.385997,-8734.430116,-962.267725,612.876398
3417.386335,-11325.150913,-1110.308913,0.000000
3417.386672,-12583.501014,74.020594,-612.876398
3417.387009,-9770.718434,-296.082377,-842.705048
3417.387347,-8882.471304,0.000000,1608.800546
3417.387684,-9030.512492,148.041188,306.438199
3417.388021,-11177.109724,74.020594,-995.924147
3417.388359,-11547.212695,1406.391290,-1915.238745
3417.388696,-9474.636058,1406.391290,-919.314598
3417.389034,-10510.924376,444.123565,0.000000
3417.389371,-10732.986159,740.205942,-766.095498
3417.389708,-10288.862594,1406.391290,-1915.238745
3417.390046,-10214.842000,1702.473667,-2145.067394
3417.390383,-9770.718434,1110.308913,-1532.190996
3417.390720,-9178.553681,148.041188,-689.485948
3417.391058,-10066.800811,1554.432478,-612.876398
3417.391395,-11029.068536,2146.597232,-3370.820191
3417.391733,-11325.150913,2072.576638,-4519.963438
3417.392070,-9992.780217,1628.453072,-3447.429741
3417.392407,-7698.141797,-296.082377,-1149.143247
3417.392745,-8142.265362,222.061783,1072.533697
3417.393082,-9696.697840,1776.494261,153.219100
3417.393419,-11621.233289,1924.535449,-2221.676944
3417.393757,-10066.800811,2368.659014,-2451.505594
3417.394094,-8438.347739,2664.741391,-536.266849
3417.394432,-8956.491898,2294.638420,689.485948
3417.394769,-10955.047942,2886.803174,1302.362347
3417.395106,-11621.233289,4515.256246,-766.095498
3417.395444,-11399.171507,2886.803174,-2221.676944
3417.395781,-10436.903782,2664.741391,-2221.676944
3417.396118,-7920.203579,1776.494261,-2145.067394
3417.396456,-8290.306550,1628.453072,-766.095498
3417.396793,-10362.883188,1850.514855,-1838.629195
3417.397130,-10362.883188,1406.391290,-3830.477490
3417.397468,-9622.677246,1258.350101,-3753.867940
3417.397805,-10955.047942,1924.535449,-3447.429741
3417.398143,-9992.780217,2294.638420,-4060.306139
3417.398480,-9770.718434,1554.432478,-4366.744339
3417.398817,-10214.842000,-222.061783,-3064.381992
3417.399155,-9622.677246,-1924.535449,-1915.238745
3417.399492,-9252.574275,-740.205942,-1302.362347
3417.399829,-9474.636058,0.000000,-1302.362347
3417.400167,-10436.903782,222.061783,-1225.752797
3417.400504,-11251.130318,222.061783,-1532.190996
3417.400842,-10732.986159,74.020594,-1685.410096
3417.401179,-9844.739029,0.000000,0.000000
3417.401516,-9104.533087,1480.411884,-459.657299
3417.401854,-9918.759623,1702.473667,-2068.457845
3417.402191,-10510.924376,1628.453072,-1455.581446
3417.402528,-9918.759623,2590.720797,-689.485948
3417.402866,-10732.986159,3034.844362,-612.876398
3417.403203,-9918.759623,3552.988522,-1225.752797
3417.403541,-10436.903782,3330.926739,-1225.752797
3417.403878,-11547.212695,2960.823768,-2221.676944
3417.404215,-9622.677246,3330.926739,-3677.258390
3417.404553,-9252.574275,2590.720797,-2604.724693
3417.404890,-10807.006753,2886.803174,-2068.457845
3417.405227,-8808.450710,2294.638420,-3447.429741
3417.405565,-7698.141797,2146.597232,-3064.381992
3417.405902,-9178.553681,1258.350101,-766.095498
3417.406239,-10955.047942,1998.556043,-383.047749
3417.406577,-10807.006753,2368.659014,-2298.286494
3417.406914,-9252.574275,3775.050304,-3370.820191
3417.407252,-10436.903782,1702.473667,-1302.362347
3417.407589,-11177.109724,1184.329507,-1455.581446
3417.407926,-7328.038826,1480.411884,-1991.848295
3417.408264,-7772.162391,1924.535449,0.000000
3417.408601,-10140.821405,962.267725,229.828649
3417.408938,-11621.233289,888.247130,-1225.752797
3417.409276,-9918.759623,2664.741391,-1685.410096
3417.409613,-9104.533087,2368.659014,-1302.362347
3417.409951,-10288.862594,2738.761985,0.000000
3417.410288,-12213.398043,1850.514855,-1838.629195
3417.410625,-10584.944971,2072.576638,-3370.820191
3417.410963,-8956.491898,1258.350101,-2451.505594
3417.411300,-9918.759623,296.082377,-689.485948
3417.411637,-12361.439231,-592.164754,-995.924147
3417.411975,-10140.821405,-74.020594,-4136.915689
3417.412312,-7846.182985,1480.411884,-4443.353888
3417.412650,-9474.636058,74.020594,-2911.162892
3417.412987,-11769.274478,-1036.288319,-2298.286494
3417.413324,-11177.109724,0.000000,-2451.505594
3417.413662,-8734.430116,1110.308913,-2145.067394
3417.413999,-9326.594869,962.267725,-153.219100
3417.414336,-10584.944971,0.000000,-306.438199
3417.414674,-11325.150913,-1258.350101,842.705048
3417.415011,-8586.388927,814.226536,0.000000
3417.415348,-9104.533087,1702.473667,459.657299
3417.415686,-11029.068536,4589.276840,-1225.752797
3417.416023,-11473.192101,3627.009116,-2834.553343
3417.416361,-10732.986159,1998.556043,-2374.896044
3417.416698,-8956.491898,2812.782580,-1915.238745
3417.417035,-9252.574275,4737.318029,-842.705048
3417.417373,-11177.109724,4811.338623,-2374.896044
3417.417710,-9696.697840,2886.803174,-4443.353888
3417.418047,-7624.121203,1184.329507,-2834.553343
3417.418385,-9252.574275,1406.391290,1455.581446
3417.418722,-10066.800811,3478.967927,1685.410096
3417.419060,-12287.418637,3404.947333,-2834.553343
3417.419397,-10955.047942,3182.885551,-6665.030833
3417.419734,-7772.162391,1036.288319,-6281.983084
3417.420072,-7328.038826,444.123565,-1072.533697
3417.420409,-8438.347739,222.061783,766.095498
3417.420746,-10140.821405,444.123565,-3140.991542
3417.421084,-10584.944971,2072.576638,-5669.106685
3417.421421,-9548.656652,1110.308913,-4366.744339
3417.421759,-8734.430116,666.185348,-842.705048
3417.422096,-9992.780217,0.000000,842.705048
3417.422433,-11547.212695,1110.308913,536.266849
3417.422771,-11991.336260,2146.597232,0.000000
3417.423108,-11473.192101,2442.679609,-229.828649
3417.423445,-10955.047942,1998.556043,-842.705048
3417.423783,-10140.821405,1258.350101,-1378.971896
3417.424120,-11103.089130,1850.514855,-2221.676944
3417.424457,-10288.862594,666.185348,-2987.772442
3417.424795,-8364.327145,814.226536,-2068.457845
3417.425132,-8882.471304,814.226536,-842.705048
3417.425470,-11325.150913,1628.453072,-1608.800546
3417.425807,-11695.253884,3256.906145,-3907.087040
3417.426144,-11695.253884,3701.029710,-4060.306139
3417.426482,-10584.944971,1554.432478,-2757.943793
3417.426819,-8364.327145,444.123565,-2604.724693
3417.427156,-7105.977043,444.123565,-1149.143247
3417.427494,-8216.285956,1036.288319,153.219100
3417.427831,-10140.821405,0.000000,612.876398
3417.428169,-11695.253884,1332.370696,766.095498
3417.428506,-10732.986159,2516.700203,-1302.362347
3417.428843,-9844.739029,3923.091493,-1225.752797
3417.429181,-10807.006753,4145.153275,-1532.190996
3417.429518,-10362.883188,3478.967927,-2987.772442
3417.429855,-8882.471304,3849.070898,-3447.429741
3417.430193,-8290.306550,3627.009116,-1532.190996
3417.430530,-9474.636058,4441.235652,-1685.410096
3417.430867,-11547.212695,2960.823768,-2374.896044
3417.431205,-10584.944971,2368.659014,-1915.238745
3417.431542,-8808.450710,2220.617826,153.219100
3417.431880,-10658.965565,1850.514855,2068.457845
3417.432217,-11917.315666,2664.741391,-306.438199
3417.432554,-11399.171507,3034.844362,-3983.696590
3417.432892,-10140.821405,3330.926739,-5362.668486
3417.433229,-8956.491898,740.205942,-5209.449386
3417.433566,-8734.430116,-148.041188,-3983.696590
3417.433904,-7624.121203,-1110.308913,-3907.087040
3417.434241,-8142.265362,-370.102971,-3983.696590
3417.434579,-9474.636058,-666.185348,-3830.477490
3417.434916,-11251.130318,0.000000,-2604.724693
3417.435253,-11769.274478,0.000000,0.000000
3417.435591,-11251.130318,1036.288319,-536.266849
3417.435928,-10584.944971,888.247130,-536.266849
3417.436265,-10510.924376,666.185348,459.657299
3417.436603,-8882.471304,0.000000,1302.362347
3417.436940,-8808.450710,74.020594,1532.190996
3417.437278,-10658.965565,666.185348,1378.971896
3417.437615,-12065.356855,1998.556043,-229.828649
3417.437953,-11177.109724,1998.556043,-1915.238745
3417.438290,-10658.965565,2516.700203,-2757.943793
3417.438628,-9474.636058,2590.720797,-2298.286494
3417.438965,-10732.986159,3034.844362,-2145.067394
3417.439303,-10140.821405,3552.988522,-3064.381992
3417.439640,-9548.656652,2738.761985,-3907.087040
3417.439978,-9252.574275,2442.679609,-2911.162892
3417.440315,-9178.553681,2146.597232,-2298.286494
3417.440652,-8586.388927,1036.288319,-1072.533697
3417.440990,-8882.471304,370.102971,-1302.362347
3417.441327,-9104.533087,740.205942,-1225.752797
3417.441665,-10288.862594,2294.638420,-1532.190996
3417.442002,-11029.068536,2664.741391,-1225.752797
3417.442340,-10881.027347,3034.844362,-2757.943793
3417.442677,-10214.842000,2368.659014,-3064.381992
3417.443015,-9400.615463,2146.597232,-2145.067394
3417.443352,-7550.100608,1480.411884,-689.485948
3417.443690,-8068.244768,518.144159,229.828649
3417.444027,-9252.574275,1480.411884,536.266849
3417.444365,-10214.842000,1406.391290,76.609550
3417.444702,-11621.233289,2368.659014,612.876398
3417.445040,-11991.336260,1554.432478,536.266849
3417.445377,-11177.109724,2146.597232,-153.219100
3417.445715,-10881.027347,1924.535449,-766.095498
3417.446052,-10214.842000,1628.453072,-1225.752797
3417.446389,-9400.615463,1184.329507,-2681.334243
3417.446727,-9474.636058,814.226536,-3217.601092
3417.447064,-9548.656652,592.164754,-3217.601092
3417.447402,-9844.739029,666.185348,-3753.867940
3417.447739,-9992.780217,0.000000,-3907.087040
3417.448077,-10436.903782,-518.144159,-3753.867940
3417.448414,-10066.800811,0.000000,-2987.772442
3417.448752,-10214.842000,814.226536,-2681.334243
3417.449089,-10658.965565,814.226536,-3064.381992
3417.449427,-9918.759623,518.144159,-2987.772442
3417.449764,-9400.615463,148.041188,-2068.457845
3417.450102,-9474.636058,962.267725,-842.705048
3417.450439,-9548.656652,1480.411884,-919.314598
3417.450777,-10955.047942,2590.720797,-306.438199
3417.451114,-10436.903782,3997.112087,-1838.629195
3417.451452,-10362.883188,4811.338623,-1149.143247
3417.451789,-10436.903782,4737.318029,-1378.971896
3417.452126,-10288.862594,3701.029710,-2604.724693
3417.452464,-9252.574275,4663.297435,-2374.896044
3417.452801,-9178.553681,3701.029710,-2374.896044
3417.453139,-9548.656652,3330.926739,-2068.457845
3417.453476,-9770.718434,3404.947333,-2451.505594
3417.453814,-10066.800811,4293.194464,-2528.115143
3417.454151,-10214.842000,4441.235652,-4443.353888
3417.454489,-9548.656652,3849.070898,-4519.963438
3417.454826,-9252.574275,3108.864956,-4136.915689
3417.455164,-8586.388927,1628.453072,-1838.629195
3417.455501,-9474.636058,1702.473667,-383.047749
3417.455839,-9770.718434,2072.576638,0.000000
3417.456176,-10807.006753,2294.638420,-1762.019645
3417.456514,-9918.759623,1776.494261,-2298.286494
3417.456851,-9474.636058,444.123565,-1225.752797
3417.457189,-10510.924376,1554.432478,536.266849
3417.457526,-10881.027347,2590.720797,-1149.143247
3417.457864,-9992.780217,2442.679609,-3064.381992
3417.458201,-9770.718434,2368.659014,-2451.505594
3417.458538,-10066.800811,592.164754,-229.828649
3417.458876,-10362.883188,888.247130,1378.971896
3417.459213,-10066.800811,1776.494261,1378.971896
3417.459551,-11029.068536,2072.576638,383.047749
3417.459888,-12139.377449,1628.453072,-766.095498
3417.460226,-11547.212695,1628.453072,-1685.410096
3417.460563,-9770.718434,1924.535449,-2451.505594
3417.460901,-9178.553681,1850.514855,-2834.553343
3417.461238,-9918.759623,1110.308913,-3217.601092
3417.461576,-10584.944971,-370.102971,-3600.648841
3417.461913,-8660.409521,-962.267725,-2987.772442
3417.462251,-8438.347739,0.000000,-995.924147
3417.462588,-11177.109724,1406.391290,0.000000
3417.462926,-12657.521608,1924.535449,-3370.820191
3417.463263,-10214.842000,2294.638420,-4826.401637
3417.463601,-7698.141797,1554.432478,-2451.505594
3417.463938,-9030.512492,740.205942,1302.362347
3417.464275,-10140.821405,1850.514855,153.219100
3417.464613,-10584.944971,2072.576638,-1608.800546
3417.464950,-10362.883188,2812.782580,-2145.067394
3417.465288,-8734.430116,2294.638420,-2298.286494
3417.465625,-9770.718434,2294.638420,-1302.362347
3417.465963,-9918.759623,2886.803174,-2145.067394
3417.466300,-9844.739029,2368.659014,-2145.067394
3417.466638,-10214.842000,3182.885551,-2145.067394
3417.466975,-9918.759623,3923.091493,-3217.601092
3417.467313,-9918.759623,3404.947333,-3677.258390
3417.467650,-8956.491898,2072.576638,-4060.306139
3417.467988,-8586.388927,0.000000,-2834.553343
3417.468325,-8808.450710,0.000000,-1072.533697
3417.468663,-10140.821405,518.144159,-1072.533697
3417.469000,-9844.739029,1332.370696,-4213.525239
3417.469338,-10510.924376,666.185348,-4060.306139
3417.469675,-11621.233289,74.020594,-3217.601092
3417.470013,-10510.924376,0.000000,-2145.067394
3417.470350,-9474.636058,962.267725,-842.705048
3417.470687,-10288.862594,1554.432478,-1685.410096
3417.471025,-10362.883188,1332.370696,-3140.991542
3417.471362,-10066.800811,740.205942,-2221.676944
3417.471700,-9918.759623,-518.144159,-536.266849
3417.472037,-10881.027347,-592.164754,1149.143247
3417.472375,-10658.965565,1702.473667,229.828649
3417.472712,-10881.027347,2960.823768,-383.047749
3417.473050,-11103.089130,2146.597232,-229.828649
3417.473387,-10584.944971,2368.659014,-612.876398
3417.473725,-11029.068536,3478.967927,-306.438199
3417.474062,-10140.821405,4515.256246,-1608.800546
3417.474400,-9992.780217,3849.070898,-2987.772442
3417.474737,-9696.697840,1628.453072,-3524.039291
3417.475075,-7476.080014,1406.391290,-2757.943793
3417.475412,-8068.244768,1110.308913,-995.924147
3417.475750,-9696.697840,2590.720797,-689.485948
3417.476087,-11399.171507,2664.741391,-1762.019645
3417.476424,-11917.315666,1480.411884,-3217.601092
3417.476762,-9178.553681,2368.659014,-2451.505594
3417.477099,-7476.080014,4071.132681,-1302.362347
3417.477437,-10881.027347,3330.926739,-306.438199
3417.477774,-11325.150913,2072.576638,-2451.505594
3417.478112,-8512.368333,1406.391290,-3370.820191
3417.478449,-6957.935855,2368.659014,-766.095498
3417.478787,-10362.883188,2146.597232,1302.362347
3417.479124,-14359.995275,2294.638420,-306.438199
3417.479462,-11473.192101,2442.679609,-4443.353888
3417.479799,-7624.121203,2886.803174,-3370.820191
3417.480137,-8660.409521,2590.720797,383.047749
3417.480474,-12805.562797,2368.659014,766.095498
3417.480812,-11695.253884,3182.885551,-3217.601092
3417.481149,-10140.821405,3330.926739,-3524.039291
3417.481487,-10066.800811,2664.741391,-1838.629195
3417.481824,-11177.109724,1258.350101,-2834.553343
3417.482161,-9918.759623,518.144159,-4826.401637
3417.482499,-7328.038826,-222.061783,-4136.915689
3417.482836,-7994.224174,-740.205942,-2987.772442
3417.483174,-10436.903782,0.000000,-3140.991542
3417.483511,-10140.821405,-296.082377,-3064.381992
3417.483849,-10436.903782,296.082377,-2374.896044
3417.484186,-11177.109724,962.267725,-2834.553343
3417.484524,-10362.883188,1036.288319,-2681.334243
3417.484861,-9474.636058,666.185348,-1455.581446
3417.485199,-8068.244768,-518.144159,-153.219100
3417.485536,-8808.450710,296.082377,-1378.971896
3417.485874,-9992.780217,1406.391290,-229.828649
3417.486211,-11695.253884,1924.535449,0.000000
3417.486549,-10732.986159,1332.370696,-1225.752797
3417.486886,-10732.986159,1924.535449,-1838.629195
3417.487224,-11473.192101,2294.638420,0.000000
3417.487561,-9844.739029,3108.864956,612.876398
3417.487899,-9030.512492,2886.803174,383.047749
3417.488236,-11325.150913,4441.235652,-842.705048
3417.488573,-11251.130318,4145.153275,-4060.306139
3417.488911,-10510.924376,3701.029710,-4060.306139
3417.489248,-9844.739029,2664.741391,-1915.238745
3417.489586,-8882.471304,888.247130,-2987.772442
3417.489923,-8956.491898,1628.453072,-2221.676944
3417.490261,-9844.739029,1702.473667,-2451.505594
3417.490598,-9474.636058,1036.288319,-3524.039291
3417.490936,-10288.862594,296.082377,-2834.553343
3417.491273,-9474.636058,296.082377,-2451.505594
3417.491611,-8290.306550,1406.391290,-689.485948
3417.491948,-10066.800811,370.102971,0.000000
3417.492286,-10214.842000,1628.453072,-1072.533697
3417.492623,-9844.739029,222.061783,-1762.019645
3417.492961,-9770.718434,1332.370696,-383.047749
3417.493298,-10584.944971,296.082377,-306.438199
3417.493636,-10140.821405,0.000000,-1225.752797
3417.493973,-8882.471304,-592.164754,-1838.629195
3417.494310,-9474.636058,518.144159,-1991.848295
3417.494648,-10288.862594,518.144159,-1608.800546
3417.494985,-11103.089130,2664.741391,-2145.067394
3417.495323,-11399.171507,1332.370696,-1991.848295
3417.495660,-10214.842000,1406.391290,-842.705048
3417.495998,-10955.047942,666.185348,0.000000
3417.496335,-11251.130318,0.000000,0.000000
3417.496673,-9104.533087,518.144159,-1608.800546
3417.497010,-10140.821405,666.185348,-2528.115143
3417.497348,-10732.986159,-962.267725,-2757.943793
3417.497685,-9696.697840,-1332.370696,-2298.286494
3417.498023,-10140.821405,74.020594,-689.485948
3417.498360,-8808.450710,962.267725,-919.314598
3417.498698,-9622.677246,1924.535449,-1685.410096
3417.499035,-11177.109724,518.144159,-1072.533697
3417.499373,-10807.006753,0.000000,612.876398
3417.499710,-9548.656652,1110.308913,1915.238745
3417.500047,-9326.594869,2220.617826,3447.429741
3417.500385,-9548.656652,1850.514855,2298.286494
3417.500722,-9622.677246,222.061783,153.219100
3417.501060,-9770.718434,222.061783,1455.581446
3417.501397,-9178.553681,1258.350101,919.314598
3417.501735,-9178.553681,3182.885551,0.000000
3417.502072,-11399.171507,2590.720797,-459.657299
3417.502410,-10732.986159,2664.741391,-2221.676944
3417.502747,-10288.862594,1702.473667,-1072.533697
3417.503085,-10584.944971,740.205942,689.485948
3417.503422,-9844.739029,592.164754,306.438199
3417.503760,-9770.718434,-740.205942,-1149.143247
3417.504097,-8808.450710,-444.123565,-766.095498
3417.504435,-9252.574275,-1184.329507,0.000000
3417.504772,-12065.356855,-1184.329507,842.705048
3417.505110,-11843.295072,0.000000,-1608.800546
3417.505447,-11325.150913,-1184.329507,-2374.896044
3417.505785,-10436.903782,-888.247130,-536.266849
3417.506122,-8438.347739,-1332.370696,0.000000
3417.506459,-10214.842000,-2442.679609,995.924147
3417.506797,-9400.615463,-2146.597232,0.000000
3417.507134,-9844.739029,-2664.741391,383.047749
3417.507472,-10955.047942,-1480.411884,1378.971896
3417.507809,-8734.430116,-1480.411884,1915.238745
3417.508147,-10584.944971,-888.247130,2987.772442
3417.508484,-11399.171507,-370.102971,1149.143247
3417.508822,-10955.047942,74.020594,-1149.143247
3417.509159,-9400.615463,0.000000,-1072.533697
3417.509497,-7402.059420,-888.247130,383.047749
3417.509834,-10140.821405,-444.123565,1762.019645
3417.510172,-11991.336260,0.000000,-766.095498
3417.510509,-9696.697840,962.267725,-2681.334243
3417.510847,-10288.862594,-296.082377,-2451.505594
3417.511184,-9030.512492,-1406.391290,-766.095498
3417.511522,-7994.224174,-1702.473667,766.095498
3417.511859,-8956.491898,222.061783,1455.581446
3417.512196,-9548.656652,1406.391290,-612.876398
3417.512534,-12213.398043,814.226536,-919.314598
3417.512871,-10732.986159,0.000000,-1532.190996
3417.513209,-9696.697840,-1184.329507,689.485948
3417.513546,-10066.800811,962.267725,3064.381992
3417.513884,-10140.821405,296.082377,2528.115143
3417.514221,-11029.068536,444.123565,919.314598
3417.514559,-7846.182985,-666.185348,306.438199
3417.514896,-9770.718434,74.020594,3140.991542
3417.515234,-12213.398043,592.164754,3140.991542
3417.515571,-11103.089130,666.185348,-306.438199
3417.515909,-10732.986159,222.061783,-995.924147
3417.516246,-9104.533087,666.185348,-1455.581446
3417.516584,-8956.491898,-888.247130,1225.752797
3417.516921,-10510.924376,370.102971,1608.800546
3417.517259,-9622.677246,0.000000,-383.047749
3417.517596,-10955.047942,-444.123565,-536.266849
3417.517934,-9918.759623,-2664.741391,-995.924147
3417.518271,-8364.327145,-3552.988522,612.876398
3417.518608,-9400.615463,-1554.432478,1455.581446
3417.518946,-9770.718434,-1036.288319,-306.438199
3417.519283,-11325.150913,-1184.329507,-2757.943793
3417.519621,-9622.677246,-2812.782580,-2834.553343
3417.519958,-8734.430116,-1850.514855,995.924147
3417.520296,-10436.903782,-1406.391290,2145.067394
3417.520633,-11251.130318,-1480.411884,1532.190996
3417.520971,-10658.965565,-962.267725,689.485948
3417.521308,-9252.574275,-592.164754,995.924147
3417.521646,-9992.780217,-148.041188,3217.601092
3417.521983,-11917.315666,1406.391290,2221.676944
3417.522321,-10881.027347,2442.679609,-689.485948
3417.522658,-11695.253884,1184.329507,-1378.971896
3417.522996,-10732.986159,1110.308913,-612.876398
3417.523333,-7994.224174,666.185348,0.000000
3417.523671,-9474.636058,1184.329507,1378.971896
3417.524008,-10288.862594,1184.329507,-1149.143247
3417.524345,-11177.109724,444.123565,-1991.848295
3417.524683,-8660.409521,518.144159,-2451.505594
3417.525020,-6809.894666,-666.185348,76.609550
3417.525358,-9474.636058,148.041188,1532.190996
3417.525695,-10066.800811,148.041188,-1302.362347
3417.526033,-10436.903782,-518.144159,-2298.286494
3417.526370,-9770.718434,-1332.370696,-919.314598
3417.526708,-8364.327145,-1776.494261,689.485948
3417.527045,-9474.636058,-1110.308913,1685.410096
3417.527383,-9104.533087,-444.123565,0.000000
3417.527720,-10436.903782,-1110.308913,306.438199
3417.528058,-10732.986159,-666.185348,-689.485948
3417.528395,-8808.450710,-1184.329507,1149.143247
3417.528733,-11991.336260,222.061783,3140.991542
3417.529070,-12583.501014,518.144159,842.705048
3417.529408,-12213.398043,74.020594,-766.095498
3417.529745,-10140.821405,-518.144159,153.219100
3417.530082,-7994.224174,-1554.432478,1915.238745
3417.530420,-9918.759623,-666.185348,2451.505594
3417.530757,-11695.253884,148.041188,536.266849
3417.531095,-11325.150913,-444.123565,-766.095498
3417.531432,-11547.212695,-1332.370696,-1302.362347
3417.531770,-9696.697840,-1998.556043,0.000000
3417.532107,-8808.450710,-2738.761985,1838.629195
3417.532445,-8808.450710,-370.102971,995.924147
3417.532782,-9400.615463,-962.267725,-459.657299
3417.533120,-9770.718434,-1628.453072,-1378.971896
3417.533457,-9548.656652,-2368.659014,-383.047749
3417.533795,-10881.027347,-2442.679609,1838.629195
3417.534132,-9326.594869,-296.082377,919.314598
3417.534470,-8512.368333,-592.164754,76.609550
3417.534807,-10362.883188,-370.102971,1225.752797
3417.535145,-8586.388927,222.061783,1455.581446
3417.535482,-9696.697840,222.061783,2528.115143
3417.535820,-11473.192101,1924.535449,2681.334243
3417.536157,-11917.315666,2812.782580,383.047749
3417.536494,-11843.295072,2590.720797,-1149.143247
3417.536832,-9104.533087,0.000000,-995.924147
3417.537169,-7994.224174,0.000000,2451.505594
3417.537507,-9474.636058,2590.720797,2068.457845
3417.537844,-11177.109724,2516.700203,-536.266849
3417.538182,-12213.398043,1628.453072,-2757.943793
3417.538519,-10881.027347,-1184.329507,-2451.505594
3417.538857,-10140.821405,-1184.329507,995.924147
3417.539194,-9252.574275,-370.102971,1685.410096
3417.539531,-8734.430116,-1258.350101,459.657299
3417.539869,-8956.491898,-1628.453072,-1532.190996
3417.540206,-9326.594869,-1776.494261,-1915.238745
3417.540544,-9030.512492,-1628.453072,76.609550
3417.540881,-9474.636058,-1036.288319,-919.314598
3417.541218,-10881.027347,-1258.350101,-1225.752797
3417.541556,-12435.459826,-1332.370696,-1532.190996
3417.541893,-8586.388927,-2442.679609,0.000000
3417.542231,-7105.977043,-2590.720797,3064.381992
3417.542568,-9252.574275,-814.226536,4979.620737
3417.542906,-11251.130318,0.000000,1762.019645
3417.543243,-12435.459826,-370.102971,-536.266849
3417.543580,-9696.697840,-1554.432478,-306.438199
3417.543918,-9252.574275,-1480.411884,2681.334243
3417.544255,-11029.068536,1998.556043,2528.115143
3417.544593,-10510.924376,1998.556043,-306.438199
3417.544930,-10881.027347,2072.576638,-2528.115143
3417.545267,-9474.636058,1184.329507,-2528.115143
3417.545605,-10881.027347,-740.205942,306.438199
3417.545942,-11029.068536,518.144159,1762.019645
3417.546280,-9918.759623,740.205942,-612.876398
3417.546617,-10881.027347,814.226536,-842.705048
3417.546955,-8586.388927,-148.041188,-2374.896044
3417.547292,-8216.285956,-1628.453072,1225.752797
3417.547629,-9696.697840,0.000000,2451.505594
3417.547967,-10214.842000,444.123565,76.609550
3417.548304,-11843.295072,1110.308913,-76.609550
3417.548642,-9474.636058,-296.082377,-995.924147
3417.548979,-8216.285956,-1110.308913,1225.752797
3417.549316,-9622.677246,74.020594,3140.991542
3417.549654,-9474.636058,-518.144159,1838.629195
3417.549991,-9844.739029,518.144159,1149.143247
3417.550329,-9474.636058,148.041188,-536.266849
3417.550666,-9622.677246,222.061783,1225.752797
3417.551003,-11843.295072,592.164754,1991.848295
3417.551341,-10807.006753,518.144159,76.609550
3417.551678,-10214.842000,888.247130,-1915.238745
3417.552016,-9992.780217,-296.082377,-536.266849
3417.552353,-8882.471304,-814.226536,536.266849
3417.552691,-10214.842000,-1258.350101,383.047749
3417.553028,-10362.883188,74.020594,-229.828649
3417.553365,-11473.192101,0.000000,-919.314598
3417.553703,-11325.150913,-1406.391290,-1915.238745
3417.554040,-9030.512492,-3627.009116,-153.219100
3417.554378,-9992.780217,-2072.576638,1455.581446
3417.554715,-10140.821405,-2368.659014,1072.533697
3417.555052,-10288.862594,-1554.432478,-536.266849
3417.555390,-9548.656652,-2072.576638,-766.095498
3417.555727,-8882.471304,-1850.514855,2068.457845
3417.556065,-11547.212695,296.082377,3064.381992
3417.556402,-12139.377449,1036.288319,842.705048
3417.556740,-11251.130318,-1036.288319,-689.485948
3417.557077,-8586.388927,-1184.329507,383.047749
3417.557414,-7476.080014,-1998.556043,3600.648841
3417.557752,-9030.512492,222.061783,4443.353888
3417.558089,-9844.739029,666.185348,2221.676944
3417.558427,-12213.398043,962.267725,-766.095498
3417.558764,-11325.150913,1480.411884,-2298.286494
3417.559101,-9326.594869,0.000000,-919.314598
3417.559439,-9474.636058,814.226536,1072.533697
3417.559776,-8660.409521,814.226536,-842.705048
3417.560114,-9770.718434,1110.308913,-1225.752797
3417.560451,-10066.800811,1184.329507,-2298.286494
3417.560789,-8216.285956,-518.144159,-2068.457845
3417.561126,-10288.862594,-740.205942,0.000000
3417.561463,-10288.862594,0.000000,-842.705048
3417.561801,-9844.739029,-962.267725,-689.485948
3417.562138,-9326.594869,-1924.535449,-383.047749
3417.562476,-8290.306550,-962.267725,995.924147
3417.562813,-10362.883188,-592.164754,2068.457845
3417.563150,-11843.295072,148.041188,842.705048
3417.563488,-11103.089130,-518.144159,-536.266849
3417.563825,-10214.842000,-222.061783,612.876398
3417.564163,-10066.800811,-1480.411884,1991.848295
3417.564500,-10436.903782,-1850.514855,2987.772442
3417.564837,-9548.656652,0.000000,229.828649
3417.565175,-10066.800811,0.000000,-306.438199
3417.565512,-10807.006753,-518.144159,-536.266849
3417.565850,-8882.471304,-1480.411884,229.828649
3417.566187,-11029.068536,-1184.329507,1838.629195
3417.566525,-10807.006753,0.000000,-229.828649
3417.566862,-10584.944971,-1110.308913,-766.095498
3417.567199,-9918.759623,-1776.494261,0.000000
3417.567537,-8364.327145,-2072.576638,-153.219100
3417.567874,-8512.368333,-1850.514855,689.485948
3417.568212,-9622.677246,0.000000,536.266849
3417.568549,-10140.821405,-1554.432478,-689.485948
3417.568886,-11547.212695,296.082377,0.000000
3417.569224,-9622.677246,-666.185348,612.876398
3417.569561,-9918.759623,222.061783,1532.190996
3417.569899,-10214.842000,370.102971,689.485948
3417.570236,-9844.739029,-296.082377,229.828649
3417.570574,-8586.388927,0.000000,1149.143247
3417.570911,-8808.450710,-444.123565,3140.991542
3417.571248,-10807.006753,962.267725,4443.353888
3417.571586,-11473.192101,2812.782580,1455.581446
3417.571923,-11399.171507,2220.617826,0.000000
3417.572261,-11473.192101,888.247130,229.828649
3417.572598,-8956.491898,740.205942,1378.971896
3417.572935,-9474.636058,888.247130,2298.286494
3417.573273,-9696.697840,1554.432478,-536.266849
3417.573610,-9400.615463,222.061783,-2451.505594
3417.573948,-10732.986159,-444.123565,-1991.848295
3417.574285,-7994.224174,-1480.411884,-1149.143247
3417.574622,-8364.327145,-1184.329507,153.219100
3417.574960,-10288.862594,-666.185348,-459.657299
3417.575297,-10732.986159,-2072.576638,-1378.971896
3417.575635,-10362.883188,-2516.700203,-1149.143247
3417.575972,-8290.306550,-2442.679609,459.657299
3417.576310,-8882.471304,-2886.803174,2834.553343
3417.576647,-11177.109724,-1924.535449,1378.971896
3417.576984,-11325.150913,-2072.576638,-612.876398
3417.577322,-10732.986159,-2590.720797,76.609550
3417.577659,-8882.471304,-2960.823768,1149.143247
3417.577997,-10807.006753,-2294.638420,3140.991542
3417.578334,-11177.109724,518.144159,536.266849
3417.578671,-9844.739029,1184.329507,-1608.800546
3417.579009,-12065.356855,148.041188,-766.095498
3417.579346,-11843.295072,444.123565,-842.705048
3417.579684,-10955.047942,222.061783,612.876398
3417.580021,-10807.006753,962.267725,0.000000
3417.580359,-9252.574275,740.205942,-1302.362347
3417.580696,-9400.615463,444.123565,-689.485948
3417.581033,-9030.512492,222.061783,919.314598
3417.581371,-9548.656652,0.000000,689.485948
3417.581708,-11473.192101,1850.514855,-306.438199
3417.582046,-11695.253884,1480.411884,-2451.505594
3417.582383,-9178.553681,0.000000,-2604.724693
3417.582720,-7254.018232,-1332.370696,229.828649
3417.583058,-6587.832884,-518.144159,2221.676944
3417.583395,-8512.368333,444.123565,1149.143247
3417.583733,-9474.636058,1184.329507,-383.047749
3417.584070,-10288.862594,0.000000,536.266849
3417.584407,-10214.842000,0.000000,2221.676944
3417.584745,-10066.800811,0.000000,3907.087040
3417.585082,-11473.192101,1702.473667,3370.820191
3417.585420,-9918.759623,1258.350101,383.047749
3417.585757,-8512.368333,-74.020594,76.609550
3417.586095,-8586.388927,-296.082377,3140.991542
3417.586432,-9696.697840,-592.164754,4290.134789
3417.586769,-12805.562797,1036.288319,2221.676944
3417.587107,-12953.603985,1998.556043,-1762.019645
3417.587444,-11843.295072,74.020594,-2757.943793
3417.587782,-9178.553681,-962.267725,-995.924147
3417.588119,-7994.224174,-2812.782580,1455.581446
3417.588456,-9548.656652,-1406.391290,2451.505594
3417.588794,-9992.780217,0.000000,-919.314598
3417.589131,-11769.274478,-1110.308913,-2221.676944
3417.589469,-11547.212695,-2294.638420,-842.705048
3417.589806,-10584.944971,-3552.988522,1532.190996
3417.590144,-10140.821405,-2294.638420,1762.019645
3417.590481,-8882.471304,-1184.329507,842.705048
3417.590818,-9474.636058,-2072.576638,-76.609550
3417.591156,-8882.471304,-2368.659014,0.000000
3417.591493,-9474.636058,-1332.370696,1838.629195
3417.591831,-11843.295072,518.144159,2987.772442
3417.592168,-12805.562797,1184.329507,0.000000
3417.592505,-11177.109724,1036.288319,-1838.629195
3417.592843,-9104.533087,740.205942,459.657299
3417.593180,-7328.038826,222.061783,2451.505594
3417.593518,-9474.636058,2368.659014,1991.848295
3417.593855,-10881.027347,2812.782580,-306.438199
3417.594193,-12435.459826,1628.453072,-2834.553343
3417.594530,-9992.780217,888.247130,-3064.381992
3417.594867,-7476.080014,592.164754,383.047749
3417.595205,-8512.368333,1258.350101,2528.115143
3417.595542,-8660.409521,3404.947333,-1532.190996
3417.595880,-10807.006753,1850.514855,-4136.915689
3417.596217,-11547.212695,814.226536,-3064.381992
3417.596554,-10140.821405,-1332.370696,766.095498
3417.596892,-11103.089130,-592.164754,2068.457845
