#time,accel_x,accel_y,accel_z
2901.043790,-9622.677246,-296.082377,-229.828649
2901.044128,-9770.718434,-518.144159,-536.266849
2901.044466,-10214.842000,-592.164754,-1762.019645
2901.044804,-9622.677246,-1776.494261,-2451.505594
2901.045141,-9400.615463,-2442.679609,-2604.724693
2901.045479,-8660.409521,-2442.679609,-2834.553343
2901.045817,-9400.615463,-2516.700203,-2145.067394
2901.046155,-10288.862594,-2590.720797,-1838.629195
2901.046493,-10066.800811,-1924.535449,-2451.505594
2901.046831,-10214.842000,-2146.597232,-1072.533697
2901.047169,-11621.233289,-1332.370696,-612.876398
2901.047506,-10510.924376,-2146.597232,0.000000
2901.047844,-11325.150913,-2368.659014,-919.314598
2901.048182,-10362.883188,-3108.864956,-1072.533697
2901.048520,-10066.800811,-2960.823768,-229.828649
2901.048858,-10214.842000,-2442.679609,0.000000
2901.049196,-9844.739029,-2220.617826,-1378.971896
2901.049534,-10436.903782,-666.185348,-1532.190996
2901.049871,-10658.965565,-814.226536,-1685.410096
2901.050209,-9770.718434,0.000000,-2451.505594
2901.050547,-9844.739029,0.000000,-1991.848295
2901.050885,-10066.800811,-296.082377,-1915.238745
2901.051223,-9844.739029,-370.102971,-2221.676944
2901.051561,-10362.883188,-1036.288319,-1685.410096
2901.051899,-10066.800811,-1702.473667,-2451.505594
2901.052236,-9326.594869,-2368.659014,-2298.286494
2901.052574,-9474.636058,-2368.659014,-2987.772442
2901.052912,-9326.594869,-2442.679609,-3677.258390
2901.053250,-9030.512492,-2812.782580,-4826.401637
2901.053588,-8734.430116,-3627.009116,-4290.134789
2901.053926,-8586.388927,-2960.823768,-3600.648841
2901.054264,-8512.368333,-2738.761985,-2528.115143
2901.054602,-9400.615463,-1184.329507,-2451.505594
2901.054939,-10362.883188,-1776.494261,-919.314598
2901.055277,-11029.068536,-1480.411884,-1072.533697
2901.055615,-11251.130318,-1924.535449,-1991.848295
2901.055953,-11177.109724,-3404.947333,0.000000
2901.056291,-11843.295072,-4737.318029,306.438199
2901.056629,-9474.636058,-5403.503377,-1302.362347
2901.056967,-8660.409521,-5773.606348,-2374.896044
2901.057304,-8660.409521,-4293.194464,-1915.238745
2901.057642,-9992.780217,-2886.803174,-1532.190996
2901.057980,-10214.842000,-2442.679609,-3447.429741
2901.058318,-9844.739029,-2294.638420,-4136.915689
2901.058656,-11177.109724,-2960.823768,-3447.429741
2901.058994,-10436.903782,-2368.659014,-1991.848295
2901.059332,-10658.965565,-3182.885551,-1608.800546
2901.059669,-10732.986159,-4293.194464,-1302.362347
2901.060007,-10214.842000,-6143.709319,-2528.115143
2901.060345,-9548.656652,-7920.203579,-1762.019645
2901.060683,-8660.409521,-7846.182985,-612.876398
2901.061021,-9030.512492,-6217.729913,-1225.752797
2901.061359,-8808.450710,-4663.297435,-2604.724693
2901.061697,-10066.800811,-3775.050304,-2528.115143
2901.062034,-11103.089130,-2368.659014,-1532.190996
2901.062372,-10140.821405,-222.061783,-766.095498
2901.062710,-10066.800811,370.102971,0.000000
2901.063048,-11325.150913,-1258.350101,919.314598
2901.063386,-12583.501014,-3775.050304,1532.190996
2901.063724,-11843.295072,-3330.926739,1378.971896
2901.064062,-9178.553681,-2368.659014,1149.143247
2901.064399,-7105.977043,-1924.535449,689.485948
2901.064737,-8808.450710,-1998.556043,0.000000
2901.065075,-9770.718434,592.164754,-2451.505594
2901.065413,-9252.574275,2664.741391,-3677.258390
2901.065750,-9474.636058,3701.029710,-2221.676944
2901.066088,-11473.192101,2590.720797,-2221.676944
2901.066425,-12287.418637,1924.535449,-3677.258390
2901.066763,-9622.677246,148.041188,-3294.210641
2901.067100,-6957.935855,-888.247130,76.609550
2901.067438,-8364.327145,-1850.514855,2298.286494
2901.067775,-10362.883188,-2590.720797,306.438199
2901.068113,-9474.636058,-1998.556043,-1762.019645
2901.068450,-9252.574275,-1406.391290,-1302.362347
2901.068787,-10881.027347,-370.102971,-1302.362347
2901.069125,-11177.109724,222.061783,-3370.820191
2901.069462,-10510.924376,0.000000,-2604.724693
2901.069800,-9326.594869,0.000000,-995.924147
2901.070137,-9252.574275,222.061783,-689.485948
2901.070475,-11621.233289,-370.102971,689.485948
2901.070812,-12065.356855,-666.185348,536.266849
2901.071149,-9992.780217,-1850.514855,-383.047749
2901.071487,-9474.636058,-1998.556043,383.047749
2901.071824,-10436.903782,-1850.514855,1991.848295
2901.072162,-9474.636058,148.041188,0.000000
2901.072499,-10066.800811,370.102971,-2604.724693
2901.072837,-10658.965565,0.000000,-3064.381992
2901.073174,-10362.883188,-370.102971,-2987.772442
2901.073512,-10510.924376,-592.164754,-612.876398
2901.073849,-9992.780217,0.000000,-1149.143247
2901.074186,-8734.430116,-740.205942,-1991.848295
2901.074524,-9696.697840,-1480.411884,-1149.143247
2901.074861,-9770.718434,-3034.844362,1608.800546
2901.075199,-9918.759623,-2220.617826,2298.286494
2901.075536,-10436.903782,-1480.411884,2834.553343
2901.075874,-11177.109724,0.000000,1991.848295
2901.076211,-10807.006753,1036.288319,1225.752797
2901.076548,-10732.986159,0.000000,536.266849
2901.076886,-9548.656652,-592.164754,612.876398
2901.077223,-9622.677246,-296.082377,1532.190996
2901.077561,-9548.656652,-222.061783,1915.238745
2901.077898,-10066.800811,74.020594,1685.410096
2901.078236,-9474.636058,0.000000,1302.362347
2901.078573,-9474.636058,296.082377,1838.629195
2901.078911,-10066.800811,370.102971,3294.210641
2901.079248,-9844.739029,148.041188,2757.943793
2901.079585,-9844.739029,1036.288319,2604.724693
2901.079923,-10362.883188,1702.473667,1608.800546
2901.080260,-11325.150913,1628.453072,0.000000
2901.080598,-11917.315666,0.000000,-2604.724693
2901.080935,-10584.944971,-1776.494261,-3370.820191
2901.081273,-8660.409521,-2664.741391,-2987.772442
2901.081610,-7994.224174,-4071.132681,-1072.533697
2901.081947,-8068.244768,-4589.276840,-612.876398
2901.082285,-8068.244768,-4293.194464,-536.266849
2901.082622,-10436.903782,-3849.070898,-153.219100
2901.082960,-11325.150913,-2146.597232,0.000000
2901.083297,-10584.944971,-1110.308913,229.828649
2901.083635,-10732.986159,-1110.308913,2298.286494
2901.083972,-10807.006753,-740.205942,1455.581446
2901.084310,-11177.109724,-1258.350101,536.266849
2901.084647,-11843.295072,-1924.535449,0.000000
2901.084984,-10436.903782,-3330.926739,-689.485948
2901.085322,-9178.553681,-3330.926739,-612.876398
2901.085659,-8586.388927,-2294.638420,-306.438199
2901.085997,-9178.553681,-1036.288319,-383.047749
2901.086334,-9844.739029,740.205942,-1302.362347
2901.086672,-11325.150913,2812.782580,-2451.505594
2901.087009,-11251.130318,3108.864956,-1685.410096
2901.087347,-10732.986159,2886.803174,153.219100
2901.087684,-10881.027347,2220.617826,2068.457845
2901.088021,-11177.109724,1480.411884,1991.848295
2901.088359,-10807.006753,0.000000,383.047749
2901.088696,-9770.718434,-2368.659014,-766.095498
2901.089034,-8438.347739,-2960.823768,0.000000
2901.089371,-7624.121203,-2960.823768,459.657299
2901.089709,-7846.182985,-1776.494261,766.095498
2901.090046,-7846.182985,962.267725,-766.095498
2901.090383,-9622.677246,2072.576638,-1072.533697
2901.090721,-11029.068536,3404.947333,-612.876398
2901.091058,-10732.986159,3923.091493,306.438199
2901.091396,-10362.883188,2812.782580,3064.381992
2901.091733,-10807.006753,1628.453072,5745.716235
2901.092071,-11843.295072,518.144159,4596.572988
2901.092408,-11325.150913,-1480.411884,3217.601092
2901.092746,-10140.821405,-2368.659014,2451.505594
2901.093083,-9622.677246,-2368.659014,689.485948
2901.093420,-9474.636058,-888.247130,-766.095498
2901.093758,-8734.430116,222.061783,-1455.581446
2901.094095,-9104.533087,1776.494261,-1991.848295
2901.094433,-10732.986159,1776.494261,-2681.334243
2901.094770,-10658.965565,2294.638420,-3064.381992
2901.095108,-10584.944971,1184.329507,-306.438199
2901.095445,-10436.903782,-740.205942,3140.991542
2901.095782,-11029.068536,-1480.411884,2757.943793
2901.096120,-11029.068536,-2664.741391,842.705048
2901.096457,-11399.171507,-4219.173869,383.047749
2901.096795,-9992.780217,-5107.421000,153.219100
2901.097132,-9474.636058,-4663.297435,-995.924147
2901.097470,-8512.368333,-2516.700203,-2451.505594
2901.097807,-7698.141797,-1406.391290,-1915.238745
2901.098145,-8882.471304,0.000000,-459.657299
2901.098482,-10510.924376,1480.411884,153.219100
2901.098819,-11695.253884,2442.679609,459.657299
2901.099157,-11473.192101,2220.617826,2068.457845
2901.099494,-11621.233289,1184.329507,4213.525239
2901.099832,-12435.459826,222.061783,3677.258390
2901.100169,-10955.047942,-666.185348,2374.896044
2901.100507,-9474.636058,-1924.535449,0.000000
2901.100844,-7550.100608,-2072.576638,-1149.143247
2901.101181,-7846.182985,-1332.370696,-2145.067394
2901.101519,-7846.182985,0.000000,-2604.724693
2901.101856,-8216.285956,1554.432478,-2911.162892
2901.102194,-10140.821405,2146.597232,-2604.724693
2901.102531,-11325.150913,1998.556043,-1991.848295
2901.102869,-11769.274478,1554.432478,-919.314598
2901.103206,-10732.986159,296.082377,2681.334243
2901.103544,-10510.924376,-1850.514855,4673.182538
2901.103881,-10584.944971,-3256.906145,2451.505594
2901.104218,-9696.697840,-4071.132681,1991.848295
2901.104556,-9696.697840,-4145.153275,689.485948
2901.104893,-8734.430116,-3997.112087,-689.485948
2901.105231,-9178.553681,-2516.700203,-1991.848295
2901.105568,-8734.430116,0.000000,-1685.410096
2901.105906,-9918.759623,962.267725,-536.266849
2901.106243,-11769.274478,1110.308913,0.000000
2901.106580,-11325.150913,962.267725,0.000000
2901.106918,-11251.130318,0.000000,2298.286494
2901.107255,-10955.047942,-1110.308913,4596.572988
2901.107593,-10066.800811,-2072.576638,4213.525239
2901.107930,-10807.006753,-2368.659014,2374.896044
2901.108268,-10214.842000,-2590.720797,-766.095498
2901.108605,-9252.574275,-2442.679609,-2451.505594
2901.108943,-8882.471304,-1850.514855,-2757.943793
2901.109280,-9030.512492,-1480.411884,-3064.381992
2901.109617,-8290.306550,0.000000,-2451.505594
2901.109955,-8956.491898,0.000000,-2451.505594
2901.110292,-10584.944971,296.082377,-1149.143247
2901.110630,-10955.047942,148.041188,689.485948
2901.110967,-10140.821405,-1258.350101,2834.553343
2901.111305,-10732.986159,-518.144159,4673.182538
2901.111642,-11547.212695,-666.185348,3370.820191
2901.111979,-11399.171507,74.020594,1072.533697
2901.112317,-10658.965565,-888.247130,689.485948
2901.112654,-8882.471304,0.000000,0.000000
2901.112992,-8586.388927,296.082377,0.000000
2901.113329,-9104.533087,1554.432478,306.438199
2901.113667,-8586.388927,2664.741391,0.000000
2901.114004,-10288.862594,3256.906145,0.000000
2901.114342,-11695.253884,2960.823768,76.609550
2901.114679,-10140.821405,3849.070898,306.438199
2901.115016,-10362.883188,1702.473667,2068.457845
2901.115354,-9770.718434,2072.576638,2374.896044
2901.115691,-9844.739029,814.226536,1378.971896
2901.116029,-11251.130318,0.000000,229.828649
2901.116366,-9622.677246,-1850.514855,-1762.019645
2901.116704,-8882.471304,-1702.473667,-1838.629195
2901.117041,-8438.347739,-2072.576638,-1915.238745
2901.117378,-7698.141797,-1258.350101,-1378.971896
2901.117716,-8808.450710,-888.247130,-842.705048
2901.118053,-10807.006753,-740.205942,-842.705048
2901.118391,-10807.006753,0.000000,-536.266849
2901.118728,-10288.862594,-1110.308913,1072.533697
2901.119066,-11251.130318,-962.267725,3447.429741
2901.119403,-11029.068536,-888.247130,3447.429741
2901.119741,-10881.027347,-962.267725,1838.629195
2901.120078,-10807.006753,-1258.350101,1302.362347
2901.120415,-10732.986159,-1924.535449,0.000000
2901.120753,-10658.965565,-1554.432478,0.000000
2901.121090,-10214.842000,-666.185348,-612.876398
2901.121428,-9696.697840,518.144159,0.000000
2901.121765,-10510.924376,0.000000,-383.047749
2901.122103,-10881.027347,518.144159,-995.924147
2901.122440,-9474.636058,444.123565,-766.095498
2901.122777,-9622.677246,0.000000,1455.581446
2901.123115,-10436.903782,370.102971,1608.800546
2901.123452,-11325.150913,444.123565,919.314598
2901.123790,-10732.986159,-592.164754,-229.828649
2901.124127,-9548.656652,-2368.659014,-612.876398
2901.124465,-8808.450710,-2442.679609,-229.828649
2901.124802,-7994.224174,-2294.638420,0.000000
2901.125140,-8660.409521,-2072.576638,229.828649
2901.125477,-7920.203579,-1036.288319,-536.266849
2901.125814,-9030.512492,-296.082377,-919.314598
2901.126152,-10436.903782,296.082377,536.266849
2901.126489,-9622.677246,1184.329507,1302.362347
2901.126827,-9844.739029,1332.370696,3140.991542
2901.127164,-11251.130318,2738.761985,3064.381992
2901.127502,-11399.171507,1628.453072,2068.457845
2901.127839,-11843.295072,370.102971,1302.362347
2901.128176,-10881.027347,-1110.308913,306.438199
2901.128514,-9548.656652,-1628.453072,0.000000
2901.128851,-9252.574275,-1628.453072,153.219100
2901.129189,-8216.285956,-1110.308913,-842.705048
2901.129526,-8734.430116,-370.102971,-1072.533697
2901.129864,-10584.944971,-444.123565,-1915.238745
2901.130201,-10732.986159,1332.370696,-2068.457845
2901.130539,-10658.965565,296.082377,-1455.581446
2901.130876,-10436.903782,0.000000,536.266849
2901.131213,-10732.986159,-666.185348,153.219100
2901.131551,-10066.800811,-1924.535449,536.266849
2901.131888,-10510.924376,-3182.885551,153.219100
2901.132226,-9696.697840,-4441.235652,459.657299
2901.132563,-9178.553681,-3849.070898,-383.047749
2901.132901,-9400.615463,-3182.885551,-459.657299
2901.133238,-8734.430116,-1480.411884,-766.095498
2901.133575,-9474.636058,-740.205942,-995.924147
2901.133913,-10140.821405,1036.288319,-536.266849
2901.134250,-9770.718434,1776.494261,383.047749
2901.134588,-10955.047942,2516.700203,1991.848295
2901.134925,-11473.192101,1776.494261,3830.477490
2901.135263,-11991.336260,2516.700203,2834.553343
2901.135600,-11621.233289,1628.453072,2068.457845
2901.135938,-11251.130318,1036.288319,919.314598
2901.136275,-9104.533087,-666.185348,0.000000
2901.136612,-8364.327145,-592.164754,-383.047749
2901.136950,-7772.162391,444.123565,0.000000
2901.137287,-8734.430116,1406.391290,-1302.362347
2901.137625,-10510.924376,1332.370696,-2681.334243
2901.137962,-10510.924376,2516.700203,-3294.210641
2901.138300,-9104.533087,2590.720797,-1608.800546
2901.138637,-9770.718434,1628.453072,2145.067394
2901.138974,-10140.821405,1850.514855,3294.210641
2901.139312,-10732.986159,-518.144159,1608.800546
2901.139649,-11177.109724,-518.144159,1915.238745
2901.139987,-10362.883188,-2664.741391,1225.752797
2901.140324,-9844.739029,-2442.679609,1455.581446
2901.140662,-9178.553681,-1702.473667,383.047749
2901.140999,-7994.224174,-1110.308913,-383.047749
2901.141337,-8364.327145,814.226536,-459.657299
2901.141674,-10436.903782,888.247130,-842.705048
2901.142011,-10658.965565,2146.597232,-459.657299
2901.142349,-10807.006753,2072.576638,842.705048
2901.142686,-11103.089130,1776.494261,2528.115143
2901.143024,-11547.212695,1554.432478,2451.505594
2901.143361,-11325.150913,0.000000,1685.410096
2901.143699,-10881.027347,-1850.514855,766.095498
2901.144036,-10066.800811,-3330.926739,0.000000
2901.144373,-9622.677246,-2738.761985,-383.047749
2901.144711,-9252.574275,-1998.556043,-1455.581446
2901.145048,-8142.265362,-1110.308913,-2834.553343
2901.145386,-9178.553681,-1110.308913,-3447.429741
2901.145723,-10510.924376,0.000000,-2604.724693
2901.146061,-9474.636058,444.123565,-1455.581446
2901.146398,-9400.615463,148.041188,1302.362347
2901.146736,-10362.883188,296.082377,2757.943793
2901.147073,-11325.150913,370.102971,2681.334243
2901.147410,-11843.295072,-370.102971,2528.115143
2901.147748,-11251.130318,-1406.391290,2145.067394
2901.148085,-9548.656652,-1850.514855,1378.971896
2901.148423,-8808.450710,-518.144159,1532.190996
2901.148760,-8512.368333,370.102971,995.924147
2901.149098,-8734.430116,1258.350101,0.000000
2901.149435,-10140.821405,2220.617826,-919.314598
2901.149772,-11251.130318,2960.823768,-1455.581446
2901.150110,-10584.944971,3404.947333,-995.924147
2901.150447,-10288.862594,1554.432478,459.657299
2901.150785,-9696.697840,1332.370696,1608.800546
2901.151122,-10584.944971,74.020594,1762.019645
2901.151460,-10658.965565,0.000000,1455.581446
2901.151797,-9992.780217,-2812.782580,-153.219100
2901.152135,-9178.553681,-2664.741391,-1149.143247
2901.152472,-9326.594869,-3034.844362,-1302.362347
2901.152809,-8216.285956,-2294.638420,-1762.019645
2901.153147,-8586.388927,-1332.370696,-2528.115143
2901.153484,-10658.965565,-1110.308913,-2221.676944
2901.153822,-10214.842000,0.000000,-1991.848295
2901.154159,-9400.615463,-1258.350101,0.000000
2901.154497,-10658.965565,-1332.370696,3064.381992
2901.154834,-11251.130318,-1184.329507,3907.087040
2901.155171,-11843.295072,-1332.370696,2528.115143
2901.155509,-11547.212695,-2146.597232,2911.162892
2901.155846,-10362.883188,-2220.617826,1378.971896
2901.156184,-9770.718434,-1850.514855,842.705048
2901.156521,-10066.800811,-1036.288319,0.000000
2901.156859,-8808.450710,148.041188,-766.095498
2901.157196,-10288.862594,814.226536,-1225.752797
2901.157534,-10658.965565,666.185348,-2068.457845
2901.157871,-10510.924376,1110.308913,-1378.971896
2901.158208,-10140.821405,444.123565,842.705048
2901.158546,-10066.800811,1258.350101,1991.848295
2901.158883,-10732.986159,1036.288319,1685.410096
2901.159221,-11103.089130,-74.020594,536.266849
2901.159558,-9992.780217,-1332.370696,-383.047749
2901.159896,-9178.553681,-2220.617826,0.000000
2901.160233,-8586.388927,-1036.288319,459.657299
2901.160570,-8142.265362,-296.082377,0.000000
2901.160908,-8290.306550,444.123565,-766.095498
2901.161245,-10066.800811,1110.308913,-1991.848295
2901.161583,-10066.800811,1480.411884,-1149.143247
2901.161920,-9474.636058,1924.535449,536.266849
2901.162258,-9474.636058,1406.391290,3600.648841
2901.162595,-10584.944971,2072.576638,3677.258390
2901.162933,-10807.006753,1628.453072,1991.848295
2901.163270,-11991.336260,1332.370696,2068.457845
2901.163607,-10955.047942,-370.102971,1532.190996
2901.163945,-9770.718434,0.000000,536.266849
2901.164282,-9400.615463,-74.020594,919.314598
2901.164619,-9178.553681,1036.288319,-383.047749
2901.164957,-8956.491898,74.020594,-1762.019645
2901.165294,-10732.986159,370.102971,-2451.505594
2901.165631,-9992.780217,1036.288319,-3064.381992
2901.165969,-9992.780217,0.000000,-995.924147
2901.166306,-10436.903782,-222.061783,1072.533697
2901.166644,-10658.965565,-222.061783,612.876398
2901.166981,-10658.965565,-1258.350101,766.095498
2901.167318,-10881.027347,-2368.659014,1149.143247
2901.167656,-9992.780217,-3330.926739,1608.800546
2901.167993,-9770.718434,-2368.659014,1762.019645
2901.168330,-9696.697840,-1850.514855,1149.143247
2901.168668,-9622.677246,-888.247130,459.657299
2901.169005,-10732.986159,-370.102971,0.000000
2901.169342,-10584.944971,0.000000,-306.438199
2901.169680,-9400.615463,814.226536,919.314598
2901.170017,-9474.636058,814.226536,2528.115143
2901.170355,-10362.883188,1554.432478,3140.991542
2901.170692,-10955.047942,1924.535449,1915.238745
2901.171029,-11695.253884,1184.329507,1302.362347
2901.171367,-10881.027347,1110.308913,76.609550
2901.171704,-9548.656652,148.041188,536.266849
2901.172041,-8956.491898,222.061783,842.705048
2901.172379,-8734.430116,370.102971,0.000000
2901.172716,-8586.388927,518.144159,-1225.752797
2901.173053,-10288.862594,222.061783,-2528.115143
2901.173391,-10066.800811,0.000000,-2911.162892
2901.173728,-8808.450710,0.000000,-1532.190996
2901.174065,-8956.491898,0.000000,689.485948
2901.174403,-10140.821405,74.020594,919.314598
2901.174740,-10066.800811,148.041188,0.000000
2901.175078,-10658.965565,-1332.370696,153.219100
2901.175415,-10214.842000,-2146.597232,842.705048
2901.175752,-9770.718434,-2146.597232,612.876398
2901.176090,-10214.842000,-1480.411884,1838.629195
2901.176427,-9400.615463,-1332.370696,459.657299
2901.176764,-9252.574275,-740.205942,-459.657299
2901.177102,-11325.150913,-962.267725,-459.657299
2901.177439,-10436.903782,222.061783,-536.266849
2901.177776,-9770.718434,0.000000,612.876398
2901.178114,-10658.965565,296.082377,1685.410096
2901.178451,-11103.089130,1184.329507,612.876398
2901.178788,-11103.089130,-592.164754,0.000000
2901.179126,-10436.903782,-1776.494261,0.000000
2901.179463,-8956.491898,-2368.659014,306.438199
2901.179801,-9918.759623,-1998.556043,612.876398
2901.180138,-10288.862594,-1480.411884,-153.219100
2901.180475,-9696.697840,-1332.370696,-1302.362347
2901.180813,-10066.800811,-2072.576638,-2374.896044
2901.181150,-10140.821405,-1480.411884,-1838.629195
2901.181487,-8438.347739,-1184.329507,0.000000
2901.181825,-9030.512492,-1406.391290,2374.896044
2901.182162,-10140.821405,74.020594,2451.505594
2901.182499,-10510.924376,74.020594,1532.190996
2901.182837,-11473.192101,370.102971,2451.505594
2901.183174,-11399.171507,0.000000,2604.724693
2901.183511,-9992.780217,148.041188,2604.724693
2901.183849,-9770.718434,592.164754,2451.505594
2901.184186,-9252.574275,370.102971,1762.019645
2901.184524,-9770.718434,1628.453072,0.000000
2901.184861,-10362.883188,1258.350101,-766.095498
2901.185198,-9844.739029,1554.432478,-766.095498
2901.185536,-8734.430116,2220.617826,-995.924147
2901.185873,-10066.800811,2368.659014,766.095498
2901.186210,-10584.944971,2812.782580,0.000000
2901.186548,-10807.006753,1332.370696,-1302.362347
2901.186885,-10436.903782,148.041188,229.828649
2901.187222,-9992.780217,-666.185348,-612.876398
2901.187560,-9252.574275,-1628.453072,0.000000
2901.187897,-9178.553681,-1702.473667,612.876398
2901.188234,-8808.450710,-1924.535449,-459.657299
2901.188572,-9918.759623,-1184.329507,-1072.533697
2901.188909,-10955.047942,-1332.370696,-2068.457845
2901.189247,-9400.615463,-814.226536,-1991.848295
2901.189584,-9474.636058,-1184.329507,153.219100
2901.189921,-10510.924376,-370.102971,1378.971896
2901.190259,-10288.862594,0.000000,1378.971896
2901.190596,-11103.089130,-592.164754,1072.533697
2901.190933,-10955.047942,-1480.411884,1072.533697
2901.191271,-10658.965565,-962.267725,1072.533697
2901.191608,-10658.965565,-370.102971,2528.115143
2901.191945,-10362.883188,-518.144159,1378.971896
2901.192283,-9992.780217,0.000000,0.000000
2901.192620,-10881.027347,370.102971,-1455.581446
2901.192958,-10732.986159,666.185348,-1532.190996
2901.193295,-9178.553681,518.144159,-766.095498
2901.193632,-9252.574275,148.041188,919.314598
2901.193970,-10288.862594,962.267725,1225.752797
2901.194307,-11177.109724,1110.308913,-306.438199
2901.194644,-10807.006753,-296.082377,-153.219100
2901.194982,-10510.924376,-1628.453072,383.047749
2901.195319,-9030.512492,-1998.556043,1378.971896
2901.195656,-8586.388927,-962.267725,2451.505594
2901.195994,-9252.574275,-592.164754,1072.533697
2901.196331,-9548.656652,-296.082377,-766.095498
2901.196668,-10658.965565,-222.061783,-995.924147
2901.197006,-9844.739029,296.082377,-766.095498
2901.197343,-8956.491898,1036.288319,383.047749
2901.197681,-9918.759623,296.082377,2145.067394
2901.198018,-10362.883188,1776.494261,1608.800546
2901.198355,-10510.924376,814.226536,612.876398
2901.198693,-11177.109724,888.247130,1378.971896
2901.199030,-10140.821405,-518.144159,995.924147
2901.199367,-9992.780217,-666.185348,766.095498
2901.199705,-9770.718434,-518.144159,536.266849
2901.200042,-8660.409521,-296.082377,-612.876398
2901.200379,-9622.677246,-592.164754,-842.705048
2901.200717,-10807.006753,-1258.350101,-1915.238745
2901.201054,-9252.574275,74.020594,-2221.676944
2901.201391,-9474.636058,-444.123565,-1455.581446
2901.201729,-10510.924376,-1628.453072,0.000000
2901.202066,-9770.718434,-1554.432478,-1455.581446
2901.202404,-10658.965565,-2368.659014,-383.047749
2901.202741,-10807.006753,-2886.803174,536.266849
2901.203078,-9474.636058,-3182.885551,0.000000
2901.203416,-10140.821405,-2368.659014,1072.533697
2901.203753,-10436.903782,-2294.638420,1455.581446
2901.204090,-9992.780217,-1406.391290,612.876398
2901.204428,-10955.047942,-1184.329507,0.000000
2901.204765,-10807.006753,0.000000,766.095498
2901.205102,-9622.677246,-296.082377,1302.362347
2901.205440,-9252.574275,148.041188,2451.505594
2901.205777,-10288.862594,1406.391290,2451.505594
2901.206114,-11325.150913,1184.329507,1225.752797
2901.206452,-11029.068536,666.185348,229.828649
2901.206789,-9770.718434,814.226536,229.828649
2901.207127,-9474.636058,148.041188,842.705048
2901.207464,-9400.615463,444.123565,2068.457845
2901.207801,-8882.471304,518.144159,153.219100
2901.208139,-9104.533087,814.226536,-995.924147
2901.208476,-10584.944971,962.267725,-1149.143247
2901.208813,-10214.842000,0.000000,-1762.019645
2901.209151,-8956.491898,0.000000,-612.876398
2901.209488,-9104.533087,-444.123565,1378.971896
2901.209825,-9696.697840,518.144159,383.047749
2901.210163,-9992.780217,148.041188,-766.095498
2901.210500,-10140.821405,-962.267725,-306.438199
2901.210837,-9992.780217,-1998.556043,459.657299
2901.211175,-10436.903782,-1554.432478,1455.581446
2901.211512,-10066.800811,-888.247130,1762.019645
2901.211850,-9548.656652,-518.144159,1302.362347
2901.212187,-9992.780217,0.000000,919.314598
2901.212524,-11029.068536,0.000000,689.485948
2901.212862,-10658.965565,222.061783,612.876398
2901.213199,-10066.800811,222.061783,383.047749
2901.213536,-11177.109724,148.041188,1149.143247
2901.213874,-11029.068536,74.020594,-689.485948
2901.214211,-10066.800811,-962.267725,-1378.971896
2901.214548,-9918.759623,-1628.453072,-306.438199
2901.214886,-9178.553681,-2146.597232,-459.657299
2901.215223,-9844.739029,-1628.453072,-306.438199
2901.215561,-10362.883188,-1406.391290,-842.705048
2901.215898,-9622.677246,-1184.329507,-1762.019645
2901.216235,-10362.883188,-1776.494261,-995.924147
2901.216573,-10214.842000,-1850.514855,-689.485948
2901.216910,-8734.430116,-1554.432478,306.438199
2901.217247,-9622.677246,-1554.432478,1685.410096
2901.217585,-10140.821405,-1110.308913,689.485948
2901.217922,-10288.862594,-148.041188,383.047749
2901.218259,-10807.006753,-1184.329507,536.266849
2901.218597,-10066.800811,-592.164754,919.314598
2901.218934,-9844.739029,0.000000,1378.971896
2901.219271,-9844.739029,518.144159,2374.896044
2901.219609,-9326.594869,1776.494261,2068.457845
2901.219946,-10362.883188,1776.494261,1378.971896
2901.220284,-11325.150913,1554.432478,229.828649
2901.220621,-10732.986159,1776.494261,153.219100
2901.220958,-9844.739029,1628.453072,0.000000
2901.221296,-9622.677246,888.247130,689.485948
2901.221633,-9326.594869,1258.350101,0.000000
2901.221970,-9844.739029,74.020594,-1378.971896
2901.222308,-9918.759623,74.020594,-1378.971896
2901.222645,-9474.636058,-740.205942,-1915.238745
2901.222982,-9178.553681,-1332.370696,-1302.362347
2901.223320,-9252.574275,-1628.453072,0.000000
2901.223657,-8290.306550,-1702.473667,153.219100
2901.223994,-9622.677246,-888.247130,459.657299
2901.224332,-11103.089130,-1406.391290,306.438199
2901.224669,-10214.842000,-1036.288319,-459.657299
2901.225007,-9992.780217,-1924.535449,919.314598
2901.225344,-10436.903782,-1258.350101,2374.896044
2901.225681,-10436.903782,-740.205942,536.266849
2901.226019,-10362.883188,-962.267725,0.000000
2901.226356,-10140.821405,-1406.391290,153.219100
2901.226693,-9548.656652,-1258.350101,383.047749
2901.227031,-10140.821405,-296.082377,1302.362347
2901.227368,-10732.986159,592.164754,1608.800546
2901.227705,-9992.780217,888.247130,383.047749
2901.228043,-11547.212695,592.164754,229.828649
2901.228380,-11177.109724,666.185348,0.000000
2901.228717,-9918.759623,-222.061783,0.000000
2901.229055,-9770.718434,-962.267725,1455.581446
2901.229392,-9992.780217,-666.185348,612.876398
2901.229730,-9918.759623,0.000000,-1455.581446
2901.230067,-9992.780217,-666.185348,-1915.238745
2901.230404,-9178.553681,-1702.473667,-1762.019645
2901.230742,-8956.491898,-1998.556043,-689.485948
2901.231079,-8734.430116,-1184.329507,689.485948
2901.231416,-8956.491898,0.000000,766.095498
2901.231754,-9770.718434,0.000000,995.924147
2901.232091,-10955.047942,148.041188,766.095498
2901.232428,-10881.027347,-74.020594,612.876398
2901.232766,-9770.718434,666.185348,2145.067394
2901.233103,-10066.800811,148.041188,2911.162892
2901.233440,-10807.006753,148.041188,1915.238745
2901.233778,-10288.862594,222.061783,0.000000
2901.234115,-10362.883188,296.082377,0.000000
2901.234453,-10140.821405,-518.144159,-612.876398
2901.234790,-9918.759623,740.205942,-1225.752797
2901.235127,-9770.718434,74.020594,0.000000
2901.235465,-9104.533087,0.000000,-919.314598
2901.235802,-9622.677246,222.061783,-536.266849
2901.236139,-11473.192101,-1184.329507,153.219100
2901.236477,-9770.718434,-666.185348,-1225.752797
2901.236814,-9104.533087,-1554.432478,0.000000
2901.237151,-10584.944971,-1850.514855,536.266849
2901.237489,-9696.697840,-1924.535449,-995.924147
2901.237826,-10140.821405,-2516.700203,-995.924147
2901.238164,-9844.739029,-2960.823768,-1302.362347
2901.238501,-9030.512492,-2220.617826,-1378.971896
2901.238838,-9548.656652,-2220.617826,-306.438199
2901.239176,-9400.615463,-2294.638420,766.095498
2901.239513,-9030.512492,-740.205942,1685.410096
2901.239850,-11473.192101,-666.185348,2451.505594
2901.240188,-12213.398043,74.020594,2681.334243
2901.240525,-11473.192101,0.000000,2451.505594
2901.240862,-10658.965565,0.000000,3600.648841
2901.241200,-10881.027347,1036.288319,3064.381992
2901.241537,-10214.842000,444.123565,1378.971896
2901.241874,-10214.842000,444.123565,-383.047749
2901.242212,-9326.594869,-222.061783,-919.314598
2901.242549,-9252.574275,-74.020594,-536.266849
2901.242887,-9252.574275,592.164754,229.828649
2901.243224,-9252.574275,1036.288319,383.047749
2901.243561,-9548.656652,1332.370696,-153.219100
2901.243899,-10881.027347,1554.432478,-1225.752797
2901.244236,-10288.862594,518.144159,-842.705048
2901.244573,-9104.533087,148.041188,76.609550
2901.244911,-9400.615463,-1628.453072,2068.457845
2901.245248,-9844.739029,518.144159,689.485948
2901.245585,-9770.718434,-444.123565,-383.047749
2901.245923,-10510.924376,-518.144159,-306.438199
2901.246260,-9400.615463,-1480.411884,-919.314598
2901.246597,-9622.677246,-1110.308913,-306.438199
2901.246935,-9326.594869,222.061783,1762.019645
2901.247272,-9178.553681,666.185348,766.095498
2901.247610,-10362.883188,888.247130,842.705048
2901.247947,-11695.253884,1406.391290,766.095498
2901.248284,-10658.965565,1184.329507,612.876398
2901.248622,-10362.883188,0.000000,2221.676944
2901.248959,-10955.047942,0.000000,2681.334243
2901.249296,-10214.842000,-148.041188,0.000000
2901.249634,-10362.883188,-370.102971,-689.485948
2901.249971,-10066.800811,-1110.308913,-2221.676944
2901.250308,-9400.615463,-1776.494261,-2451.505594
2901.250646,-9622.677246,-888.247130,-1302.362347
2901.250983,-9104.533087,-1036.288319,-1532.190996
2901.251320,-9400.615463,0.000000,-612.876398
2901.251658,-11473.192101,0.000000,-153.219100
2901.251995,-11251.130318,-518.144159,76.609550
2901.252333,-9696.697840,-1406.391290,995.924147
2901.252670,-10066.800811,-1332.370696,3217.601092
2901.253007,-10732.986159,-1110.308913,3370.820191
2901.253345,-10510.924376,-1332.370696,2451.505594
2901.253682,-10881.027347,-1110.308913,1072.533697
2901.254019,-9918.759623,-814.226536,-536.266849
2901.254357,-9030.512492,-814.226536,0.000000
2901.254694,-8734.430116,370.102971,612.876398
2901.255031,-8734.430116,888.247130,1532.190996
2901.255369,-9622.677246,1998.556043,766.095498
2901.255706,-11325.150913,2442.679609,-536.266849
2901.256043,-11399.171507,1628.453072,229.828649
2901.256381,-9548.656652,1110.308913,1225.752797
2901.256718,-9400.615463,0.000000,2298.286494
2901.257056,-9400.615463,518.144159,1302.362347
2901.257393,-9622.677246,-74.020594,-919.314598
2901.257730,-10140.821405,-1480.411884,-1991.848295
2901.258068,-9474.636058,-2146.597232,-2834.553343
2901.258405,-9252.574275,-1480.411884,-2068.457845
2901.258742,-8734.430116,-1628.453072,-1532.190996
2901.259080,-8068.244768,-740.205942,-995.924147
2901.259417,-9474.636058,-296.082377,-536.266849
2901.259754,-11251.130318,-888.247130,-842.705048
2901.260092,-10584.944971,-518.144159,0.000000
2901.260429,-10658.965565,-1924.535449,2451.505594
2901.260766,-11399.171507,-962.267725,3907.087040
2901.261104,-11399.171507,-666.185348,2221.676944
2901.261441,-11029.068536,-814.226536,536.266849
2901.261779,-10436.903782,-2368.659014,-229.828649
2901.262116,-9474.636058,-2072.576638,-1072.533697
2901.262453,-9548.656652,-370.102971,-383.047749
2901.262791,-9326.594869,222.061783,0.000000
2901.263128,-9622.677246,592.164754,-1149.143247
2901.263465,-10510.924376,740.205942,-1072.533697
2901.263803,-10732.986159,888.247130,-76.609550
2901.264140,-9474.636058,148.041188,1608.800546
2901.264477,-10140.821405,0.000000,2757.943793
2901.264815,-10658.965565,222.061783,1762.019645
2901.265152,-10807.006753,-592.164754,-383.047749
2901.265489,-10066.800811,-2072.576638,-1532.190996
2901.265827,-9030.512492,-2146.597232,-1302.362347
2901.266164,-7920.203579,-2294.638420,76.609550
2901.266501,-8438.347739,-962.267725,842.705048
2901.266839,-8068.244768,740.205942,536.266849
2901.267176,-9992.780217,888.247130,-383.047749
2901.267513,-11547.212695,1332.370696,306.438199
2901.267851,-11621.233289,1702.473667,1608.800546
2901.268188,-10288.862594,1406.391290,3217.601092
2901.268525,-10955.047942,1776.494261,5132.839837
2901.268863,-11251.130318,1554.432478,3140.991542
2901.269200,-10881.027347,74.020594,1149.143247
2901.269537,-10881.027347,-74.020594,153.219100
2901.269875,-9992.780217,-592.164754,-1685.410096
2901.270212,-9622.677246,-296.082377,-1225.752797
2901.270549,-8364.327145,444.123565,-1532.190996
2901.270887,-7772.162391,814.226536,-1225.752797
2901.271224,-10066.800811,1258.350101,-1302.362347
2901.271561,-11473.192101,814.226536,-1378.971896
2901.271899,-10362.883188,814.226536,-459.657299
2901.272236,-10066.800811,-370.102971,1455.581446
2901.272573,-10732.986159,-1332.370696,1838.629195
2901.272911,-10214.842000,-2146.597232,-76.609550
2901.273248,-9918.759623,-3182.885551,-766.095498
2901.273585,-9474.636058,-3923.091493,-919.314598
2901.273923,-8734.430116,-3627.009116,-2068.457845
2901.274260,-8956.491898,-2072.576638,-1378.971896
2901.274597,-9104.533087,-1184.329507,-306.438199
2901.274935,-9548.656652,0.000000,306.438199
2901.275272,-11621.233289,1036.288319,536.266849
2901.275609,-12139.377449,1702.473667,1991.848295
2901.275947,-10658.965565,962.267725,2757.943793
2901.276284,-10955.047942,444.123565,4673.182538
2901.276621,-11029.068536,592.164754,3524.039291
2901.276959,-10807.006753,666.185348,995.924147
2901.277296,-10584.944971,-222.061783,-612.876398
2901.277633,-9252.574275,-1406.391290,-1762.019645
2901.277971,-8216.285956,-888.247130,-1378.971896
2901.278308,-8142.265362,296.082377,-383.047749
2901.278645,-8364.327145,1332.370696,-995.924147
2901.278983,-9918.759623,1332.370696,-1532.190996
2901.279320,-10955.047942,2220.617826,-1455.581446
2901.279657,-10584.944971,1702.473667,229.828649
2901.279995,-9474.636058,814.226536,2987.772442
2901.280332,-10362.883188,0.000000,4443.353888
2901.280669,-10955.047942,-518.144159,1762.019645
2901.281006,-10881.027347,-1850.514855,0.000000
2901.281344,-10214.842000,-2072.576638,76.609550
2901.281681,-9326.594869,-2812.782580,-306.438199
2901.282018,-8956.491898,-1776.494261,-995.924147
2901.282356,-8512.368333,0.000000,-766.095498
2901.282693,-9400.615463,1332.370696,-766.095498
2901.283030,-10807.006753,1332.370696,-995.924147
2901.283368,-11843.295072,1554.432478,689.485948
2901.283705,-11177.109724,1110.308913,1685.410096
2901.284042,-10362.883188,444.123565,2911.162892
2901.284380,-11029.068536,-296.082377,2987.772442
2901.284717,-10140.821405,-1184.329507,306.438199
2901.285054,-9992.780217,-2516.700203,-612.876398
2901.285392,-9178.553681,-2738.761985,-1608.800546
2901.285729,-8290.306550,-2220.617826,-2528.115143
2901.286066,-9178.553681,-1480.411884,-2221.676944
2901.286404,-8586.388927,-666.185348,-3370.820191
2901.286741,-8586.388927,0.000000,-3064.381992
2901.287078,-10510.924376,-740.205942,-919.314598
2901.287416,-10955.047942,148.041188,1149.143247
2901.287753,-9992.780217,-888.247130,3294.210641
2901.288090,-11103.089130,-370.102971,5592.497135
2901.288428,-12805.562797,0.000000,4749.792088
2901.288765,-11991.336260,-1110.308913,1149.143247
2901.289102,-11103.089130,-1480.411884,689.485948
2901.289440,-8734.430116,-1850.514855,-76.609550
2901.289777,-8438.347739,-814.226536,306.438199
2901.290114,-8290.306550,444.123565,306.438199
2901.290452,-8956.491898,1554.432478,-536.266849
2901.290789,-10732.986159,2442.679609,-383.047749
2901.291126,-11991.336260,3552.988522,153.219100
2901.291464,-11547.212695,3849.070898,1149.143247
2901.291801,-10214.842000,1924.535449,2911.162892
2901.292138,-9770.718434,1628.453072,3753.867940
2901.292476,-11029.068536,0.000000,1685.410096
2901.292813,-10584.944971,-222.061783,-536.266849
2901.293150,-9474.636058,-1554.432478,-2068.457845
2901.293488,-8142.265362,-2368.659014,-2145.067394
2901.293825,-8068.244768,-1406.391290,-2298.286494
2901.294162,-7846.182985,-74.020594,-2528.115143
2901.294500,-8808.450710,370.102971,-2604.724693
2901.294837,-10066.800811,296.082377,-1532.190996
2901.295174,-12139.377449,222.061783,0.000000
2901.295512,-10510.924376,370.102971,1302.362347
2901.295849,-10584.944971,-740.205942,3753.867940
2901.296186,-11843.295072,-962.267725,4749.792088
2901.296524,-11251.130318,-962.267725,1762.019645
2901.296861,-10510.924376,-1850.514855,1225.752797
2901.297198,-10288.862594,-2146.597232,-459.657299
2901.297536,-8586.388927,-1628.453072,-1915.238745
2901.297873,-9770.718434,444.123565,-689.485948
2901.298210,-9474.636058,1036.288319,-383.047749
2901.298548,-9844.739029,1998.556043,-1991.848295
2901.298885,-11177.109724,1332.370696,-1225.752797
2901.299222,-10732.986159,1332.370696,0.000000
2901.299560,-9844.739029,740.205942,2911.162892
2901.299897,-10214.842000,222.061783,4519.963438
2901.300234,-11769.274478,-296.082377,2374.896044
2901.300571,-11251.130318,-740.205942,-536.266849
2901.300909,-10288.862594,-2146.597232,-1225.752797
2901.301246,-8660.409521,-2960.823768,-1532.190996
2901.301583,-7994.224174,-2368.659014,-766.095498
2901.301921,-7920.203579,-1184.329507,-1302.362347
2901.302258,-8364.327145,148.041188,-1532.190996
2901.302595,-9696.697840,518.144159,-1302.362347
2901.302933,-11029.068536,888.247130,0.000000
2901.303270,-10658.965565,1258.350101,1685.410096
2901.303607,-9474.636058,518.144159,4213.525239
2901.303945,-11103.089130,1776.494261,5822.325785
2901.304282,-11621.233289,592.164754,3677.258390
2901.304619,-11177.109724,444.123565,1378.971896
2901.304957,-10288.862594,-1332.370696,459.657299
2901.305294,-9474.636058,-962.267725,-459.657299
2901.305631,-9030.512492,0.000000,-1608.800546
2901.305969,-8660.409521,444.123565,-1532.190996
2901.306306,-9326.594869,740.205942,-2757.943793
2901.306643,-9770.718434,1036.288319,-3830.477490
2901.306981,-11103.089130,888.247130,-1685.410096
2901.307318,-10658.965565,1332.370696,0.000000
2901.307655,-10362.883188,-740.205942,1608.800546
2901.307993,-11029.068536,-666.185348,2374.896044
2901.308330,-10436.903782,-1998.556043,536.266849
2901.308667,-10955.047942,-3627.009116,766.095498
2901.309005,-9844.739029,-4441.235652,76.609550
2901.309342,-8956.491898,-3849.070898,-1225.752797
2901.309679,-9252.574275,-2368.659014,-1149.143247
2901.310017,-8512.368333,-1554.432478,-1225.752797
2901.310354,-8660.409521,-444.123565,-1225.752797
2901.310691,-10436.903782,74.020594,0.000000
2901.311029,-10436.903782,1184.329507,1225.752797
2901.311366,-9622.677246,1406.391290,2298.286494
2901.311703,-11325.150913,666.185348,5056.230287
2901.312041,-12065.356855,1036.288319,4596.572988
2901.312378,-12065.356855,296.082377,2221.676944
2901.312715,-11399.171507,74.020594,1149.143247
2901.313053,-8734.430116,-1258.350101,-689.485948
2901.313390,-8364.327145,-592.164754,-459.657299
2901.313727,-8142.265362,0.000000,-1225.752797
2901.314065,-8364.327145,814.226536,-2068.457845
2901.314402,-10214.842000,592.164754,-2757.943793
2901.314739,-10510.924376,2442.679609,-2834.553343
2901.315077,-9770.718434,1036.288319,-1302.362347
2901.315414,-9030.512492,962.267725,1915.238745
2901.315751,-9770.718434,1110.308913,3140.991542
2901.316089,-11695.253884,74.020594,2374.896044
2901.316426,-10807.006753,-1702.473667,1072.533697
2901.316763,-10436.903782,-2294.638420,1915.238745
2901.317101,-9918.759623,-2886.803174,1685.410096
2901.317438,-9474.636058,-1924.535449,1072.533697
2901.317775,-8290.306550,-444.123565,0.000000
2901.318113,-8660.409521,370.102971,-1532.190996
2901.318450,-10510.924376,1480.411884,-1608.800546
2901.318787,-11029.068536,1998.556043,-1378.971896
2901.319124,-10288.862594,2072.576638,-689.485948
2901.319462,-9844.739029,1036.288319,1762.019645
2901.319799,-11029.068536,1480.411884,2451.505594
2901.320136,-11029.068536,0.000000,1225.752797
2901.320474,-10584.944971,-2220.617826,229.828649
2901.320811,-9992.780217,-3034.844362,383.047749
2901.321148,-10140.821405,-2294.638420,229.828649
2901.321486,-9992.780217,-1776.494261,-919.314598
2901.321823,-8956.491898,-1258.350101,-2145.067394
2901.322160,-9400.615463,-1184.329507,-2834.553343
2901.322498,-10066.800811,-444.123565,-2451.505594
2901.322835,-9622.677246,148.041188,-1302.362347
2901.323172,-9104.533087,-518.144159,1072.533697
2901.323510,-10066.800811,-148.041188,2528.115143
2901.323847,-11103.089130,74.020594,2451.505594
2901.324184,-11621.233289,-740.205942,2911.162892
2901.324522,-11251.130318,-1406.391290,2834.553343
2901.324859,-9918.759623,-2590.720797,2681.334243
2901.325196,-9474.636058,-962.267725,2145.067394
2901.325534,-8882.471304,-222.061783,1225.752797
2901.325871,-8290.306550,222.061783,0.000000
2901.326208,-9696.697840,1110.308913,-689.485948
2901.326546,-10436.903782,2812.782580,-766.095498
2901.326883,-9992.780217,2738.761985,-383.047749
2901.327220,-9696.697840,2516.700203,612.876398
2901.327558,-10288.862594,1628.453072,1685.410096
2901.327895,-11029.068536,740.205942,842.705048
2901.328232,-11177.109724,-518.144159,995.924147
2901.328570,-10436.903782,-2072.576638,612.876398
2901.328907,-9474.636058,-3034.844362,-612.876398
2901.329244,-8956.491898,-2738.761985,-1072.533697
2901.329582,-7846.182985,-2146.597232,-1685.410096
2901.329919,-8512.368333,-1036.288319,-2451.505594
2901.330256,-10362.883188,-296.082377,-2451.505594
2901.330594,-10732.986159,444.123565,-2221.676944
2901.330931,-10066.800811,296.082377,-766.095498
2901.331268,-10955.047942,74.020594,2681.334243
2901.331606,-12065.356855,518.144159,3983.696590
2901.331943,-11177.109724,-1258.350101,1838.629195
2901.332280,-10881.027347,-1776.494261,2145.067394
2901.332618,-9844.739029,-2368.659014,1838.629195
2901.332955,-9918.759623,-2812.782580,1149.143247
2901.333292,-9548.656652,-1184.329507,459.657299
2901.333630,-8808.450710,74.020594,-919.314598
2901.333967,-10214.842000,1332.370696,-2221.676944
2901.334304,-9696.697840,740.205942,-3064.381992
2901.334642,-9326.594869,1554.432478,-2145.067394
2901.334979,-9030.512492,0.000000,689.485948
2901.335316,-9992.780217,740.205942,1915.238745
2901.335654,-11399.171507,666.185348,1838.629195
2901.335991,-11769.274478,-444.123565,1072.533697
2901.336328,-10658.965565,-1924.535449,1378.971896
2901.336666,-10214.842000,-2960.823768,1378.971896
2901.337003,-8956.491898,-2072.576638,1685.410096
2901.337340,-8290.306550,-1480.411884,689.485948
2901.337678,-8660.409521,-666.185348,-383.047749
2901.338015,-9844.739029,222.061783,-1455.581446
2901.338352,-10584.944971,2072.576638,-1149.143247
2901.338689,-9696.697840,1110.308913,459.657299
2901.339027,-9696.697840,1036.288319,2681.334243
2901.339364,-10955.047942,1998.556043,3600.648841
2901.339701,-10658.965565,1258.350101,2221.676944
2901.340039,-10881.027347,-148.041188,2451.505594
2901.340376,-10807.006753,-1184.329507,2374.896044
2901.340713,-9992.780217,-1110.308913,536.266849
2901.341051,-9548.656652,-666.185348,0.000000
2901.341388,-8216.285956,-296.082377,-1762.019645
2901.341725,-8882.471304,-592.164754,-2604.724693
2901.342063,-9622.677246,296.082377,-3370.820191
2901.342400,-9992.780217,1258.350101,-3370.820191
2901.342737,-10288.862594,296.082377,-1838.629195
2901.343075,-9992.780217,-370.102971,-536.266849
2901.343412,-11547.212695,-370.102971,1072.533697
2901.343749,-10732.986159,-1924.535449,995.924147
2901.344087,-10436.903782,-3034.844362,995.924147
2901.344424,-10288.862594,-3997.112087,2221.676944
2901.344761,-10066.800811,-2812.782580,459.657299
2901.345099,-9474.636058,-2442.679609,0.000000
2901.345436,-9474.636058,-1554.432478,-536.266849
2901.345773,-9770.718434,148.041188,-1225.752797
2901.346111,-10510.924376,74.020594,-689.485948
2901.346448,-9104.533087,740.205942,0.000000
2901.346785,-8660.409521,888.247130,1762.019645
2901.347123,-11399.171507,1924.535449,3907.087040
2901.347460,-11843.295072,1924.535449,2221.676944
2901.347797,-11547.212695,1184.329507,1532.190996
2901.348135,-11251.130318,296.082377,1608.800546
2901.348472,-9400.615463,-740.205942,1072.533697
2901.348809,-8956.491898,-740.205942,919.314598
2901.349147,-8364.327145,-370.102971,-306.438199
2901.349484,-8808.450710,444.123565,-1455.581446
2901.349821,-10658.965565,518.144159,-3140.991542
2901.350159,-10140.821405,370.102971,-3447.429741
2901.350496,-8586.388927,0.000000,-1608.800546
2901.350833,-8808.450710,0.000000,995.924147
2901.351171,-10288.862594,888.247130,1991.848295
2901.351508,-10955.047942,-296.082377,1225.752797
2901.351845,-11177.109724,-1850.514855,1532.190996
2901.352183,-10658.965565,-2368.659014,2145.067394
2901.352520,-10140.821405,-2886.803174,1685.410096
2901.352857,-9770.718434,-2220.617826,2451.505594
2901.353195,-8882.471304,-1480.411884,919.314598
2901.353532,-9474.636058,-370.102971,-1225.752797
2901.353869,-10362.883188,592.164754,-2145.067394
2901.354207,-10955.047942,1036.288319,-1455.581446
2901.354544,-10658.965565,370.102971,-459.657299
2901.354881,-10436.903782,666.185348,995.924147
2901.355219,-11177.109724,814.226536,1302.362347
2901.355556,-11103.089130,-518.144159,459.657299
2901.355893,-10288.862594,-1628.453072,0.000000
2901.356231,-10288.862594,-2368.659014,536.266849
2901.356568,-10140.821405,-2072.576638,76.609550
2901.356905,-9474.636058,-1554.432478,-842.705048
2901.357243,-9474.636058,-1258.350101,-1608.800546
2901.357580,-9918.759623,-1184.329507,-2604.724693
2901.357917,-10066.800811,-888.247130,-2528.115143
2901.358254,-8956.491898,-148.041188,-1378.971896
2901.358592,-8512.368333,-666.185348,919.314598
2901.358929,-10288.862594,0.000000,2145.067394
2901.359266,-11325.150913,74.020594,2374.896044
2901.359604,-11325.150913,148.041188,1915.238745
2901.359941,-10955.047942,-444.123565,2987.772442
2901.360278,-10066.800811,-1258.350101,2911.162892
2901.360616,-9474.636058,370.102971,2911.162892
2901.360953,-8808.450710,518.144159,1455.581446
2901.361290,-9770.718434,1850.514855,76.609550
2901.361628,-10807.006753,1628.453072,-689.485948
2901.361965,-10066.800811,2294.638420,-1991.848295
2901.362302,-8882.471304,2294.638420,-1149.143247
2901.362640,-9104.533087,1850.514855,0.000000
2901.362977,-9918.759623,2220.617826,612.876398
2901.363314,-10881.027347,1036.288319,383.047749
2901.363652,-11029.068536,0.000000,459.657299
2901.363989,-10214.842000,-888.247130,383.047749
2901.364326,-10436.903782,-2146.597232,766.095498
2901.364664,-9104.533087,-1850.514855,459.657299
2901.365001,-8142.265362,-2294.638420,76.609550
2901.365338,-9474.636058,-1480.411884,-689.485948
2901.365676,-10214.842000,-1628.453072,-2145.067394
2901.366013,-10214.842000,-1628.453072,-1838.629195
2901.366350,-9622.677246,-962.267725,-536.266849
2901.366688,-10066.800811,-592.164754,1149.143247
2901.367025,-11029.068536,0.000000,2068.457845
2901.367362,-11029.068536,-1184.329507,842.705048
2901.367700,-11029.068536,-1332.370696,1532.190996
2901.368037,-10510.924376,-1702.473667,2374.896044
2901.368374,-10214.842000,-1258.350101,2374.896044
2901.368712,-10658.965565,-666.185348,1225.752797
2901.369049,-10510.924376,74.020594,-536.266849
2901.369386,-10436.903782,444.123565,-2604.724693
2901.369724,-10362.883188,-370.102971,-2145.067394
2901.370061,-8586.388927,0.000000,-1685.410096
2901.370399,-7994.224174,-592.164754,0.000000
2901.370736,-9770.718434,740.205942,1072.533697
2901.371073,-10584.944971,1184.329507,0.000000
2901.371411,-11695.253884,0.000000,-612.876398
2901.371748,-10510.924376,-1036.288319,0.000000
2901.372085,-9104.533087,-1998.556043,1149.143247
2901.372423,-9252.574275,-1628.453072,2298.286494
2901.372760,-8660.409521,-888.247130,1838.629195
2901.373097,-9548.656652,-666.185348,153.219100
2901.373435,-10214.842000,-1036.288319,-919.314598
2901.373772,-9696.697840,-296.082377,-995.924147
2901.374109,-8882.471304,444.123565,459.657299
2901.374447,-9252.574275,1184.329507,1455.581446
2901.374784,-9548.656652,2368.659014,1455.581446
2901.375121,-11325.150913,1850.514855,612.876398
2901.375459,-10881.027347,1110.308913,689.485948
2901.375796,-10955.047942,740.205942,1532.190996
2901.376133,-11177.109724,-518.144159,1838.629195
2901.376471,-9992.780217,148.041188,1608.800546
2901.376808,-9030.512492,-370.102971,0.000000
2901.377145,-9770.718434,-518.144159,-1149.143247
2901.377483,-10288.862594,-888.247130,-2298.286494
2901.377820,-9696.697840,-592.164754,-2068.457845
2901.378157,-9252.574275,0.000000,-1608.800546
2901.378495,-10214.842000,148.041188,-612.876398
2901.378832,-10732.986159,-222.061783,-536.266849
2901.379169,-11103.089130,-1776.494261,-766.095498
2901.379507,-10807.006753,-2516.700203,612.876398
2901.379844,-9696.697840,-2590.720797,1149.143247
2901.380181,-9622.677246,-2590.720797,1838.629195
2901.380519,-9992.780217,-2294.638420,2068.457845
2901.380856,-9918.759623,-2368.659014,1225.752797
2901.381194,-10584.944971,-888.247130,-153.219100
2901.381531,-10881.027347,-888.247130,-536.266849
2901.381868,-9326.594869,74.020594,76.609550
2901.382206,-8438.347739,518.144159,1149.143247
2901.382543,-9918.759623,2072.576638,1991.848295
2901.382880,-10732.986159,2220.617826,919.314598
2901.383218,-11251.130318,1406.391290,383.047749
2901.383555,-11251.130318,1480.411884,536.266849
2901.383892,-10214.842000,814.226536,1149.143247
2901.384230,-9474.636058,0.000000,1608.800546
2901.384567,-9474.636058,148.041188,459.657299
2901.384904,-9178.553681,-148.041188,-383.047749
2901.385242,-10362.883188,-222.061783,-1225.752797
2901.385579,-9400.615463,-148.041188,-2451.505594
2901.385916,-8586.388927,-148.041188,-383.047749
2901.386254,-9474.636058,0.000000,995.924147
2901.386591,-10140.821405,1406.391290,536.266849
2901.386928,-11029.068536,370.102971,306.438199
2901.387266,-11029.068536,-370.102971,0.000000
2901.387603,-9992.780217,-1480.411884,842.705048
2901.387940,-9770.718434,-1628.453072,2374.896044
2901.388278,-9622.677246,-592.164754,2451.505594
2901.388615,-10288.862594,-888.247130,1072.533697
2901.388952,-10807.006753,-444.123565,-459.657299
2901.389290,-10288.862594,-370.102971,-995.924147
2901.389627,-9400.615463,0.000000,0.000000
2901.389964,-9474.636058,666.185348,229.828649
2901.390302,-10584.944971,740.205942,0.000000
2901.390639,-11325.150913,1110.308913,-536.266849
2901.390976,-11029.068536,-148.041188,-1225.752797
2901.391314,-10881.027347,-592.164754,-76.609550
2901.391651,-9770.718434,-2072.576638,153.219100
2901.391989,-9474.636058,-1924.535449,306.438199
2901.392326,-9104.533087,-1480.411884,-383.047749
2901.392663,-9918.759623,-1332.370696,-1532.190996
2901.393001,-10584.944971,-2220.617826,-1991.848295
2901.393338,-10510.924376,-1776.494261,-1532.190996
2901.393675,-9252.574275,-888.247130,-766.095498
2901.394013,-9400.615463,0.000000,689.485948
2901.394350,-9622.677246,0.000000,1149.143247
2901.394687,-10658.965565,148.041188,689.485948
2901.395025,-10955.047942,-740.205942,1915.238745
2901.395362,-10436.903782,-222.061783,2911.162892
2901.395699,-10436.903782,0.000000,3524.039291
2901.396037,-9770.718434,962.267725,3753.867940
2901.396374,-9400.615463,962.267725,2757.943793
2901.396711,-10288.862594,1036.288319,1302.362347
2901.397049,-10288.862594,1628.453072,76.609550
2901.397386,-9770.718434,1702.473667,-766.095498
2901.397723,-8808.450710,1110.308913,76.609550
2901.398061,-9030.512492,1110.308913,229.828649
2901.398398,-9474.636058,1850.514855,-153.219100
2901.398735,-10140.821405,-148.041188,-1072.533697
2901.399073,-9992.780217,0.000000,0.000000
2901.399410,-9474.636058,-888.247130,0.000000
2901.399747,-10140.821405,-1480.411884,153.219100
2901.400085,-9548.656652,-1554.432478,689.485948
2901.400422,-9474.636058,-1258.350101,0.000000
2901.400759,-10584.944971,-1184.329507,-229.828649
2901.401097,-10881.027347,-1184.329507,-919.314598
2901.401434,-10066.800811,-1258.350101,-842.705048
2901.401771,-9696.697840,-1184.329507,0.000000
2901.402109,-10362.883188,-962.267725,995.924147
2901.402446,-11029.068536,0.000000,995.924147
2901.402784,-11325.150913,-740.205942,153.219100
2901.403121,-10807.006753,-888.247130,-76.609550
2901.403458,-10066.800811,-1258.350101,1302.362347
2901.403796,-9622.677246,-1184.329507,2145.067394
2901.404133,-9770.718434,0.000000,1378.971896
2901.404470,-10214.842000,0.000000,0.000000
2901.404808,-10955.047942,222.061783,-1608.800546
2901.405145,-9770.718434,0.000000,-1838.629195
2901.405482,-9104.533087,0.000000,-766.095498
2901.405820,-9030.512492,-296.082377,153.219100
2901.406157,-9844.739029,0.000000,-229.828649
2901.406494,-10436.903782,148.041188,-1072.533697
2901.406832,-10658.965565,-518.144159,-1149.143247
2901.407169,-10140.821405,-666.185348,0.000000
2901.407506,-9474.636058,-1480.411884,919.314598
2901.407844,-9178.553681,0.000000,1455.581446
2901.408181,-9252.574275,222.061783,1072.533697
2901.408518,-10140.821405,296.082377,612.876398
2901.408856,-10955.047942,148.041188,229.828649
2901.409193,-10214.842000,518.144159,536.266849
2901.409530,-9474.636058,962.267725,1532.190996
2901.409868,-9696.697840,1406.391290,2374.896044
2901.410205,-10436.903782,1850.514855,1378.971896
2901.410542,-10066.800811,592.164754,612.876398
2901.410880,-10214.842000,740.205942,612.876398
2901.411217,-9918.759623,962.267725,842.705048
2901.411554,-10807.006753,518.144159,1149.143247
2901.411892,-9696.697840,666.185348,919.314598
2901.412229,-9104.533087,222.061783,0.000000
2901.412566,-9918.759623,0.000000,76.609550
2901.412904,-10510.924376,-1184.329507,-383.047749
2901.413241,-9770.718434,-888.247130,-842.705048
2901.413579,-9770.718434,-1850.514855,-459.657299
2901.413916,-9918.759623,-814.226536,-919.314598
2901.414253,-9770.718434,-1850.514855,-1149.143247
2901.414591,-10732.986159,-1924.535449,-995.924147
2901.414928,-9622.677246,-2664.741391,-689.485948
2901.415265,-9844.739029,-1924.535449,-612.876398
2901.415603,-9918.759623,-2294.638420,306.438199
2901.415940,-9844.739029,-1702.473667,919.314598
2901.416277,-10732.986159,-1406.391290,1072.533697
2901.416615,-10955.047942,-444.123565,689.485948
2901.416952,-10881.027347,-370.102971,1225.752797
2901.417289,-10436.903782,0.000000,1302.362347
2901.417627,-9622.677246,-74.020594,2145.067394
2901.417964,-10732.986159,666.185348,1762.019645
2901.418301,-10658.965565,1110.308913,153.219100
2901.418639,-10066.800811,296.082377,-229.828649
2901.418976,-9844.739029,888.247130,-995.924147
2901.419313,-9030.512492,518.144159,-459.657299
2901.419651,-9178.553681,1110.308913,459.657299
2901.419988,-9252.574275,962.267725,0.000000
2901.420325,-9992.780217,1184.329507,-383.047749
2901.420663,-10362.883188,962.267725,-459.657299
2901.421000,-10436.903782,296.082377,-536.266849
2901.421337,-9474.636058,74.020594,536.266849
2901.421675,-9326.594869,-740.205942,1838.629195
2901.422012,-9252.574275,222.061783,919.314598
2901.422349,-9622.677246,-740.205942,306.438199
2901.422687,-10362.883188,-222.061783,76.609550
2901.423024,-9474.636058,-592.164754,0.000000
2901.423361,-10066.800811,-592.164754,1455.581446
2901.423699,-9030.512492,148.041188,1455.581446
2901.424036,-9178.553681,888.247130,153.219100
2901.424374,-10658.965565,0.000000,995.924147
2901.424711,-10658.965565,444.123565,76.609550
2901.425048,-10807.006753,-148.041188,919.314598
2901.425386,-10658.965565,0.000000,1072.533697
2901.425723,-9770.718434,74.020594,919.314598
2901.426060,-10510.924376,-592.164754,306.438199
2901.426398,-10140.821405,-1184.329507,-1149.143247
2901.426735,-9696.697840,-1184.329507,-1608.800546
2901.427072,-9844.739029,-1110.308913,-1225.752797
2901.427410,-10066.800811,-1184.329507,-1532.190996
2901.427747,-9844.739029,-1110.308913,-1532.190996
2901.428084,-9992.780217,-1480.411884,-1762.019645
2901.428422,-9992.780217,-1628.453072,-766.095498
2901.428759,-10362.883188,-2368.659014,0.000000
2901.429096,-9770.718434,-1850.514855,995.924147
2901.429434,-9548.656652,-2072.576638,1685.410096
2901.429771,-10732.986159,-1406.391290,1915.238745
2901.430108,-10584.944971,-888.247130,1072.533697
2901.430446,-10436.903782,-1036.288319,1149.143247
2901.430783,-9844.739029,0.000000,919.314598
2901.431120,-9844.739029,74.020594,919.314598
2901.431458,-9474.636058,1406.391290,612.876398
2901.431795,-9400.615463,1554.432478,1455.581446
2901.432132,-9844.739029,1850.514855,995.924147
2901.432470,-10807.006753,1628.453072,229.828649
2901.432807,-11029.068536,2146.597232,383.047749
2901.433144,-9474.636058,1258.350101,1072.533697
2901.433482,-9400.615463,444.123565,1991.848295
2901.433819,-9770.718434,1406.391290,1149.143247
2901.434156,-10732.986159,592.164754,76.609550
2901.434494,-10658.965565,296.082377,-919.314598
2901.434831,-9474.636058,74.020594,-1685.410096
2901.435168,-10214.842000,-888.247130,-612.876398
2901.435506,-9178.553681,-666.185348,-229.828649
2901.435843,-8734.430116,-370.102971,-1378.971896
2901.436181,-10066.800811,-888.247130,76.609550
2901.436518,-10066.800811,-518.144159,-383.047749
2901.436855,-9770.718434,-1332.370696,459.657299
2901.437193,-11103.089130,-1480.411884,1378.971896
2901.437530,-10436.903782,-1776.494261,2374.896044
2901.437867,-10510.924376,-740.205942,1608.800546
2901.438205,-10436.903782,-962.267725,919.314598
2901.438542,-9770.718434,-1184.329507,459.657299
2901.438879,-9770.718434,-1332.370696,153.219100
2901.439217,-10214.842000,-1258.350101,306.438199
2901.439554,-9918.759623,296.082377,153.219100
2901.439891,-10436.903782,0.000000,-689.485948
2901.440229,-10140.821405,74.020594,-842.705048
2901.440566,-9696.697840,-518.144159,-995.924147
2901.440903,-9696.697840,-370.102971,0.000000
2901.441241,-9844.739029,-370.102971,536.266849
2901.441578,-10214.842000,-666.185348,383.047749
2901.441915,-10881.027347,-1258.350101,-612.876398
2901.442253,-10584.944971,-1406.391290,-1225.752797
2901.442590,-9400.615463,-1184.329507,-919.314598
2901.442927,-9030.512492,-1406.391290,0.000000
2901.443265,-9252.574275,-740.205942,612.876398
2901.443602,-8660.409521,74.020594,153.219100
2901.443939,-9992.780217,518.144159,612.876398
2901.444277,-11029.068536,444.123565,1225.752797
2901.444614,-10807.006753,962.267725,1149.143247
2901.444951,-9474.636058,592.164754,2604.724693
2901.445289,-9844.739029,1554.432478,3370.820191
2901.445626,-9622.677246,1702.473667,2528.115143
2901.445963,-11029.068536,666.185348,1302.362347
2901.446301,-10510.924376,666.185348,0.000000
2901.446638,-9918.759623,888.247130,-995.924147
2901.446976,-9844.739029,740.205942,-842.705048
2901.447313,-8660.409521,814.226536,-1225.752797
2901.447650,-8216.285956,444.123565,-1302.362347
2901.447988,-9622.677246,444.123565,-383.047749
2901.448325,-10288.862594,592.164754,-612.876398
2901.448662,-11029.068536,0.000000,-306.438199
2901.449000,-10436.903782,-518.144159,-76.609550
2901.449337,-10214.842000,-1554.432478,459.657299
2901.449674,-10658.965565,-1702.473667,766.095498
2901.450012,-10510.924376,-2738.761985,-383.047749
2901.450349,-9252.574275,-3478.967927,-919.314598
2901.450686,-8734.430116,-3034.844362,-842.705048
2901.451024,-9696.697840,-2516.700203,0.000000
2901.451361,-9992.780217,-962.267725,153.219100
2901.451698,-10436.903782,-1110.308913,0.000000
2901.452036,-11103.089130,-666.185348,842.705048
2901.452373,-10955.047942,0.000000,1072.533697
2901.452710,-10584.944971,0.000000,1838.629195
2901.453048,-9918.759623,-444.123565,3140.991542
2901.453385,-11177.109724,222.061783,3294.210641
2901.453722,-11177.109724,370.102971,1072.533697
2901.454060,-11325.150913,0.000000,-229.828649
2901.454397,-10140.821405,0.000000,-1302.362347
2901.454734,-9030.512492,-518.144159,-1532.190996
2901.455072,-8290.306550,666.185348,-995.924147
2901.455409,-8364.327145,1332.370696,-766.095498
2901.455746,-9474.636058,1406.391290,-995.924147
2901.456084,-10436.903782,1480.411884,-1532.190996
2901.456421,-10436.903782,1184.329507,-766.095498
2901.456758,-9918.759623,814.226536,1455.581446
2901.457096,-9474.636058,0.000000,2451.505594
2901.457433,-9918.759623,-222.061783,1762.019645
2901.457771,-10584.944971,-1184.329507,1149.143247
2901.458108,-9548.656652,-962.267725,0.000000
2901.458445,-9104.533087,-1924.535449,0.000000
2901.458783,-9918.759623,-1406.391290,536.266849
2901.459120,-8734.430116,740.205942,76.609550
2901.459457,-8660.409521,1480.411884,-689.485948
2901.459795,-9844.739029,962.267725,-306.438199
2901.460132,-10955.047942,1332.370696,0.000000
2901.460469,-10436.903782,666.185348,1302.362347
2901.460807,-10732.986159,444.123565,2451.505594
2901.461144,-11547.212695,222.061783,3140.991542
2901.461481,-11769.274478,0.000000,1225.752797
2901.461819,-10807.006753,-1924.535449,-842.705048
2901.462156,-9474.636058,-1924.535449,-842.705048
2901.462493,-9326.594869,-2442.679609,-1378.971896
2901.462831,-9474.636058,-2146.597232,-1915.238745
2901.463168,-7846.182985,-1110.308913,-3140.991542
2901.463505,-8882.471304,-444.123565,-1991.848295
2901.463843,-10732.986159,-888.247130,-1532.190996
2901.464180,-10658.965565,-592.164754,-612.876398
2901.464517,-10807.006753,-666.185348,1915.238745
2901.464855,-10362.883188,-1480.411884,3524.039291
2901.465192,-11251.130318,-1110.308913,2987.772442
2901.465529,-11695.253884,-1924.535449,2528.115143
2901.465867,-11547.212695,-2368.659014,2145.067394
2901.466204,-9252.574275,-2146.597232,306.438199
2901.466541,-9030.512492,-1110.308913,0.000000
2901.466879,-8586.388927,740.205942,76.609550
2901.467216,-8660.409521,1776.494261,-689.485948
2901.467553,-10362.883188,2146.597232,-1072.533697
2901.467891,-10807.006753,3552.988522,-919.314598
2901.468228,-10955.047942,3108.864956,-76.609550
2901.468565,-10288.862594,1776.494261,1149.143247
2901.468902,-9104.533087,1036.288319,2528.115143
2901.469240,-10362.883188,222.061783,2145.067394
2901.469577,-10881.027347,-962.267725,612.876398
2901.469914,-9992.780217,-1998.556043,-1149.143247
2901.470252,-8882.471304,-1924.535449,-1991.848295
2901.470589,-9178.553681,-1776.494261,-1838.629195
2901.470926,-7994.224174,-962.267725,-1915.238745
2901.471263,-8142.265362,0.000000,-1608.800546
2901.471601,-9918.759623,-592.164754,-689.485948
2901.471938,-10881.027347,0.000000,-1072.533697
2901.472275,-10807.006753,-222.061783,1149.143247
2901.472612,-11325.150913,-1702.473667,3064.381992
2901.472950,-11621.233289,-1628.453072,3983.696590
2901.473287,-11621.233289,-1554.432478,2834.553343
2901.473624,-10658.965565,-2294.638420,2374.896044
2901.473962,-9326.594869,-2738.761985,153.219100
2901.474299,-9400.615463,-2812.782580,-306.438199
2901.474636,-9326.594869,-888.247130,-919.314598
2901.474973,-8586.388927,592.164754,-995.924147
2901.475311,-10436.903782,1924.535449,-1072.533697
2901.475648,-10658.965565,1850.514855,-2451.505594
2901.475985,-10881.027347,1184.329507,-1072.533697
2901.476322,-10362.883188,370.102971,1608.800546
2901.476660,-10140.821405,-296.082377,2604.724693
2901.476997,-11917.315666,-518.144159,2911.162892
2901.477334,-11917.315666,-1628.453072,306.438199
2901.477672,-9770.718434,-3182.885551,-995.924147
2901.478009,-7994.224174,-2738.761985,-842.705048
2901.478346,-7994.224174,-2220.617826,0.000000
2901.478683,-8142.265362,-370.102971,-536.266849
2901.479021,-8512.368333,1406.391290,-1915.238745
2901.479358,-10288.862594,1628.453072,-1915.238745
2901.479695,-11843.295072,2294.638420,-536.266849
2901.480033,-11843.295072,1850.514855,1455.581446
2901.480370,-9770.718434,1776.494261,3753.867940
2901.480707,-9770.718434,814.226536,4979.620737
2901.481044,-11251.130318,222.061783,4596.572988
2901.481382,-10807.006753,-518.144159,3064.381992
2901.481719,-9844.739029,-962.267725,1072.533697
2901.482056,-9474.636058,0.000000,-766.095498
2901.482393,-9918.759623,888.247130,-1838.629195
2901.482731,-8438.347739,1406.391290,-1685.410096
2901.483068,-8364.327145,1554.432478,-2911.162892
2901.483405,-8956.491898,1406.391290,-2221.676944
2901.483743,-10066.800811,1036.288319,-3064.381992
2901.484080,-11399.171507,1184.329507,-612.876398
2901.484417,-11251.130318,-1258.350101,1378.971896
2901.484754,-10807.006753,-1036.288319,1685.410096
2901.485092,-10807.006753,-2886.803174,1302.362347
2901.485429,-10658.965565,-3627.009116,1225.752797
2901.485766,-8808.450710,-4589.276840,-383.047749
2901.486103,-8956.491898,-3552.988522,76.609550
2901.486441,-9770.718434,-1998.556043,-459.657299
2901.486778,-8956.491898,-518.144159,-1762.019645
2901.487115,-10214.842000,-370.102971,-1302.362347
2901.487453,-11177.109724,592.164754,-689.485948
2901.487790,-10584.944971,962.267725,612.876398
2901.488127,-10140.821405,666.185348,2987.772442
2901.488464,-10584.944971,0.000000,4136.915689
2901.488802,-11991.336260,-518.144159,3600.648841
2901.489139,-12509.480420,-74.020594,2221.676944
2901.489476,-10807.006753,-592.164754,766.095498
2901.489813,-8956.491898,-1258.350101,-153.219100
2901.490151,-8586.388927,-1036.288319,-766.095498
2901.490488,-7772.162391,888.247130,-1302.362347
2901.490825,-8068.244768,1702.473667,-2374.896044
2901.491163,-10214.842000,1924.535449,-2528.115143
2901.491500,-10881.027347,1406.391290,-3524.039291
2901.491837,-10881.027347,1332.370696,-995.924147
2901.492174,-9178.553681,666.185348,2068.457845
2901.492512,-9770.718434,-740.205942,3370.820191
2901.492849,-10732.986159,-1036.288319,3447.429741
2901.493186,-10584.944971,-2146.597232,2221.676944
2901.493523,-9770.718434,-2072.576638,2068.457845
2901.493861,-9474.636058,-2146.597232,1608.800546
2901.494198,-10140.821405,-1184.329507,536.266849
2901.494535,-9030.512492,0.000000,-689.485948
2901.494873,-8808.450710,1110.308913,-1991.848295
2901.495210,-9918.759623,1554.432478,-1302.362347
2901.495547,-10214.842000,1554.432478,-1608.800546
2901.495884,-10436.903782,1406.391290,306.438199
2901.496222,-11251.130318,370.102971,1762.019645
2901.496559,-11103.089130,-444.123565,1991.848295
2901.496896,-11325.150913,-1406.391290,1762.019645
2901.497233,-10510.924376,-2590.720797,1072.533697
2901.497571,-8512.368333,-3552.988522,766.095498
2901.497908,-9548.656652,-2442.679609,0.000000
2901.498245,-10140.821405,-1628.453072,-1532.190996
2901.498583,-9326.594869,-888.247130,-2528.115143
2901.498920,-9770.718434,-888.247130,-2987.772442
2901.499257,-9992.780217,-592.164754,-2604.724693
2901.499594,-10436.903782,0.000000,-1072.533697
2901.499932,-10140.821405,-444.123565,1378.971896
2901.500269,-9696.697840,-814.226536,1838.629195
2901.500606,-11695.253884,-592.164754,3524.039291
2901.500944,-12287.418637,-1184.329507,2604.724693
2901.501281,-11473.192101,-1184.329507,2374.896044
2901.501618,-9992.780217,-1480.411884,2374.896044
2901.501955,-9252.574275,-518.144159,1838.629195
2901.502293,-8364.327145,592.164754,1072.533697
2901.502630,-8438.347739,2146.597232,-229.828649
2901.502967,-9918.759623,1924.535449,-842.705048
2901.503304,-10362.883188,2960.823768,-1302.362347
2901.503642,-10584.944971,3108.864956,-1225.752797
2901.503979,-9474.636058,3108.864956,766.095498
2901.504316,-9918.759623,1184.329507,1838.629195
2901.504654,-10510.924376,1036.288319,1302.362347
2901.504991,-10732.986159,-666.185348,689.485948
2901.505328,-9474.636058,-592.164754,0.000000
2901.505665,-9104.533087,-1998.556043,-842.705048
2901.506003,-9918.759623,-2368.659014,0.000000
2901.506340,-8364.327145,-1036.288319,-1532.190996
2901.506677,-8734.430116,-74.020594,-1455.581446
2901.507014,-10362.883188,0.000000,-1302.362347
2901.507352,-10066.800811,444.123565,-2221.676944
2901.507689,-10214.842000,-148.041188,-229.828649
2901.508026,-10362.883188,-222.061783,1685.410096
2901.508364,-11621.233289,-592.164754,3447.429741
2901.508701,-12435.459826,-1702.473667,2374.896044
2901.509038,-11177.109724,-2072.576638,1838.629195
2901.509375,-9844.739029,-2664.741391,1762.019645
2901.509713,-10658.965565,-2220.617826,919.314598
2901.510050,-9918.759623,-1258.350101,229.828649
2901.510387,-9104.533087,-666.185348,-1378.971896
2901.510724,-9844.739029,0.000000,-1378.971896
2901.511062,-9992.780217,148.041188,-2681.334243
2901.511399,-9696.697840,740.205942,-1838.629195
2901.511736,-9844.739029,0.000000,842.705048
2901.512074,-10214.842000,0.000000,1685.410096
2901.512411,-11695.253884,0.000000,1302.362347
2901.512748,-11843.295072,-1110.308913,689.485948
2901.513085,-10436.903782,-2442.679609,153.219100
2901.513423,-9474.636058,-2442.679609,459.657299
2901.513760,-9400.615463,-1924.535449,229.828649
2901.514097,-8882.471304,-1258.350101,-153.219100
2901.514434,-8660.409521,-740.205942,-1302.362347
2901.514772,-9030.512492,814.226536,-919.314598
2901.515109,-9918.759623,1110.308913,-842.705048
2901.515446,-9696.697840,1776.494261,383.047749
2901.515784,-9918.759623,2590.720797,2451.505594
2901.516121,-11695.253884,2146.597232,3370.820191
2901.516458,-11251.130318,2146.597232,2604.724693
2901.516795,-11103.089130,74.020594,2451.505594
2901.517133,-9918.759623,-1110.308913,2528.115143
2901.517470,-9770.718434,-1258.350101,1915.238745
2901.517807,-9992.780217,0.000000,229.828649
2901.518144,-8660.409521,888.247130,-1608.800546
2901.518482,-9326.594869,592.164754,-2604.724693
2901.518819,-9844.739029,-148.041188,-2528.115143
2901.519156,-8956.491898,1258.350101,-2834.553343
2901.519494,-8956.491898,888.247130,-842.705048
2901.519831,-10584.944971,-518.144159,76.609550
2901.520168,-11695.253884,-592.164754,995.924147
2901.520505,-11621.233289,-2146.597232,995.924147
2901.520843,-10807.006753,-3182.885551,1838.629195
2901.521180,-10066.800811,-3849.070898,1455.581446
2901.521517,-9770.718434,-4219.173869,689.485948
2901.521855,-9252.574275,-3182.885551,612.876398
2901.522192,-8068.244768,-1924.535449,-919.314598
2901.522529,-9474.636058,-370.102971,-1149.143247
2901.522866,-10436.903782,296.082377,-1532.190996
2901.523204,-9992.780217,1924.535449,-612.876398
2901.523541,-10288.862594,1924.535449,1378.971896
2901.523878,-10955.047942,1850.514855,2374.896044
2901.524215,-11769.274478,814.226536,2298.286494
2901.524553,-12509.480420,740.205942,2757.943793
2901.524890,-11399.171507,-592.164754,2451.505594
2901.525227,-10510.924376,-740.205942,612.876398
2901.525565,-9770.718434,-1184.329507,383.047749
2901.525902,-7846.182985,74.020594,-689.485948
2901.526239,-7624.121203,518.144159,-2298.286494
2901.526576,-9474.636058,1480.411884,-2834.553343
2901.526914,-10066.800811,2146.597232,-3370.820191
2901.527251,-9918.759623,1628.453072,-1838.629195
2901.527588,-9252.574275,888.247130,536.266849
2901.527925,-10436.903782,1628.453072,2528.115143
2901.528263,-10658.965565,592.164754,2834.553343
2901.528600,-10584.944971,-1924.535449,3370.820191
2901.528937,-10214.842000,-1628.453072,2911.162892
2901.529275,-9696.697840,-2664.741391,2451.505594
2901.529612,-9696.697840,-1184.329507,2757.943793
2901.529949,-8882.471304,-148.041188,153.219100
2901.530286,-8882.471304,666.185348,-1532.190996
2901.530624,-9844.739029,1776.494261,-1532.190996
2901.530961,-9696.697840,2220.617826,-1838.629195
2901.531298,-10140.821405,1480.411884,-306.438199
2901.531635,-10732.986159,666.185348,459.657299
2901.531973,-11547.212695,370.102971,1225.752797
2901.532310,-12139.377449,-592.164754,1302.362347
2901.532647,-10732.986159,-2442.679609,919.314598
2901.532985,-9770.718434,-3330.926739,995.924147
2901.533322,-9992.780217,-2886.803174,153.219100
2901.533659,-9326.594869,-2072.576638,-995.924147
2901.533996,-8882.471304,-1554.432478,-2451.505594
2901.534334,-10066.800811,-1554.432478,-2681.334243
2901.534671,-10288.862594,-1184.329507,-3064.381992
2901.535008,-9178.553681,0.000000,-1838.629195
2901.535345,-9030.512492,-592.164754,766.095498
2901.535683,-10362.883188,-296.082377,2451.505594
2901.536020,-10955.047942,-888.247130,2911.162892
2901.536357,-12065.356855,-1554.432478,3064.381992
2901.536695,-11769.274478,-1850.514855,2911.162892
2901.537032,-10214.842000,-1924.535449,2145.067394
2901.537369,-9622.677246,-962.267725,2451.505594
2901.537706,-7698.141797,222.061783,766.095498
2901.538044,-8068.244768,740.205942,-383.047749
2901.538381,-10288.862594,2072.576638,-919.314598
2901.538718,-10214.842000,2368.659014,-2451.505594
2901.539055,-9918.759623,3552.988522,-1762.019645
2901.539393,-10140.821405,2960.823768,-76.609550
2901.539730,-10584.944971,2442.679609,1072.533697
2901.540067,-10881.027347,1776.494261,1532.190996
2901.540405,-10658.965565,-74.020594,842.705048
2901.540742,-9622.677246,-962.267725,919.314598
2901.541079,-9770.718434,-2368.659014,459.657299
2901.541416,-9844.739029,-1628.453072,689.485948
2901.541754,-8438.347739,-1628.453072,-229.828649
2901.542091,-8882.471304,0.000000,-1149.143247
2901.542428,-9918.759623,222.061783,-2145.067394
2901.542766,-9474.636058,222.061783,-2987.772442
2901.543103,-9400.615463,74.020594,-1302.362347
2901.543440,-10658.965565,0.000000,2068.457845
2901.543777,-11695.253884,518.144159,2757.943793
2901.544115,-11991.336260,-962.267725,1838.629195
2901.544452,-11769.274478,-1850.514855,2145.067394
2901.544789,-9474.636058,-2146.597232,1455.581446
2901.545126,-9844.739029,-2516.700203,2145.067394
2901.545464,-9844.739029,-1850.514855,1608.800546
2901.545801,-9178.553681,0.000000,-1225.752797
2901.546138,-10955.047942,222.061783,-995.924147
2901.546476,-10732.986159,1332.370696,-2911.162892
2901.546813,-9104.533087,962.267725,-2681.334243
2901.547150,-9844.739029,222.061783,153.219100
2901.547487,-9474.636058,222.061783,689.485948
2901.547825,-10955.047942,444.123565,766.095498
2901.548162,-11843.295072,-1628.453072,689.485948
2901.548499,-10658.965565,-2220.617826,689.485948
2901.548836,-9770.718434,-2664.741391,1149.143247
2901.549174,-9548.656652,-2220.617826,1762.019645
2901.549511,-8216.285956,-962.267725,689.485948
2901.549848,-8660.409521,-814.226536,-383.047749
2901.550186,-9696.697840,444.123565,-536.266849
2901.550523,-10066.800811,1406.391290,-1225.752797
2901.550860,-10214.842000,1702.473667,229.828649
2901.551197,-10140.821405,2220.617826,2068.457845
2901.551535,-10510.924376,1998.556043,1915.238745
2901.551872,-10436.903782,1998.556043,2068.457845
2901.552209,-10436.903782,74.020594,2221.676944
2901.552546,-10732.986159,222.061783,2298.286494
2901.552884,-10066.800811,-888.247130,995.924147
2901.553221,-9474.636058,296.082377,842.705048
2901.553558,-8216.285956,0.000000,-536.266849
2901.553896,-9326.594869,444.123565,-1838.629195
2901.554233,-9622.677246,0.000000,-2068.457845
2901.554570,-8956.491898,1036.288319,-2911.162892
2901.554907,-8882.471304,-370.102971,-1685.410096
2901.555245,-10807.006753,222.061783,-612.876398
2901.555582,-11029.068536,-74.020594,-383.047749
2901.555919,-11621.233289,-1924.535449,459.657299
2901.556256,-10436.903782,-3034.844362,842.705048
2901.556594,-9622.677246,-2886.803174,919.314598
2901.556931,-10584.944971,-3034.844362,1991.848295
2901.557268,-9622.677246,-2886.803174,1225.752797
2901.557606,-9030.512492,-1924.535449,0.000000
2901.557943,-10955.047942,-814.226536,306.438199
2901.558280,-10955.047942,-444.123565,-459.657299
2901.558617,-9696.697840,0.000000,-459.657299
2901.558955,-9770.718434,592.164754,1685.410096
2901.559292,-10362.883188,814.226536,1915.238745
2901.559629,-11547.212695,814.226536,2145.067394
2901.559966,-11399.171507,0.000000,1149.143247
2901.560304,-10436.903782,-518.144159,1378.971896
2901.560641,-9918.759623,-296.082377,995.924147
2901.560978,-10066.800811,-444.123565,1225.752797
2901.561316,-9178.553681,370.102971,0.000000
2901.561653,-9030.512492,0.000000,-1532.190996
2901.561990,-9844.739029,518.144159,-2374.896044
2901.562327,-9252.574275,592.164754,-2987.772442
2901.562665,-8438.347739,1036.288319,-1455.581446
2901.563002,-8660.409521,370.102971,0.000000
2901.563339,-9770.718434,888.247130,766.095498
2901.563677,-10510.924376,1184.329507,919.314598
2901.564014,-11103.089130,0.000000,1378.971896
2901.564351,-10436.903782,-962.267725,1685.410096
2901.564688,-9696.697840,-1036.288319,2145.067394
2901.565026,-10214.842000,-296.082377,3447.429741
2901.565363,-9252.574275,0.000000,1225.752797
2901.565700,-9474.636058,0.000000,-459.657299
2901.566037,-10510.924376,0.000000,229.828649
2901.566375,-9548.656652,444.123565,-612.876398
2901.566712,-9104.533087,888.247130,383.047749
2901.567049,-10510.924376,888.247130,612.876398
2901.567387,-10807.006753,1332.370696,-383.047749
2901.567724,-11029.068536,0.000000,-1072.533697
2901.568061,-10510.924376,-1110.308913,-842.705048
2901.568398,-9622.677246,-1480.411884,0.000000
2901.568736,-10288.862594,-2516.700203,153.219100
2901.569073,-9548.656652,-1776.494261,-76.609550
2901.569410,-9474.636058,-1998.556043,-1225.752797
2901.569747,-10807.006753,-2812.782580,-1149.143247
2901.570085,-9918.759623,-1998.556043,-1685.410096
2901.570422,-8734.430116,-1480.411884,-383.047749
2901.570759,-9622.677246,-888.247130,2068.457845
2901.571096,-10362.883188,-370.102971,1378.971896
2901.571434,-10955.047942,0.000000,1072.533697
2901.571771,-11325.150913,-1184.329507,1685.410096
2901.572108,-10807.006753,-444.123565,2451.505594
2901.572446,-10658.965565,-592.164754,2604.724693
2901.572783,-10436.903782,0.000000,2911.162892
2901.573120,-9030.512492,518.144159,2068.457845
2901.573457,-9548.656652,444.123565,919.314598
2901.573795,-10288.862594,888.247130,-76.609550
2901.574132,-9770.718434,962.267725,-1455.581446
2901.574469,-8882.471304,1850.514855,-1149.143247
2901.574806,-8956.491898,2368.659014,-459.657299
2901.575144,-9548.656652,2590.720797,-689.485948
2901.575481,-10288.862594,1924.535449,-1378.971896
2901.575818,-10362.883188,0.000000,-919.314598
2901.576155,-9992.780217,0.000000,0.000000
2901.576493,-9770.718434,-962.267725,919.314598
2901.576830,-9992.780217,-1554.432478,995.924147
2901.577167,-9104.533087,-1554.432478,383.047749
2901.577505,-9622.677246,-1702.473667,-153.219100
2901.577842,-10658.965565,-740.205942,0.000000
2901.578179,-9252.574275,-1258.350101,-1149.143247
2901.578516,-9178.553681,-370.102971,0.000000
2901.578854,-10436.903782,-444.123565,383.047749
2901.579191,-11177.109724,1480.411884,229.828649
2901.579528,-11103.089130,0.000000,536.266849
2901.579865,-11399.171507,-1184.329507,689.485948
2901.580203,-9474.636058,-1406.391290,1455.581446
2901.580540,-10066.800811,-1184.329507,2221.676944
2901.580877,-9992.780217,-888.247130,2068.457845
2901.581215,-10140.821405,-962.267725,76.609550
2901.581552,-11251.130318,-740.205942,-306.438199
2901.581889,-9474.636058,-666.185348,-1608.800546
2901.582226,-8956.491898,0.000000,-536.266849
2901.582564,-9474.636058,222.061783,612.876398
2901.582901,-10584.944971,148.041188,76.609550
2901.583238,-11251.130318,222.061783,-1072.533697
2901.583575,-11251.130318,-1110.308913,-919.314598
2901.583913,-10140.821405,-1998.556043,229.828649
2901.584250,-9992.780217,-2072.576638,1225.752797
2901.584587,-9548.656652,-1628.453072,2911.162892
2901.584924,-9104.533087,-666.185348,1378.971896
2901.585262,-9548.656652,-666.185348,612.876398
2901.585599,-11029.068536,-222.061783,612.876398
2901.585936,-9918.759623,296.082377,0.000000
2901.586274,-9326.594869,592.164754,459.657299
2901.586611,-9770.718434,2072.576638,2298.286494
2901.586948,-10436.903782,2220.617826,1762.019645
2901.587285,-10436.903782,2220.617826,612.876398
2901.587623,-10584.944971,1110.308913,612.876398
2901.587960,-10066.800811,888.247130,689.485948
2901.588297,-10288.862594,0.000000,689.485948
2901.588634,-9770.718434,74.020594,1149.143247
2901.588972,-8290.306550,222.061783,-383.047749
2901.589309,-9844.739029,-222.061783,-919.314598
2901.589646,-9844.739029,-296.082377,-1532.190996
2901.589983,-9030.512492,-518.144159,-2298.286494
2901.590321,-8956.491898,0.000000,-995.924147
2901.590658,-10658.965565,-444.123565,-1072.533697
2901.590995,-11251.130318,370.102971,-1149.143247
2901.591333,-11473.192101,-962.267725,-1072.533697
2901.591670,-10658.965565,-2516.700203,0.000000
2901.592007,-9474.636058,-2220.617826,229.828649
2901.592344,-9696.697840,-2812.782580,1378.971896
2901.592682,-9844.739029,-2590.720797,2145.067394
2901.593019,-9622.677246,-2442.679609,76.609550
2901.593356,-11251.130318,-1036.288319,919.314598
2901.593693,-10658.965565,-518.144159,306.438199
2901.594031,-9474.636058,0.000000,383.047749
2901.594368,-9770.718434,-296.082377,1608.800546
2901.594705,-10288.862594,1110.308913,1532.190996
2901.595042,-10732.986159,222.061783,612.876398
2901.595380,-10214.842000,-592.164754,1072.533697
2901.595717,-9548.656652,0.000000,842.705048
2901.596054,-10214.842000,-296.082377,995.924147
2901.596392,-10066.800811,-740.205942,1532.190996
2901.596729,-9252.574275,592.164754,-306.438199
2901.597066,-9474.636058,-666.185348,-536.266849
2901.597403,-10066.800811,-222.061783,-919.314598
2901.597741,-9622.677246,0.000000,-1838.629195
2901.598078,-9178.553681,0.000000,-383.047749
2901.598415,-9770.718434,518.144159,766.095498
2901.598752,-9918.759623,222.061783,0.000000
2901.599090,-10362.883188,444.123565,306.438199
2901.599427,-10362.883188,-814.226536,536.266849
2901.599764,-9400.615463,-370.102971,766.095498
2901.600101,-10214.842000,-1406.391290,2451.505594
2901.600439,-10140.821405,0.000000,2604.724693
2901.600776,-9474.636058,370.102971,1302.362347
2901.601113,-10955.047942,592.164754,612.876398
2901.601451,-10658.965565,296.082377,842.705048
2901.601788,-9474.636058,0.000000,0.000000
2901.602125,-9474.636058,1184.329507,919.314598
2901.602462,-11177.109724,444.123565,153.219100
2901.602800,-11103.089130,888.247130,-1072.533697
2901.603137,-9696.697840,-444.123565,-1838.629195
2901.603474,-9770.718434,-740.205942,-766.095498
2901.603811,-9252.574275,-1258.350101,-536.266849
2901.604149,-9918.759623,-1776.494261,-383.047749
2901.604486,-10362.883188,-740.205942,-612.876398
2901.604823,-9474.636058,-1258.350101,-1378.971896
2901.605160,-11029.068536,-1554.432478,-919.314598
2901.605498,-10584.944971,-1332.370696,-919.314598
2901.605835,-9326.594869,-1332.370696,0.000000
2901.606172,-9918.759623,-1258.350101,1608.800546
2901.606510,-9918.759623,-1036.288319,459.657299
2901.606847,-10584.944971,-888.247130,1072.533697
2901.607184,-11103.089130,-1406.391290,1532.190996
2901.607521,-9474.636058,-962.267725,1302.362347
2901.607859,-10140.821405,370.102971,2298.286494
2901.608196,-10288.862594,148.041188,2451.505594
2901.608533,-9326.594869,962.267725,1149.143247
2901.608870,-9918.759623,888.247130,383.047749
2901.609208,-10584.944971,1628.453072,766.095498
2901.609545,-10362.883188,1850.514855,-229.828649
2901.609882,-9918.759623,666.185348,-459.657299
2901.610219,-8956.491898,592.164754,76.609550
2901.610557,-9400.615463,1258.350101,76.609550
2901.610894,-10066.800811,518.144159,0.000000
2901.611231,-9844.739029,-296.082377,-842.705048
2901.611569,-9474.636058,0.000000,-1225.752797
2901.611906,-10436.903782,-962.267725,-612.876398
2901.612243,-10214.842000,-1036.288319,1072.533697
2901.612580,-9030.512492,-888.247130,76.609550
2901.612918,-10066.800811,-1036.288319,536.266849
2901.613255,-10214.842000,-740.205942,76.609550
2901.613592,-9326.594869,-1258.350101,-612.876398
2901.613929,-9696.697840,-1184.329507,995.924147
2901.614267,-10807.006753,-1258.350101,1532.190996
2901.614604,-10955.047942,0.000000,1302.362347
2901.614941,-10362.883188,-296.082377,76.609550
2901.615278,-10214.842000,-370.102971,612.876398
2901.615616,-9474.636058,-666.185348,689.485948
2901.615953,-10066.800811,-740.205942,1302.362347
2901.616290,-10066.800811,518.144159,1225.752797
2901.616628,-10510.924376,222.061783,0.000000
2901.616965,-11547.212695,148.041188,0.000000
2901.617302,-10658.965565,0.000000,-766.095498
2901.617639,-9178.553681,-592.164754,-459.657299
2901.617977,-9696.697840,-518.144159,612.876398
2901.618314,-9548.656652,-592.164754,-306.438199
2901.618651,-9992.780217,-592.164754,-1302.362347
2901.618988,-10140.821405,-962.267725,-1225.752797
2901.619326,-9844.739029,-1406.391290,-1225.752797
2901.619663,-9622.677246,-1702.473667,0.000000
2901.620000,-9622.677246,-1184.329507,1378.971896
2901.620338,-8364.327145,0.000000,689.485948
2901.620675,-9844.739029,-148.041188,1455.581446
2901.621012,-11325.150913,222.061783,2221.676944
2901.621349,-10658.965565,74.020594,1149.143247
2901.621687,-10140.821405,-444.123565,1838.629195
2901.622024,-9548.656652,814.226536,2451.505594
2901.622361,-9918.759623,592.164754,1685.410096
2901.622698,-9918.759623,888.247130,842.705048
2901.623036,-9326.594869,296.082377,-229.828649
2901.623373,-9918.759623,1184.329507,-536.266849
2901.623710,-10436.903782,1110.308913,-612.876398
2901.624047,-10362.883188,1332.370696,-995.924147
2901.624385,-9400.615463,222.061783,-919.314598
2901.624722,-10066.800811,222.061783,-1072.533697
2901.625059,-10955.047942,-444.123565,-153.219100
2901.625397,-9696.697840,-1036.288319,-919.314598
2901.625734,-8808.450710,-1258.350101,-229.828649
2901.626071,-10510.924376,-1850.514855,459.657299
2901.626408,-10214.842000,-1480.411884,-536.266849
2901.626746,-10584.944971,-1850.514855,-1072.533697
2901.627083,-10066.800811,-2368.659014,-1685.410096
2901.627420,-8660.409521,-2220.617826,-1838.629195
2901.627757,-9622.677246,-1924.535449,0.000000
2901.628095,-9770.718434,-1554.432478,766.095498
2901.628432,-9400.615463,-962.267725,612.876398
2901.628769,-11473.192101,-888.247130,1762.019645
2901.629106,-11621.233289,0.000000,1302.362347
2901.629444,-10436.903782,0.000000,1378.971896
2901.629781,-10288.862594,-148.041188,2298.286494
2901.630118,-9918.759623,296.082377,2528.115143
2901.630456,-10807.006753,444.123565,1225.752797
2901.630793,-10807.006753,370.102971,153.219100
2901.631130,-9992.780217,222.061783,-995.924147
2901.631467,-9548.656652,148.041188,-612.876398
2901.631805,-9178.553681,888.247130,0.000000
2901.632142,-8660.409521,1406.391290,-459.657299
2901.632479,-9770.718434,962.267725,-612.876398
2901.632816,-10436.903782,518.144159,-536.266849
2901.633154,-9992.780217,0.000000,-383.047749
2901.633491,-9474.636058,-518.144159,919.314598
2901.633828,-9622.677246,-444.123565,2374.896044
2901.634165,-9622.677246,-962.267725,1762.019645
2901.634503,-9844.739029,0.000000,612.876398
2901.634840,-9844.739029,-1184.329507,766.095498
2901.635177,-9844.739029,-148.041188,383.047749
2901.635515,-10066.800811,-1110.308913,306.438199
2901.635852,-10066.800811,518.144159,1915.238745
2901.636189,-9104.533087,1036.288319,612.876398
2901.636526,-10510.924376,518.144159,383.047749
2901.636864,-10658.965565,296.082377,612.876398
2901.637201,-10214.842000,-296.082377,153.219100
2901.637538,-9622.677246,-370.102971,1532.190996
2901.637875,-10807.006753,0.000000,2068.457845
2901.638213,-10584.944971,-148.041188,0.000000
2901.638550,-10510.924376,-1110.308913,-1225.752797
2901.638887,-9844.739029,-666.185348,-1225.752797
2901.639224,-9400.615463,-1258.350101,-1762.019645
2901.639562,-10288.862594,-1480.411884,-689.485948
2901.639899,-9326.594869,-592.164754,-1685.410096
2901.640236,-9474.636058,-666.185348,-1532.190996
2901.640574,-11325.150913,-370.102971,-459.657299
2901.640911,-11177.109724,-1110.308913,-919.314598
2901.641248,-9992.780217,-1110.308913,-306.438199
2901.641585,-9696.697840,-1628.453072,2145.067394
2901.641923,-10214.842000,-1480.411884,1915.238745
2901.642260,-10658.965565,-888.247130,1762.019645
2901.642597,-10807.006753,-1110.308913,1608.800546
2901.642934,-9474.636058,-888.247130,842.705048
2901.643272,-9474.636058,148.041188,1225.752797
2901.643609,-9696.697840,1110.308913,1455.581446
2901.643946,-8956.491898,1554.432478,842.705048
2901.644283,-9622.677246,1332.370696,383.047749
2901.644621,-10436.903782,2516.700203,-612.876398
2901.644958,-10658.965565,1924.535449,0.000000
2901.645295,-9844.739029,666.185348,229.828649
2901.645633,-8956.491898,888.247130,1455.581446
2901.645970,-9992.780217,962.267725,1302.362347
2901.646307,-10510.924376,444.123565,0.000000
2901.646644,-10584.944971,-814.226536,-1149.143247
2901.646982,-9622.677246,-518.144159,-1608.800546
2901.647319,-9548.656652,-1480.411884,-1225.752797
2901.647656,-8956.491898,-444.123565,-306.438199
2901.647993,-8808.450710,0.000000,-842.705048
2901.648331,-10732.986159,-296.082377,-612.876398
2901.648668,-10658.965565,-814.226536,-1225.752797
2901.649005,-9844.739029,-740.205942,-459.657299
2901.649342,-10362.883188,-1258.350101,2221.676944
2901.649680,-11251.130318,-1850.514855,2528.115143
2901.650017,-11251.130318,-814.226536,1455.581446
2901.650354,-11325.150913,-1554.432478,1225.752797
2901.650692,-10066.800811,-2368.659014,766.095498
2901.651029,-9400.615463,-2442.679609,0.000000
2901.651366,-9622.677246,-962.267725,919.314598
2901.651703,-9104.533087,0.000000,459.657299
2901.652041,-9548.656652,444.123565,-1225.752797
2901.652378,-11325.150913,296.082377,-1762.019645
2901.652715,-10807.006753,0.000000,-1225.752797
2901.653052,-9252.574275,-296.082377,-76.609550
2901.653390,-9770.718434,0.000000,1608.800546
2901.653727,-10807.006753,-444.123565,1149.143247
2901.654064,-11251.130318,-962.267725,-612.876398
2901.654401,-10732.986159,-2516.700203,-229.828649
2901.654739,-9104.533087,-2146.597232,-76.609550
2901.655076,-9326.594869,-1776.494261,153.219100
2901.655413,-8734.430116,-1184.329507,842.705048
2901.655751,-8438.347739,1036.288319,229.828649
2901.656088,-9622.677246,1110.308913,229.828649
2901.656425,-11029.068536,1998.556043,383.047749
2901.656762,-11177.109724,2220.617826,766.095498
2901.657100,-10362.883188,1406.391290,2681.334243
2901.657437,-10510.924376,2220.617826,3447.429741
2901.657774,-10510.924376,1702.473667,2374.896044
2901.658111,-9696.697840,888.247130,1225.752797
2901.658449,-9696.697840,-444.123565,1072.533697
2901.658786,-9178.553681,74.020594,0.000000
2901.659123,-9844.739029,518.144159,-383.047749
2901.659461,-8956.491898,1406.391290,-536.266849
2901.659798,-8882.471304,1628.453072,-1991.848295
2901.660135,-9622.677246,1332.370696,-1608.800546
2901.660472,-9622.677246,962.267725,-2757.943793
2901.660810,-9548.656652,0.000000,-1762.019645
2901.661147,-9548.656652,-666.185348,383.047749
2901.661484,-10658.965565,-1480.411884,1072.533697
2901.661821,-11029.068536,-1924.535449,229.828649
2901.662159,-11251.130318,-2664.741391,0.000000
2901.662496,-9844.739029,-3775.050304,-153.219100
2901.662833,-9326.594869,-3404.947333,-229.828649
2901.663170,-9622.677246,-2368.659014,0.000000
2901.663508,-8882.471304,-1184.329507,0.000000
2901.663845,-10066.800811,-592.164754,-229.828649
2901.664182,-11621.233289,148.041188,0.000000
2901.664520,-11621.233289,814.226536,536.266849
2901.664857,-10362.883188,370.102971,1608.800546
2901.665194,-10510.924376,-296.082377,3294.210641
2901.665531,-11547.212695,74.020594,3677.258390
2901.665869,-11399.171507,-370.102971,995.924147
2901.666206,-10732.986159,-814.226536,76.609550
2901.666543,-9400.615463,-1184.329507,-919.314598
2901.666880,-8364.327145,-962.267725,-1455.581446
2901.667218,-7698.141797,0.000000,-842.705048
2901.667555,-7994.224174,1554.432478,-1838.629195
2901.667892,-9548.656652,1628.453072,-1225.752797
2901.668229,-11029.068536,1480.411884,-1915.238745
2901.668567,-10732.986159,1332.370696,-612.876398
2901.668904,-9844.739029,296.082377,1991.848295
2901.669241,-10584.944971,0.000000,3907.087040
2901.669578,-10658.965565,-666.185348,2528.115143
2901.669916,-10140.821405,-1332.370696,1762.019645
2901.670253,-8956.491898,-2664.741391,2145.067394
2901.670590,-8808.450710,-1998.556043,842.705048
2901.670927,-9622.677246,-1332.370696,536.266849
2901.671265,-9474.636058,1184.329507,-229.828649
2901.671602,-9474.636058,1332.370696,-1149.143247
2901.671939,-10732.986159,1998.556043,-1149.143247
2901.672276,-10362.883188,1776.494261,-842.705048
2901.672613,-9770.718434,666.185348,536.266849
2901.672951,-9548.656652,0.000000,2145.067394
2901.673288,-11769.274478,-222.061783,2987.772442
2901.673625,-12435.459826,-962.267725,1762.019645
2901.673962,-10881.027347,-2516.700203,229.828649
2901.674300,-9696.697840,-3256.906145,-612.876398
2901.674637,-9030.512492,-2590.720797,-2068.457845
2901.674974,-8734.430116,-1702.473667,-2221.676944
2901.675311,-7994.224174,-518.144159,-2604.724693
2901.675648,-9400.615463,-296.082377,-3064.381992
2901.675986,-11547.212695,0.000000,-2374.896044
2901.676323,-11917.315666,0.000000,-1838.629195
2901.676660,-10140.821405,-740.205942,842.705048
2901.676997,-10066.800811,-2368.659014,3600.648841
2901.677335,-10214.842000,-1850.514855,4213.525239
2901.677672,-10881.027347,-2146.597232,3447.429741
2901.678009,-11325.150913,-2442.679609,2987.772442
2901.678346,-10066.800811,-1924.535449,1072.533697
2901.678683,-9252.574275,-592.164754,919.314598
2901.679021,-8660.409521,1332.370696,612.876398
2901.679358,-7920.203579,2368.659014,-842.705048
2901.679695,-9326.594869,2368.659014,-1455.581446
2901.680032,-9992.780217,2886.803174,-1762.019645
2901.680370,-9918.759623,2886.803174,-995.924147
2901.680707,-9622.677246,1776.494261,1455.581446
2901.681044,-10214.842000,1332.370696,2911.162892
2901.681381,-11251.130318,518.144159,2298.286494
2901.681718,-11251.130318,-1258.350101,995.924147
2901.682056,-9030.512492,-962.267725,0.000000
2901.682393,-8660.409521,-2220.617826,-306.438199
2901.682730,-9252.574275,-666.185348,-153.219100
2901.683067,-8290.306550,222.061783,-1608.800546
2901.683405,-9918.759623,1110.308913,-2451.505594
2901.683742,-11103.089130,666.185348,-3064.381992
2901.684079,-10510.924376,740.205942,-2374.896044
2901.684416,-9770.718434,74.020594,536.266849
2901.684753,-9400.615463,666.185348,3064.381992
2901.685091,-12065.356855,-740.205942,3983.696590
2901.685428,-12361.439231,-962.267725,2528.115143
2901.685765,-11695.253884,-2072.576638,2451.505594
2901.686102,-10510.924376,-2738.761985,2298.286494
2901.686440,-9178.553681,-1998.556043,1302.362347
2901.686777,-8956.491898,-740.205942,842.705048
2901.687114,-8438.347739,666.185348,-536.266849
2901.687451,-9474.636058,962.267725,-2681.334243
2901.687788,-10658.965565,1776.494261,-3370.820191
2901.688126,-10362.883188,592.164754,-2298.286494
2901.688463,-9326.594869,-148.041188,0.000000
2901.688800,-10066.800811,-740.205942,1762.019645
2901.689137,-10955.047942,-592.164754,1302.362347
2901.689475,-10732.986159,-1924.535449,383.047749
2901.689812,-10362.883188,-3330.926739,536.266849
2901.690149,-9030.512492,-3849.070898,459.657299
2901.690486,-9400.615463,-1850.514855,995.924147
2901.690823,-9326.594869,-222.061783,383.047749
2901.691161,-8882.471304,74.020594,-1455.581446
2901.691498,-10140.821405,518.144159,-1455.581446
2901.691835,-10955.047942,1406.391290,-842.705048
2901.692172,-10214.842000,1184.329507,842.705048
2901.692510,-10214.842000,888.247130,2374.896044
2901.692847,-10955.047942,1850.514855,3753.867940
2901.693184,-11547.212695,888.247130,2757.943793
2901.693521,-11325.150913,-296.082377,2374.896044
2901.693858,-9992.780217,-592.164754,2145.067394
2901.694196,-8956.491898,-814.226536,459.657299
2901.694533,-9252.574275,518.144159,0.000000
2901.694870,-9474.636058,444.123565,-1225.752797
2901.695207,-8808.450710,666.185348,-2451.505594
2901.695545,-9400.615463,-666.185348,-3217.601092
2901.695882,-9474.636058,888.247130,-1991.848295
2901.696219,-9326.594869,444.123565,-995.924147
2901.696556,-9548.656652,0.000000,0.000000
2901.696893,-11103.089130,-1924.535449,1072.533697
2901.697231,-11399.171507,-1924.535449,459.657299
2901.697568,-11029.068536,-3478.967927,1378.971896
2901.697905,-10584.944971,-3404.947333,1838.629195
2901.698242,-9104.533087,-2960.823768,459.657299
2901.698580,-9030.512492,-2368.659014,612.876398
2901.698917,-9474.636058,-962.267725,-536.266849
2901.699254,-10288.862594,0.000000,-1302.362347
2901.699591,-11029.068536,888.247130,-842.705048
2901.699928,-10584.944971,1110.308913,229.828649
2901.700266,-9548.656652,1184.329507,1455.581446
2901.700603,-10807.006753,1110.308913,3524.039291
2901.700940,-11769.274478,518.144159,3217.601092
2901.701277,-11695.253884,-74.020594,1838.629195
2901.701615,-11769.274478,-666.185348,2451.505594
2901.701952,-10066.800811,-1184.329507,689.485948
2901.702289,-8660.409521,-1406.391290,-306.438199
2901.702626,-8364.327145,222.061783,-689.485948
2901.702963,-7476.080014,74.020594,-3064.381992
2901.703301,-9474.636058,1110.308913,-3370.820191
2901.703638,-9400.615463,1184.329507,-3600.648841
2901.703975,-9252.574275,1554.432478,-1991.848295
2901.704312,-9474.636058,666.185348,842.705048
2901.704650,-10436.903782,1184.329507,1378.971896
2901.704987,-11695.253884,148.041188,1838.629195
2901.705324,-10732.986159,-1184.329507,2374.896044
2901.705661,-9548.656652,-2368.659014,2834.553343
2901.705998,-9770.718434,-1998.556043,3447.429741
2901.706336,-9474.636058,-666.185348,2528.115143
2901.706673,-9326.594869,592.164754,612.876398
2901.707010,-10288.862594,1184.329507,-995.924147
2901.707347,-10362.883188,1998.556043,-1762.019645
2901.707685,-9844.739029,2220.617826,-1838.629195
2901.708022,-8956.491898,1480.411884,-536.266849
2901.708359,-9474.636058,888.247130,1149.143247
2901.708696,-11103.089130,444.123565,1455.581446
2901.709033,-11621.233289,-74.020594,766.095498
2901.709371,-11251.130318,-2368.659014,1225.752797
2901.709708,-10955.047942,-2590.720797,1149.143247
2901.710045,-10140.821405,-2442.679609,76.609550
2901.710382,-9030.512492,-1554.432478,-1072.533697
2901.710720,-8216.285956,-2220.617826,-1915.238745
2901.711057,-9326.594869,-1776.494261,-2451.505594
2901.711394,-10658.965565,-444.123565,-2834.553343
2901.711731,-9992.780217,444.123565,-1762.019645
2901.712068,-9992.780217,-370.102971,-306.438199
2901.712406,-10807.006753,-814.226536,1378.971896
2901.712743,-11251.130318,-962.267725,2451.505594
2901.713080,-11325.150913,-2146.597232,3294.210641
2901.713417,-11251.130318,-1998.556043,3370.820191
2901.713755,-10584.944971,-1850.514855,2451.505594
2901.714092,-10288.862594,-1258.350101,2298.286494
2901.714429,-8882.471304,518.144159,1608.800546
2901.714766,-9252.574275,740.205942,0.000000
2901.715103,-9548.656652,1628.453072,-1378.971896
2901.715441,-9400.615463,2294.638420,-2221.676944
2901.715778,-9178.553681,2590.720797,-1378.971896
2901.716115,-9178.553681,2072.576638,0.000000
2901.716452,-10807.006753,1628.453072,1149.143247
2901.716790,-11695.253884,1480.411884,1149.143247
2901.717127,-10288.862594,-444.123565,689.485948
2901.717464,-9992.780217,-1702.473667,1302.362347
2901.717801,-9400.615463,-2368.659014,1072.533697
2901.718138,-8956.491898,-2072.576638,766.095498
2901.718476,-9030.512492,-1036.288319,0.000000
2901.718813,-9844.739029,-222.061783,-1685.410096
2901.719150,-10510.924376,222.061783,-2145.067394
2901.719487,-9918.759623,666.185348,-2451.505594
2901.719825,-8882.471304,222.061783,-995.924147
2901.720162,-10214.842000,296.082377,995.924147
2901.720499,-11399.171507,444.123565,1838.629195
2901.720836,-11769.274478,-370.102971,1302.362347
2901.721173,-11843.295072,-1480.411884,1838.629195
2901.721511,-10584.944971,-2294.638420,2681.334243
2901.721848,-9548.656652,-2368.659014,1302.362347
2901.722185,-9474.636058,-1702.473667,1762.019645
2901.722522,-9104.533087,-222.061783,-306.438199
2901.722860,-9770.718434,296.082377,-2221.676944
2901.723197,-10436.903782,1110.308913,-3140.991542
2901.723534,-9400.615463,814.226536,-2451.505594
2901.723871,-9400.615463,666.185348,-919.314598
2901.724208,-9696.697840,222.061783,0.000000
2901.724546,-10881.027347,296.082377,383.047749
2901.724883,-11103.089130,-2072.576638,306.438199
2901.725220,-10807.006753,-2368.659014,1532.190996
2901.725557,-10362.883188,-2960.823768,1608.800546
2901.725895,-9992.780217,-1702.473667,1838.629195
2901.726232,-8956.491898,-740.205942,229.828649
2901.726569,-9252.574275,-592.164754,-689.485948
2901.726906,-9696.697840,0.000000,-842.705048
2901.727243,-9474.636058,1110.308913,-1072.533697
2901.727581,-9474.636058,1480.411884,0.000000
2901.727918,-10066.800811,1850.514855,1838.629195
2901.728255,-11103.089130,2072.576638,2374.896044
2901.728592,-10584.944971,1998.556043,2145.067394
2901.728929,-10288.862594,888.247130,2451.505594
2901.729267,-9918.759623,-1036.288319,2604.724693
2901.729604,-10140.821405,-1184.329507,1838.629195
2901.729941,-9326.594869,0.000000,1378.971896
2901.730278,-8660.409521,518.144159,-689.485948
2901.730616,-9474.636058,740.205942,-2145.067394
2901.730953,-10066.800811,222.061783,-3064.381992
2901.731290,-9622.677246,962.267725,-3217.601092
2901.731627,-9030.512492,0.000000,-2068.457845
2901.731964,-8956.491898,-222.061783,-1149.143247
2901.732302,-10288.862594,-592.164754,-229.828649
2901.732639,-11473.192101,-1924.535449,306.438199
2901.732976,-11029.068536,-2738.761985,689.485948
2901.733313,-10584.944971,-3182.885551,1302.362347
2901.733651,-9844.739029,-3775.050304,1915.238745
2901.733988,-9252.574275,-2960.823768,1072.533697
2901.734325,-8956.491898,-2368.659014,153.219100
2901.734662,-10288.862594,-222.061783,-766.095498
2901.734999,-10807.006753,0.000000,-1378.971896
2901.735337,-10214.842000,0.000000,-229.828649
2901.735674,-9474.636058,1554.432478,459.657299
2901.736011,-10732.986159,1110.308913,1915.238745
2901.736348,-11621.233289,888.247130,1838.629195
2901.736686,-11103.089130,-444.123565,919.314598
2901.737023,-11251.130318,-814.226536,2298.286494
2901.737360,-10436.903782,-1184.329507,1149.143247
2901.737697,-9474.636058,-1480.411884,1072.533697
2901.738034,-9030.512492,-370.102971,919.314598
2901.738372,-9030.512492,-370.102971,-919.314598
2901.738709,-9548.656652,296.082377,-2451.505594
2901.739046,-9400.615463,592.164754,-2834.553343
2901.739383,-8660.409521,518.144159,-1608.800546
2901.739721,-9400.615463,74.020594,536.266849
2901.740058,-10436.903782,1776.494261,1149.143247
2901.740395,-11103.089130,962.267725,1149.143247
2901.740732,-11325.150913,-666.185348,1302.362347
2901.741069,-9992.780217,-1184.329507,2681.334243
2901.741407,-9474.636058,-1554.432478,2604.724693
2901.741744,-9696.697840,-222.061783,3140.991542
2901.742081,-9622.677246,518.144159,1149.143247
2901.742418,-10658.965565,592.164754,-459.657299
2901.742756,-10584.944971,1554.432478,-1532.190996
2901.743093,-10288.862594,2220.617826,-1991.848295
2901.743430,-9474.636058,1332.370696,-459.657299
2901.743767,-9252.574275,888.247130,-459.657299
2901.744104,-10288.862594,1628.453072,-766.095498
2901.744442,-11029.068536,0.000000,0.000000
2901.744779,-10807.006753,-1036.288319,306.438199
2901.745116,-10732.986159,-2368.659014,153.219100
2901.745453,-10288.862594,-2516.700203,536.266849
2901.745791,-8364.327145,-1776.494261,-459.657299
2901.746128,-9030.512492,-1998.556043,-612.876398
2901.746465,-10362.883188,-2294.638420,-1378.971896
2901.746802,-9992.780217,-1480.411884,-2911.162892
2901.747139,-9844.739029,-888.247130,-1685.410096
2901.747477,-9696.697840,0.000000,-229.828649
2901.747814,-10214.842000,-222.061783,536.266849
2901.748151,-11103.089130,-370.102971,995.924147
2901.748488,-11177.109724,-1480.411884,1455.581446
2901.748826,-10881.027347,-1702.473667,2681.334243
2901.749163,-10584.944971,-1850.514855,2604.724693
2901.749500,-9918.759623,-1406.391290,3217.601092
2901.749837,-9696.697840,370.102971,2834.553343
2901.750174,-9696.697840,518.144159,1455.581446
2901.750512,-10362.883188,1406.391290,-306.438199
2901.750849,-9770.718434,1258.350101,-1302.362347
2901.751186,-8734.430116,2072.576638,-919.314598
2901.751523,-8734.430116,1776.494261,-306.438199
2901.751861,-10140.821405,2442.679609,-383.047749
2901.752198,-10140.821405,1480.411884,-153.219100
2901.752535,-9474.636058,0.000000,-229.828649
2901.752872,-9474.636058,0.000000,306.438199
2901.753209,-9178.553681,-1480.411884,1225.752797
2901.753547,-9548.656652,-1628.453072,2911.162892
2901.753884,-9548.656652,-1184.329507,1608.800546
2901.754221,-10807.006753,-296.082377,383.047749
2901.754558,-10658.965565,0.000000,-995.924147
2901.754896,-9400.615463,-1036.288319,-1149.143247
2901.755233,-9252.574275,-296.082377,919.314598
2901.755570,-9178.553681,0.000000,0.000000
2901.755907,-10288.862594,296.082377,1149.143247
2901.756244,-11695.253884,-74.020594,76.609550
2901.756582,-11103.089130,-1110.308913,766.095498
2901.756919,-10807.006753,-1406.391290,1302.362347
2901.757256,-10140.821405,-1776.494261,2068.457845
2901.757593,-9400.615463,-1628.453072,1685.410096
2901.757931,-10140.821405,-74.020594,766.095498
2901.758268,-10732.986159,-740.205942,-536.266849
2901.758605,-10732.986159,-666.185348,-1762.019645
2901.758942,-10214.842000,-666.185348,-1072.533697
2901.759279,-9400.615463,-740.205942,-919.314598
2901.759617,-9992.780217,-370.102971,-229.828649
2901.759954,-10732.986159,0.000000,-766.095498
2901.760291,-10214.842000,-1406.391290,-1532.190996
2901.760628,-10214.842000,-1924.535449,0.000000
2901.760966,-10066.800811,-2294.638420,766.095498
2901.761303,-9992.780217,-962.267725,1225.752797
2901.761640,-10066.800811,-592.164754,689.485948
2901.761977,-9844.739029,0.000000,0.000000
2901.762314,-9918.759623,-1184.329507,0.000000
2901.762652,-9696.697840,-296.082377,919.314598
2901.762989,-8586.388927,814.226536,1915.238745
2901.763326,-10066.800811,962.267725,2298.286494
2901.763663,-11103.089130,1702.473667,1302.362347
2901.764001,-10362.883188,2442.679609,766.095498
2901.764338,-10362.883188,1036.288319,1455.581446
2901.764675,-9252.574275,1110.308913,919.314598
2901.765012,-9548.656652,0.000000,1225.752797
2901.765349,-9178.553681,1332.370696,1532.190996
2901.765687,-9548.656652,1110.308913,-612.876398
2901.766024,-11029.068536,0.000000,-1072.533697
2901.766361,-9770.718434,-370.102971,-2221.676944
2901.766698,-9104.533087,-592.164754,-1608.800546
2901.767036,-8734.430116,-666.185348,-459.657299
2901.767374,-8734.430116,-666.185348,-919.314598
2901.767711,-10881.027347,0.000000,-766.095498
2901.768049,-11325.150913,-1332.370696,-1455.581446
2901.768386,-10732.986159,-1184.329507,-689.485948
2901.768723,-10955.047942,-1406.391290,-306.438199
2901.769061,-10214.842000,-1924.535449,536.266849
2901.769398,-10066.800811,-1480.411884,1302.362347
2901.769735,-10658.965565,-1850.514855,536.266849
2901.770072,-10881.027347,-1258.350101,229.828649
2901.770410,-10732.986159,-1332.370696,76.609550
2901.770747,-9844.739029,-962.267725,1225.752797
2901.771084,-9326.594869,0.000000,1302.362347
2901.771422,-10362.883188,592.164754,1608.800546
2901.771759,-10362.883188,814.226536,1225.752797
2901.772096,-11177.109724,-592.164754,1072.533697
2901.772434,-10510.924376,-370.102971,1072.533697
2901.772771,-9400.615463,-592.164754,1225.752797
2901.773108,-9548.656652,0.000000,1072.533697
2901.773446,-9622.677246,0.000000,229.828649
2901.773783,-9844.739029,0.000000,-1149.143247
2901.774120,-9770.718434,-592.164754,-1532.190996
2901.774457,-9104.533087,-370.102971,-1378.971896
2901.774795,-8808.450710,0.000000,76.609550
2901.775132,-9622.677246,444.123565,842.705048
2901.775469,-10066.800811,1628.453072,0.000000
2901.775807,-10881.027347,1850.514855,229.828649
2901.776144,-11029.068536,518.144159,1225.752797
2901.776481,-9918.759623,148.041188,1762.019645
2901.776819,-10362.883188,-666.185348,3217.601092
2901.777156,-10510.924376,1258.350101,2987.772442
2901.777493,-9918.759623,444.123565,1072.533697
2901.777831,-10881.027347,0.000000,459.657299
2901.778168,-9770.718434,0.000000,0.000000
2901.778505,-8808.450710,0.000000,-383.047749
2901.778842,-9030.512492,814.226536,306.438199
2901.779180,-9252.574275,666.185348,-383.047749
2901.779517,-10584.944971,1776.494261,-1225.752797
2901.779854,-10288.862594,74.020594,-2298.286494
2901.780192,-9918.759623,-370.102971,-1378.971896
2901.780529,-9770.718434,-1258.350101,-306.438199
2901.780866,-9770.718434,-1850.514855,0.000000
2901.781204,-9622.677246,-592.164754,-383.047749
2901.781541,-10140.821405,-1850.514855,-1608.800546
2901.781878,-10807.006753,-2368.659014,-1991.848295
2901.782216,-10140.821405,-2590.720797,-1378.971896
2901.782553,-9622.677246,-1406.391290,-459.657299
2901.782890,-9622.677246,-1628.453072,229.828649
2901.783227,-10214.842000,-740.205942,76.609550
2901.783565,-11029.068536,-1036.288319,153.219100
2901.783902,-11029.068536,-1184.329507,1302.362347
2901.784239,-9918.759623,-1258.350101,1685.410096
2901.784577,-9992.780217,-444.123565,1838.629195
2901.784914,-10584.944971,-444.123565,3294.210641
2901.785251,-9622.677246,370.102971,2298.286494
2901.785589,-10288.862594,0.000000,1685.410096
2901.785926,-10658.965565,666.185348,766.095498
2901.786263,-9252.574275,0.000000,76.609550
2901.786600,-9104.533087,814.226536,229.828649
2901.786938,-8956.491898,1036.288319,459.657299
2901.787275,-9844.739029,1554.432478,-459.657299
2901.787612,-10584.944971,592.164754,-919.314598
2901.787950,-10140.821405,-370.102971,-536.266849
2901.788287,-9770.718434,222.061783,0.000000
2901.788624,-9400.615463,-1184.329507,612.876398
2901.788962,-9770.718434,-148.041188,1455.581446
2901.789299,-9992.780217,-1110.308913,536.266849
2901.789636,-11177.109724,-592.164754,383.047749
2901.789974,-10658.965565,-740.205942,-612.876398
2901.790311,-9400.615463,-1184.329507,-612.876398
2901.790648,-9104.533087,-1184.329507,766.095498
2901.790985,-9252.574275,-1036.288319,919.314598
2901.791323,-10214.842000,222.061783,995.924147
2901.791660,-11251.130318,-962.267725,76.609550
2901.791997,-10436.903782,-370.102971,229.828649
2901.792335,-9918.759623,-814.226536,689.485948
2901.792672,-9992.780217,-962.267725,1532.190996
2901.793009,-10066.800811,-592.164754,919.314598
2901.793347,-10584.944971,-592.164754,-842.705048
2901.793684,-11103.089130,-814.226536,-995.924147
2901.794021,-9548.656652,-888.247130,-1378.971896
2901.794359,-9178.553681,-296.082377,-536.266849
2901.794696,-10066.800811,-740.205942,-229.828649
2901.795033,-10510.924376,-296.082377,-842.705048
2901.795370,-10955.047942,0.000000,-1455.581446
2901.795708,-10955.047942,-1406.391290,-1302.362347
2901.796045,-10066.800811,-1332.370696,-612.876398
2901.796382,-9178.553681,-1924.535449,459.657299
2901.796720,-9696.697840,-1184.329507,1302.362347
2901.797057,-9696.697840,0.000000,842.705048
2901.797394,-11177.109724,-370.102971,766.095498
2901.797732,-11399.171507,-222.061783,842.705048
2901.798069,-9548.656652,-222.061783,1072.533697
2901.798406,-9474.636058,1110.308913,2604.724693
2901.798744,-9474.636058,1998.556043,2681.334243
2901.799081,-10066.800811,2220.617826,1608.800546
2901.799418,-10288.862594,1998.556043,229.828649
2901.799755,-9548.656652,1036.288319,459.657299
2901.800093,-9104.533087,1702.473667,766.095498
2901.800430,-9548.656652,814.226536,1149.143247
2901.800767,-9400.615463,1998.556043,612.876398
2901.801105,-9400.615463,1628.453072,-459.657299
2901.801442,-10510.924376,1406.391290,-766.095498
2901.801779,-10140.821405,296.082377,-995.924147
2901.802117,-9474.636058,0.000000,-995.924147
2901.802454,-8882.471304,-444.123565,0.000000
2901.802791,-9548.656652,-1036.288319,-612.876398
2901.803129,-10214.842000,-370.102971,-459.657299
2901.803466,-11029.068536,-1850.514855,0.000000
2901.803803,-10807.006753,-1480.411884,-459.657299
2901.804140,-10362.883188,-1776.494261,-766.095498
2901.804478,-10732.986159,-1332.370696,842.705048
2901.804815,-9770.718434,-1480.411884,1072.533697
2901.805152,-10658.965565,-1258.350101,229.828649
2901.805490,-11103.089130,-962.267725,383.047749
2901.805827,-10658.965565,-666.185348,153.219100
2901.806164,-10510.924376,-740.205942,1149.143247
2901.806502,-10436.903782,-888.247130,1302.362347
2901.806839,-9474.636058,-296.082377,1455.581446
2901.807176,-10584.944971,-444.123565,459.657299
2901.807513,-10066.800811,-1036.288319,0.000000
2901.807851,-9474.636058,-296.082377,76.609550
2901.808188,-9474.636058,-444.123565,766.095498
2901.808525,-9474.636058,592.164754,536.266849
2901.808863,-9696.697840,518.144159,-76.609550
2901.809200,-10510.924376,0.000000,-689.485948
2901.809537,-10436.903782,0.000000,-842.705048
2901.809875,-9992.780217,-740.205942,-1072.533697
2901.810212,-9474.636058,-518.144159,229.828649
2901.810549,-9030.512492,-1036.288319,689.485948
2901.810887,-9844.739029,-518.144159,689.485948
2901.811224,-9992.780217,0.000000,153.219100
2901.811561,-10362.883188,-592.164754,229.828649
2901.811898,-9474.636058,-518.144159,153.219100
2901.812236,-9474.636058,-444.123565,1455.581446
2901.812573,-9844.739029,1184.329507,2068.457845
2901.812910,-9844.739029,1036.288319,383.047749
2901.813248,-11029.068536,1110.308913,766.095498
2901.813585,-10510.924376,222.061783,536.266849
2901.813922,-9326.594869,74.020594,0.000000
2901.814260,-9844.739029,-444.123565,1302.362347
2901.814597,-10066.800811,0.000000,383.047749
2901.814934,-10066.800811,-370.102971,-153.219100
2901.815272,-10436.903782,0.000000,153.219100
2901.815609,-8956.491898,-370.102971,-1838.629195
2901.815946,-9844.739029,-1036.288319,-1225.752797
2901.816283,-10362.883188,-592.164754,-842.705048
2901.816621,-9548.656652,0.000000,-1532.190996
2901.816958,-10436.903782,-1406.391290,-1378.971896
2901.817295,-10881.027347,-1702.473667,-919.314598
2901.817633,-10140.821405,-1480.411884,-995.924147
2901.817970,-10362.883188,-1776.494261,459.657299
2901.818307,-9770.718434,-2220.617826,1072.533697
2901.818645,-10066.800811,-1850.514855,1225.752797
2901.818982,-10955.047942,-814.226536,1072.533697
2901.819319,-10510.924376,-1184.329507,689.485948
2901.819657,-10066.800811,-370.102971,1149.143247
2901.819994,-10436.903782,-148.041188,1915.238745
2901.820331,-9770.718434,592.164754,2374.896044
2901.820668,-9474.636058,1480.411884,2987.772442
2901.821006,-10362.883188,1258.350101,2298.286494
2901.821343,-11103.089130,2220.617826,766.095498
2901.821680,-11029.068536,1480.411884,229.828649
2901.822018,-9918.759623,962.267725,459.657299
2901.822355,-9104.533087,666.185348,766.095498
2901.822692,-9030.512492,1184.329507,842.705048
2901.823030,-9474.636058,888.247130,-459.657299
2901.823367,-9030.512492,0.000000,-919.314598
2901.823704,-9178.553681,518.144159,-1302.362347
2901.824042,-9622.677246,518.144159,-459.657299
2901.824379,-10584.944971,962.267725,0.000000
2901.824716,-9548.656652,814.226536,-459.657299
2901.825053,-10807.006753,0.000000,153.219100
2901.825391,-10436.903782,-148.041188,536.266849
2901.825728,-9474.636058,-888.247130,689.485948
2901.826065,-9844.739029,-1406.391290,2221.676944
2901.826403,-9918.759623,-1628.453072,1762.019645
2901.826740,-10066.800811,-518.144159,842.705048
2901.827077,-11695.253884,-740.205942,919.314598
2901.827415,-9918.759623,-296.082377,0.000000
2901.827752,-9770.718434,-888.247130,-383.047749
2901.828089,-9844.739029,-740.205942,153.219100
2901.828426,-9326.594869,518.144159,-229.828649
2901.828764,-10510.924376,296.082377,-383.047749
2901.829101,-10955.047942,-296.082377,-919.314598
2901.829438,-10510.924376,-370.102971,-1532.190996
2901.829776,-10732.986159,-888.247130,-383.047749
2901.830113,-10140.821405,-1406.391290,76.609550
2901.830450,-9844.739029,-1258.350101,-459.657299
2901.830788,-10362.883188,-1110.308913,-842.705048
2901.831125,-10436.903782,-1554.432478,-842.705048
2901.831462,-9770.718434,-1776.494261,-766.095498
2901.831800,-9770.718434,-1998.556043,0.000000
2901.832137,-9178.553681,-1036.288319,1072.533697
2901.832474,-8882.471304,0.000000,536.266849
2901.832811,-10066.800811,0.000000,919.314598
2901.833149,-11177.109724,-296.082377,1072.533697
2901.833486,-10510.924376,74.020594,1455.581446
2901.833823,-10362.883188,518.144159,2221.676944
2901.834161,-9548.656652,222.061783,2987.772442
2901.834498,-9252.574275,814.226536,2298.286494
2901.834835,-9918.759623,222.061783,1762.019645
2901.835173,-10066.800811,370.102971,1302.362347
2901.835510,-9252.574275,814.226536,76.609550
2901.835847,-9474.636058,518.144159,459.657299
2901.836185,-9252.574275,1850.514855,-306.438199
2901.836522,-9030.512492,1184.329507,-1608.800546
2901.836859,-10140.821405,1480.411884,-229.828649
2901.837196,-10584.944971,518.144159,-1532.190996
2901.837534,-9400.615463,-740.205942,-1225.752797
2901.837871,-9400.615463,-592.164754,459.657299
2901.838208,-9622.677246,-1258.350101,229.828649
2901.838546,-10955.047942,-1036.288319,0.000000
2901.838883,-11843.295072,-1924.535449,383.047749
2901.839220,-10362.883188,-2368.659014,-383.047749
2901.839558,-9696.697840,-2294.638420,383.047749
2901.839895,-9622.677246,-1406.391290,612.876398
2901.840232,-9548.656652,-888.247130,153.219100
2901.840570,-10436.903782,-1036.288319,0.000000
2901.840907,-11177.109724,-1258.350101,-76.609550
2901.841244,-11251.130318,-74.020594,0.000000
2901.841581,-10510.924376,-666.185348,1225.752797
2901.841919,-9548.656652,-814.226536,1838.629195
2901.842256,-10066.800811,-370.102971,1532.190996
2901.842593,-10658.965565,-444.123565,612.876398
2901.842931,-10955.047942,-1036.288319,0.000000
2901.843268,-9770.718434,-1184.329507,0.000000
2901.843605,-9400.615463,-1184.329507,76.609550
2901.843943,-9030.512492,0.000000,-459.657299
2901.844280,-9104.533087,518.144159,-1072.533697
2901.844617,-9992.780217,740.205942,-1149.143247
2901.844955,-10955.047942,666.185348,-1685.410096
2901.845292,-9992.780217,444.123565,-1302.362347
2901.845629,-9918.759623,370.102971,229.828649
2901.845966,-9992.780217,518.144159,1762.019645
2901.846304,-10066.800811,0.000000,919.314598
2901.846641,-10362.883188,518.144159,995.924147
2901.846978,-9474.636058,-518.144159,383.047749
2901.847316,-9030.512492,-592.164754,919.314598
2901.847653,-10436.903782,-148.041188,1762.019645
2901.847990,-9400.615463,1850.514855,842.705048
2901.848328,-9992.780217,2294.638420,306.438199
2901.848665,-11103.089130,1776.494261,306.438199
2901.849002,-10436.903782,1480.411884,-76.609550
2901.849339,-9104.533087,814.226536,1072.533697
2901.849677,-9178.553681,0.000000,2068.457845
2901.850014,-9548.656652,370.102971,1762.019645
2901.850351,-10955.047942,0.000000,536.266849
2901.850689,-11029.068536,-1110.308913,0.000000
2901.851026,-9622.677246,-1258.350101,-995.924147
2901.851363,-9622.677246,-1702.473667,-1225.752797
2901.851701,-9696.697840,-1998.556043,-306.438199
2901.852038,-8364.327145,-518.144159,-1532.190996
2901.852375,-9918.759623,-740.205942,-1225.752797
2901.852713,-11325.150913,-1036.288319,-995.924147
2901.853050,-11103.089130,-1184.329507,-1378.971896
2901.853387,-10955.047942,-962.267725,383.047749
2901.853724,-10881.027347,-1110.308913,1378.971896
2901.854062,-10584.944971,-1480.411884,1762.019645
2901.854399,-11843.295072,-1554.432478,1455.581446
2901.854736,-10732.986159,-1924.535449,1225.752797
2901.855074,-9992.780217,-2294.638420,995.924147
2901.855411,-10140.821405,-1554.432478,1991.848295
2901.855748,-9474.636058,74.020594,1685.410096
2901.856086,-9178.553681,1332.370696,1225.752797
2901.856423,-9548.656652,1036.288319,612.876398
2901.856760,-10362.883188,1702.473667,689.485948
2901.857098,-10140.821405,2146.597232,689.485948
2901.857435,-9770.718434,1406.391290,1608.800546
2901.857772,-10658.965565,1702.473667,1225.752797
2901.858109,-10214.842000,888.247130,0.000000
2901.858447,-10214.842000,0.000000,-153.219100
2901.858784,-8956.491898,-1110.308913,-1149.143247
2901.859121,-7476.080014,-1258.350101,-1608.800546
2901.859459,-8734.430116,-444.123565,-383.047749
2901.859796,-9030.512492,888.247130,-2068.457845
2901.860133,-9918.759623,1258.350101,-1838.629195
2901.860471,-11473.192101,1110.308913,-1149.143247
2901.860808,-11103.089130,1110.308913,-1455.581446
2901.861145,-10066.800811,962.267725,153.219100
2901.861483,-10066.800811,-666.185348,2604.724693
2901.861820,-10807.006753,-1332.370696,2145.067394
2901.862157,-11251.130318,-1110.308913,1455.581446
2901.862494,-11325.150913,-1480.411884,1532.190996
2901.862832,-9992.780217,-2886.803174,306.438199
2901.863169,-9326.594869,-2516.700203,306.438199
2901.863506,-8956.491898,-1480.411884,536.266849
2901.863844,-8734.430116,148.041188,-919.314598
2901.864181,-9400.615463,74.020594,-1378.971896
2901.864518,-11325.150913,1184.329507,-1762.019645
2901.864856,-10732.986159,0.000000,-1532.190996
2901.865193,-10436.903782,0.000000,0.000000
2901.865530,-10955.047942,-1480.411884,1378.971896
2901.865867,-10288.862594,-1628.453072,995.924147
2901.866205,-11399.171507,-2664.741391,0.000000
2901.866542,-10214.842000,-3627.009116,-536.266849
2901.866879,-8956.491898,-3478.967927,-612.876398
2901.867217,-9770.718434,-2368.659014,459.657299
2901.867554,-8956.491898,-1110.308913,0.000000
2901.867891,-8956.491898,296.082377,-766.095498
