#time,accel_x,accel_y,accel_z
3380.221456,-10288.862594,1332.370696,76.609550
3380.221794,-9474.636058,666.185348,-842.705048
3380.222131,-9474.636058,0.000000,-229.828649
3380.222469,-9548.656652,-740.205942,612.876398
3380.222807,-9104.533087,222.061783,-766.095498
3380.223144,-8956.491898,222.061783,-919.314598
3380.223482,-9474.636058,-222.061783,-689.485948
3380.223820,-9844.739029,-1258.350101,-1072.533697
3380.224158,-9548.656652,-1850.514855,-306.438199
3380.224495,-9030.512492,-666.185348,306.438199
3380.224833,-9622.677246,-962.267725,153.219100
3380.225171,-10140.821405,-1554.432478,612.876398
3380.225509,-10362.883188,-2220.617826,1378.971896
3380.225846,-10732.986159,-1332.370696,2451.505594
3380.226184,-10584.944971,-222.061783,1378.971896
3380.226522,-10658.965565,-444.123565,306.438199
3380.226860,-11029.068536,-740.205942,1072.533697
3380.227197,-10807.006753,-814.226536,1608.800546
3380.227535,-10658.965565,-370.102971,1149.143247
3380.227873,-9770.718434,-370.102971,1149.143247
3380.228210,-9992.780217,-370.102971,1685.410096
3380.228548,-10732.986159,-1406.391290,842.705048
3380.228886,-10510.924376,-962.267725,689.485948
3380.229224,-9622.677246,-1110.308913,995.924147
3380.229561,-9326.594869,-1480.411884,842.705048
3380.229899,-9696.697840,-1036.288319,766.095498
3380.230237,-10066.800811,-2368.659014,153.219100
3380.230575,-9770.718434,-2738.761985,1072.533697
3380.230912,-8808.450710,-2960.823768,2145.067394
3380.231250,-9252.574275,-2812.782580,3524.039291
3380.231588,-10066.800811,-2368.659014,3370.820191
3380.231925,-10584.944971,-3034.844362,2911.162892
3380.232263,-10214.842000,-2220.617826,3294.210641
3380.232601,-9696.697840,-2368.659014,4519.963438
3380.232939,-9918.759623,-1702.473667,4979.620737
3380.233276,-10658.965565,-1110.308913,4596.572988
3380.233614,-9992.780217,-1554.432478,3140.991542
3380.233952,-9844.739029,-1628.453072,2987.772442
3380.234290,-9770.718434,-1406.391290,3907.087040
3380.234627,-9474.636058,-962.267725,3677.258390
3380.234965,-10066.800811,-370.102971,2987.772442
3380.235303,-10732.986159,-666.185348,2221.676944
3380.235640,-10362.883188,-962.267725,1072.533697
3380.235978,-9918.759623,-1406.391290,1838.629195
3380.236316,-9326.594869,-2294.638420,2528.115143
3380.236654,-9104.533087,-2442.679609,1762.019645
3380.236991,-9696.697840,-1850.514855,842.705048
3380.237329,-11103.089130,-2368.659014,0.000000
3380.237667,-9474.636058,-3478.967927,-919.314598
3380.238005,-9178.553681,-5551.544565,612.876398
3380.238342,-9178.553681,-5625.565159,2681.334243
3380.238680,-9622.677246,-4811.338623,3600.648841
3380.239018,-11029.068536,-4219.173869,2834.553343
3380.239356,-10881.027347,-3256.906145,1608.800546
3380.239693,-10214.842000,-3034.844362,842.705048
3380.240031,-10362.883188,-2886.803174,1455.581446
3380.240369,-10066.800811,-3478.967927,1532.190996
3380.240706,-9696.697840,-3627.009116,1838.629195
3380.241044,-10288.862594,-3330.926739,3064.381992
3380.241382,-10436.903782,-3256.906145,3447.429741
3380.241720,-10732.986159,-2664.741391,2681.334243
3380.242057,-9992.780217,-2886.803174,3064.381992
3380.242395,-10140.821405,-2146.597232,4519.963438
3380.242733,-10362.883188,-1554.432478,4366.744339
3380.243071,-11103.089130,148.041188,2451.505594
3380.243408,-10658.965565,444.123565,76.609550
3380.243746,-10658.965565,74.020594,-612.876398
3380.244084,-10214.842000,-1628.453072,229.828649
3380.244421,-9770.718434,-2294.638420,0.000000
3380.244759,-7105.977043,-3108.864956,536.266849
3380.245097,-7476.080014,-2664.741391,2145.067394
3380.245435,-9178.553681,-3627.009116,3907.087040
3380.245772,-10955.047942,-2590.720797,4366.744339
3380.246110,-11177.109724,-1184.329507,4213.525239
3380.246448,-10658.965565,1036.288319,2757.943793
3380.246786,-10658.965565,962.267725,2528.115143
3380.247123,-11621.233289,222.061783,2911.162892
3380.247461,-9400.615463,-1998.556043,1991.848295
3380.247799,-7846.182985,-2960.823768,4673.182538
3380.248136,-9400.615463,-2220.617826,7201.297681
3380.248474,-11325.150913,-2516.700203,6205.373534
3380.248812,-11103.089130,-1110.308913,2911.162892
3380.249150,-8586.388927,-962.267725,1455.581446
3380.249487,-9474.636058,0.000000,2374.896044
3380.249825,-11325.150913,-296.082377,2068.457845
3380.250163,-9918.759623,370.102971,766.095498
3380.250501,-9622.677246,-814.226536,919.314598
3380.250838,-11473.192101,-2294.638420,995.924147
3380.251176,-11399.171507,-2738.761985,76.609550
3380.251514,-9474.636058,-4219.173869,612.876398
3380.251851,-7994.224174,-5033.400406,229.828649
3380.252189,-8290.306550,-6513.812290,1685.410096
3380.252527,-8586.388927,-4959.379811,3907.087040
3380.252865,-8956.491898,-4071.132681,3907.087040
3380.253202,-12953.603985,-2146.597232,2757.943793
3380.253540,-12953.603985,-1480.411884,0.000000
3380.253878,-11769.274478,-1258.350101,0.000000
3380.254216,-11399.171507,-3182.885551,3370.820191
3380.254553,-9474.636058,-2960.823768,4060.306139
3380.254891,-9030.512492,-3034.844362,2834.553343
3380.255229,-9622.677246,-3034.844362,1838.629195
3380.255567,-10510.924376,-2368.659014,1915.238745
3380.255904,-9548.656652,-3923.091493,2757.943793
3380.256242,-9252.574275,-3404.947333,4366.744339
3380.256580,-8586.388927,-666.185348,4519.963438
3380.256917,-10807.006753,1480.411884,2834.553343
3380.257255,-12213.398043,2072.576638,383.047749
3380.257593,-10658.965565,148.041188,-459.657299
3380.257931,-11547.212695,-2072.576638,1991.848295
3380.258268,-9696.697840,-1036.288319,2451.505594
3380.258606,-8438.347739,-2072.576638,2374.896044
3380.258944,-9178.553681,-3034.844362,2528.115143
3380.259282,-7254.018232,-5995.668130,2528.115143
3380.259619,-8438.347739,-6217.729913,4673.182538
3380.259957,-9770.718434,-1776.494261,4903.011187
3380.260295,-9400.615463,-222.061783,1072.533697
3380.260632,-12657.521608,518.144159,306.438199
3380.260970,-12583.501014,-1480.411884,229.828649
3380.261308,-9992.780217,-2516.700203,1378.971896
3380.261646,-8808.450710,-2442.679609,4673.182538
3380.261983,-7476.080014,-2442.679609,5669.106685
3380.262321,-11621.233289,-4589.276840,5515.887586
3380.262659,-11843.295072,-5255.462188,3830.477490
3380.262997,-8586.388927,-3627.009116,2911.162892
3380.263334,-8512.368333,-2664.741391,4903.011187
3380.263672,-10436.903782,-2220.617826,4749.792088
3380.264010,-12213.398043,-2220.617826,459.657299
3380.264347,-9992.780217,-1702.473667,-1455.581446
3380.264685,-7846.182985,-1406.391290,306.438199
3380.265023,-11769.274478,-2294.638420,3600.648841
3380.265361,-13693.809927,-3478.967927,1225.752797
3380.265698,-9770.718434,-3849.070898,-2068.457845
3380.266036,-7772.162391,-4145.153275,536.266849
3380.266374,-8142.265362,-5329.482782,3370.820191
3380.266712,-9844.739029,-6365.771101,3370.820191
3380.267049,-9622.677246,-4367.215058,1149.143247
3380.267387,-8290.306550,-2590.720797,1991.848295
3380.267725,-13249.686362,-2368.659014,4749.792088
3380.268063,-14063.912898,-1776.494261,3600.648841
3380.268400,-9104.533087,-962.267725,2068.457845
3380.268738,-9622.677246,-814.226536,4443.353888
3380.269076,-11251.130318,-1628.453072,4213.525239
3380.269413,-11251.130318,-1184.329507,3294.210641
3380.269751,-8586.388927,-1036.288319,4826.401637
3380.270089,-7698.141797,-1628.453072,4979.620737
3380.270427,-10140.821405,-1480.411884,2681.334243
3380.270764,-9326.594869,0.000000,919.314598
3380.271102,-8956.491898,814.226536,1915.238745
3380.271440,-9918.759623,370.102971,2451.505594
3380.271778,-10732.986159,296.082377,-229.828649
3380.272115,-10140.821405,1406.391290,1762.019645
3380.272453,-10732.986159,-444.123565,2528.115143
3380.272791,-10436.903782,-1776.494261,1685.410096
3380.273128,-9844.739029,-1850.514855,842.705048
3380.273466,-7698.141797,-2960.823768,1762.019645
3380.273804,-8586.388927,-4071.132681,2451.505594
3380.274141,-10288.862594,-4515.256246,1378.971896
3380.274479,-10140.821405,-1924.535449,76.609550
3380.274816,-10732.986159,-2294.638420,0.000000
3380.275154,-10584.944971,-1628.453072,383.047749
3380.275491,-10732.986159,-1184.329507,459.657299
3380.275829,-11917.315666,-1702.473667,1838.629195
3380.276166,-9622.677246,-1554.432478,1378.971896
3380.276504,-10140.821405,-444.123565,2911.162892
3380.276841,-11029.068536,-1924.535449,2911.162892
3380.277179,-11325.150913,-2590.720797,1608.800546
3380.277516,-9992.780217,-1998.556043,1378.971896
3380.277854,-9178.553681,-1776.494261,0.000000
3380.278191,-8808.450710,-1332.370696,-536.266849
3380.278529,-10066.800811,-1480.411884,-459.657299
3380.278866,-10510.924376,-370.102971,153.219100
3380.279204,-9622.677246,-370.102971,-1149.143247
3380.279542,-10362.883188,-888.247130,-919.314598
3380.279879,-10732.986159,-592.164754,-383.047749
3380.280217,-9252.574275,-1480.411884,-153.219100
3380.280554,-9326.594869,-2146.597232,459.657299
3380.280892,-9326.594869,-2664.741391,153.219100
3380.281229,-8956.491898,-1258.350101,689.485948
3380.281567,-9844.739029,-888.247130,459.657299
3380.281904,-10214.842000,-370.102971,0.000000
3380.282242,-10140.821405,-148.041188,995.924147
3380.282579,-11029.068536,-518.144159,2068.457845
3380.282917,-10510.924376,962.267725,2374.896044
3380.283254,-9918.759623,2368.659014,1149.143247
3380.283592,-10881.027347,2294.638420,1762.019645
3380.283929,-9918.759623,1184.329507,306.438199
3380.284267,-9622.677246,1110.308913,612.876398
3380.284604,-9770.718434,296.082377,1608.800546
3380.284942,-9474.636058,222.061783,766.095498
3380.285279,-8364.327145,666.185348,229.828649
3380.285617,-10140.821405,1850.514855,0.000000
3380.285954,-10214.842000,592.164754,-1225.752797
3380.286292,-10807.006753,-296.082377,-689.485948
3380.286629,-10584.944971,-1480.411884,229.828649
3380.286967,-10066.800811,-1258.350101,-689.485948
3380.287304,-9696.697840,-1184.329507,-919.314598
3380.287642,-9622.677246,-2664.741391,-536.266849
3380.287979,-8216.285956,-3701.029710,-919.314598
3380.288317,-8808.450710,-3775.050304,0.000000
3380.288654,-10214.842000,-2664.741391,1072.533697
3380.288992,-10436.903782,-2368.659014,-306.438199
3380.289330,-11325.150913,-2368.659014,0.000000
3380.289667,-11621.233289,-2072.576638,-919.314598
3380.290005,-10436.903782,-1702.473667,689.485948
3380.290342,-9992.780217,-1554.432478,2681.334243
3380.290680,-10140.821405,-1480.411884,3370.820191
3380.291017,-9548.656652,0.000000,1915.238745
3380.291355,-11029.068536,296.082377,1532.190996
3380.291692,-11843.295072,-592.164754,842.705048
3380.292030,-10362.883188,-1184.329507,536.266849
3380.292367,-10066.800811,-370.102971,1685.410096
3380.292705,-10214.842000,1110.308913,1225.752797
3380.293042,-8068.244768,1628.453072,-766.095498
3380.293380,-9326.594869,1480.411884,-842.705048
3380.293717,-11769.274478,0.000000,-1302.362347
3380.294055,-10362.883188,296.082377,-919.314598
3380.294392,-10214.842000,370.102971,-459.657299
3380.294730,-9104.533087,148.041188,1302.362347
3380.295067,-8512.368333,0.000000,306.438199
3380.295405,-8660.409521,-740.205942,383.047749
3380.295742,-8956.491898,-1110.308913,0.000000
3380.296080,-8512.368333,-1110.308913,383.047749
3380.296417,-9400.615463,-518.144159,2221.676944
3380.296755,-10584.944971,1184.329507,1149.143247
3380.297092,-10436.903782,1702.473667,-689.485948
3380.297430,-10288.862594,1776.494261,-1455.581446
3380.297767,-9918.759623,1036.288319,-2221.676944
3380.298105,-8882.471304,444.123565,459.657299
3380.298443,-10140.821405,222.061783,2221.676944
3380.298780,-10732.986159,222.061783,612.876398
3380.299118,-10066.800811,0.000000,-76.609550
3380.299455,-11177.109724,0.000000,766.095498
3380.299793,-10510.924376,-370.102971,-766.095498
3380.300130,-9696.697840,-1332.370696,-383.047749
3380.300468,-10436.903782,0.000000,459.657299
3380.300805,-10658.965565,-444.123565,-1302.362347
3380.301143,-12139.377449,0.000000,-1915.238745
3380.301480,-10732.986159,-1184.329507,-3600.648841
3380.301818,-9252.574275,-2368.659014,-3294.210641
3380.302155,-9548.656652,-2960.823768,-689.485948
3380.302493,-9252.574275,-2072.576638,76.609550
3380.302830,-9326.594869,-2294.638420,-459.657299
3380.303168,-10807.006753,-2738.761985,612.876398
3380.303505,-11177.109724,-2516.700203,2221.676944
3380.303843,-9326.594869,-2368.659014,2374.896044
3380.304180,-9474.636058,-2146.597232,4903.011187
3380.304518,-10658.965565,-1184.329507,5286.058936
3380.304855,-10955.047942,148.041188,3524.039291
3380.305193,-10807.006753,2072.576638,1532.190996
3380.305530,-10807.006753,1480.411884,459.657299
3380.305868,-10584.944971,1628.453072,919.314598
3380.306205,-10066.800811,888.247130,459.657299
3380.306543,-8586.388927,1628.453072,0.000000
3380.306880,-7772.162391,1776.494261,0.000000
3380.307218,-9844.739029,1036.288319,-229.828649
3380.307555,-10436.903782,-74.020594,-1532.190996
3380.307893,-8882.471304,74.020594,-995.924147
3380.308231,-9400.615463,1480.411884,1762.019645
3380.308568,-10732.986159,1406.391290,1302.362347
3380.308906,-11251.130318,1628.453072,0.000000
3380.309243,-11695.253884,370.102971,-1455.581446
3380.309581,-10214.842000,-740.205942,-1225.752797
3380.309918,-8660.409521,-1850.514855,0.000000
3380.310256,-8956.491898,-2442.679609,1149.143247
3380.310593,-8808.450710,-1702.473667,1225.752797
3380.310931,-9474.636058,-1332.370696,-536.266849
3380.311268,-11177.109724,-888.247130,-689.485948
3380.311606,-10881.027347,-666.185348,-995.924147
3380.311943,-10066.800811,-962.267725,0.000000
3380.312281,-10362.883188,74.020594,2374.896044
3380.312618,-10436.903782,-148.041188,689.485948
3380.312956,-10732.986159,-518.144159,-76.609550
3380.313293,-10362.883188,-1184.329507,-995.924147
3380.313631,-9770.718434,-2294.638420,-919.314598
3380.313968,-10066.800811,-2812.782580,229.828649
3380.314306,-9474.636058,-2368.659014,383.047749
3380.314643,-8734.430116,-1036.288319,-689.485948
3380.314981,-9326.594869,-1036.288319,-536.266849
3380.315318,-11473.192101,-1036.288319,-1685.410096
3380.315656,-10732.986159,-1702.473667,-2221.676944
3380.315993,-10140.821405,-2294.638420,153.219100
3380.316331,-10214.842000,-888.247130,1762.019645
3380.316668,-9622.677246,0.000000,766.095498
3380.317006,-10807.006753,-222.061783,-689.485948
3380.317343,-10955.047942,-1406.391290,-383.047749
3380.317681,-9030.512492,-1554.432478,766.095498
3380.318019,-9918.759623,-1332.370696,3370.820191
3380.318356,-10214.842000,296.082377,4060.306139
3380.318694,-9844.739029,1184.329507,2068.457845
3380.319031,-11103.089130,2072.576638,1532.190996
3380.319369,-11177.109724,1554.432478,383.047749
3380.319706,-9918.759623,2368.659014,1455.581446
3380.320044,-9474.636058,2886.803174,2068.457845
3380.320381,-10214.842000,2590.720797,76.609550
3380.320719,-10140.821405,2368.659014,-1302.362347
3380.321056,-9474.636058,1036.288319,-2528.115143
3380.321394,-8438.347739,0.000000,-2145.067394
3380.321731,-7994.224174,-962.267725,-612.876398
3380.322069,-9104.533087,-740.205942,612.876398
3380.322406,-9474.636058,-296.082377,229.828649
3380.322744,-10066.800811,-592.164754,-919.314598
3380.323081,-10658.965565,148.041188,-306.438199
3380.323419,-10658.965565,-518.144159,0.000000
3380.323756,-10214.842000,-1258.350101,0.000000
3380.324094,-10066.800811,-666.185348,689.485948
3380.324431,-10510.924376,0.000000,153.219100
3380.324769,-9696.697840,-1036.288319,383.047749
3380.325106,-11325.150913,-1406.391290,76.609550
3380.325444,-9992.780217,-1480.411884,0.000000
3380.325781,-10732.986159,-1110.308913,1225.752797
3380.326119,-11029.068536,-518.144159,3064.381992
3380.326456,-9844.739029,1332.370696,1149.143247
3380.326794,-10436.903782,814.226536,383.047749
3380.327132,-11695.253884,518.144159,0.000000
3380.327469,-9474.636058,-592.164754,-306.438199
3380.327807,-9178.553681,-370.102971,2604.724693
3380.328144,-10066.800811,148.041188,2374.896044
3380.328482,-8660.409521,814.226536,153.219100
3380.328819,-11103.089130,592.164754,0.000000
3380.329157,-10214.842000,-1036.288319,-2145.067394
3380.329494,-8142.265362,-962.267725,-1072.533697
3380.329832,-8734.430116,-1036.288319,1072.533697
3380.330169,-8068.244768,-1554.432478,1915.238745
3380.330507,-9474.636058,-1406.391290,306.438199
3380.330844,-10066.800811,296.082377,536.266849
3380.331182,-10955.047942,1480.411884,612.876398
3380.331519,-11251.130318,-740.205942,995.924147
3380.331857,-11399.171507,296.082377,1685.410096
3380.332194,-9474.636058,0.000000,1991.848295
3380.332532,-10140.821405,740.205942,2757.943793
3380.332869,-10732.986159,-444.123565,1838.629195
3380.333207,-11621.233289,592.164754,536.266849
3380.333544,-9326.594869,222.061783,-612.876398
3380.333882,-9104.533087,0.000000,153.219100
3380.334219,-9622.677246,740.205942,919.314598
3380.334557,-10288.862594,1036.288319,-1455.581446
3380.334894,-11325.150913,740.205942,-1532.190996
3380.335232,-10436.903782,-666.185348,-1838.629195
3380.335569,-8882.471304,-888.247130,-459.657299
3380.335907,-9548.656652,-740.205942,1149.143247
3380.336244,-9030.512492,-1332.370696,689.485948
3380.336582,-9474.636058,-1184.329507,-919.314598
3380.336920,-10362.883188,-2146.597232,-1378.971896
3380.337257,-10066.800811,-2146.597232,-2221.676944
3380.337595,-9770.718434,-2738.761985,-919.314598
3380.337932,-10066.800811,-1554.432478,0.000000
3380.338270,-9400.615463,-370.102971,-1302.362347
3380.338607,-9326.594869,-1184.329507,-1608.800546
3380.338945,-9474.636058,-740.205942,0.000000
3380.339282,-9178.553681,-1628.453072,153.219100
3380.339620,-10955.047942,-888.247130,2145.067394
3380.339957,-12139.377449,222.061783,2451.505594
3380.340295,-10066.800811,740.205942,2298.286494
3380.340632,-11029.068536,888.247130,1991.848295
3380.340970,-9992.780217,222.061783,1532.190996
3380.341307,-8956.491898,1184.329507,995.924147
3380.341645,-10658.965565,888.247130,2451.505594
3380.341982,-11695.253884,2294.638420,1455.581446
3380.342320,-10955.047942,1702.473667,-612.876398
3380.342657,-10288.862594,2072.576638,-459.657299
3380.342995,-8734.430116,814.226536,-1149.143247
3380.343332,-9252.574275,-666.185348,612.876398
3380.343670,-9548.656652,888.247130,1532.190996
3380.344007,-8586.388927,370.102971,383.047749
3380.344345,-9992.780217,740.205942,76.609550
3380.344682,-10436.903782,222.061783,0.000000
3380.345020,-11029.068536,-814.226536,383.047749
3380.345357,-9918.759623,-1702.473667,1072.533697
3380.345695,-9030.512492,-1554.432478,1455.581446
3380.346033,-9548.656652,-1258.350101,2068.457845
3380.346370,-9252.574275,-1702.473667,995.924147
3380.346708,-10066.800811,-148.041188,1378.971896
3380.347045,-10584.944971,74.020594,383.047749
3380.347383,-9474.636058,148.041188,1149.143247
3380.347720,-11325.150913,962.267725,1991.848295
3380.348058,-10732.986159,0.000000,689.485948
3380.348395,-10658.965565,0.000000,-383.047749
3380.348733,-11029.068536,0.000000,-76.609550
3380.349070,-9918.759623,74.020594,76.609550
3380.349408,-9548.656652,1036.288319,0.000000
3380.349745,-11103.089130,666.185348,-1149.143247
3380.350083,-9770.718434,-296.082377,-2911.162892
3380.350420,-10140.821405,-592.164754,-2068.457845
3380.350758,-10140.821405,-592.164754,-1072.533697
3380.351095,-9104.533087,-962.267725,-1149.143247
3380.351433,-10584.944971,-1036.288319,995.924147
3380.351770,-10732.986159,-962.267725,0.000000
3380.352108,-8586.388927,-518.144159,-229.828649
3380.352445,-8956.491898,0.000000,842.705048
3380.352783,-10214.842000,-666.185348,1225.752797
3380.353120,-9844.739029,-962.267725,689.485948
3380.353458,-10140.821405,-296.082377,2068.457845
3380.353795,-9548.656652,1332.370696,2221.676944
3380.354133,-9844.739029,148.041188,766.095498
3380.354470,-9548.656652,814.226536,-306.438199
3380.354808,-9252.574275,370.102971,306.438199
3380.355145,-9178.553681,518.144159,1072.533697
3380.355483,-9104.533087,1554.432478,1225.752797
3380.355821,-10510.924376,1628.453072,459.657299
3380.356158,-9918.759623,1924.535449,-459.657299
3380.356496,-10881.027347,518.144159,-766.095498
3380.356833,-10732.986159,222.061783,689.485948
3380.357171,-9918.759623,0.000000,0.000000
3380.357508,-9770.718434,-222.061783,-229.828649
3380.357846,-10066.800811,-296.082377,-1378.971896
3380.358183,-9622.677246,-1332.370696,-2068.457845
3380.358521,-10510.924376,-888.247130,-1072.533697
3380.358858,-10288.862594,-1554.432478,-383.047749
3380.359196,-9918.759623,-1480.411884,-229.828649
3380.359533,-10955.047942,-1258.350101,0.000000
3380.359871,-10807.006753,-1332.370696,-919.314598
3380.360208,-10140.821405,-1406.391290,229.828649
3380.360546,-10436.903782,-2368.659014,919.314598
3380.360883,-9770.718434,-1776.494261,2451.505594
3380.361221,-10140.821405,-1110.308913,2757.943793
3380.361558,-11103.089130,-370.102971,2451.505594
3380.361896,-10955.047942,0.000000,1378.971896
3380.362233,-11177.109724,444.123565,459.657299
3380.362571,-10214.842000,666.185348,76.609550
3380.362908,-9030.512492,148.041188,689.485948
3380.363246,-9474.636058,592.164754,842.705048
3380.363583,-8882.471304,814.226536,-995.924147
3380.363921,-8290.306550,888.247130,-2145.067394
3380.364258,-9696.697840,666.185348,-2145.067394
3380.364596,-9696.697840,296.082377,-1991.848295
3380.364933,-8956.491898,0.000000,-919.314598
3380.365271,-9770.718434,222.061783,842.705048
3380.365609,-9992.780217,1110.308913,919.314598
3380.365946,-10214.842000,0.000000,689.485948
3380.366284,-10658.965565,-296.082377,1378.971896
3380.366621,-9474.636058,370.102971,1608.800546
3380.366959,-9844.739029,-666.185348,2145.067394
3380.367296,-11177.109724,-296.082377,1838.629195
3380.367634,-9992.780217,0.000000,612.876398
3380.367971,-9178.553681,1258.350101,0.000000
3380.368309,-9992.780217,1036.288319,306.438199
3380.368646,-10288.862594,444.123565,536.266849
3380.368984,-9844.739029,0.000000,919.314598
3380.369321,-10436.903782,74.020594,1302.362347
3380.369659,-9918.759623,222.061783,766.095498
3380.369996,-10214.842000,-518.144159,536.266849
3380.370334,-10214.842000,-518.144159,-306.438199
3380.370671,-9696.697840,-1258.350101,-306.438199
3380.371009,-9252.574275,0.000000,-689.485948
3380.371346,-9992.780217,-370.102971,-1378.971896
3380.371684,-10140.821405,-1554.432478,-2681.334243
3380.372021,-8734.430116,-1850.514855,-2911.162892
3380.372359,-9770.718434,-2368.659014,-1838.629195
3380.372696,-9548.656652,-2294.638420,-153.219100
3380.373034,-9474.636058,-2146.597232,383.047749
3380.373371,-10436.903782,-814.226536,766.095498
3380.373709,-11399.171507,-296.082377,229.828649
3380.374046,-11843.295072,-1628.453072,0.000000
3380.374384,-11473.192101,-2368.659014,2068.457845
3380.374722,-10140.821405,-2220.617826,2911.162892
3380.375059,-9104.533087,-592.164754,3370.820191
3380.375396,-9252.574275,518.144159,2451.505594
3380.375733,-9918.759623,1110.308913,536.266849
3380.376070,-11695.253884,1850.514855,-383.047749
3380.376407,-10881.027347,1480.411884,-766.095498
3380.376745,-9326.594869,1628.453072,536.266849
3380.377082,-9696.697840,1628.453072,919.314598
3380.377419,-9030.512492,2146.597232,-536.266849
3380.377756,-9030.512492,2590.720797,-1608.800546
3380.378093,-9400.615463,1258.350101,-1532.190996
3380.378430,-9326.594869,0.000000,-1149.143247
3380.378768,-9326.594869,-592.164754,383.047749
3380.379105,-9252.574275,148.041188,1532.190996
3380.379442,-9548.656652,148.041188,0.000000
3380.379779,-9918.759623,-222.061783,-1838.629195
3380.380116,-9918.759623,-518.144159,-1072.533697
3380.380453,-10140.821405,-1332.370696,153.219100
3380.380791,-10140.821405,-1998.556043,306.438199
3380.381128,-9252.574275,74.020594,306.438199
3380.381465,-9474.636058,-592.164754,-76.609550
3380.381802,-10362.883188,-1406.391290,-689.485948
3380.382139,-9992.780217,-1406.391290,-612.876398
3380.382476,-9474.636058,-1776.494261,689.485948
3380.382814,-10066.800811,-1258.350101,2068.457845
3380.383151,-11325.150913,-740.205942,2145.067394
3380.383488,-10955.047942,0.000000,459.657299
3380.383825,-10955.047942,0.000000,76.609550
3380.384162,-11325.150913,-518.144159,766.095498
3380.384499,-12287.418637,-592.164754,1225.752797
3380.384837,-10881.027347,-1184.329507,689.485948
3380.385174,-9474.636058,0.000000,-766.095498
3380.385511,-9252.574275,-888.247130,-536.266849
3380.385848,-10066.800811,-1406.391290,-995.924147
3380.386185,-10510.924376,-2442.679609,-842.705048
3380.386522,-9400.615463,-1998.556043,153.219100
3380.386860,-9400.615463,0.000000,919.314598
3380.387197,-10140.821405,370.102971,-153.219100
3380.387534,-9622.677246,-592.164754,-1302.362347
3380.387871,-9474.636058,-592.164754,-689.485948
3380.388208,-9178.553681,-74.020594,995.924147
3380.388545,-8438.347739,-1036.288319,2604.724693
3380.388883,-10140.821405,148.041188,4826.401637
3380.389220,-10955.047942,962.267725,3217.601092
3380.389557,-10584.944971,1998.556043,1149.143247
3380.389894,-11399.171507,2072.576638,842.705048
3380.390231,-9622.677246,814.226536,0.000000
3380.390568,-8734.430116,2072.576638,536.266849
3380.390906,-8660.409521,2368.659014,306.438199
3380.391243,-9474.636058,1924.535449,689.485948
3380.391580,-10658.965565,1406.391290,-842.705048
3380.391917,-10807.006753,888.247130,-1685.410096
3380.392254,-10288.862594,296.082377,-689.485948
3380.392591,-9992.780217,-888.247130,0.000000
3380.392929,-9252.574275,370.102971,-919.314598
3380.393266,-9030.512492,-296.082377,-1915.238745
3380.393603,-10658.965565,-2146.597232,-2221.676944
3380.393940,-10214.842000,-3108.864956,-1838.629195
3380.394277,-9400.615463,-2960.823768,-536.266849
3380.394615,-8882.471304,-2590.720797,1685.410096
3380.394952,-9474.636058,-2294.638420,1608.800546
3380.395289,-11029.068536,-1406.391290,-995.924147
3380.395626,-11621.233289,-1628.453072,-2221.676944
3380.395963,-10881.027347,-2590.720797,-1225.752797
3380.396300,-9844.739029,-2960.823768,459.657299
3380.396638,-10288.862594,-2072.576638,1838.629195
3380.396975,-9326.594869,-1258.350101,1455.581446
3380.397312,-9474.636058,-1036.288319,1302.362347
3380.397649,-10362.883188,-222.061783,229.828649
3380.397986,-10955.047942,-444.123565,-383.047749
3380.398323,-11325.150913,-444.123565,612.876398
3380.398661,-11029.068536,0.000000,1378.971896
3380.398998,-10214.842000,740.205942,766.095498
3380.399335,-9844.739029,1628.453072,-1072.533697
3380.399672,-10807.006753,1258.350101,-1378.971896
3380.400009,-10584.944971,296.082377,-1608.800546
3380.400346,-9918.759623,0.000000,-459.657299
3380.400684,-9252.574275,296.082377,1072.533697
3380.401021,-9622.677246,296.082377,1225.752797
3380.401358,-9696.697840,592.164754,689.485948
3380.401695,-10436.903782,148.041188,-153.219100
3380.402032,-9622.677246,296.082377,1072.533697
3380.402369,-9474.636058,0.000000,1608.800546
3380.402707,-8956.491898,296.082377,2374.896044
3380.403044,-8364.327145,1184.329507,1991.848295
3380.403381,-9918.759623,148.041188,2298.286494
3380.403718,-10955.047942,1406.391290,1532.190996
3380.404055,-9770.718434,592.164754,995.924147
3380.404392,-10732.986159,518.144159,2451.505594
3380.404730,-10288.862594,592.164754,1838.629195
3380.405067,-9400.615463,962.267725,0.000000
3380.405404,-9844.739029,518.144159,-306.438199
3380.405741,-9548.656652,-592.164754,-995.924147
3380.406078,-9252.574275,-1554.432478,-306.438199
3380.406415,-9400.615463,-1184.329507,-536.266849
3380.406753,-9844.739029,-1480.411884,-766.095498
3380.407090,-10436.903782,-592.164754,-2528.115143
3380.407427,-9770.718434,-1850.514855,-3447.429741
3380.407764,-10807.006753,-2738.761985,-1455.581446
3380.408101,-10214.842000,-3552.988522,612.876398
3380.408438,-10362.883188,-2960.823768,1455.581446
3380.408776,-11103.089130,-2146.597232,766.095498
3380.409113,-10436.903782,-1998.556043,0.000000
3380.409450,-10955.047942,-2368.659014,-306.438199
3380.409787,-10955.047942,-3552.988522,459.657299
3380.410124,-9400.615463,-3034.844362,1838.629195
3380.410461,-10140.821405,-1850.514855,3140.991542
3380.410799,-9992.780217,74.020594,2911.162892
3380.411136,-10955.047942,1332.370696,229.828649
3380.411473,-11769.274478,518.144159,-919.314598
3380.411810,-9548.656652,-592.164754,-612.876398
3380.412147,-8068.244768,-592.164754,2145.067394
3380.412485,-8882.471304,1110.308913,2528.115143
3380.412822,-8438.347739,1184.329507,229.828649
3380.413159,-10881.027347,1406.391290,-995.924147
3380.413496,-11473.192101,740.205942,-1838.629195
3380.413833,-9770.718434,1628.453072,-612.876398
3380.414170,-9252.574275,148.041188,1378.971896
3380.414508,-8734.430116,740.205942,306.438199
3380.414845,-8882.471304,666.185348,-383.047749
3380.415182,-11399.171507,1258.350101,-383.047749
3380.415519,-10881.027347,888.247130,-1225.752797
3380.415856,-11325.150913,-74.020594,-689.485948
3380.416193,-10436.903782,-444.123565,0.000000
3380.416531,-9178.553681,0.000000,76.609550
3380.416868,-9400.615463,370.102971,536.266849
3380.417205,-9252.574275,518.144159,-842.705048
3380.417542,-10362.883188,-444.123565,-1149.143247
3380.417879,-11325.150913,-592.164754,0.000000
3380.418216,-10807.006753,-666.185348,995.924147
3380.418554,-9992.780217,-148.041188,1532.190996
3380.418891,-8734.430116,-444.123565,1302.362347
3380.419228,-9844.739029,-666.185348,383.047749
3380.419565,-10362.883188,-592.164754,-842.705048
3380.419902,-9918.759623,-1850.514855,-1225.752797
3380.420239,-10066.800811,-2368.659014,153.219100
3380.420577,-8956.491898,-1554.432478,-459.657299
3380.420914,-9252.574275,-1628.453072,-306.438199
3380.421251,-10066.800811,-740.205942,-1762.019645
3380.421588,-9770.718434,-2220.617826,-1915.238745
3380.421925,-10288.862594,-1924.535449,0.000000
3380.422262,-10807.006753,-2294.638420,995.924147
3380.422600,-10066.800811,-1480.411884,1225.752797
3380.422937,-10214.842000,-1184.329507,1225.752797
3380.423274,-11177.109724,-888.247130,1302.362347
3380.423611,-10436.903782,-518.144159,766.095498
3380.423948,-10510.924376,0.000000,2298.286494
3380.424285,-11177.109724,74.020594,2911.162892
3380.424623,-10658.965565,1258.350101,1302.362347
3380.424960,-10140.821405,1628.453072,1685.410096
3380.425297,-10436.903782,1850.514855,612.876398
3380.425634,-9844.739029,1184.329507,-306.438199
3380.425971,-9622.677246,888.247130,995.924147
3380.426308,-8586.388927,1850.514855,1072.533697
3380.426646,-8290.306550,2516.700203,306.438199
3380.426983,-11103.089130,1998.556043,459.657299
3380.427320,-10510.924376,1480.411884,-612.876398
3380.427657,-10066.800811,148.041188,-842.705048
3380.427994,-9696.697840,-370.102971,229.828649
3380.428331,-8808.450710,0.000000,0.000000
3380.428669,-9252.574275,-1332.370696,-306.438199
3380.429006,-9548.656652,-962.267725,-1225.752797
3380.429343,-9326.594869,-666.185348,-1991.848295
3380.429680,-9992.780217,-1184.329507,-766.095498
3380.430017,-10436.903782,-1998.556043,-536.266849
3380.430354,-9474.636058,-1184.329507,-1455.581446
3380.430692,-9770.718434,-1258.350101,-612.876398
3380.431029,-10362.883188,-1776.494261,536.266849
3380.431366,-10140.821405,-2368.659014,766.095498
3380.431703,-10658.965565,-2294.638420,1455.581446
3380.432040,-10955.047942,-740.205942,2987.772442
3380.432378,-11029.068536,-962.267725,1455.581446
3380.432715,-11769.274478,-74.020594,612.876398
3380.433052,-11177.109724,-962.267725,-689.485948
3380.433389,-9770.718434,-1628.453072,76.609550
3380.433726,-10362.883188,-1332.370696,1149.143247
3380.434063,-9770.718434,-740.205942,459.657299
3380.434401,-9326.594869,0.000000,-995.924147
3380.434738,-9844.739029,0.000000,-459.657299
3380.435075,-10510.924376,74.020594,-1762.019645
3380.435412,-10214.842000,-222.061783,-2757.943793
3380.435749,-9548.656652,-1332.370696,-842.705048
3380.436086,-9030.512492,-814.226536,0.000000
3380.436424,-9030.512492,-148.041188,76.609550
3380.436761,-9104.533087,-148.041188,536.266849
3380.437098,-9918.759623,0.000000,306.438199
3380.437435,-9252.574275,74.020594,536.266849
3380.437772,-10436.903782,296.082377,1838.629195
3380.438109,-10362.883188,370.102971,1532.190996
3380.438447,-8956.491898,1184.329507,1149.143247
3380.438784,-9252.574275,1110.308913,1608.800546
3380.439121,-10214.842000,740.205942,689.485948
3380.439458,-10658.965565,370.102971,1608.800546
3380.439795,-11177.109724,740.205942,1915.238745
3380.440132,-9696.697840,1480.411884,995.924147
3380.440470,-9548.656652,1628.453072,0.000000
3380.440807,-11177.109724,1480.411884,0.000000
3380.441144,-11029.068536,74.020594,-1685.410096
3380.441481,-10436.903782,-296.082377,0.000000
3380.441818,-10362.883188,0.000000,842.705048
3380.442155,-9548.656652,0.000000,766.095498
3380.442493,-10732.986159,-888.247130,0.000000
3380.442830,-11843.295072,-1702.473667,-842.705048
3380.443167,-10214.842000,-2072.576638,-1378.971896
3380.443504,-9622.677246,-2294.638420,0.000000
3380.443841,-9400.615463,-1628.453072,306.438199
3380.444178,-9326.594869,-2368.659014,-612.876398
3380.444516,-10436.903782,-1702.473667,-612.876398
3380.444853,-10732.986159,-2146.597232,-536.266849
3380.445190,-9178.553681,-2146.597232,612.876398
3380.445527,-9400.615463,-2072.576638,1991.848295
3380.445864,-10288.862594,-1702.473667,2528.115143
3380.446201,-8956.491898,148.041188,1915.238745
3380.446539,-9918.759623,222.061783,2451.505594
3380.446876,-11621.233289,222.061783,1225.752797
3380.447213,-10510.924376,666.185348,689.485948
3380.447550,-9844.739029,666.185348,842.705048
3380.447887,-10584.944971,1776.494261,1149.143247
3380.448224,-9474.636058,1924.535449,0.000000
3380.448562,-9548.656652,1628.453072,-919.314598
3380.448899,-9844.739029,666.185348,-1991.848295
3380.449236,-9030.512492,1036.288319,-1455.581446
3380.449573,-10066.800811,370.102971,-842.705048
3380.449910,-9622.677246,444.123565,-766.095498
3380.450247,-8068.244768,148.041188,-1225.752797
3380.450585,-9548.656652,-888.247130,-229.828649
3380.450922,-9474.636058,148.041188,-306.438199
3380.451259,-9178.553681,-444.123565,76.609550
3380.451596,-10658.965565,-740.205942,1762.019645
3380.451933,-9844.739029,-962.267725,383.047749
3380.452271,-10288.862594,-1850.514855,1149.143247
3380.452608,-11251.130318,-1258.350101,2145.067394
3380.452945,-9474.636058,-1258.350101,612.876398
3380.453282,-9178.553681,-444.123565,1378.971896
3380.453619,-10955.047942,-740.205942,1991.848295
3380.453956,-11029.068536,-296.082377,536.266849
3380.454294,-10436.903782,-296.082377,76.609550
3380.454631,-11399.171507,740.205942,-995.924147
3380.454968,-11325.150913,-148.041188,-1838.629195
3380.455305,-10066.800811,-740.205942,-995.924147
3380.455642,-9992.780217,-888.247130,306.438199
3380.455979,-9696.697840,-666.185348,306.438199
3380.456317,-9844.739029,-592.164754,-383.047749
3380.456654,-10955.047942,-1036.288319,-1608.800546
3380.456991,-10658.965565,-2368.659014,-1225.752797
3380.457328,-10066.800811,-3256.906145,0.000000
3380.457665,-10288.862594,-1850.514855,1302.362347
3380.458002,-8882.471304,-296.082377,76.609550
3380.458340,-10214.842000,0.000000,-459.657299
3380.458677,-10214.842000,-888.247130,-1149.143247
3380.459014,-8956.491898,-1776.494261,-766.095498
3380.459351,-9474.636058,-1332.370696,2528.115143
3380.459688,-8956.491898,-518.144159,2911.162892
3380.460025,-9400.615463,518.144159,2451.505594
3380.460363,-10510.924376,1406.391290,1072.533697
3380.460700,-10214.842000,1110.308913,383.047749
3380.461037,-9992.780217,1554.432478,1608.800546
3380.461374,-10362.883188,1110.308913,3447.429741
3380.461711,-10214.842000,2146.597232,2145.067394
3380.462048,-9696.697840,2590.720797,306.438199
3380.462386,-10510.924376,2368.659014,-383.047749
3380.462723,-9918.759623,814.226536,-1149.143247
3380.463060,-8882.471304,814.226536,-1455.581446
3380.463397,-10214.842000,814.226536,383.047749
3380.463734,-10362.883188,888.247130,-1225.752797
3380.464071,-9844.739029,814.226536,-1991.848295
3380.464409,-11029.068536,148.041188,-1608.800546
3380.464746,-9030.512492,-2146.597232,-383.047749
3380.465083,-9622.677246,-1776.494261,1991.848295
3380.465420,-11029.068536,-1850.514855,2911.162892
3380.465757,-9918.759623,-740.205942,842.705048
3380.466094,-10658.965565,-1554.432478,766.095498
3380.466432,-11991.336260,-1628.453072,612.876398
3380.466769,-10140.821405,-1554.432478,0.000000
3380.467106,-9548.656652,-1554.432478,1072.533697
3380.467443,-8956.491898,-888.247130,1838.629195
3380.467780,-9474.636058,370.102971,76.609550
3380.468117,-10584.944971,666.185348,-383.047749
3380.468455,-11251.130318,-962.267725,-766.095498
3380.468792,-9030.512492,-814.226536,-76.609550
3380.469129,-10510.924376,-296.082377,1532.190996
3380.469466,-10807.006753,1036.288319,2145.067394
3380.469803,-8734.430116,222.061783,0.000000
3380.470140,-9992.780217,0.000000,-306.438199
3380.470478,-10288.862594,0.000000,0.000000
3380.470815,-10436.903782,-592.164754,-229.828649
3380.471152,-10881.027347,-370.102971,766.095498
3380.471489,-9696.697840,0.000000,-766.095498
3380.471826,-9474.636058,592.164754,-1685.410096
3380.472164,-10658.965565,1036.288319,-766.095498
3380.472501,-9844.739029,-222.061783,-1225.752797
3380.472838,-9178.553681,-962.267725,459.657299
3380.473175,-9696.697840,74.020594,2068.457845
3380.473512,-9252.574275,814.226536,1378.971896
3380.473849,-8808.450710,1036.288319,689.485948
3380.474187,-10436.903782,0.000000,1455.581446
3380.474524,-10955.047942,222.061783,1072.533697
3380.474861,-9104.533087,666.185348,1149.143247
3380.475198,-10214.842000,1554.432478,2528.115143
3380.475535,-9992.780217,814.226536,229.828649
3380.475872,-8808.450710,962.267725,-1762.019645
3380.476210,-9770.718434,1110.308913,-1532.190996
3380.476547,-9326.594869,-296.082377,-1149.143247
3380.476884,-8660.409521,-962.267725,0.000000
3380.477221,-10584.944971,-518.144159,612.876398
3380.477558,-10140.821405,962.267725,-1302.362347
3380.477896,-10658.965565,518.144159,-2451.505594
3380.478233,-10955.047942,-962.267725,-2451.505594
3380.478570,-10510.924376,-2812.782580,-995.924147
3380.478907,-10140.821405,-2812.782580,1685.410096
3380.479245,-8956.491898,-1628.453072,2604.724693
3380.479582,-9844.739029,-1554.432478,2068.457845
3380.479919,-11917.315666,-1406.391290,842.705048
3380.480256,-12361.439231,-1554.432478,0.000000
3380.480593,-10510.924376,-1036.288319,153.219100
3380.480931,-10362.883188,-1628.453072,2451.505594
3380.481268,-10510.924376,-148.041188,2681.334243
3380.481605,-9252.574275,-370.102971,1302.362347
3380.481942,-8882.471304,222.061783,612.876398
3380.482280,-9992.780217,-74.020594,1455.581446
3380.482617,-10066.800811,-666.185348,2604.724693
3380.482954,-10732.986159,518.144159,3600.648841
3380.483291,-10955.047942,814.226536,2528.115143
3380.483628,-10066.800811,2072.576638,76.609550
3380.483966,-9474.636058,1554.432478,-1302.362347
3380.484303,-9696.697840,296.082377,-689.485948
3380.484640,-8586.388927,0.000000,153.219100
3380.484977,-9104.533087,-518.144159,612.876398
3380.485315,-9474.636058,518.144159,995.924147
3380.485652,-9992.780217,518.144159,-536.266849
3380.485989,-10732.986159,592.164754,-766.095498
3380.486326,-10140.821405,0.000000,-1378.971896
3380.486663,-9548.656652,-666.185348,76.609550
3380.487001,-10066.800811,222.061783,2298.286494
3380.487338,-9178.553681,148.041188,383.047749
3380.487675,-10288.862594,370.102971,-383.047749
3380.488012,-10658.965565,-222.061783,-919.314598
3380.488350,-10066.800811,-1406.391290,76.609550
3380.488687,-10066.800811,-814.226536,2145.067394
3380.489024,-10066.800811,-296.082377,2987.772442
3380.489361,-10288.862594,962.267725,1455.581446
3380.489698,-11399.171507,370.102971,-612.876398
3380.490036,-11103.089130,666.185348,-995.924147
3380.490373,-9770.718434,-296.082377,-1072.533697
3380.490710,-10140.821405,-1036.288319,919.314598
3380.491047,-9696.697840,-370.102971,536.266849
3380.491385,-8882.471304,-1184.329507,-766.095498
3380.491722,-9400.615463,-1702.473667,-2145.067394
3380.492059,-9696.697840,-2146.597232,-2451.505594
3380.492396,-8808.450710,-2220.617826,-2221.676944
3380.492733,-8956.491898,-2294.638420,-536.266849
3380.493071,-9770.718434,-962.267725,-612.876398
3380.493408,-9030.512492,-888.247130,-1455.581446
3380.493745,-11103.089130,-1184.329507,-766.095498
3380.494082,-11473.192101,-1924.535449,459.657299
3380.494420,-9474.636058,-1110.308913,2068.457845
3380.494757,-10658.965565,-370.102971,4673.182538
3380.495094,-11251.130318,592.164754,3907.087040
3380.495431,-10510.924376,1406.391290,766.095498
3380.495768,-12139.377449,1554.432478,536.266849
3380.496106,-10510.924376,1332.370696,76.609550
3380.496443,-9326.594869,1628.453072,1455.581446
3380.496780,-10214.842000,2368.659014,2374.896044
3380.497117,-9992.780217,2812.782580,1072.533697
3380.497455,-10140.821405,2516.700203,-383.047749
3380.497792,-11029.068536,2664.741391,-842.705048
3380.498129,-9696.697840,1628.453072,-995.924147
3380.498466,-9400.615463,740.205942,-689.485948
3380.498803,-9622.677246,740.205942,689.485948
3380.499141,-8586.388927,74.020594,-689.485948
3380.499478,-8956.491898,-222.061783,-689.485948
3380.499815,-9030.512492,-1332.370696,-612.876398
3380.500152,-8882.471304,-2294.638420,0.000000
3380.500490,-9474.636058,-1776.494261,1378.971896
3380.500827,-10362.883188,-1628.453072,2068.457845
3380.501164,-9474.636058,-1184.329507,459.657299
3380.501501,-9400.615463,-2220.617826,229.828649
3380.501838,-10066.800811,-1850.514855,842.705048
3380.502176,-10214.842000,-2368.659014,1149.143247
3380.502513,-10214.842000,-1776.494261,2451.505594
3380.502850,-10288.862594,-740.205942,2145.067394
3380.503187,-10362.883188,0.000000,766.095498
3380.503525,-10214.842000,296.082377,-153.219100
3380.503862,-11547.212695,-148.041188,-536.266849
3380.504199,-11029.068536,-1850.514855,0.000000
3380.504536,-10436.903782,-962.267725,1302.362347
3380.504873,-10807.006753,0.000000,1455.581446
3380.505211,-9474.636058,74.020594,-76.609550
3380.505548,-10288.862594,592.164754,-1378.971896
3380.505885,-11251.130318,740.205942,-1915.238745
3380.506222,-10510.924376,-444.123565,-2145.067394
3380.506560,-10362.883188,-1036.288319,306.438199
3380.506897,-9548.656652,-1850.514855,766.095498
3380.507234,-9252.574275,-592.164754,153.219100
3380.507571,-10658.965565,-222.061783,0.000000
3380.507908,-9252.574275,0.000000,-995.924147
3380.508246,-8586.388927,-888.247130,229.828649
3380.508583,-10288.862594,-518.144159,2068.457845
3380.508920,-8956.491898,962.267725,1532.190996
3380.509257,-9548.656652,1480.411884,766.095498
3380.509595,-10881.027347,1924.535449,459.657299
3380.509932,-9992.780217,1480.411884,-76.609550
3380.510269,-9770.718434,1406.391290,842.705048
3380.510606,-9696.697840,1332.370696,2068.457845
3380.510943,-9548.656652,1776.494261,459.657299
3380.511281,-10066.800811,1702.473667,-995.924147
3380.511618,-10288.862594,740.205942,-1685.410096
3380.511955,-8290.306550,148.041188,-1762.019645
3380.512292,-9474.636058,-1332.370696,0.000000
3380.512630,-10140.821405,-814.226536,1302.362347
3380.512967,-10066.800811,-740.205942,0.000000
3380.513304,-11029.068536,74.020594,-383.047749
3380.513641,-11029.068536,-814.226536,-1915.238745
3380.513978,-10214.842000,-1776.494261,-2528.115143
3380.514316,-10066.800811,-2146.597232,-536.266849
3380.514653,-9030.512492,-2072.576638,689.485948
3380.514990,-9252.574275,-2590.720797,383.047749
3380.515327,-10362.883188,-2812.782580,0.000000
3380.515665,-11029.068536,-2220.617826,536.266849
3380.516002,-10436.903782,-1480.411884,0.000000
3380.516339,-10584.944971,-1628.453072,995.924147
3380.516676,-11177.109724,-1110.308913,2068.457845
3380.517013,-9326.594869,-518.144159,2221.676944
3380.517351,-9326.594869,-518.144159,2604.724693
3380.517688,-10807.006753,74.020594,2145.067394
3380.518025,-10807.006753,-222.061783,2221.676944
3380.518362,-11103.089130,814.226536,1762.019645
3380.518700,-11103.089130,1406.391290,1225.752797
3380.519037,-9326.594869,2220.617826,-1378.971896
3380.519374,-9474.636058,1924.535449,-1302.362347
3380.519711,-9400.615463,1110.308913,-1455.581446
3380.520048,-9252.574275,740.205942,-1072.533697
3380.520386,-9992.780217,1184.329507,-919.314598
3380.520723,-8956.491898,518.144159,-1072.533697
3380.521060,-9104.533087,148.041188,0.000000
3380.521397,-9548.656652,-148.041188,0.000000
3380.521735,-9918.759623,296.082377,76.609550
3380.522072,-10584.944971,222.061783,1455.581446
3380.522409,-11177.109724,74.020594,2451.505594
3380.522746,-9992.780217,666.185348,1608.800546
3380.523083,-9474.636058,666.185348,0.000000
3380.523421,-10214.842000,592.164754,-153.219100
3380.523758,-9770.718434,-814.226536,-153.219100
3380.524095,-9622.677246,-1406.391290,612.876398
3380.524432,-9178.553681,222.061783,842.705048
3380.524770,-10066.800811,0.000000,919.314598
3380.525107,-10214.842000,666.185348,-383.047749
3380.525444,-11103.089130,-148.041188,-995.924147
3380.525781,-10510.924376,-666.185348,-229.828649
3380.526118,-9992.780217,-962.267725,995.924147
3380.526456,-10510.924376,-1110.308913,995.924147
3380.526793,-9844.739029,-1628.453072,76.609550
3380.527130,-9622.677246,-1554.432478,-1532.190996
3380.527467,-11251.130318,-2442.679609,-689.485948
3380.527805,-10288.862594,-2442.679609,-1149.143247
3380.528142,-10807.006753,-2738.761985,459.657299
3380.528479,-9992.780217,-2738.761985,1532.190996
3380.528816,-8660.409521,-1998.556043,-689.485948
3380.529153,-9992.780217,-1406.391290,612.876398
3380.529491,-10584.944971,-2146.597232,229.828649
3380.529828,-9548.656652,-1850.514855,0.000000
3380.530165,-10732.986159,-1332.370696,1991.848295
3380.530502,-10362.883188,-740.205942,2757.943793
3380.530840,-9992.780217,296.082377,1455.581446
3380.531177,-9992.780217,740.205942,383.047749
3380.531514,-9474.636058,518.144159,842.705048
3380.531851,-9252.574275,888.247130,919.314598
3380.532188,-10955.047942,592.164754,2451.505594
3380.532526,-9622.677246,1110.308913,1685.410096
3380.532863,-8956.491898,2368.659014,229.828649
3380.533200,-10732.986159,3108.864956,0.000000
3380.533537,-10510.924376,2146.597232,-1302.362347
3380.533875,-10288.862594,1036.288319,-1302.362347
3380.534212,-9770.718434,592.164754,-766.095498
3380.534549,-8808.450710,1850.514855,-1762.019645
3380.534886,-9844.739029,296.082377,-2528.115143
3380.535223,-9178.553681,-518.144159,-3370.820191
3380.535561,-8660.409521,-1480.411884,-2834.553343
3380.535898,-9326.594869,-1258.350101,0.000000
3380.536235,-10288.862594,-1110.308913,1915.238745
3380.536572,-10732.986159,-740.205942,1072.533697
3380.536910,-11399.171507,-1184.329507,612.876398
3380.537247,-10881.027347,-814.226536,229.828649
3380.537584,-9918.759623,-1850.514855,1762.019645
3380.537921,-9844.739029,-1924.535449,2681.334243
3380.538258,-9326.594869,-888.247130,1915.238745
3380.538596,-9548.656652,-962.267725,689.485948
3380.538933,-10658.965565,-1036.288319,0.000000
3380.539270,-10732.986159,-1406.391290,459.657299
3380.539607,-9992.780217,-1850.514855,612.876398
3380.539945,-10288.862594,-962.267725,1991.848295
3380.540282,-10140.821405,148.041188,689.485948
3380.540619,-9474.636058,148.041188,-842.705048
3380.540956,-10510.924376,0.000000,-689.485948
3380.541293,-10732.986159,-1258.350101,-689.485948
3380.541631,-10066.800811,-1406.391290,306.438199
3380.541968,-10066.800811,-370.102971,1838.629195
3380.542305,-10214.842000,0.000000,1378.971896
3380.542642,-11029.068536,-444.123565,153.219100
3380.542980,-11251.130318,0.000000,-766.095498
3380.543317,-10362.883188,-296.082377,-153.219100
3380.543654,-9474.636058,-1258.350101,612.876398
3380.543991,-8734.430116,-1258.350101,1915.238745
3380.544328,-8734.430116,0.000000,2374.896044
3380.544666,-9400.615463,518.144159,2145.067394
3380.545003,-9770.718434,1776.494261,1455.581446
3380.545340,-10955.047942,444.123565,919.314598
3380.545677,-10214.842000,1998.556043,995.924147
3380.546015,-9400.615463,1036.288319,1072.533697
3380.546352,-9104.533087,1184.329507,76.609550
3380.546689,-8216.285956,-296.082377,-689.485948
3380.547026,-9474.636058,0.000000,0.000000
3380.547363,-8364.327145,222.061783,-1149.143247
3380.547701,-9030.512492,518.144159,-1072.533697
3380.548038,-10807.006753,2072.576638,-1072.533697
3380.548375,-11251.130318,888.247130,-3447.429741
3380.548712,-11399.171507,444.123565,-3370.820191
3380.549050,-10436.903782,-1036.288319,-2068.457845
3380.549387,-9622.677246,-1554.432478,229.828649
3380.549724,-10584.944971,-2442.679609,1685.410096
3380.550061,-10436.903782,-2072.576638,1302.362347
3380.550398,-10436.903782,-1628.453072,306.438199
3380.550736,-11621.233289,-2072.576638,0.000000
3380.551073,-10510.924376,-1924.535449,-612.876398
3380.551410,-10140.821405,-2516.700203,689.485948
3380.551747,-10140.821405,-1628.453072,1455.581446
3380.552084,-9770.718434,-814.226536,689.485948
3380.552422,-10732.986159,0.000000,1072.533697
3380.552759,-10140.821405,-148.041188,76.609550
3380.553096,-9474.636058,-444.123565,0.000000
3380.553433,-9696.697840,0.000000,1991.848295
3380.553771,-9622.677246,0.000000,2298.286494
3380.554108,-9326.594869,518.144159,1378.971896
3380.554445,-10066.800811,0.000000,-76.609550
3380.554782,-10288.862594,222.061783,-919.314598
3380.555119,-9918.759623,-592.164754,-306.438199
3380.555457,-9474.636058,-962.267725,1455.581446
3380.555794,-9770.718434,518.144159,1302.362347
3380.556131,-9474.636058,962.267725,-612.876398
3380.556468,-9178.553681,814.226536,-766.095498
3380.556806,-10214.842000,148.041188,-536.266849
3380.557143,-9844.739029,-666.185348,229.828649
3380.557480,-10584.944971,-444.123565,1149.143247
3380.557817,-10436.903782,-74.020594,1378.971896
3380.558154,-9474.636058,1036.288319,1455.581446
3380.558492,-10140.821405,814.226536,1532.190996
3380.558829,-10955.047942,1332.370696,842.705048
3380.559166,-10362.883188,-148.041188,0.000000
3380.559503,-10362.883188,-1406.391290,1149.143247
3380.559841,-10066.800811,-296.082377,2298.286494
3380.560178,-9474.636058,-370.102971,1685.410096
3380.560515,-9252.574275,592.164754,0.000000
3380.560852,-9474.636058,-222.061783,-995.924147
3380.561189,-9622.677246,518.144159,-612.876398
3380.561527,-10510.924376,-888.247130,153.219100
3380.561864,-10066.800811,-148.041188,-689.485948
3380.562201,-10436.903782,-962.267725,-1455.581446
3380.562538,-10436.903782,-1628.453072,-2221.676944
3380.562876,-8956.491898,-1702.473667,-2757.943793
3380.563213,-9030.512492,-2812.782580,-536.266849
3380.563550,-9696.697840,-2590.720797,842.705048
3380.563887,-9548.656652,-2294.638420,-919.314598
3380.564224,-11029.068536,-296.082377,-153.219100
3380.564562,-10214.842000,222.061783,-536.266849
3380.564899,-11399.171507,-1628.453072,0.000000
3380.565236,-11251.130318,-1480.411884,1532.190996
3380.565573,-10362.883188,-666.185348,2834.553343
3380.565911,-10584.944971,296.082377,3830.477490
3380.566248,-11325.150913,740.205942,1608.800546
3380.566585,-10955.047942,888.247130,229.828649
3380.566922,-10362.883188,518.144159,689.485948
3380.567259,-9696.697840,0.000000,1838.629195
3380.567597,-10732.986159,1480.411884,2221.676944
3380.567934,-8882.471304,1480.411884,153.219100
3380.568271,-8660.409521,1332.370696,-306.438199
3380.568608,-9622.677246,814.226536,-306.438199
3380.568946,-9696.697840,222.061783,229.828649
3380.569283,-10732.986159,592.164754,766.095498
3380.569620,-9474.636058,666.185348,0.000000
3380.569957,-8142.265362,888.247130,-995.924147
3380.570294,-9770.718434,-888.247130,-1149.143247
3380.570632,-9474.636058,-1850.514855,-306.438199
3380.570969,-8216.285956,-2146.597232,153.219100
3380.571306,-9252.574275,-2220.617826,1838.629195
3380.571643,-9622.677246,-1036.288319,0.000000
3380.571981,-10140.821405,-888.247130,-1072.533697
3380.572318,-11029.068536,-1036.288319,-612.876398
3380.572655,-10140.821405,-1480.411884,-536.266849
3380.572992,-9474.636058,-444.123565,612.876398
3380.573329,-9770.718434,0.000000,1455.581446
3380.573667,-10510.924376,222.061783,0.000000
3380.574004,-11621.233289,-666.185348,-383.047749
3380.574341,-11917.315666,-296.082377,76.609550
3380.574678,-11029.068536,-962.267725,995.924147
3380.575016,-10955.047942,-518.144159,1532.190996
3380.575353,-10214.842000,0.000000,1225.752797
3380.575690,-10140.821405,296.082377,-306.438199
3380.576027,-10140.821405,592.164754,-689.485948
3380.576364,-10955.047942,-74.020594,-1149.143247
3380.576702,-10807.006753,-740.205942,-842.705048
3380.577039,-9844.739029,-370.102971,-1455.581446
3380.577376,-8734.430116,-666.185348,-995.924147
3380.577713,-8438.347739,0.000000,-1302.362347
3380.578051,-8882.471304,-814.226536,-1991.848295
3380.578388,-9474.636058,-518.144159,-1378.971896
3380.578725,-9474.636058,-1258.350101,306.438199
3380.579062,-8956.491898,-1406.391290,2451.505594
3380.579400,-9918.759623,0.000000,3907.087040
3380.579737,-10436.903782,-370.102971,2298.286494
3380.580074,-10066.800811,592.164754,1302.362347
3380.580411,-9918.759623,370.102971,919.314598
3380.580749,-9474.636058,0.000000,2068.457845
3380.581086,-9770.718434,444.123565,2911.162892
3380.581423,-10214.842000,962.267725,2145.067394
3380.581760,-10584.944971,2072.576638,383.047749
3380.582098,-11325.150913,814.226536,-1608.800546
3380.582435,-10362.883188,370.102971,-766.095498
3380.582772,-9104.533087,-888.247130,0.000000
3380.583109,-9770.718434,-444.123565,459.657299
3380.583447,-10066.800811,0.000000,-995.924147
3380.583784,-10140.821405,0.000000,-1225.752797
3380.584121,-10584.944971,-1406.391290,-1532.190996
3380.584458,-9548.656652,-518.144159,-2145.067394
3380.584796,-10214.842000,-3034.844362,1149.143247
3380.585133,-11251.130318,-2664.741391,2987.772442
3380.585470,-8364.327145,-1480.411884,153.219100
3380.585807,-9548.656652,-962.267725,0.000000
3380.586145,-11473.192101,-1554.432478,-612.876398
3380.586482,-10436.903782,-2072.576638,-1149.143247
3380.586819,-9992.780217,-2590.720797,1378.971896
3380.587156,-9474.636058,-370.102971,2374.896044
3380.587494,-8660.409521,0.000000,1532.190996
3380.587831,-9844.739029,296.082377,229.828649
3380.588168,-10140.821405,-148.041188,-612.876398
3380.588505,-10214.842000,-1036.288319,1072.533697
3380.588843,-9696.697840,148.041188,2757.943793
3380.589180,-9474.636058,1110.308913,2604.724693
3380.589517,-10362.883188,1702.473667,612.876398
3380.589854,-10881.027347,1554.432478,-1225.752797
3380.590192,-9992.780217,1480.411884,-2298.286494
3380.590529,-9548.656652,1480.411884,-1378.971896
3380.590866,-9696.697840,814.226536,-1225.752797
3380.591203,-9622.677246,1332.370696,-995.924147
3380.591541,-9696.697840,148.041188,-2298.286494
3380.591878,-9104.533087,370.102971,-1838.629195
3380.592215,-9622.677246,-814.226536,76.609550
3380.592553,-9030.512492,-370.102971,1225.752797
3380.592890,-10658.965565,-370.102971,1838.629195
3380.593227,-11769.274478,592.164754,1378.971896
3380.593564,-9770.718434,592.164754,0.000000
3380.593902,-10807.006753,-592.164754,0.000000
3380.594239,-10584.944971,-740.205942,306.438199
3380.594576,-9400.615463,-444.123565,842.705048
3380.594913,-10584.944971,-296.082377,2451.505594
3380.595251,-9696.697840,0.000000,612.876398
3380.595588,-9844.739029,1110.308913,0.000000
3380.595925,-11029.068536,888.247130,-536.266849
3380.596262,-10214.842000,-888.247130,-995.924147
3380.596600,-9548.656652,-1258.350101,995.924147
3380.596937,-10214.842000,-296.082377,1838.629195
3380.597274,-8808.450710,-666.185348,153.219100
3380.597611,-10214.842000,-740.205942,-306.438199
3380.597949,-10732.986159,-1110.308913,-1455.581446
3380.598286,-10140.821405,-1036.288319,-1532.190996
3380.598623,-10362.883188,-2146.597232,995.924147
3380.598960,-9844.739029,-1850.514855,1149.143247
3380.599298,-9474.636058,-1406.391290,0.000000
3380.599635,-9918.759623,-1110.308913,-689.485948
3380.599972,-9400.615463,-1036.288319,-383.047749
3380.600309,-9400.615463,-1480.411884,689.485948
3380.600647,-10658.965565,-1628.453072,2374.896044
3380.600984,-10807.006753,0.000000,2911.162892
3380.601321,-9548.656652,740.205942,1762.019645
3380.601658,-10658.965565,1332.370696,842.705048
3380.601996,-11177.109724,888.247130,306.438199
3380.602333,-9844.739029,814.226536,1378.971896
3380.602670,-9622.677246,592.164754,3140.991542
3380.603007,-9770.718434,666.185348,2145.067394
3380.603345,-9548.656652,1776.494261,0.000000
3380.603682,-10288.862594,2072.576638,-1685.410096
3380.604019,-9622.677246,740.205942,-2374.896044
3380.604356,-8882.471304,592.164754,-842.705048
3380.604694,-9918.759623,-444.123565,1302.362347
3380.605031,-9548.656652,962.267725,-229.828649
3380.605368,-8660.409521,0.000000,-1685.410096
3380.605705,-10584.944971,-962.267725,-1378.971896
3380.606043,-9548.656652,-1628.453072,-2451.505594
3380.606380,-9030.512492,-1480.411884,-689.485948
3380.606717,-9844.739029,-1628.453072,2298.286494
3380.607054,-9474.636058,-2072.576638,689.485948
3380.607392,-10214.842000,-1628.453072,-689.485948
3380.607729,-10066.800811,-444.123565,-842.705048
3380.608066,-10436.903782,-1184.329507,1072.533697
3380.608403,-11843.295072,-1924.535449,2374.896044
3380.608741,-11621.233289,-1258.350101,2374.896044
3380.609078,-9548.656652,-888.247130,1225.752797
3380.609415,-9400.615463,-1480.411884,306.438199
3380.609752,-9548.656652,-592.164754,-306.438199
3380.610090,-9622.677246,-666.185348,-766.095498
3380.610427,-11029.068536,-592.164754,1149.143247
3380.610764,-11917.315666,-666.185348,612.876398
3380.611101,-10288.862594,592.164754,-689.485948
3380.611439,-10066.800811,0.000000,-612.876398
3380.611776,-10436.903782,518.144159,-766.095498
3380.612113,-8734.430116,-296.082377,-766.095498
3380.612450,-9770.718434,-888.247130,842.705048
3380.612788,-9844.739029,-666.185348,766.095498
3380.613125,-9474.636058,0.000000,-306.438199
3380.613462,-11029.068536,888.247130,-612.876398
3380.613799,-10732.986159,222.061783,-1762.019645
3380.614137,-8808.450710,0.000000,-459.657299
3380.614474,-7402.059420,518.144159,1685.410096
3380.614811,-9548.656652,74.020594,3140.991542
3380.615148,-9696.697840,1554.432478,1991.848295
3380.615486,-10881.027347,2516.700203,306.438199
3380.615823,-10140.821405,1628.453072,0.000000
3380.616160,-9326.594869,1628.453072,919.314598
3380.616497,-10140.821405,962.267725,2681.334243
3380.616835,-9252.574275,1480.411884,1378.971896
3380.617172,-9178.553681,1850.514855,306.438199
3380.617509,-10214.842000,1702.473667,-383.047749
3380.617846,-10288.862594,888.247130,-1378.971896
3380.618184,-10362.883188,-740.205942,-76.609550
3380.618521,-10658.965565,-592.164754,1149.143247
3380.618858,-9474.636058,-518.144159,766.095498
3380.619195,-9844.739029,0.000000,-229.828649
3380.619533,-10436.903782,-1184.329507,-2221.676944
3380.619870,-9178.553681,-1332.370696,-1532.190996
3380.620207,-9770.718434,-2368.659014,-919.314598
3380.620544,-10732.986159,-1480.411884,1072.533697
3380.620882,-10288.862594,-1628.453072,76.609550
3380.621219,-10881.027347,-2516.700203,-536.266849
3380.621556,-10732.986159,-2886.803174,-306.438199
3380.621893,-9326.594869,-2590.720797,536.266849
3380.622231,-10214.842000,-2146.597232,3064.381992
3380.622568,-11103.089130,-2072.576638,3753.867940
3380.622905,-10362.883188,-370.102971,2451.505594
3380.623242,-11399.171507,0.000000,1378.971896
3380.623580,-11547.212695,-592.164754,842.705048
3380.623917,-9474.636058,-888.247130,1149.143247
3380.624254,-9770.718434,0.000000,2604.724693
3380.624591,-9770.718434,1036.288319,2528.115143
3380.624929,-10214.842000,1258.350101,-306.438199
3380.625266,-10584.944971,1110.308913,-995.924147
3380.625603,-10066.800811,1480.411884,-1762.019645
3380.625940,-9548.656652,814.226536,-1072.533697
3380.626278,-9844.739029,222.061783,-153.219100
3380.626615,-8216.285956,296.082377,-612.876398
3380.626952,-7846.182985,-74.020594,0.000000
3380.627289,-9918.759623,0.000000,0.000000
3380.627627,-10807.006753,444.123565,0.000000
3380.627964,-10436.903782,74.020594,459.657299
3380.628301,-10140.821405,148.041188,2068.457845
3380.628638,-9992.780217,1036.288319,1072.533697
3380.628976,-9844.739029,0.000000,0.000000
3380.629313,-10140.821405,666.185348,-459.657299
3380.629650,-9400.615463,-1036.288319,-1532.190996
3380.629987,-9252.574275,-1554.432478,766.095498
3380.630325,-9548.656652,-666.185348,1608.800546
3380.630662,-9178.553681,-444.123565,229.828649
3380.630999,-9844.739029,444.123565,-766.095498
3380.631337,-9918.759623,0.000000,-919.314598
3380.631674,-9992.780217,-444.123565,0.000000
3380.632011,-11399.171507,-1332.370696,1455.581446
3380.632348,-11177.109724,-444.123565,1302.362347
3380.632686,-10436.903782,-296.082377,153.219100
3380.633023,-10658.965565,-148.041188,-1378.971896
3380.633360,-10584.944971,-1184.329507,-2757.943793
3380.633697,-9030.512492,-1776.494261,-3447.429741
3380.634035,-10436.903782,-2516.700203,-612.876398
3380.634372,-10658.965565,-2368.659014,306.438199
3380.634709,-9622.677246,-740.205942,0.000000
3380.635046,-11103.089130,-1110.308913,689.485948
3380.635384,-11029.068536,-1406.391290,1378.971896
3380.635721,-9622.677246,-1480.411884,766.095498
3380.636058,-10140.821405,-1036.288319,2298.286494
3380.636395,-10362.883188,-370.102971,3830.477490
3380.636733,-9992.780217,518.144159,2681.334243
3380.637070,-11029.068536,1184.329507,1685.410096
3380.637407,-10881.027347,2220.617826,0.000000
3380.637744,-9252.574275,1702.473667,1149.143247
3380.638082,-10066.800811,1406.391290,2911.162892
3380.638419,-8808.450710,1850.514855,1149.143247
3380.638756,-8438.347739,1850.514855,76.609550
3380.639093,-9844.739029,2368.659014,-459.657299
3380.639431,-9326.594869,1332.370696,-1838.629195
3380.639768,-9104.533087,740.205942,-919.314598
3380.640105,-9400.615463,888.247130,1455.581446
3380.640442,-8956.491898,1702.473667,1149.143247
3380.640780,-10732.986159,592.164754,0.000000
3380.641117,-11399.171507,962.267725,-229.828649
3380.641454,-9918.759623,-1110.308913,-1608.800546
3380.641791,-9474.636058,-1036.288319,0.000000
3380.642129,-10140.821405,-1406.391290,1915.238745
3380.642466,-9104.533087,-1184.329507,919.314598
3380.642803,-9178.553681,-666.185348,-306.438199
3380.643140,-10584.944971,-740.205942,-612.876398
3380.643478,-11547.212695,-962.267725,-842.705048
3380.643815,-11251.130318,-1258.350101,-229.828649
3380.644152,-10955.047942,-962.267725,1455.581446
3380.644489,-9622.677246,-74.020594,1378.971896
3380.644827,-10362.883188,-1184.329507,995.924147
3380.645164,-9622.677246,-1258.350101,229.828649
3380.645501,-9548.656652,-2072.576638,-306.438199
3380.645838,-11177.109724,-1924.535449,1915.238745
3380.646176,-11843.295072,-1850.514855,229.828649
3380.646513,-8734.430116,-1406.391290,-1455.581446
3380.646850,-9474.636058,-1702.473667,-612.876398
3380.647187,-9622.677246,-1258.350101,-995.924147
3380.647525,-8364.327145,-1036.288319,-2451.505594
3380.647862,-10436.903782,-1850.514855,76.609550
3380.648199,-10881.027347,-2072.576638,536.266849
3380.648536,-9548.656652,-1184.329507,-766.095498
3380.648874,-10436.903782,148.041188,0.000000
3380.649211,-9770.718434,-296.082377,-919.314598
3380.649548,-9252.574275,-1184.329507,-1149.143247
3380.649885,-10436.903782,-814.226536,1991.848295
3380.650223,-9770.718434,-444.123565,2834.553343
3380.650560,-9548.656652,1110.308913,3447.429741
3380.650897,-12213.398043,1924.535449,1838.629195
3380.651234,-11769.274478,1702.473667,-459.657299
3380.651572,-10584.944971,1406.391290,-306.438199
3380.651909,-9252.574275,2294.638420,1532.190996
3380.652246,-8364.327145,1998.556043,1838.629195
3380.652583,-9252.574275,2294.638420,-76.609550
3380.652921,-11473.192101,2442.679609,-1378.971896
3380.653258,-10288.862594,1258.350101,-1991.848295
3380.653595,-9770.718434,1036.288319,-1455.581446
3380.653932,-8808.450710,-296.082377,76.609550
3380.654270,-8660.409521,-222.061783,0.000000
3380.654607,-8882.471304,0.000000,-536.266849
3380.654944,-10955.047942,-1258.350101,0.000000
3380.655281,-9474.636058,-1184.329507,-919.314598
3380.655619,-9548.656652,-1850.514855,766.095498
3380.655956,-11177.109724,-1406.391290,1838.629195
3380.656293,-10140.821405,-1776.494261,-612.876398
3380.656630,-9918.759623,-1924.535449,-459.657299
3380.656968,-9548.656652,-2516.700203,-229.828649
3380.657305,-8290.306550,-2590.720797,919.314598
3380.657642,-10584.944971,-1110.308913,2145.067394
3380.657979,-10881.027347,-1702.473667,1915.238745
3380.658317,-10066.800811,-518.144159,306.438199
3380.658654,-11621.233289,-444.123565,1225.752797
3380.658991,-10955.047942,-518.144159,1225.752797
3380.659328,-10214.842000,-666.185348,1838.629195
3380.659666,-11177.109724,-222.061783,2528.115143
3380.660003,-10214.842000,296.082377,1685.410096
3380.660340,-10436.903782,1110.308913,76.609550
3380.660677,-11621.233289,0.000000,229.828649
3380.661015,-10807.006753,-370.102971,-536.266849
3380.661352,-9548.656652,148.041188,76.609550
3380.661689,-9770.718434,444.123565,-153.219100
3380.662026,-9474.636058,74.020594,-1302.362347
3380.662364,-8586.388927,666.185348,-2068.457845
3380.662701,-8808.450710,0.000000,-2145.067394
3380.663038,-8586.388927,74.020594,-919.314598
3380.663375,-9400.615463,-222.061783,536.266849
3380.663713,-10436.903782,296.082377,1532.190996
3380.664050,-9696.697840,0.000000,919.314598
3380.664387,-9474.636058,888.247130,229.828649
3380.664724,-10584.944971,592.164754,1762.019645
3380.665062,-9844.739029,-296.082377,766.095498
3380.665399,-9400.615463,-370.102971,1149.143247
3380.665736,-10214.842000,222.061783,2451.505594
3380.666073,-9474.636058,1036.288319,766.095498
3380.666411,-9400.615463,1184.329507,-842.705048
3380.666748,-11251.130318,296.082377,-612.876398
3380.667085,-10732.986159,592.164754,-1685.410096
3380.667422,-10955.047942,-740.205942,-536.266849
3380.667760,-10584.944971,444.123565,995.924147
3380.668097,-8882.471304,-222.061783,-383.047749
3380.668434,-10436.903782,-1480.411884,-536.266849
3380.668771,-11103.089130,-1554.432478,-1608.800546
3380.669109,-9474.636058,-2294.638420,-2451.505594
3380.669446,-10288.862594,-2886.803174,-306.438199
3380.669783,-10584.944971,-4145.153275,995.924147
3380.670120,-8216.285956,-2516.700203,-612.876398
3380.670458,-8586.388927,-1998.556043,0.000000
3380.670795,-9844.739029,-1628.453072,1225.752797
3380.671132,-10140.821405,-1702.473667,1225.752797
3380.671470,-12435.459826,-1702.473667,2374.896044
3380.671807,-11399.171507,-444.123565,1072.533697
3380.672144,-9696.697840,-444.123565,612.876398
3380.672481,-9474.636058,-222.061783,1455.581446
3380.672819,-9326.594869,-740.205942,612.876398
3380.673156,-8956.491898,296.082377,1225.752797
3380.673493,-10362.883188,296.082377,1762.019645
3380.673830,-10658.965565,518.144159,689.485948
3380.674168,-10140.821405,1702.473667,-689.485948
3380.674505,-10214.842000,2442.679609,-766.095498
3380.674842,-10214.842000,740.205942,383.047749
3380.675179,-9696.697840,1110.308913,766.095498
3380.675517,-10066.800811,1776.494261,229.828649
3380.675854,-10066.800811,814.226536,0.000000
3380.676191,-9474.636058,0.000000,-2145.067394
3380.676528,-9992.780217,-148.041188,-1532.190996
3380.676866,-9548.656652,-1702.473667,-1149.143247
3380.677203,-9030.512492,-740.205942,842.705048
3380.677540,-10362.883188,-148.041188,1838.629195
3380.677877,-9252.574275,74.020594,383.047749
3380.678215,-10066.800811,148.041188,459.657299
3380.678552,-11621.233289,-814.226536,842.705048
3380.678889,-9770.718434,-740.205942,689.485948
3380.679226,-10584.944971,-592.164754,2757.943793
3380.679564,-10881.027347,0.000000,2757.943793
3380.679901,-8438.347739,370.102971,612.876398
3380.680238,-10066.800811,518.144159,0.000000
3380.680575,-11325.150913,0.000000,76.609550
3380.680913,-10214.842000,-370.102971,153.219100
3380.681250,-10881.027347,-592.164754,766.095498
3380.681587,-9696.697840,222.061783,0.000000
3380.681924,-9030.512492,0.000000,-842.705048
3380.682261,-9474.636058,-888.247130,-1225.752797
3380.682599,-8660.409521,-1332.370696,-766.095498
3380.682936,-9178.553681,-2072.576638,536.266849
3380.683273,-10881.027347,-1628.453072,1838.629195
3380.683610,-11473.192101,-1554.432478,229.828649
3380.683948,-10066.800811,-1554.432478,-1302.362347
3380.684285,-10066.800811,-666.185348,-383.047749
3380.684622,-9474.636058,-2294.638420,76.609550
3380.684959,-8882.471304,-1332.370696,1838.629195
3380.685297,-10955.047942,-1924.535449,2604.724693
3380.685634,-10881.027347,-666.185348,2221.676944
3380.685971,-10214.842000,1406.391290,306.438199
3380.686308,-11621.233289,888.247130,0.000000
3380.686646,-9622.677246,74.020594,76.609550
3380.686983,-8956.491898,666.185348,1072.533697
3380.687320,-10066.800811,888.247130,1608.800546
3380.687657,-9252.574275,888.247130,76.609550
3380.687995,-9548.656652,1036.288319,-995.924147
3380.688332,-11843.295072,1258.350101,-919.314598
3380.688669,-10584.944971,222.061783,-1915.238745
3380.689006,-9326.594869,-222.061783,-612.876398
3380.689344,-9474.636058,-592.164754,0.000000
3380.689681,-8660.409521,-296.082377,-1072.533697
3380.690018,-8882.471304,-444.123565,-2834.553343
3380.690355,-9400.615463,-1554.432478,-1225.752797
3380.690693,-9696.697840,-2960.823768,-1072.533697
3380.691030,-10881.027347,-1110.308913,842.705048
3380.691367,-10955.047942,-222.061783,1685.410096
3380.691704,-10214.842000,-222.061783,-1149.143247
3380.692042,-10436.903782,-740.205942,-1762.019645
3380.692379,-10362.883188,-962.267725,-1378.971896
3380.692716,-8882.471304,-1998.556043,1149.143247
3380.693053,-9474.636058,-1628.453072,3140.991542
3380.693391,-11473.192101,-592.164754,3140.991542
3380.693728,-11621.233289,-148.041188,842.705048
3380.694065,-11325.150913,-592.164754,766.095498
3380.694402,-9548.656652,-222.061783,536.266849
3380.694740,-9178.553681,-592.164754,2221.676944
3380.695077,-10510.924376,0.000000,3217.601092
3380.695414,-10362.883188,518.144159,1072.533697
3380.695751,-10510.924376,592.164754,-919.314598
3380.696089,-10881.027347,666.185348,-1685.410096
3380.696426,-9030.512492,-518.144159,-919.314598
3380.696763,-7846.182985,-1406.391290,919.314598
3380.697100,-8956.491898,-1258.350101,2298.286494
3380.697437,-10066.800811,-1036.288319,1378.971896
3380.697775,-10362.883188,-148.041188,-383.047749
3380.698112,-10955.047942,0.000000,-306.438199
3380.698449,-9622.677246,-1184.329507,-306.438199
3380.698786,-9178.553681,-1184.329507,1455.581446
3380.699124,-9696.697840,-222.061783,3294.210641
3380.699461,-8956.491898,0.000000,1838.629195
3380.699798,-10214.842000,1036.288319,153.219100
3380.700135,-11103.089130,592.164754,-995.924147
3380.700473,-10955.047942,370.102971,0.000000
3380.700810,-10881.027347,518.144159,1378.971896
3380.701147,-10584.944971,1036.288319,1685.410096
3380.701484,-9400.615463,888.247130,459.657299
3380.701822,-9992.780217,1332.370696,-1608.800546
3380.702159,-10214.842000,888.247130,-1991.848295
3380.702496,-9844.739029,-74.020594,-689.485948
3380.702833,-9548.656652,222.061783,689.485948
3380.703171,-10214.842000,74.020594,2145.067394
3380.703508,-11251.130318,592.164754,76.609550
3380.703845,-11029.068536,-592.164754,-2451.505594
3380.704182,-9992.780217,-1184.329507,-2911.162892
3380.704520,-8142.265362,-888.247130,-1532.190996
3380.704857,-10066.800811,-1924.535449,1225.752797
3380.705194,-9770.718434,-1702.473667,1072.533697
3380.705531,-8586.388927,-1036.288319,-612.876398
3380.705869,-10362.883188,-592.164754,0.000000
3380.706206,-10584.944971,-1924.535449,-536.266849
3380.706543,-9326.594869,-1554.432478,76.609550
3380.706880,-10140.821405,-962.267725,2451.505594
3380.707218,-9622.677246,148.041188,2145.067394
3380.707555,-9992.780217,740.205942,995.924147
3380.707892,-10955.047942,518.144159,306.438199
3380.708229,-10066.800811,-666.185348,919.314598
3380.708567,-10140.821405,-370.102971,2681.334243
3380.708904,-10732.986159,74.020594,4060.306139
3380.709241,-10584.944971,1702.473667,1608.800546
3380.709578,-10584.944971,1036.288319,-1302.362347
3380.709916,-9770.718434,666.185348,-1838.629195
3380.710253,-8364.327145,444.123565,-2221.676944
3380.710590,-8364.327145,-370.102971,0.000000
3380.710927,-9474.636058,222.061783,612.876398
3380.711265,-8956.491898,0.000000,-612.876398
3380.711602,-10732.986159,888.247130,-1532.190996
3380.711939,-11399.171507,-444.123565,-1455.581446
3380.712276,-9844.739029,-1702.473667,-76.609550
3380.712613,-9770.718434,-1406.391290,1149.143247
3380.712951,-9918.759623,0.000000,1378.971896
3380.713288,-9252.574275,222.061783,459.657299
3380.713625,-10807.006753,-592.164754,-919.314598
3380.713962,-11029.068536,-592.164754,-1378.971896
3380.714300,-10362.883188,-592.164754,76.609550
3380.714637,-10955.047942,296.082377,1915.238745
3380.714974,-10066.800811,-666.185348,1072.533697
3380.715311,-8734.430116,0.000000,0.000000
3380.715649,-9474.636058,-740.205942,-459.657299
3380.715986,-9992.780217,-1480.411884,306.438199
3380.716323,-10362.883188,-1480.411884,1072.533697
3380.716660,-10510.924376,-1406.391290,1532.190996
3380.716998,-9696.697840,-444.123565,1762.019645
3380.717335,-9844.739029,148.041188,229.828649
3380.717672,-10658.965565,370.102971,-689.485948
3380.718009,-10732.986159,-1406.391290,-2221.676944
3380.718347,-10214.842000,-1850.514855,-842.705048
3380.718684,-9474.636058,-1850.514855,612.876398
3380.719021,-8660.409521,-814.226536,919.314598
3380.719358,-10066.800811,-296.082377,383.047749
3380.719696,-11399.171507,-444.123565,-842.705048
3380.720033,-11029.068536,-296.082377,-1225.752797
3380.720370,-10140.821405,-1184.329507,536.266849
3380.720707,-10881.027347,-1184.329507,4290.134789
3380.721045,-10140.821405,222.061783,3753.867940
3380.721382,-10955.047942,0.000000,2451.505594
3380.721719,-11621.233289,740.205942,1378.971896
3380.722056,-9622.677246,592.164754,1225.752797
3380.722394,-9696.697840,518.144159,3370.820191
3380.722731,-10288.862594,666.185348,2298.286494
3380.723068,-9030.512492,1924.535449,229.828649
3380.723405,-9844.739029,1406.391290,-1378.971896
3380.723743,-10362.883188,1406.391290,-1991.848295
3380.724080,-8882.471304,518.144159,-2145.067394
3380.724417,-8882.471304,74.020594,-1072.533697
3380.724754,-9474.636058,-296.082377,0.000000
3380.725092,-7846.182985,-444.123565,-383.047749
3380.725429,-9622.677246,-296.082377,-383.047749
3380.725766,-10584.944971,-1036.288319,-1608.800546
3380.726103,-9474.636058,-2220.617826,-1532.190996
3380.726441,-9770.718434,-1554.432478,766.095498
3380.726778,-10140.821405,-1998.556043,1149.143247
3380.727115,-9252.574275,-1406.391290,-612.876398
3380.727452,-10436.903782,-1184.329507,-1455.581446
3380.727789,-10807.006753,-1702.473667,-1225.752797
3380.728127,-10362.883188,-1480.411884,76.609550
3380.728464,-11029.068536,-1184.329507,2145.067394
3380.728801,-10732.986159,0.000000,2068.457845
3380.729138,-11547.212695,370.102971,842.705048
3380.729476,-11843.295072,444.123565,383.047749
3380.729813,-10214.842000,-222.061783,-383.047749
3380.730150,-9548.656652,0.000000,383.047749
3380.730487,-10807.006753,222.061783,1685.410096
3380.730825,-11399.171507,296.082377,536.266849
3380.731162,-9992.780217,814.226536,-1149.143247
3380.731499,-10140.821405,0.000000,-1225.752797
3380.731836,-9400.615463,666.185348,-76.609550
3380.732174,-9844.739029,-814.226536,-459.657299
3380.732511,-9548.656652,-296.082377,0.000000
3380.732848,-8290.306550,-888.247130,-919.314598
3380.733185,-9252.574275,-1258.350101,689.485948
3380.733523,-10584.944971,-666.185348,536.266849
3380.733860,-9178.553681,-1110.308913,0.000000
3380.734197,-9474.636058,-74.020594,1302.362347
3380.734534,-10140.821405,962.267725,2298.286494
3380.734872,-10436.903782,74.020594,842.705048
3380.735209,-9992.780217,444.123565,0.000000
3380.735546,-9178.553681,0.000000,842.705048
3380.735883,-9622.677246,592.164754,2987.772442
3380.736221,-10955.047942,592.164754,1991.848295
3380.736558,-11029.068536,222.061783,1532.190996
3380.736895,-10510.924376,592.164754,536.266849
3380.737232,-10362.883188,888.247130,76.609550
3380.737570,-10214.842000,1110.308913,0.000000
3380.737907,-9252.574275,-296.082377,0.000000
3380.738244,-10066.800811,296.082377,689.485948
3380.738581,-10362.883188,148.041188,-842.705048
3380.738919,-9548.656652,814.226536,-1915.238745
3380.739256,-10436.903782,-296.082377,-766.095498
3380.739593,-10066.800811,-1702.473667,-689.485948
3380.739930,-9474.636058,-1554.432478,-1072.533697
3380.740268,-11103.089130,-1924.535449,536.266849
3380.740605,-9770.718434,-1776.494261,536.266849
3380.740942,-8734.430116,-1924.535449,-1149.143247
3380.741279,-10140.821405,-1924.535449,-919.314598
3380.741617,-9548.656652,-1924.535449,-919.314598
3380.741954,-9030.512492,-1628.453072,1608.800546
3380.742291,-10288.862594,-962.267725,2451.505594
3380.742628,-10510.924376,-296.082377,1149.143247
3380.742965,-10510.924376,222.061783,919.314598
3380.743303,-10214.842000,-222.061783,842.705048
3380.743640,-9548.656652,518.144159,1225.752797
3380.743977,-10214.842000,-222.061783,3064.381992
3380.744314,-10732.986159,1036.288319,1608.800546
3380.744652,-9622.677246,1110.308913,-842.705048
3380.744989,-11103.089130,2146.597232,-536.266849
3380.745326,-10732.986159,1184.329507,-1225.752797
3380.745663,-9622.677246,296.082377,-766.095498
3380.746001,-9770.718434,518.144159,306.438199
3380.746338,-9252.574275,666.185348,-229.828649
3380.746675,-10066.800811,0.000000,0.000000
3380.747012,-11621.233289,370.102971,-536.266849
3380.747350,-10214.842000,-666.185348,-536.266849
3380.747687,-9474.636058,-592.164754,459.657299
3380.748024,-9622.677246,-1628.453072,1532.190996
3380.748361,-10214.842000,-1332.370696,2145.067394
3380.748699,-9030.512492,-1406.391290,76.609550
3380.749036,-9696.697840,-814.226536,-995.924147
3380.749373,-9844.739029,-296.082377,-459.657299
3380.749710,-9696.697840,-666.185348,-612.876398
3380.750048,-9696.697840,-518.144159,-153.219100
3380.750385,-8956.491898,-592.164754,-76.609550
3380.750722,-9770.718434,-74.020594,1378.971896
3380.751059,-11251.130318,518.144159,1455.581446
3380.751397,-10214.842000,-74.020594,995.924147
3380.751734,-10066.800811,296.082377,1072.533697
3380.752071,-11547.212695,-1110.308913,766.095498
3380.752408,-9918.759623,-296.082377,-306.438199
3380.752746,-9844.739029,-296.082377,-1302.362347
3380.753083,-10214.842000,-444.123565,-1685.410096
3380.753420,-9400.615463,-444.123565,-2451.505594
3380.753757,-9548.656652,-518.144159,-1225.752797
3380.754095,-10658.965565,-1480.411884,1302.362347
3380.754432,-9844.739029,518.144159,-153.219100
3380.754769,-10955.047942,296.082377,76.609550
3380.755106,-11177.109724,-518.144159,383.047749
3380.755444,-9622.677246,-814.226536,459.657299
3380.755781,-11177.109724,-962.267725,2221.676944
3380.756118,-10955.047942,222.061783,1991.848295
3380.756455,-8956.491898,296.082377,689.485948
3380.756793,-10066.800811,814.226536,1455.581446
3380.757130,-9844.739029,1036.288319,1149.143247
3380.757467,-9770.718434,148.041188,1378.971896
3380.757804,-10436.903782,888.247130,1915.238745
3380.758142,-9474.636058,444.123565,842.705048
3380.758479,-8290.306550,222.061783,-536.266849
3380.758816,-8660.409521,1110.308913,0.000000
3380.759153,-8734.430116,222.061783,-229.828649
3380.759490,-9474.636058,0.000000,459.657299
3380.759828,-11251.130318,0.000000,612.876398
3380.760165,-11843.295072,1110.308913,459.657299
3380.760502,-10066.800811,592.164754,-2145.067394
3380.760839,-10066.800811,-814.226536,-2374.896044
3380.761177,-9474.636058,-2442.679609,-1225.752797
3380.761514,-8290.306550,-2146.597232,842.705048
3380.761851,-9844.739029,-1036.288319,2068.457845
3380.762188,-11029.068536,-296.082377,1149.143247
3380.762526,-11769.274478,0.000000,-1762.019645
3380.762863,-12435.459826,-370.102971,-1838.629195
3380.763200,-10436.903782,-1184.329507,536.266849
3380.763537,-10436.903782,-1406.391290,1762.019645
3380.763875,-11029.068536,-1702.473667,2451.505594
3380.764212,-9696.697840,-222.061783,995.924147
3380.764549,-10807.006753,-518.144159,1685.410096
3380.764886,-11029.068536,0.000000,1378.971896
3380.765224,-10140.821405,-1110.308913,1762.019645
3380.765561,-10140.821405,-518.144159,2757.943793
3380.765898,-10214.842000,-296.082377,1302.362347
3380.766235,-8660.409521,592.164754,-536.266849
3380.766573,-8512.368333,740.205942,-1378.971896
3380.766910,-9326.594869,74.020594,-2145.067394
3380.767247,-8586.388927,-296.082377,-1915.238745
3380.767584,-10510.924376,-370.102971,-689.485948
3380.767922,-9770.718434,148.041188,-612.876398
3380.768259,-8660.409521,-222.061783,-995.924147
3380.768596,-9326.594869,74.020594,0.000000
3380.768933,-9400.615463,-740.205942,153.219100
3380.769271,-9918.759623,0.000000,1302.362347
3380.769608,-11473.192101,-666.185348,1762.019645
3380.769945,-10362.883188,0.000000,1915.238745
3380.770282,-9474.636058,592.164754,153.219100
3380.770620,-10732.986159,666.185348,-306.438199
3380.770957,-9178.553681,962.267725,0.000000
3380.771294,-9548.656652,74.020594,1225.752797
3380.771631,-11325.150913,592.164754,1762.019645
3380.771969,-11769.274478,888.247130,229.828649
3380.772306,-10732.986159,1480.411884,-919.314598
3380.772643,-10658.965565,-666.185348,-612.876398
3380.772980,-9918.759623,-1702.473667,0.000000
3380.773318,-9178.553681,-740.205942,1149.143247
3380.773655,-9770.718434,-518.144159,1378.971896
3380.773992,-8734.430116,-740.205942,-1149.143247
3380.774329,-9474.636058,-444.123565,-2374.896044
3380.774666,-11399.171507,-1332.370696,-1302.362347
3380.775004,-10510.924376,-2294.638420,-1455.581446
3380.775341,-9104.533087,-3108.864956,-153.219100
3380.775678,-9918.759623,-3034.844362,2374.896044
3380.776015,-8438.347739,-1702.473667,1225.752797
3380.776353,-9326.594869,-1702.473667,153.219100
3380.776690,-10584.944971,-1184.329507,0.000000
3380.777027,-9992.780217,-2072.576638,306.438199
3380.777364,-11029.068536,-740.205942,1838.629195
3380.777702,-11103.089130,666.185348,1762.019645
3380.778039,-9474.636058,1036.288319,1608.800546
3380.778376,-10955.047942,1110.308913,1455.581446
3380.778713,-11473.192101,1258.350101,1608.800546
3380.779051,-9770.718434,1110.308913,1762.019645
3380.779388,-10362.883188,1110.308913,3370.820191
3380.779725,-10362.883188,2516.700203,1302.362347
3380.780062,-10066.800811,2146.597232,-612.876398
3380.780400,-11251.130318,2146.597232,-612.876398
3380.780737,-9696.697840,740.205942,-612.876398
3380.781074,-9104.533087,1480.411884,0.000000
3380.781411,-9844.739029,1036.288319,612.876398
3380.781749,-9030.512492,1332.370696,-612.876398
3380.782086,-9030.512492,666.185348,-1685.410096
3380.782423,-10140.821405,0.000000,-459.657299
3380.782760,-9400.615463,-592.164754,-383.047749
3380.783098,-9474.636058,-1332.370696,459.657299
3380.783435,-9992.780217,-962.267725,995.924147
3380.783772,-9178.553681,-962.267725,-536.266849
3380.784109,-9548.656652,-1036.288319,-383.047749
3380.784447,-10214.842000,-592.164754,153.219100
3380.784784,-9474.636058,-2072.576638,383.047749
3380.785121,-9474.636058,-2368.659014,1685.410096
3380.785458,-10807.006753,-962.267725,2451.505594
3380.785796,-9918.759623,-148.041188,1762.019645
3380.786133,-10732.986159,222.061783,153.219100
3380.786470,-11843.295072,-444.123565,-919.314598
3380.786807,-10436.903782,-1036.288319,-1302.362347
3380.787145,-9844.739029,-1332.370696,0.000000
3380.787482,-10436.903782,-1036.288319,766.095498
3380.787819,-9474.636058,-666.185348,-1072.533697
3380.788156,-11103.089130,-814.226536,-1915.238745
3380.788494,-11547.212695,-1554.432478,-2145.067394
3380.788831,-9992.780217,-1850.514855,-1532.190996
3380.789168,-10362.883188,-1110.308913,689.485948
3380.789505,-10584.944971,-1850.514855,1072.533697
3380.789843,-8956.491898,-962.267725,0.000000
3380.790180,-9844.739029,-740.205942,0.000000
3380.790517,-10584.944971,-1480.411884,919.314598
3380.790854,-9918.759623,-1480.411884,919.314598
3380.791192,-10658.965565,-1258.350101,3064.381992
3380.791529,-9844.739029,0.000000,2757.943793
3380.791866,-8586.388927,1110.308913,1762.019645
3380.792203,-10066.800811,2664.741391,536.266849
3380.792541,-9326.594869,1258.350101,-995.924147
3380.792878,-9474.636058,1258.350101,0.000000
3380.793215,-10214.842000,1998.556043,2451.505594
3380.793552,-9622.677246,1776.494261,1149.143247
3380.793890,-9474.636058,3256.906145,-919.314598
3380.794227,-9030.512492,2368.659014,-1685.410096
3380.794564,-9104.533087,1628.453072,-459.657299
3380.794901,-9548.656652,0.000000,1149.143247
3380.795239,-11621.233289,888.247130,2451.505594
3380.795576,-10066.800811,666.185348,383.047749
3380.795913,-10066.800811,592.164754,-1149.143247
3380.796250,-10658.965565,-148.041188,-1991.848295
3380.796588,-7772.162391,-2220.617826,-2451.505594
3380.796925,-9548.656652,-3108.864956,306.438199
3380.797262,-10881.027347,-2072.576638,1378.971896
3380.797599,-8216.285956,-814.226536,-1378.971896
3380.797937,-10436.903782,-592.164754,-1378.971896
3380.798274,-11917.315666,-1258.350101,-766.095498
3380.798611,-11103.089130,-2368.659014,766.095498
3380.798948,-11547.212695,-1924.535449,3447.429741
3380.799286,-10881.027347,-1406.391290,3983.696590
3380.799623,-9548.656652,-1628.453072,1685.410096
3380.799960,-10807.006753,-592.164754,1685.410096
3380.800297,-10658.965565,-1554.432478,0.000000
3380.800635,-9696.697840,-1184.329507,842.705048
3380.800972,-10510.924376,-888.247130,842.705048
3380.801309,-9770.718434,0.000000,383.047749
3380.801646,-9252.574275,370.102971,-1685.410096
3380.801984,-9474.636058,-148.041188,-2145.067394
3380.802321,-9548.656652,-518.144159,-1072.533697
3380.802658,-9844.739029,-888.247130,0.000000
3380.802995,-11473.192101,296.082377,1762.019645
3380.803333,-10510.924376,-962.267725,229.828649
3380.803670,-8808.450710,0.000000,0.000000
3380.804007,-9696.697840,-1110.308913,536.266849
3380.804344,-9252.574275,-1036.288319,1072.533697
3380.804682,-9030.512492,-296.082377,1762.019645
3380.805019,-10732.986159,0.000000,1838.629195
3380.805356,-10510.924376,1184.329507,766.095498
3380.805693,-10140.821405,1998.556043,-536.266849
3380.806031,-10732.986159,2072.576638,153.219100
3380.806368,-9400.615463,1184.329507,-689.485948
3380.806705,-9844.739029,592.164754,1532.190996
3380.807042,-11325.150913,1850.514855,2757.943793
3380.807380,-9326.594869,1702.473667,76.609550
3380.807717,-10140.821405,1776.494261,-383.047749
3380.808054,-10288.862594,1036.288319,-689.485948
3380.808391,-9030.512492,-1184.329507,-919.314598
3380.808729,-9770.718434,-592.164754,766.095498
3380.809066,-10510.924376,-296.082377,459.657299
3380.809403,-8882.471304,222.061783,-1378.971896
3380.809740,-10066.800811,0.000000,-2604.724693
3380.810078,-9548.656652,-1184.329507,-2911.162892
3380.810415,-8290.306550,-2368.659014,-1915.238745
3380.810752,-9622.677246,-2960.823768,153.219100
3380.811089,-9992.780217,-2368.659014,536.266849
3380.811427,-9770.718434,-2812.782580,-689.485948
3380.811764,-10066.800811,-1332.370696,-995.924147
3380.812101,-10955.047942,-2220.617826,-612.876398
3380.812438,-10140.821405,-2442.679609,612.876398
3380.812776,-10584.944971,-2516.700203,2068.457845
3380.813113,-10658.965565,-1184.329507,3677.258390
3380.813450,-10214.842000,0.000000,2451.505594
3380.813787,-11029.068536,0.000000,689.485948
3380.814125,-11843.295072,-370.102971,0.000000
3380.814462,-10214.842000,666.185348,612.876398
3380.814799,-11621.233289,0.000000,3447.429741
3380.815136,-10584.944971,1406.391290,1762.019645
3380.815474,-8882.471304,2294.638420,76.609550
3380.815811,-11399.171507,1924.535449,-536.266849
3380.816148,-10510.924376,1184.329507,-2145.067394
3380.816485,-8956.491898,444.123565,-459.657299
3380.816823,-9918.759623,0.000000,1762.019645
3380.817160,-8808.450710,74.020594,459.657299
3380.817497,-9622.677246,740.205942,-995.924147
3380.817834,-10066.800811,148.041188,-1532.190996
3380.818172,-9030.512492,-1184.329507,-153.219100
3380.818509,-9178.553681,-1776.494261,1608.800546
3380.818846,-9326.594869,-148.041188,3600.648841
3380.819183,-8734.430116,0.000000,1378.971896
3380.819521,-10066.800811,-148.041188,383.047749
3380.819858,-10140.821405,0.000000,-612.876398
3380.820195,-9326.594869,-962.267725,-536.266849
3380.820532,-9844.739029,-370.102971,2451.505594
3380.820870,-10288.862594,74.020594,3140.991542
3380.821207,-9770.718434,962.267725,1455.581446
3380.821544,-11399.171507,370.102971,0.000000
3380.821881,-11399.171507,1184.329507,-612.876398
3380.822219,-9622.677246,370.102971,-766.095498
3380.822556,-11029.068536,-888.247130,689.485948
3380.822893,-10658.965565,-1036.288319,842.705048
3380.823230,-9030.512492,-592.164754,0.000000
3380.823568,-11177.109724,0.000000,-842.705048
3380.823905,-12287.418637,-1850.514855,-1685.410096
3380.824242,-9474.636058,-1480.411884,-2145.067394
3380.824579,-9474.636058,-2442.679609,0.000000
3380.824917,-9992.780217,-1850.514855,689.485948
3380.825254,-9178.553681,-2294.638420,-76.609550
3380.825591,-10066.800811,-1776.494261,-1072.533697
3380.825928,-9696.697840,-2442.679609,-612.876398
3380.826266,-9030.512492,-2146.597232,0.000000
3380.826603,-9622.677246,-2072.576638,2834.553343
3380.826940,-9844.739029,-1258.350101,1915.238745
3380.827277,-9178.553681,370.102971,459.657299
3380.827615,-11177.109724,1480.411884,-229.828649
3380.827952,-10066.800811,-74.020594,-612.876398
3380.828289,-9400.615463,-740.205942,1225.752797
3380.828626,-10510.924376,1258.350101,3677.258390
3380.828964,-9622.677246,1850.514855,1302.362347
3380.829301,-10732.986159,2664.741391,-153.219100
3380.829638,-11621.233289,2294.638420,-1225.752797
3380.829975,-9992.780217,2590.720797,-1915.238745
3380.830313,-9770.718434,1628.453072,-842.705048
3380.830650,-11177.109724,1850.514855,383.047749
3380.830987,-10732.986159,1702.473667,-919.314598
3380.831324,-11843.295072,814.226536,-383.047749
3380.831662,-9548.656652,0.000000,-1455.581446
3380.831999,-8660.409521,-1184.329507,-842.705048
3380.832336,-9474.636058,-1406.391290,459.657299
3380.832673,-9474.636058,-1776.494261,1455.581446
3380.833011,-9474.636058,-1332.370696,1225.752797
3380.833348,-10066.800811,-814.226536,1762.019645
3380.833685,-11473.192101,0.000000,1149.143247
3380.834022,-11029.068536,-1702.473667,1991.848295
3380.834360,-10658.965565,-888.247130,3217.601092
3380.834697,-9474.636058,-666.185348,2757.943793
3380.835034,-8290.306550,-296.082377,919.314598
3380.835371,-9178.553681,-666.185348,0.000000
3380.835709,-10955.047942,-1702.473667,689.485948
3380.836046,-9030.512492,0.000000,-383.047749
3380.836383,-10066.800811,592.164754,-689.485948
3380.836720,-10288.862594,222.061783,306.438199
3380.837058,-9104.533087,0.000000,-1302.362347
3380.837395,-10732.986159,0.000000,-383.047749
3380.837732,-9992.780217,-296.082377,-1072.533697
3380.838069,-9474.636058,-888.247130,-229.828649
3380.838407,-11251.130318,-1702.473667,1455.581446
3380.838744,-10362.883188,-1480.411884,229.828649
3380.839081,-9548.656652,-814.226536,229.828649
3380.839418,-10288.862594,-740.205942,689.485948
3380.839756,-9400.615463,0.000000,-612.876398
3380.840093,-9548.656652,-296.082377,153.219100
3380.840430,-11991.336260,-666.185348,766.095498
3380.840767,-10436.903782,0.000000,229.828649
3380.841105,-9400.615463,962.267725,0.000000
3380.841442,-10955.047942,888.247130,1608.800546
3380.841779,-10140.821405,1110.308913,1072.533697
3380.842116,-9844.739029,740.205942,459.657299
3380.842454,-10140.821405,222.061783,1838.629195
3380.842791,-9622.677246,-370.102971,1608.800546
3380.843128,-9474.636058,444.123565,766.095498
3380.843465,-10140.821405,296.082377,-229.828649
3380.843803,-8956.491898,-1036.288319,-842.705048
3380.844140,-8660.409521,-740.205942,-612.876398
3380.844477,-8956.491898,-1036.288319,229.828649
3380.844814,-8364.327145,666.185348,-1225.752797
3380.845152,-9622.677246,666.185348,-2451.505594
3380.845489,-10955.047942,0.000000,-2528.115143
3380.845826,-10066.800811,-1924.535449,-1991.848295
3380.846163,-10732.986159,-2368.659014,0.000000
3380.846501,-9770.718434,-1850.514855,1072.533697
3380.846838,-9030.512492,-1628.453072,76.609550
3380.847175,-10140.821405,-962.267725,306.438199
3380.847512,-11917.315666,-1628.453072,0.000000
3380.847850,-10362.883188,-1184.329507,0.000000
3380.848187,-11177.109724,-888.247130,1378.971896
3380.848524,-11399.171507,0.000000,1991.848295
3380.848861,-10214.842000,0.000000,1302.362347
3380.849199,-11843.295072,592.164754,2604.724693
3380.849536,-10362.883188,148.041188,1762.019645
3380.849873,-9844.739029,222.061783,2298.286494
3380.850210,-11695.253884,888.247130,1991.848295
3380.850548,-9400.615463,-370.102971,0.000000
3380.850885,-8808.450710,1036.288319,-1608.800546
3380.851222,-8734.430116,0.000000,-536.266849
3380.851559,-9178.553681,-370.102971,-459.657299
3380.851897,-8364.327145,-444.123565,-1072.533697
3380.852234,-10288.862594,-444.123565,0.000000
3380.852571,-8734.430116,0.000000,-612.876398
3380.852908,-7402.059420,-666.185348,-766.095498
3380.853246,-9030.512492,0.000000,1378.971896
3380.853583,-9474.636058,-888.247130,306.438199
3380.853920,-11251.130318,-592.164754,995.924147
3380.854257,-11399.171507,0.000000,689.485948
3380.854594,-8586.388927,-740.205942,1072.533697
3380.854932,-9770.718434,1036.288319,1838.629195
3380.855269,-11177.109724,222.061783,459.657299
3380.855606,-10807.006753,74.020594,76.609550
3380.855943,-11621.233289,0.000000,153.219100
3380.856281,-10584.944971,444.123565,76.609550
3380.856618,-9400.615463,1998.556043,0.000000
3380.856955,-11251.130318,1406.391290,0.000000
3380.857292,-11399.171507,666.185348,229.828649
3380.857630,-10584.944971,74.020594,612.876398
3380.857967,-11103.089130,0.000000,1685.410096
3380.858304,-10955.047942,-370.102971,1149.143247
3380.858641,-8882.471304,-518.144159,-612.876398
3380.858979,-9548.656652,-740.205942,-1149.143247
3380.859316,-9400.615463,-1998.556043,-689.485948
3380.859653,-8438.347739,-2072.576638,-1225.752797
3380.859990,-9400.615463,-1924.535449,0.000000
3380.860328,-9548.656652,-1036.288319,-459.657299
3380.860665,-9104.533087,-1110.308913,-1072.533697
3380.861002,-10510.924376,-148.041188,-153.219100
3380.861339,-8882.471304,-1332.370696,0.000000
3380.861677,-8068.244768,-1850.514855,383.047749
3380.862014,-10658.965565,-1406.391290,2451.505594
3380.862351,-10436.903782,-666.185348,1991.848295
3380.862688,-9548.656652,74.020594,689.485948
3380.863026,-10140.821405,666.185348,842.705048
3380.863363,-10436.903782,666.185348,1532.190996
3380.863700,-10658.965565,444.123565,1225.752797
3380.864037,-11325.150913,74.020594,1532.190996
3380.864375,-10066.800811,2294.638420,459.657299
3380.864712,-9844.739029,2072.576638,-383.047749
3380.865049,-10214.842000,1480.411884,-383.047749
3380.865386,-9992.780217,0.000000,-612.876398
3380.865724,-10436.903782,-592.164754,153.219100
3380.866061,-10510.924376,-444.123565,229.828649
3380.866398,-9696.697840,0.000000,-995.924147
3380.866735,-9918.759623,-1036.288319,-1225.752797
3380.867073,-9474.636058,-2072.576638,-1532.190996
3380.867410,-8290.306550,-2072.576638,-995.924147
3380.867747,-9326.594869,-1850.514855,459.657299
3380.868084,-10214.842000,-1924.535449,306.438199
3380.868422,-9548.656652,-1702.473667,-1762.019645
3380.868759,-9474.636058,-962.267725,-536.266849
3380.869096,-9474.636058,-740.205942,689.485948
3380.869433,-9696.697840,-814.226536,1532.190996
3380.869771,-11695.253884,-518.144159,2145.067394
3380.870108,-11029.068536,-370.102971,919.314598
3380.870445,-10140.821405,296.082377,76.609550
3380.870782,-10955.047942,518.144159,536.266849
3380.871120,-10288.862594,0.000000,1302.362347
3380.871457,-10362.883188,0.000000,0.000000
3380.871794,-10881.027347,518.144159,1072.533697
3380.872131,-9918.759623,1110.308913,229.828649
3380.872469,-10066.800811,1184.329507,-76.609550
3380.872806,-10881.027347,592.164754,-383.047749
3380.873143,-9918.759623,0.000000,-612.876398
3380.873480,-9548.656652,-370.102971,-153.219100
3380.873818,-10732.986159,0.000000,306.438199
3380.874155,-9992.780217,-222.061783,0.000000
3380.874492,-8882.471304,-444.123565,-1072.533697
3380.874829,-9474.636058,-888.247130,-383.047749
3380.875167,-8956.491898,-592.164754,536.266849
3380.875504,-9326.594869,-1406.391290,2374.896044
3380.875841,-9622.677246,-1258.350101,2451.505594
3380.876178,-9918.759623,74.020594,1225.752797
3380.876516,-9548.656652,1036.288319,383.047749
3380.876853,-10214.842000,518.144159,842.705048
3380.877190,-9400.615463,-444.123565,612.876398
3380.877528,-9104.533087,666.185348,919.314598
3380.877865,-10510.924376,592.164754,1072.533697
3380.878202,-10214.842000,1110.308913,-383.047749
3380.878539,-10362.883188,1184.329507,-1455.581446
3380.878877,-10955.047942,1110.308913,-1225.752797
3380.879214,-9696.697840,-592.164754,0.000000
3380.879551,-10362.883188,-1480.411884,1072.533697
3380.879889,-10362.883188,-1258.350101,1225.752797
3380.880226,-9474.636058,-592.164754,-919.314598
3380.880563,-10362.883188,444.123565,-76.609550
3380.880901,-11103.089130,-1702.473667,-1149.143247
3380.881238,-10140.821405,-2294.638420,-383.047749
3380.881575,-10066.800811,-1702.473667,306.438199
3380.881912,-10214.842000,-962.267725,229.828649
3380.882250,-10436.903782,-740.205942,-1302.362347
3380.882587,-10140.821405,-1850.514855,-2757.943793
3380.882924,-9474.636058,-1998.556043,76.609550
3380.883262,-9400.615463,-2516.700203,2911.162892
3380.883599,-10732.986159,-222.061783,3907.087040
3380.883936,-11029.068536,518.144159,2528.115143
3380.884274,-10732.986159,1184.329507,1455.581446
3380.884611,-11843.295072,814.226536,1532.190996
3380.884948,-10288.862594,740.205942,1149.143247
3380.885285,-9030.512492,-518.144159,1532.190996
3380.885623,-9548.656652,296.082377,1838.629195
3380.885960,-8364.327145,1332.370696,-306.438199
3380.886297,-9252.574275,2442.679609,-2604.724693
3380.886635,-10140.821405,1036.288319,-2604.724693
3380.886972,-9178.553681,370.102971,-2528.115143
3380.887309,-9474.636058,-444.123565,-842.705048
3380.887647,-10436.903782,-148.041188,1072.533697
3380.887984,-8512.368333,-518.144159,383.047749
3380.888321,-9474.636058,-222.061783,689.485948
3380.888659,-11029.068536,74.020594,459.657299
3380.888996,-10214.842000,-1628.453072,1072.533697
3380.889333,-10881.027347,-666.185348,2374.896044
3380.889670,-10658.965565,-592.164754,995.924147
3380.890008,-9030.512492,1406.391290,-1378.971896
3380.890345,-10140.821405,740.205942,-2374.896044
3380.890682,-10658.965565,-592.164754,-1608.800546
3380.891020,-9918.759623,-1036.288319,-536.266849
3380.891357,-10362.883188,-1924.535449,2298.286494
3380.891694,-9696.697840,0.000000,3217.601092
3380.892032,-9770.718434,-296.082377,1915.238745
3380.892369,-11325.150913,1110.308913,1455.581446
3380.892706,-11103.089130,-296.082377,689.485948
3380.893043,-10881.027347,-1258.350101,919.314598
3380.893381,-11325.150913,-1554.432478,1685.410096
3380.893718,-9622.677246,-148.041188,-459.657299
3380.894055,-9474.636058,-1332.370696,-1455.581446
3380.894393,-9992.780217,-1036.288319,-1608.800546
3380.894730,-9178.553681,-2442.679609,-1838.629195
3380.895067,-8290.306550,-2146.597232,-1225.752797
3380.895405,-9400.615463,-1554.432478,383.047749
3380.895742,-9474.636058,-1406.391290,536.266849
3380.896079,-10584.944971,-222.061783,-1225.752797
3380.896417,-12139.377449,-962.267725,0.000000
3380.896754,-10362.883188,-1628.453072,1455.581446
3380.897091,-9326.594869,-1406.391290,3753.867940
3380.897428,-10955.047942,-518.144159,4596.572988
3380.897766,-9770.718434,1406.391290,2911.162892
3380.898103,-10510.924376,2368.659014,0.000000
3380.898440,-11769.274478,740.205942,-766.095498
3380.898778,-10288.862594,370.102971,-383.047749
3380.899115,-9326.594869,1258.350101,842.705048
3380.899452,-10436.903782,2146.597232,1685.410096
3380.899790,-8660.409521,2738.761985,306.438199
3380.900127,-9770.718434,2516.700203,-995.924147
3380.900464,-11029.068536,1850.514855,-689.485948
3380.900801,-9844.739029,-222.061783,306.438199
3380.901139,-9770.718434,0.000000,1225.752797
3380.901476,-9622.677246,-1332.370696,842.705048
3380.901813,-8068.244768,0.000000,-842.705048
3380.902151,-9030.512492,-1110.308913,-1608.800546
3380.902488,-9474.636058,-1332.370696,-995.924147
3380.902825,-9178.553681,-1850.514855,-919.314598
3380.903163,-11103.089130,-2294.638420,306.438199
3380.903500,-10214.842000,-962.267725,-612.876398
3380.903837,-8956.491898,-1850.514855,-1455.581446
3380.904175,-9696.697840,-1184.329507,-1149.143247
3380.904512,-9326.594869,-2146.597232,-153.219100
3380.904849,-10288.862594,-2146.597232,2528.115143
3380.905186,-11843.295072,-1036.288319,2834.553343
3380.905524,-10807.006753,-370.102971,1762.019645
3380.905861,-11917.315666,-222.061783,1225.752797
3380.906198,-12213.398043,0.000000,-383.047749
3380.906536,-9030.512492,-740.205942,-1225.752797
3380.906873,-9844.739029,-1036.288319,612.876398
3380.907210,-9844.739029,0.000000,1149.143247
3380.907548,-9992.780217,666.185348,-689.485948
3380.907885,-10584.944971,370.102971,-1838.629195
3380.908222,-11843.295072,666.185348,-2451.505594
3380.908559,-8438.347739,-888.247130,-1455.581446
3380.908897,-9104.533087,-1110.308913,995.924147
3380.909234,-9474.636058,-888.247130,2451.505594
3380.909571,-9326.594869,0.000000,1149.143247
3380.909909,-10584.944971,1036.288319,229.828649
3380.910246,-11621.233289,666.185348,-306.438199
3380.910583,-10214.842000,-148.041188,612.876398
3380.910921,-10140.821405,-148.041188,1455.581446
3380.911258,-8956.491898,296.082377,2911.162892
3380.911595,-7846.182985,1110.308913,766.095498
3380.911932,-8438.347739,2590.720797,459.657299
3380.912270,-10214.842000,1628.453072,153.219100
3380.912607,-10140.821405,518.144159,842.705048
3380.912944,-11695.253884,888.247130,2374.896044
3380.913282,-10732.986159,2072.576638,3064.381992
3380.913619,-9696.697840,3849.070898,383.047749
3380.913956,-10658.965565,1924.535449,-229.828649
3380.914294,-9474.636058,1332.370696,-1532.190996
3380.914631,-9178.553681,-814.226536,0.000000
3380.914968,-10362.883188,-222.061783,995.924147
3380.915306,-9178.553681,-962.267725,-842.705048
3380.915643,-10288.862594,-1110.308913,-1685.410096
3380.915980,-9770.718434,148.041188,-2451.505594
3380.916317,-8734.430116,-518.144159,-3064.381992
3380.916655,-9770.718434,-1702.473667,-842.705048
3380.916992,-10881.027347,-2220.617826,-383.047749
3380.917329,-10362.883188,-2960.823768,-766.095498
3380.917667,-10510.924376,-1850.514855,0.000000
3380.918004,-9992.780217,-1924.535449,0.000000
3380.918341,-9548.656652,-1924.535449,536.266849
3380.918679,-10658.965565,-2960.823768,1915.238745
3380.919016,-10658.965565,-2294.638420,2374.896044
3380.919353,-9992.780217,0.000000,1378.971896
3380.919690,-10584.944971,1628.453072,-153.219100
3380.920028,-11325.150913,592.164754,-766.095498
3380.920365,-10584.944971,222.061783,-1302.362347
3380.920702,-10807.006753,666.185348,383.047749
3380.921040,-10288.862594,1406.391290,995.924147
3380.921377,-8438.347739,2072.576638,153.219100
3380.921714,-9474.636058,1924.535449,-919.314598
3380.922052,-12065.356855,1924.535449,-842.705048
3380.922389,-11769.274478,1554.432478,-1532.190996
3380.922726,-9326.594869,1554.432478,-1838.629195
3380.923064,-9178.553681,1776.494261,-766.095498
3380.923401,-8290.306550,1110.308913,-2068.457845
3380.923738,-8364.327145,518.144159,-1762.019645
3380.924075,-9474.636058,814.226536,0.000000
3380.924413,-9178.553681,2220.617826,-689.485948
3380.924750,-11177.109724,2590.720797,-1685.410096
3380.925087,-11029.068536,1110.308913,-2298.286494
3380.925425,-9696.697840,888.247130,-1378.971896
3380.925762,-8734.430116,518.144159,-612.876398
3380.926099,-8882.471304,2368.659014,153.219100
3380.926437,-9844.739029,2590.720797,-612.876398
3380.926774,-11843.295072,1776.494261,-2528.115143
3380.927111,-10732.986159,592.164754,-2451.505594
3380.927448,-9696.697840,518.144159,-1149.143247
3380.927786,-9252.574275,2220.617826,-1685.410096
3380.928123,-10066.800811,1776.494261,-2451.505594
3380.928460,-11029.068536,1480.411884,-2911.162892
3380.928798,-9992.780217,666.185348,-4979.620737
3380.929135,-9696.697840,666.185348,-2298.286494
3380.929472,-10066.800811,-518.144159,-995.924147
3380.929810,-9770.718434,148.041188,-2451.505594
3380.930147,-10214.842000,518.144159,-3294.210641
3380.930484,-9918.759623,-740.205942,-2604.724693
3380.930822,-10955.047942,-518.144159,-1915.238745
3380.931159,-10288.862594,-740.205942,-2757.943793
3380.931496,-9918.759623,-592.164754,-2145.067394
3380.931833,-9400.615463,222.061783,-383.047749
3380.932171,-10288.862594,666.185348,-612.876398
3380.932508,-10066.800811,1776.494261,-1532.190996
3380.932845,-10436.903782,2368.659014,-536.266849
3380.933183,-11843.295072,3034.844362,0.000000
3380.933520,-12139.377449,2886.803174,-1608.800546
3380.933857,-9326.594869,3108.864956,-383.047749
3380.934195,-9104.533087,2960.823768,1302.362347
3380.934532,-11029.068536,2960.823768,1302.362347
3380.934869,-11103.089130,3923.091493,-2221.676944
3380.935206,-9474.636058,4663.297435,-3447.429741
3380.935544,-9400.615463,3997.112087,-1225.752797
3380.935881,-9844.739029,3627.009116,-1991.848295
3380.936218,-9104.533087,4071.132681,-3907.087040
3380.936556,-9178.553681,4293.194464,-3217.601092
3380.936893,-10584.944971,2516.700203,-1608.800546
3380.937230,-10807.006753,1406.391290,-1915.238745
3380.937568,-8586.388927,2146.597232,-3600.648841
3380.937905,-7179.997637,2146.597232,-2451.505594
3380.938242,-9326.594869,1110.308913,-1455.581446
3380.938579,-11621.233289,518.144159,-2374.896044
3380.938917,-9474.636058,962.267725,-3753.867940
3380.939254,-8512.368333,1406.391290,-2221.676944
3380.939591,-9400.615463,1850.514855,-1225.752797
3380.939929,-11991.336260,-148.041188,-612.876398
3380.940266,-11547.212695,518.144159,-1762.019645
3380.940603,-8364.327145,1036.288319,-1838.629195
3380.940941,-9622.677246,1998.556043,-153.219100
3380.941278,-12139.377449,222.061783,-383.047749
3380.941615,-11843.295072,296.082377,-2604.724693
3380.941953,-7994.224174,2072.576638,-2681.334243
3380.942290,-9622.677246,1998.556043,-842.705048
3380.942627,-11769.274478,814.226536,-2145.067394
3380.942964,-12065.356855,-814.226536,-2451.505594
3380.943302,-9622.677246,296.082377,-1302.362347
3380.943639,-8660.409521,1332.370696,-995.924147
3380.943976,-11029.068536,1258.350101,-1225.752797
3380.944314,-11621.233289,1110.308913,-3140.991542
3380.944651,-9326.594869,-1184.329507,-2911.162892
3380.944988,-8216.285956,518.144159,-1608.800546
3380.945326,-9400.615463,962.267725,-1685.410096
3380.945663,-11177.109724,2294.638420,-1532.190996
3380.946000,-10288.862594,1036.288319,-3600.648841
3380.946337,-8438.347739,-222.061783,-2221.676944
3380.946675,-8956.491898,222.061783,2068.457845
3380.947012,-10362.883188,2812.782580,3830.477490
3380.947349,-11843.295072,3552.988522,459.657299
3380.947687,-11029.068536,4441.235652,-2834.553343
3380.948024,-9770.718434,4145.153275,-3217.601092
3380.948361,-8660.409521,2812.782580,-229.828649
3380.948699,-9918.759623,3552.988522,995.924147
3380.949036,-11029.068536,4071.132681,-2298.286494
3380.949373,-10658.965565,4071.132681,-5898.935335
3380.949711,-9326.594869,3552.988522,-4903.011187
3380.950048,-8364.327145,1480.411884,-2451.505594
3380.950385,-8364.327145,962.267725,-1225.752797
3380.950722,-10362.883188,1258.350101,-1378.971896
3380.951060,-11177.109724,1554.432478,-919.314598
3380.951397,-10436.903782,2368.659014,-2528.115143
3380.951734,-10066.800811,1924.535449,-3294.210641
3380.952072,-9992.780217,1332.370696,-3294.210641
3380.952409,-10510.924376,0.000000,-3983.696590
3380.952746,-9252.574275,-814.226536,-3907.087040
3380.953084,-7846.182985,-1628.453072,-2681.334243
3380.953421,-8216.285956,-1554.432478,-612.876398
3380.953758,-10955.047942,-370.102971,-1225.752797
3380.954095,-12361.439231,1480.411884,-1915.238745
3380.954433,-11695.253884,2294.638420,-2604.724693
3380.954770,-10584.944971,2294.638420,-1762.019645
3380.955107,-10288.862594,1850.514855,-995.924147
3380.955445,-8956.491898,1628.453072,-766.095498
3380.955782,-8956.491898,1036.288319,459.657299
3380.956119,-11399.171507,962.267725,1532.190996
3380.956457,-12065.356855,1406.391290,229.828649
3380.956794,-11547.212695,2738.761985,-1991.848295
3380.957131,-10362.883188,2886.803174,-2528.115143
3380.957469,-10214.842000,3552.988522,-2911.162892
3380.957806,-10584.944971,3034.844362,-4596.572988
3380.958143,-8808.450710,2368.659014,-6128.763984
3380.958480,-7698.141797,2812.782580,-5056.230287
3380.958818,-9178.553681,3182.885551,-3140.991542
3380.959155,-9696.697840,1776.494261,-3447.429741
3380.959492,-9252.574275,1258.350101,-1838.629195
3380.959830,-8142.265362,1184.329507,1685.410096
3380.960167,-9548.656652,888.247130,3677.258390
3380.960504,-11547.212695,2812.782580,2374.896044
3380.960842,-12139.377449,4367.215058,-1072.533697
3380.961179,-10732.986159,4145.153275,-3140.991542
3380.961516,-9178.553681,2960.823768,-3294.210641
3380.961853,-8734.430116,2294.638420,-1762.019645
3380.962191,-8586.388927,2812.782580,-1685.410096
3380.962528,-8364.327145,2072.576638,-2911.162892
3380.962865,-9622.677246,2368.659014,-2911.162892
3380.963203,-10881.027347,1702.473667,-1455.581446
3380.963540,-11325.150913,3034.844362,0.000000
3380.963877,-11473.192101,2886.803174,-76.609550
3380.964215,-11251.130318,2960.823768,-1455.581446
3380.964552,-10584.944971,1850.514855,-1915.238745
3380.964889,-10066.800811,1110.308913,-1302.362347
3380.965226,-9326.594869,-370.102971,-689.485948
3380.965564,-9548.656652,-1110.308913,-1685.410096
3380.965901,-10362.883188,-1406.391290,-2451.505594
3380.966238,-10140.821405,-962.267725,-3753.867940
3380.966576,-9178.553681,-1406.391290,-2374.896044
3380.966913,-9770.718434,-592.164754,-1378.971896
3380.967250,-9696.697840,74.020594,-1991.848295
3380.967588,-11399.171507,1258.350101,-1608.800546
3380.967925,-10807.006753,1110.308913,-2451.505594
3380.968262,-9992.780217,1110.308913,-1838.629195
3380.968600,-9252.574275,592.164754,-306.438199
3380.968937,-9622.677246,222.061783,919.314598
3380.969274,-9474.636058,1036.288319,459.657299
3380.969611,-9474.636058,1702.473667,-995.924147
3380.969949,-10807.006753,2590.720797,-1378.971896
3380.970286,-10807.006753,3182.885551,-2298.286494
3380.970623,-11473.192101,3997.112087,-2604.724693
3380.970961,-10584.944971,4145.153275,-4366.744339
3380.971298,-9400.615463,2960.823768,-3983.696590
3380.971635,-8586.388927,2886.803174,-2757.943793
3380.971973,-8586.388927,1850.514855,-1762.019645
3380.972310,-8882.471304,2146.597232,-1915.238745
3380.972647,-9548.656652,1258.350101,-2298.286494
3380.972984,-10584.944971,814.226536,-536.266849
3380.973322,-10362.883188,296.082377,-153.219100
3380.973659,-10066.800811,740.205942,-306.438199
3380.973996,-10436.903782,444.123565,0.000000
3380.974334,-9918.759623,1480.411884,-1455.581446
3380.974671,-9622.677246,888.247130,-1225.752797
3380.975008,-9696.697840,1258.350101,-1608.800546
3380.975346,-9326.594869,1776.494261,-1608.800546
3380.975683,-10214.842000,1406.391290,-1302.362347
3380.976020,-9770.718434,1184.329507,-1915.238745
3380.976358,-9696.697840,1480.411884,-2068.457845
3380.976695,-10732.986159,1850.514855,-1608.800546
3380.977032,-10807.006753,2220.617826,-2451.505594
3380.977369,-10362.883188,1776.494261,-3600.648841
3380.977707,-10732.986159,1998.556043,-3447.429741
3380.978044,-9622.677246,1850.514855,-3600.648841
3380.978381,-9696.697840,962.267725,-2528.115143
3380.978719,-9844.739029,1184.329507,-2145.067394
3380.979056,-10214.842000,1702.473667,-2221.676944
3380.979393,-10510.924376,2812.782580,-2451.505594
3380.979731,-10510.924376,2368.659014,-3753.867940
3380.980068,-10362.883188,1628.453072,-2834.553343
3380.980405,-10288.862594,2072.576638,-2987.772442
3380.980742,-10066.800811,2294.638420,-2528.115143
3380.981080,-9474.636058,2590.720797,-2681.334243
3380.981417,-9326.594869,888.247130,-1608.800546
3380.981754,-9548.656652,1776.494261,-536.266849
3380.982092,-9992.780217,3034.844362,-766.095498
3380.982429,-10140.821405,4811.338623,-919.314598
3380.982766,-10066.800811,4737.318029,-2681.334243
3380.983103,-9696.697840,4515.256246,-1455.581446
3380.983441,-9326.594869,4589.276840,-612.876398
3380.983778,-9622.677246,4367.215058,612.876398
3380.984115,-10881.027347,4737.318029,229.828649
3380.984453,-11103.089130,5107.421000,-1762.019645
3380.984790,-10140.821405,3552.988522,-1915.238745
3380.985127,-8512.368333,2664.741391,-1915.238745
3380.985464,-8956.491898,2590.720797,-1302.362347
3380.985802,-10362.883188,2812.782580,-1915.238745
3380.986139,-10066.800811,3404.947333,-4826.401637
3380.986476,-8586.388927,3034.844362,-5209.449386
3380.986814,-9474.636058,1110.308913,-3907.087040
3380.987151,-9252.574275,222.061783,-1532.190996
3380.987488,-10066.800811,592.164754,-306.438199
3380.987825,-10288.862594,888.247130,306.438199
3380.988163,-11103.089130,444.123565,229.828649
3380.988500,-11843.295072,-148.041188,-612.876398
3380.988837,-10436.903782,148.041188,-1608.800546
3380.989175,-9326.594869,592.164754,-1762.019645
3380.989512,-10436.903782,444.123565,-995.924147
3380.989849,-10658.965565,-962.267725,-1608.800546
3380.990187,-9104.533087,-740.205942,-612.876398
3380.990524,-9178.553681,666.185348,1762.019645
3380.990861,-12435.459826,2294.638420,1149.143247
3380.991198,-13841.851115,2664.741391,-2145.067394
3380.991536,-11103.089130,2294.638420,-5056.230287
3380.991873,-7772.162391,1998.556043,-2604.724693
3380.992210,-8068.244768,666.185348,-919.314598
3380.992548,-9918.759623,1110.308913,-1608.800546
3380.992885,-10955.047942,1110.308913,-3217.601092
3380.993222,-10140.821405,1776.494261,-3447.429741
3380.993559,-9474.636058,1924.535449,-4596.572988
3380.993897,-9252.574275,0.000000,-4060.306139
3380.994234,-9030.512492,518.144159,-3064.381992
3380.994571,-8364.327145,0.000000,-2604.724693
3380.994909,-9548.656652,1776.494261,-1302.362347
3380.995246,-10214.842000,3256.906145,-2298.286494
3380.995583,-10732.986159,3108.864956,-2757.943793
3380.995920,-10066.800811,2664.741391,-3600.648841
3380.996258,-10066.800811,1110.308913,-1991.848295
3380.996595,-9252.574275,962.267725,153.219100
3380.996932,-9474.636058,962.267725,229.828649
3380.997270,-9918.759623,1702.473667,-76.609550
3380.997607,-10436.903782,2590.720797,-1915.238745
3380.997944,-11399.171507,2812.782580,-2221.676944
3380.998281,-11177.109724,2960.823768,-1302.362347
3380.998619,-10436.903782,2812.782580,-612.876398
3380.998956,-10140.821405,3923.091493,-2374.896044
3380.999293,-9622.677246,3404.947333,-4366.744339
3380.999631,-9252.574275,2294.638420,-3830.477490
3380.999968,-9474.636058,296.082377,-2298.286494
3381.000305,-10140.821405,-1184.329507,-612.876398
3381.000643,-9622.677246,222.061783,-919.314598
3381.000980,-9844.739029,1036.288319,-2068.457845
3381.001317,-10807.006753,0.000000,-1225.752797
3381.001654,-10066.800811,-666.185348,-1685.410096
3381.001992,-10955.047942,1184.329507,-153.219100
3381.002329,-10658.965565,2516.700203,-919.314598
3381.002666,-9770.718434,2072.576638,-2221.676944
3381.003004,-9474.636058,1036.288319,-2834.553343
3381.003341,-8142.265362,-222.061783,-1225.752797
3381.003678,-9030.512492,1036.288319,1532.190996
3381.004015,-10288.862594,3182.885551,919.314598
3381.004353,-12583.501014,3034.844362,766.095498
3381.004690,-13619.789333,2812.782580,-1302.362347
3381.005027,-9992.780217,3256.906145,-1532.190996
3381.005365,-7624.121203,5107.421000,229.828649
3381.005702,-10881.027347,4515.256246,1378.971896
3381.006039,-12657.521608,3256.906145,-2451.505594
3381.006376,-9696.697840,3923.091493,-5515.887586
3381.006714,-7105.977043,3923.091493,-3830.477490
3381.007051,-8808.450710,3478.967927,-1072.533697
3381.007388,-12509.480420,2516.700203,-1991.848295
3381.007726,-10732.986159,2886.803174,-6052.154434
3381.008063,-7920.203579,2812.782580,-4826.401637
3381.008400,-7698.141797,2738.761985,-1225.752797
3381.008737,-11103.089130,888.247130,-612.876398
3381.009075,-10658.965565,2072.576638,-3294.210641
3381.009412,-8586.388927,2146.597232,-3753.867940
3381.009749,-8512.368333,1924.535449,-1225.752797
3381.010087,-10732.986159,1332.370696,-1378.971896
3381.010424,-9474.636058,814.226536,-3217.601092
3381.010761,-8068.244768,2072.576638,-2604.724693
3381.011099,-9474.636058,1184.329507,-995.924147
3381.011436,-11843.295072,1332.370696,-1225.752797
3381.011773,-11029.068536,1628.453072,-2451.505594
3381.012110,-10881.027347,1998.556043,-1455.581446
3381.012448,-11399.171507,1480.411884,-2068.457845
3381.012785,-10584.944971,1702.473667,-3217.601092
3381.013122,-9992.780217,2368.659014,-919.314598
3381.013460,-9030.512492,1110.308913,-612.876398
3381.013797,-10066.800811,-296.082377,-1685.410096
3381.014134,-11473.192101,-148.041188,-2298.286494
3381.014471,-11177.109724,370.102971,-1149.143247
3381.014809,-9992.780217,0.000000,-2298.286494
3381.015146,-9178.553681,-1406.391290,-4213.525239
3381.015483,-8956.491898,-1850.514855,-1991.848295
3381.015821,-9400.615463,-962.267725,0.000000
3381.016158,-8660.409521,-74.020594,76.609550
3381.016495,-9474.636058,814.226536,229.828649
3381.016832,-12139.377449,74.020594,-229.828649
3381.017170,-11251.130318,0.000000,-306.438199
3381.017507,-9844.739029,814.226536,1225.752797
3381.017844,-8660.409521,740.205942,3370.820191
3381.018182,-9474.636058,0.000000,2604.724693
3381.018519,-10288.862594,222.061783,1608.800546
3381.018856,-10510.924376,1480.411884,0.000000
3381.019193,-10584.944971,2146.597232,-1302.362347
3381.019531,-9770.718434,2516.700203,-2528.115143
3381.019868,-10066.800811,2294.638420,-1378.971896
3381.020205,-10436.903782,2664.741391,-459.657299
3381.020543,-10066.800811,518.144159,-1532.190996
3381.020880,-10140.821405,2220.617826,-383.047749
3381.021217,-9474.636058,1554.432478,-995.924147
3381.021555,-9548.656652,0.000000,-2145.067394
3381.021892,-9474.636058,-814.226536,-2298.286494
3381.022229,-8956.491898,-1628.453072,-1225.752797
3381.022566,-8290.306550,-1998.556043,0.000000
3381.022904,-9252.574275,-1184.329507,306.438199
3381.023241,-10658.965565,296.082377,0.000000
3381.023578,-11029.068536,370.102971,-2451.505594
3381.023916,-10066.800811,-962.267725,-1455.581446
3381.024253,-9548.656652,-1258.350101,536.266849
3381.024590,-10436.903782,-2146.597232,3140.991542
3381.024927,-10140.821405,0.000000,1991.848295
3381.025265,-9548.656652,-666.185348,0.000000
3381.025602,-10807.006753,-1110.308913,76.609550
3381.025939,-10510.924376,-1184.329507,612.876398
3381.026277,-10214.842000,-296.082377,1455.581446
3381.026614,-9918.759623,888.247130,2834.553343
3381.026951,-12805.562797,2294.638420,842.705048
3381.027288,-11769.274478,1628.453072,-2221.676944
3381.027626,-10436.903782,1258.350101,-2681.334243
3381.027963,-9178.553681,-222.061783,612.876398
3381.028300,-8216.285956,-1258.350101,1072.533697
3381.028638,-9104.533087,370.102971,2374.896044
3381.028975,-10214.842000,518.144159,0.000000
3381.029312,-10214.842000,0.000000,-1991.848295
3381.029649,-10955.047942,444.123565,-1302.362347
3381.029987,-10362.883188,-370.102971,-383.047749
3381.030324,-8068.244768,0.000000,1378.971896
3381.030661,-9474.636058,-444.123565,2298.286494
3381.030999,-10066.800811,740.205942,306.438199
3381.031336,-9030.512492,444.123565,-1685.410096
3381.031673,-9400.615463,-962.267725,459.657299
3381.032011,-9548.656652,-296.082377,2681.334243
3381.032348,-10066.800811,296.082377,2298.286494
3381.032685,-11621.233289,444.123565,1915.238745
3381.033022,-10658.965565,592.164754,842.705048
3381.033360,-9474.636058,1110.308913,-1685.410096
3381.033697,-10807.006753,1554.432478,-842.705048
3381.034034,-10658.965565,666.185348,0.000000
3381.034372,-10436.903782,0.000000,612.876398
3381.034709,-11251.130318,962.267725,153.219100
3381.035046,-10658.965565,1184.329507,-1685.410096
3381.035383,-9992.780217,0.000000,-2145.067394
3381.035721,-9844.739029,-962.267725,-919.314598
3381.036058,-8438.347739,-1702.473667,-536.266849
3381.036395,-9178.553681,-1776.494261,995.924147
3381.036733,-10362.883188,-1406.391290,383.047749
3381.037070,-9770.718434,-1480.411884,-1915.238745
3381.037407,-10881.027347,-1258.350101,-2604.724693
3381.037744,-10362.883188,-2146.597232,-1149.143247
3381.038082,-8142.265362,-2442.679609,1685.410096
3381.038419,-8512.368333,-1924.535449,2834.553343
3381.038756,-9992.780217,-1036.288319,2757.943793
3381.039094,-10584.944971,-444.123565,1532.190996
3381.039431,-10214.842000,296.082377,536.266849
3381.039768,-10881.027347,148.041188,995.924147
3381.040105,-10807.006753,-888.247130,1685.410096
3381.040443,-10436.903782,444.123565,2298.286494
3381.040780,-10140.821405,444.123565,1149.143247
3381.041117,-9696.697840,740.205942,-919.314598
3381.041455,-10436.903782,-444.123565,-842.705048
3381.041792,-10584.944971,-222.061783,0.000000
3381.042129,-9474.636058,0.000000,1149.143247
3381.042467,-10510.924376,518.144159,1149.143247
3381.042804,-10510.924376,2146.597232,-766.095498
3381.043141,-9178.553681,666.185348,-2681.334243
3381.043478,-10288.862594,-296.082377,-2145.067394
3381.043816,-9696.697840,-2516.700203,76.609550
3381.044153,-9918.759623,-1924.535449,1838.629195
3381.044490,-10066.800811,-1332.370696,1838.629195
3381.044828,-9844.739029,-1406.391290,153.219100
3381.045165,-9030.512492,-666.185348,-1762.019645
