#time,accel_x,accel_y,accel_z
3005.433916,-10584.944971,-740.205942,536.266849
3005.434253,-10066.800811,-1332.370696,-76.609550
3005.434591,-10066.800811,-370.102971,0.000000
3005.434928,-9770.718434,-1554.432478,-306.438199
3005.435266,-9622.677246,-2812.782580,-536.266849
3005.435603,-9548.656652,-1850.514855,153.219100
3005.435941,-9252.574275,-1702.473667,-76.609550
3005.436278,-9696.697840,-962.267725,612.876398
3005.436615,-10510.924376,-1110.308913,229.828649
3005.436953,-11325.150913,-1628.453072,919.314598
3005.437290,-9474.636058,-666.185348,1072.533697
3005.437628,-9104.533087,148.041188,919.314598
3005.437965,-10066.800811,74.020594,1838.629195
3005.438303,-11177.109724,0.000000,689.485948
3005.438640,-10510.924376,0.000000,842.705048
3005.438978,-9622.677246,444.123565,229.828649
3005.439315,-9178.553681,1702.473667,76.609550
3005.439652,-10510.924376,592.164754,-842.705048
3005.439990,-10807.006753,296.082377,-995.924147
3005.440327,-9326.594869,814.226536,-1915.238745
3005.440665,-9474.636058,518.144159,-1991.848295
3005.441002,-9770.718434,296.082377,-1915.238745
3005.441340,-9622.677246,-962.267725,-2757.943793
3005.441677,-9400.615463,-1406.391290,-2068.457845
3005.442014,-8734.430116,-1406.391290,-1685.410096
3005.442352,-9696.697840,-1850.514855,-995.924147
3005.442689,-10881.027347,-1480.411884,-1685.410096
3005.443027,-11029.068536,-2664.741391,-3447.429741
3005.443364,-10214.842000,-2738.761985,-2757.943793
3005.443702,-9770.718434,-4145.153275,-842.705048
3005.444039,-9252.574275,-3256.906145,-1225.752797
3005.444377,-9770.718434,-3034.844362,-2451.505594
3005.444714,-10807.006753,-2590.720797,-2068.457845
3005.445051,-9992.780217,-2886.803174,-2145.067394
3005.445389,-10658.965565,-2590.720797,-689.485948
3005.445726,-11473.192101,-1998.556043,-689.485948
3005.446064,-11473.192101,-2146.597232,-2604.724693
3005.446401,-11177.109724,-2516.700203,-3600.648841
3005.446739,-9548.656652,-2738.761985,-3600.648841
3005.447076,-9030.512492,-4293.194464,-2451.505594
3005.447414,-8438.347739,-3552.988522,-1532.190996
3005.447751,-9400.615463,-3034.844362,-1532.190996
3005.448088,-10214.842000,-2146.597232,-1838.629195
3005.448426,-10214.842000,-1998.556043,-2834.553343
3005.448763,-10658.965565,-1776.494261,-1991.848295
3005.449101,-10362.883188,-2516.700203,-3370.820191
3005.449438,-9770.718434,-4293.194464,-4060.306139
3005.449776,-9992.780217,-5107.421000,-2911.162892
3005.450113,-8438.347739,-5921.647536,-1378.971896
3005.450450,-7994.224174,-4441.235652,689.485948
3005.450788,-8512.368333,-4145.153275,689.485948
3005.451125,-9696.697840,-2516.700203,-306.438199
3005.451463,-11325.150913,-1628.453072,-1225.752797
3005.451800,-11177.109724,-1332.370696,-1225.752797
3005.452138,-11251.130318,-1702.473667,-229.828649
3005.452475,-11547.212695,-2368.659014,-383.047749
3005.452813,-9918.759623,-2368.659014,306.438199
3005.453150,-9178.553681,-2072.576638,229.828649
3005.453487,-9474.636058,-1776.494261,229.828649
3005.453825,-9474.636058,-2664.741391,-1149.143247
3005.454162,-10362.883188,-2960.823768,-1072.533697
3005.454500,-9918.759623,-1850.514855,-995.924147
3005.454837,-9696.697840,-1110.308913,-1149.143247
3005.455175,-9918.759623,0.000000,-1838.629195
3005.455512,-10955.047942,-1406.391290,-3830.477490
3005.455850,-11251.130318,-2738.761985,-4366.744339
3005.456187,-9844.739029,-4145.153275,-3677.258390
3005.456524,-9104.533087,-4071.132681,-2528.115143
3005.456862,-9326.594869,-3997.112087,-2528.115143
3005.457199,-9178.553681,-4515.256246,-4290.134789
3005.457537,-9252.574275,-4663.297435,-2987.772442
3005.457874,-10214.842000,-3034.844362,-3217.601092
3005.458212,-9252.574275,-2072.576638,-2987.772442
3005.458549,-9400.615463,-1258.350101,-2757.943793
3005.458886,-11769.274478,-1628.453072,-1455.581446
3005.459224,-12657.521608,-1110.308913,-1225.752797
3005.459561,-11251.130318,-888.247130,-1225.752797
3005.459899,-7846.182985,-1036.288319,0.000000
3005.460236,-8956.491898,-2664.741391,1455.581446
3005.460574,-10658.965565,-1480.411884,306.438199
3005.460911,-10066.800811,0.000000,-2757.943793
3005.461249,-9548.656652,518.144159,-2757.943793
3005.461586,-10362.883188,0.000000,-2681.334243
3005.461923,-11399.171507,592.164754,-4366.744339
3005.462261,-9918.759623,518.144159,-4443.353888
3005.462598,-8586.388927,-518.144159,-1838.629195
3005.462936,-8438.347739,0.000000,-1072.533697
3005.463273,-10584.944971,-444.123565,-1838.629195
3005.463611,-11917.315666,-1184.329507,-995.924147
3005.463948,-9252.574275,-2294.638420,-1072.533697
3005.464286,-8586.388927,-2738.761985,383.047749
3005.464623,-9992.780217,-1702.473667,2068.457845
3005.464960,-10140.821405,-1628.453072,689.485948
3005.465298,-10140.821405,-592.164754,-1455.581446
3005.465635,-10658.965565,-2368.659014,-2298.286494
3005.465973,-10955.047942,-1924.535449,-2834.553343
3005.466310,-9696.697840,-2368.659014,-2298.286494
3005.466648,-9474.636058,-2072.576638,-1762.019645
3005.466985,-8142.265362,-3404.947333,-1838.629195
3005.467322,-8956.491898,-3478.967927,-1455.581446
3005.467660,-9770.718434,-2960.823768,0.000000
3005.467997,-9844.739029,-2812.782580,536.266849
3005.468335,-11029.068536,-2220.617826,1225.752797
3005.468672,-11547.212695,-740.205942,-1072.533697
3005.469010,-11917.315666,-1480.411884,-2604.724693
3005.469347,-11325.150913,-2368.659014,-3907.087040
3005.469685,-9474.636058,-4663.297435,-5286.058936
3005.470022,-9696.697840,-4959.379811,-4136.915689
3005.470359,-7994.224174,-5033.400406,-5056.230287
3005.470697,-9030.512492,-6143.709319,-5209.449386
3005.471034,-9400.615463,-6217.729913,-4826.401637
3005.471372,-9326.594869,-6143.709319,-2145.067394
3005.471709,-10066.800811,-3701.029710,0.000000
3005.472047,-9474.636058,-2368.659014,0.000000
3005.472384,-11547.212695,-1998.556043,459.657299
3005.472722,-12805.562797,-2442.679609,-995.924147
3005.473059,-12361.439231,-3330.926739,-1378.971896
3005.473396,-10584.944971,-3775.050304,-1838.629195
3005.473734,-8882.471304,-5403.503377,-1378.971896
3005.474071,-7550.100608,-5107.421000,-1532.190996
3005.474409,-7254.018232,-4737.318029,-612.876398
3005.474746,-8364.327145,-2738.761985,0.000000
3005.475084,-9400.615463,-296.082377,-1149.143247
3005.475421,-11917.315666,1184.329507,-1685.410096
3005.475758,-12879.583391,1036.288319,-2987.772442
3005.476096,-12657.521608,888.247130,-3830.477490
3005.476433,-10362.883188,-962.267725,-2834.553343
3005.476771,-8956.491898,-2812.782580,-1532.190996
3005.477108,-8142.265362,-4589.276840,0.000000
3005.477446,-8142.265362,-4737.318029,-842.705048
3005.477783,-8364.327145,-3034.844362,-1838.629195
3005.478121,-9326.594869,-3701.029710,-2145.067394
3005.478458,-10732.986159,-2960.823768,-3370.820191
3005.478795,-10436.903782,-1554.432478,-4673.182538
3005.479133,-11103.089130,-1332.370696,-3907.087040
3005.479470,-9474.636058,-1850.514855,-2528.115143
3005.479808,-9030.512492,-2368.659014,-1455.581446
3005.480145,-9992.780217,-3108.864956,-459.657299
3005.480483,-11473.192101,-2590.720797,612.876398
3005.480820,-11399.171507,-3478.967927,0.000000
3005.481158,-10732.986159,-3627.009116,-229.828649
3005.481495,-9400.615463,-3627.009116,-1225.752797
3005.481832,-9400.615463,-2664.741391,-919.314598
3005.482170,-9548.656652,-1184.329507,-1838.629195
3005.482507,-9844.739029,-296.082377,-2604.724693
3005.482845,-11325.150913,370.102971,-2451.505594
3005.483182,-11917.315666,592.164754,-2911.162892
3005.483520,-11843.295072,74.020594,-3447.429741
3005.483857,-10658.965565,-1702.473667,-3064.381992
3005.484195,-9326.594869,-3404.947333,-1762.019645
3005.484532,-7698.141797,-4367.215058,-689.485948
3005.484869,-7846.182985,-3330.926739,-383.047749
3005.485207,-8808.450710,-2146.597232,-459.657299
3005.485544,-10066.800811,-1332.370696,-2221.676944
3005.485882,-11177.109724,592.164754,-3217.601092
3005.486219,-11843.295072,-296.082377,-1302.362347
3005.486557,-10732.986159,-296.082377,-689.485948
3005.486894,-8068.244768,814.226536,919.314598
3005.487231,-9326.594869,814.226536,2528.115143
3005.487569,-10658.965565,-666.185348,1302.362347
3005.487906,-10436.903782,-1332.370696,-153.219100
3005.488244,-9252.574275,-1110.308913,153.219100
3005.488581,-9178.553681,-814.226536,919.314598
3005.488919,-9844.739029,0.000000,995.924147
3005.489256,-10732.986159,-296.082377,-919.314598
3005.489594,-9326.594869,740.205942,-1072.533697
3005.489931,-10288.862594,1184.329507,-689.485948
3005.490269,-10732.986159,1406.391290,-2374.896044
3005.490606,-10881.027347,74.020594,-2221.676944
3005.490944,-10584.944971,-1258.350101,-995.924147
3005.491281,-9104.533087,-2368.659014,459.657299
3005.491618,-9548.656652,-2368.659014,459.657299
3005.491956,-10288.862594,-2442.679609,-842.705048
3005.492293,-9992.780217,-5033.400406,-2374.896044
3005.492631,-8586.388927,-5551.544565,-1072.533697
3005.492968,-8068.244768,-3997.112087,919.314598
3005.493306,-10140.821405,-1480.411884,1225.752797
3005.493643,-11917.315666,74.020594,-1762.019645
3005.493981,-11177.109724,74.020594,-4366.744339
3005.494318,-11399.171507,-1554.432478,-2451.505594
3005.494656,-10732.986159,-3256.906145,2068.457845
3005.494993,-9474.636058,-2960.823768,4749.792088
3005.495331,-10658.965565,-2516.700203,4290.134789
3005.495668,-11103.089130,-2368.659014,1072.533697
3005.496006,-10140.821405,-1850.514855,-1149.143247
3005.496343,-9474.636058,-1924.535449,383.047749
3005.496681,-8364.327145,0.000000,1225.752797
3005.497018,-10214.842000,666.185348,2068.457845
3005.497355,-11547.212695,2516.700203,-306.438199
3005.497693,-11325.150913,2072.576638,-3064.381992
3005.498030,-10288.862594,0.000000,-1838.629195
3005.498368,-8956.491898,-592.164754,-153.219100
3005.498705,-9104.533087,-1184.329507,1532.190996
3005.499043,-8586.388927,-1406.391290,76.609550
3005.499380,-8068.244768,-1110.308913,0.000000
3005.499718,-9844.739029,-1850.514855,0.000000
3005.500055,-10807.006753,-1480.411884,306.438199
3005.500393,-9918.759623,740.205942,1149.143247
3005.500730,-10066.800811,2146.597232,1762.019645
3005.501068,-10510.924376,1776.494261,1991.848295
3005.501405,-11473.192101,1702.473667,1302.362347
3005.501743,-11325.150913,0.000000,1378.971896
3005.502080,-10140.821405,-962.267725,1685.410096
3005.502418,-9548.656652,-2146.597232,2068.457845
3005.502755,-8660.409521,-1554.432478,2528.115143
3005.503092,-8882.471304,-74.020594,1762.019645
3005.503430,-10066.800811,592.164754,76.609550
3005.503767,-10140.821405,1406.391290,-2221.676944
3005.504105,-10955.047942,888.247130,-1685.410096
3005.504442,-10807.006753,814.226536,-1072.533697
3005.504780,-9252.574275,0.000000,-229.828649
3005.505117,-10066.800811,-518.144159,536.266849
3005.505455,-10362.883188,-1554.432478,-383.047749
3005.505792,-10955.047942,-2220.617826,-2221.676944
3005.506130,-9844.739029,-3478.967927,-1685.410096
3005.506467,-8586.388927,-3108.864956,-1225.752797
3005.506805,-8586.388927,-2664.741391,459.657299
3005.507142,-11177.109724,-1406.391290,-612.876398
3005.507480,-11029.068536,-1480.411884,-2451.505594
3005.507817,-11029.068536,-592.164754,-1991.848295
3005.508155,-10288.862594,-370.102971,0.000000
3005.508492,-9474.636058,-370.102971,1608.800546
3005.508829,-9622.677246,-296.082377,3447.429741
3005.509167,-11177.109724,-222.061783,1991.848295
3005.509504,-11029.068536,-666.185348,0.000000
3005.509842,-11177.109724,-518.144159,842.705048
3005.510179,-9474.636058,-444.123565,689.485948
3005.510517,-9474.636058,1110.308913,1225.752797
3005.510854,-9992.780217,2146.597232,612.876398
3005.511192,-10362.883188,2738.761985,-536.266849
3005.511529,-11029.068536,2442.679609,0.000000
3005.511867,-11547.212695,1924.535449,-1149.143247
3005.512204,-9770.718434,1554.432478,-1072.533697
3005.512542,-8734.430116,814.226536,383.047749
3005.512879,-8734.430116,-740.205942,1455.581446
3005.513217,-9400.615463,296.082377,-842.705048
3005.513554,-9992.780217,-1110.308913,0.000000
3005.513892,-9918.759623,-962.267725,153.219100
3005.514229,-9474.636058,-1554.432478,306.438199
3005.514566,-9844.739029,-148.041188,766.095498
3005.514904,-9622.677246,-666.185348,76.609550
3005.515241,-9326.594869,-814.226536,-306.438199
3005.515579,-9178.553681,-1258.350101,76.609550
3005.515916,-9844.739029,-962.267725,1302.362347
3005.516254,-10362.883188,-814.226536,2221.676944
3005.516591,-11029.068536,-296.082377,1838.629195
3005.516929,-11547.212695,-444.123565,2145.067394
3005.517266,-10807.006753,-740.205942,612.876398
3005.517604,-9992.780217,-1702.473667,536.266849
3005.517941,-9696.697840,-1924.535449,766.095498
3005.518279,-9474.636058,-888.247130,689.485948
3005.518616,-10362.883188,-666.185348,-383.047749
3005.518954,-10881.027347,-962.267725,-1072.533697
3005.519291,-10436.903782,-296.082377,-1991.848295
3005.519629,-10584.944971,-1480.411884,-1991.848295
3005.519966,-10807.006753,-1258.350101,-383.047749
3005.520303,-8882.471304,-1850.514855,-536.266849
3005.520641,-9622.677246,-2516.700203,919.314598
3005.520978,-10362.883188,-2442.679609,536.266849
3005.521316,-9696.697840,-2146.597232,153.219100
3005.521653,-9622.677246,-888.247130,1225.752797
3005.521991,-10066.800811,-74.020594,0.000000
3005.522328,-10584.944971,296.082377,76.609550
3005.522666,-9992.780217,222.061783,229.828649
3005.523003,-9622.677246,-888.247130,919.314598
3005.523341,-9770.718434,-222.061783,1991.848295
3005.523678,-10584.944971,740.205942,2451.505594
3005.524016,-9548.656652,1406.391290,1532.190996
3005.524353,-10140.821405,592.164754,612.876398
3005.524691,-10214.842000,1776.494261,459.657299
3005.525028,-10955.047942,1554.432478,-383.047749
3005.525366,-10510.924376,1184.329507,-306.438199
3005.525703,-9622.677246,1776.494261,-306.438199
3005.526040,-8956.491898,1184.329507,-995.924147
3005.526378,-9844.739029,0.000000,-1149.143247
3005.526715,-9252.574275,-592.164754,-1072.533697
3005.527053,-9400.615463,-2072.576638,229.828649
3005.527390,-9474.636058,-1554.432478,153.219100
3005.527728,-9548.656652,-814.226536,-153.219100
3005.528065,-9918.759623,0.000000,-689.485948
3005.528403,-10140.821405,-666.185348,-1455.581446
3005.528740,-10510.924376,-740.205942,-1225.752797
3005.529078,-9770.718434,-1110.308913,-689.485948
3005.529415,-10066.800811,-962.267725,1838.629195
3005.529753,-10362.883188,-1998.556043,1685.410096
3005.530090,-10362.883188,-1406.391290,1378.971896
3005.530428,-10732.986159,-222.061783,2145.067394
3005.530765,-10881.027347,-1332.370696,1072.533697
3005.531103,-9770.718434,-888.247130,919.314598
3005.531440,-9992.780217,-592.164754,1608.800546
3005.531777,-10066.800811,888.247130,1608.800546
3005.532115,-10510.924376,444.123565,842.705048
3005.532452,-10140.821405,370.102971,-306.438199
3005.532790,-9622.677246,814.226536,-459.657299
3005.533127,-10881.027347,592.164754,689.485948
3005.533465,-10955.047942,518.144159,842.705048
3005.533802,-9770.718434,74.020594,0.000000
3005.534140,-9844.739029,74.020594,-76.609550
3005.534477,-10288.862594,-296.082377,0.000000
3005.534815,-9030.512492,-148.041188,0.000000
3005.535152,-7846.182985,-222.061783,689.485948
3005.535490,-9474.636058,148.041188,1302.362347
3005.535827,-10362.883188,1184.329507,689.485948
3005.536165,-11103.089130,666.185348,-842.705048
3005.536502,-10584.944971,74.020594,459.657299
3005.536840,-9696.697840,0.000000,842.705048
3005.537177,-9252.574275,1110.308913,2757.943793
3005.537514,-10066.800811,1628.453072,2681.334243
3005.537852,-11177.109724,962.267725,536.266849
3005.538189,-10658.965565,-296.082377,-536.266849
3005.538527,-9474.636058,-148.041188,1149.143247
3005.538864,-9622.677246,-370.102971,2451.505594
3005.539202,-10510.924376,370.102971,1455.581446
3005.539539,-10436.903782,592.164754,-766.095498
3005.539877,-10066.800811,666.185348,-2068.457845
3005.540214,-9844.739029,-740.205942,-1532.190996
3005.540552,-9548.656652,-740.205942,-1762.019645
3005.540889,-8956.491898,-1480.411884,-1532.190996
3005.541227,-9622.677246,-1702.473667,-536.266849
3005.541564,-10066.800811,-2590.720797,-1225.752797
3005.541902,-10288.862594,-2960.823768,-1149.143247
3005.542239,-9770.718434,-2664.741391,0.000000
3005.542577,-9696.697840,-2738.761985,612.876398
3005.542914,-9992.780217,-1924.535449,842.705048
3005.543251,-10732.986159,-1628.453072,459.657299
3005.543589,-11399.171507,-962.267725,1225.752797
3005.543926,-10881.027347,-1998.556043,-612.876398
3005.544264,-10214.842000,-1554.432478,766.095498
3005.544601,-9844.739029,-1110.308913,1991.848295
3005.544939,-9474.636058,-666.185348,2528.115143
3005.545276,-9474.636058,1110.308913,2374.896044
3005.545614,-11177.109724,592.164754,995.924147
3005.545951,-11473.192101,1480.411884,-919.314598
3005.546289,-10510.924376,592.164754,-1455.581446
3005.546626,-10140.821405,592.164754,76.609550
3005.546964,-7920.203579,148.041188,1685.410096
3005.547301,-7624.121203,1184.329507,995.924147
3005.547639,-10288.862594,1036.288319,612.876398
3005.547976,-11547.212695,148.041188,-1838.629195
3005.548314,-9400.615463,518.144159,-2528.115143
3005.548651,-9326.594869,0.000000,383.047749
3005.548988,-8808.450710,-518.144159,1762.019645
3005.549326,-9474.636058,370.102971,1302.362347
3005.549663,-9474.636058,0.000000,-459.657299
3005.550001,-10288.862594,0.000000,229.828649
3005.550338,-10955.047942,-370.102971,306.438199
3005.550676,-11029.068536,-666.185348,612.876398
3005.551013,-9400.615463,296.082377,1532.190996
3005.551351,-9622.677246,370.102971,1762.019645
3005.551688,-10658.965565,1110.308913,-612.876398
3005.552026,-10658.965565,222.061783,-995.924147
3005.552363,-10140.821405,0.000000,536.266849
3005.552701,-9844.739029,370.102971,2298.286494
3005.553038,-11029.068536,1406.391290,2374.896044
3005.553376,-12065.356855,2146.597232,229.828649
3005.553713,-11325.150913,592.164754,-1838.629195
3005.554051,-9326.594869,0.000000,-2298.286494
3005.554388,-8808.450710,-1258.350101,306.438199
3005.554725,-9474.636058,-740.205942,1302.362347
3005.555063,-9030.512492,592.164754,0.000000
3005.555400,-11029.068536,222.061783,-1225.752797
3005.555738,-11325.150913,-962.267725,-2451.505594
3005.556075,-8956.491898,-1480.411884,-1225.752797
3005.556413,-8734.430116,-1776.494261,2298.286494
3005.556750,-8364.327145,-296.082377,2451.505594
3005.557088,-10140.821405,0.000000,1302.362347
3005.557425,-11991.336260,-592.164754,0.000000
3005.557763,-10732.986159,592.164754,-766.095498
3005.558100,-10066.800811,-296.082377,842.705048
3005.558438,-9178.553681,296.082377,2911.162892
3005.558775,-8734.430116,814.226536,3370.820191
3005.559113,-10732.986159,1332.370696,2298.286494
3005.559450,-11547.212695,1776.494261,306.438199
3005.559788,-10955.047942,518.144159,-459.657299
3005.560125,-10066.800811,444.123565,766.095498
3005.560462,-9548.656652,962.267725,1685.410096
3005.560800,-9992.780217,1110.308913,1762.019645
3005.561137,-10436.903782,666.185348,0.000000
3005.561475,-11029.068536,0.000000,-1302.362347
3005.561812,-10362.883188,-370.102971,-2374.896044
3005.562150,-8882.471304,-1554.432478,-995.924147
3005.562487,-8586.388927,-1702.473667,919.314598
3005.562825,-8660.409521,-1998.556043,306.438199
3005.563162,-9992.780217,-1184.329507,-536.266849
3005.563500,-11103.089130,-1554.432478,-1532.190996
3005.563837,-10214.842000,-2368.659014,-383.047749
3005.564175,-9770.718434,-1850.514855,766.095498
3005.564512,-9326.594869,-1184.329507,1149.143247
3005.564850,-9326.594869,-814.226536,1378.971896
3005.565187,-10436.903782,-1480.411884,229.828649
3005.565525,-11547.212695,-1776.494261,-383.047749
3005.565862,-10510.924376,-666.185348,0.000000
3005.566199,-10362.883188,0.000000,2451.505594
3005.566537,-10807.006753,1406.391290,2145.067394
3005.566874,-10362.883188,1702.473667,689.485948
3005.567212,-11103.089130,1628.453072,-612.876398
3005.567549,-10732.986159,-296.082377,-919.314598
3005.567887,-9400.615463,-370.102971,-842.705048
3005.568224,-8512.368333,222.061783,1455.581446
3005.568562,-9400.615463,888.247130,1378.971896
3005.568899,-9770.718434,1776.494261,-1149.143247
3005.569237,-11547.212695,1110.308913,-2604.724693
3005.569574,-9844.739029,444.123565,-3140.991542
3005.569912,-7994.224174,-1184.329507,-612.876398
3005.570249,-8216.285956,-1036.288319,1685.410096
3005.570587,-8068.244768,370.102971,1991.848295
3005.570924,-10214.842000,222.061783,1225.752797
3005.571262,-11251.130318,-444.123565,-1455.581446
3005.571599,-9548.656652,-444.123565,-536.266849
3005.571936,-8956.491898,-740.205942,1455.581446
3005.572274,-9104.533087,-1184.329507,2834.553343
3005.572611,-9178.553681,962.267725,1685.410096
3005.572949,-10214.842000,666.185348,0.000000
3005.573286,-11547.212695,296.082377,-1072.533697
3005.573624,-10807.006753,-444.123565,153.219100
3005.573961,-9844.739029,-888.247130,1378.971896
3005.574299,-10362.883188,0.000000,2834.553343
3005.574636,-9696.697840,296.082377,1915.238745
3005.574974,-10881.027347,962.267725,-229.828649
3005.575311,-11177.109724,-148.041188,-1685.410096
3005.575649,-9696.697840,-1110.308913,-995.924147
3005.575986,-10214.842000,-74.020594,1072.533697
3005.576324,-10436.903782,-518.144159,1225.752797
3005.576661,-10658.965565,-370.102971,-459.657299
3005.576999,-11029.068536,-1258.350101,-1378.971896
3005.577336,-10510.924376,-1480.411884,-1225.752797
3005.577673,-9326.594869,-2294.638420,0.000000
3005.578011,-9548.656652,-1998.556043,2911.162892
3005.578348,-8586.388927,-814.226536,2145.067394
3005.578686,-9844.739029,-222.061783,1225.752797
3005.579023,-11177.109724,-222.061783,229.828649
3005.579361,-10436.903782,-370.102971,0.000000
3005.579698,-10066.800811,-370.102971,1302.362347
3005.580036,-9030.512492,1332.370696,2528.115143
3005.580373,-9178.553681,2442.679609,1455.581446
3005.580711,-10955.047942,1924.535449,229.828649
3005.581048,-11621.233289,1406.391290,-919.314598
3005.581386,-9474.636058,1110.308913,-995.924147
3005.581723,-9326.594869,1702.473667,1532.190996
3005.582061,-8438.347739,2220.617826,2068.457845
3005.582398,-9548.656652,1924.535449,536.266849
3005.582736,-11029.068536,1480.411884,-1608.800546
3005.583073,-10658.965565,296.082377,-3064.381992
3005.583410,-9918.759623,0.000000,-1838.629195
3005.583748,-8660.409521,-592.164754,-459.657299
3005.584085,-7624.121203,296.082377,612.876398
3005.584423,-8734.430116,0.000000,-306.438199
3005.584760,-10807.006753,-1036.288319,-919.314598
3005.585098,-11621.233289,-1702.473667,-2145.067394
3005.585435,-11029.068536,-2812.782580,-1532.190996
3005.585773,-9104.533087,-2368.659014,153.219100
3005.586110,-8142.265362,-2368.659014,2145.067394
3005.586448,-9622.677246,-1924.535449,1455.581446
3005.586785,-10807.006753,-1628.453072,383.047749
3005.587123,-11843.295072,-2072.576638,0.000000
3005.587460,-11251.130318,-1998.556043,1149.143247
3005.587798,-10807.006753,-296.082377,2145.067394
3005.588135,-10362.883188,-592.164754,2681.334243
3005.588473,-10584.944971,-74.020594,766.095498
3005.588810,-11103.089130,-1184.329507,-919.314598
3005.589147,-11251.130318,-1258.350101,-1915.238745
3005.589485,-8882.471304,-1184.329507,0.000000
3005.589822,-9992.780217,-1332.370696,1762.019645
3005.590160,-9918.759623,-74.020594,-383.047749
3005.590497,-10658.965565,444.123565,-1302.362347
3005.590834,-10362.883188,-592.164754,-995.924147
3005.591172,-9918.759623,-1702.473667,-536.266849
3005.591509,-8956.491898,-592.164754,1302.362347
3005.591846,-9104.533087,-148.041188,1685.410096
3005.592184,-10140.821405,592.164754,2145.067394
3005.592521,-10732.986159,888.247130,-306.438199
3005.592858,-9844.739029,222.061783,0.000000
3005.593196,-8956.491898,740.205942,842.705048
3005.593533,-9104.533087,296.082377,2681.334243
3005.593870,-9622.677246,1850.514855,2374.896044
3005.594208,-10584.944971,2220.617826,1302.362347
3005.594545,-10436.903782,2738.761985,689.485948
3005.594882,-10510.924376,2072.576638,0.000000
3005.595219,-9548.656652,1184.329507,-76.609550
3005.595557,-8068.244768,1406.391290,1225.752797
3005.595894,-9030.512492,2294.638420,2451.505594
3005.596231,-10658.965565,1258.350101,842.705048
3005.596569,-10732.986159,814.226536,-1991.848295
3005.596906,-10732.986159,-592.164754,-1072.533697
3005.597243,-10362.883188,-962.267725,-229.828649
3005.597581,-8290.306550,-1628.453072,-1072.533697
3005.597918,-8660.409521,-1406.391290,-306.438199
3005.598255,-9178.553681,-1924.535449,-919.314598
3005.598593,-9696.697840,-3034.844362,-2681.334243
3005.598930,-10658.965565,-3034.844362,-1378.971896
3005.599267,-10510.924376,-2738.761985,-612.876398
3005.599605,-9696.697840,-2664.741391,766.095498
3005.599942,-10584.944971,-2368.659014,1608.800546
3005.600279,-11695.253884,-1480.411884,383.047749
3005.600616,-11769.274478,-2072.576638,-229.828649
3005.600954,-10807.006753,-2590.720797,0.000000
3005.601291,-9844.739029,-2516.700203,1378.971896
3005.601628,-9770.718434,-740.205942,2221.676944
3005.601966,-10436.903782,-888.247130,1149.143247
3005.602303,-10955.047942,-296.082377,383.047749
3005.602640,-11325.150913,-370.102971,-1302.362347
3005.602978,-9770.718434,74.020594,-153.219100
3005.603315,-9770.718434,888.247130,1685.410096
3005.603652,-9622.677246,814.226536,2068.457845
3005.603990,-10658.965565,1480.411884,153.219100
3005.604327,-10732.986159,1110.308913,-1455.581446
3005.604664,-9770.718434,1406.391290,-995.924147
3005.605002,-9104.533087,-592.164754,-612.876398
3005.605339,-8216.285956,444.123565,766.095498
3005.605676,-8364.327145,1110.308913,612.876398
3005.606014,-10066.800811,2146.597232,306.438199
3005.606351,-10584.944971,962.267725,-1072.533697
3005.606688,-10362.883188,222.061783,-153.219100
3005.607025,-9622.677246,0.000000,2221.676944
3005.607363,-8512.368333,1110.308913,2911.162892
3005.607700,-9918.759623,1850.514855,3600.648841
3005.608037,-10510.924376,2146.597232,1225.752797
3005.608375,-11177.109724,1628.453072,153.219100
3005.608712,-11473.192101,1184.329507,0.000000
3005.609049,-9770.718434,-148.041188,766.095498
3005.609387,-8808.450710,-592.164754,1532.190996
3005.609724,-8734.430116,-370.102971,1225.752797
3005.610061,-9474.636058,-370.102971,842.705048
3005.610399,-10584.944971,148.041188,-842.705048
3005.610736,-10658.965565,-1480.411884,-1608.800546
3005.611073,-10732.986159,-1998.556043,-76.609550
3005.611411,-10214.842000,-1776.494261,0.000000
3005.611748,-10214.842000,-2072.576638,0.000000
3005.612085,-10436.903782,-2516.700203,-1915.238745
3005.612423,-9696.697840,-3108.864956,-1915.238745
3005.612760,-10214.842000,-3478.967927,-1225.752797
3005.613097,-9474.636058,-3182.885551,-383.047749
3005.613434,-9918.759623,-2960.823768,1149.143247
3005.613772,-11103.089130,-2960.823768,1149.143247
3005.614109,-11547.212695,-2368.659014,153.219100
3005.614446,-10584.944971,-2886.803174,0.000000
3005.614784,-10584.944971,-2072.576638,2068.457845
3005.615121,-9474.636058,-1702.473667,2221.676944
3005.615458,-9918.759623,74.020594,2451.505594
3005.615796,-9400.615463,592.164754,766.095498
3005.616133,-10140.821405,1036.288319,-306.438199
3005.616470,-11769.274478,814.226536,-229.828649
3005.616808,-9548.656652,74.020594,-383.047749
3005.617145,-8364.327145,888.247130,1149.143247
3005.617482,-9696.697840,1850.514855,1455.581446
3005.617820,-10140.821405,2960.823768,229.828649
3005.618157,-8882.471304,2294.638420,-689.485948
3005.618494,-12139.377449,2368.659014,-689.485948
3005.618832,-9844.739029,1332.370696,153.219100
3005.619169,-10362.883188,1406.391290,-842.705048
3005.619506,-10288.862594,1184.329507,1149.143247
3005.619843,-8808.450710,518.144159,-919.314598
3005.620181,-9474.636058,740.205942,-612.876398
3005.620518,-10214.842000,444.123565,306.438199
3005.620855,-9548.656652,-370.102971,0.000000
3005.621193,-9400.615463,-222.061783,76.609550
3005.621530,-10732.986159,-888.247130,842.705048
3005.621867,-10362.883188,-592.164754,383.047749
3005.622205,-9474.636058,-518.144159,76.609550
3005.622542,-9474.636058,-1110.308913,1455.581446
3005.622879,-8364.327145,-1110.308913,842.705048
3005.623217,-10658.965565,-1628.453072,-459.657299
3005.623554,-10362.883188,-1480.411884,919.314598
3005.623891,-11547.212695,-1702.473667,-2298.286494
3005.624229,-9178.553681,-1258.350101,0.000000
3005.624566,-9030.512492,-1776.494261,-766.095498
3005.624903,-9474.636058,-2220.617826,766.095498
3005.625240,-10436.903782,-2368.659014,-306.438199
3005.625578,-11325.150913,-2960.823768,-306.438199
3005.625915,-11473.192101,-1554.432478,-306.438199
3005.626252,-11251.130318,-2368.659014,-612.876398
3005.626590,-10510.924376,-2294.638420,-1072.533697
3005.626927,-9326.594869,-3108.864956,-1225.752797
3005.627264,-9474.636058,-2146.597232,0.000000
3005.627602,-9104.533087,-2516.700203,1225.752797
3005.627939,-10436.903782,-1184.329507,1915.238745
3005.628276,-11325.150913,0.000000,1225.752797
3005.628614,-12583.501014,-444.123565,995.924147
3005.628951,-11325.150913,74.020594,2987.772442
3005.629288,-10288.862594,666.185348,2681.334243
3005.629626,-8586.388927,1702.473667,2528.115143
3005.629963,-8438.347739,2368.659014,1838.629195
3005.630300,-9918.759623,2220.617826,1608.800546
3005.630638,-10658.965565,2220.617826,536.266849
3005.630975,-9548.656652,1776.494261,0.000000
3005.631312,-9178.553681,2146.597232,1378.971896
3005.631649,-9696.697840,2590.720797,612.876398
3005.631987,-9474.636058,3330.926739,-1532.190996
3005.632324,-10066.800811,2516.700203,-919.314598
3005.632661,-9326.594869,814.226536,-995.924147
3005.632999,-9622.677246,148.041188,-995.924147
3005.633336,-10436.903782,222.061783,-1838.629195
3005.633673,-8660.409521,-888.247130,0.000000
3005.634011,-8216.285956,-1776.494261,-153.219100
3005.634348,-9104.533087,-1036.288319,76.609550
3005.634685,-10732.986159,-444.123565,-1225.752797
3005.635023,-11103.089130,-1480.411884,-1225.752797
3005.635360,-10510.924376,-962.267725,-919.314598
3005.635697,-9770.718434,-1258.350101,459.657299
3005.636035,-11029.068536,-1258.350101,1149.143247
3005.636372,-10362.883188,-2590.720797,1455.581446
3005.636709,-9326.594869,-2220.617826,766.095498
3005.637047,-10955.047942,-2368.659014,1455.581446
3005.637384,-11029.068536,-2294.638420,1838.629195
3005.637721,-10214.842000,-1184.329507,1762.019645
3005.638058,-11473.192101,-1702.473667,1378.971896
3005.638396,-11325.150913,-666.185348,-76.609550
3005.638733,-10955.047942,-518.144159,-919.314598
3005.639070,-10214.842000,-1332.370696,-459.657299
3005.639408,-9474.636058,-1998.556043,-383.047749
3005.639745,-9844.739029,-1110.308913,-689.485948
3005.640082,-9992.780217,-222.061783,0.000000
3005.640420,-10214.842000,-1406.391290,-842.705048
3005.640757,-10362.883188,-1850.514855,-1532.190996
3005.641094,-9918.759623,-2294.638420,-383.047749
3005.641432,-9178.553681,-814.226536,766.095498
3005.641769,-9326.594869,-1110.308913,1532.190996
3005.642106,-9622.677246,370.102971,1685.410096
3005.642444,-9474.636058,296.082377,536.266849
3005.642781,-9770.718434,444.123565,612.876398
3005.643118,-10288.862594,518.144159,1149.143247
3005.643456,-10436.903782,740.205942,995.924147
3005.643793,-9474.636058,1332.370696,1762.019645
3005.644130,-9622.677246,2368.659014,1762.019645
3005.644467,-10214.842000,1036.288319,536.266849
3005.644805,-10436.903782,1332.370696,153.219100
3005.645142,-9548.656652,740.205942,-383.047749
3005.645479,-9104.533087,666.185348,229.828649
3005.645817,-9844.739029,1184.329507,689.485948
3005.646154,-11399.171507,1702.473667,-612.876398
3005.646491,-11621.233289,518.144159,-1685.410096
3005.646829,-9474.636058,0.000000,-2604.724693
3005.647166,-8956.491898,-370.102971,-1915.238745
3005.647503,-9400.615463,-1554.432478,-1149.143247
3005.647841,-9474.636058,-1184.329507,-383.047749
3005.648178,-10362.883188,-1776.494261,-76.609550
3005.648515,-11399.171507,-2960.823768,-1149.143247
3005.648853,-9844.739029,-3182.885551,-153.219100
3005.649190,-10066.800811,-3256.906145,2451.505594
3005.649527,-9400.615463,-2220.617826,3064.381992
3005.649864,-10436.903782,-1702.473667,2911.162892
3005.650202,-11621.233289,-444.123565,1225.752797
3005.650539,-11621.233289,-962.267725,-229.828649
3005.650876,-10436.903782,-2368.659014,153.219100
3005.651214,-9104.533087,-2368.659014,1225.752797
3005.651551,-8808.450710,-592.164754,2604.724693
3005.651888,-9474.636058,962.267725,2298.286494
3005.652226,-11029.068536,296.082377,689.485948
3005.652563,-11547.212695,1184.329507,-1149.143247
3005.652900,-10732.986159,148.041188,-995.924147
3005.653238,-10584.944971,592.164754,766.095498
3005.653575,-9474.636058,740.205942,1225.752797
3005.653912,-8808.450710,814.226536,153.219100
3005.654250,-8734.430116,0.000000,-1225.752797
3005.654587,-8660.409521,-592.164754,-1378.971896
3005.654924,-8956.491898,74.020594,-689.485948
3005.655262,-10288.862594,-814.226536,1149.143247
3005.655599,-10140.821405,0.000000,1838.629195
3005.655936,-10214.842000,666.185348,459.657299
3005.656273,-11029.068536,592.164754,1072.533697
3005.656611,-10288.862594,0.000000,229.828649
3005.656948,-9474.636058,-1850.514855,1455.581446
3005.657285,-9548.656652,-666.185348,2451.505594
3005.657623,-9548.656652,1110.308913,1685.410096
3005.657960,-10584.944971,1480.411884,383.047749
3005.658297,-11621.233289,1776.494261,-1532.190996
3005.658635,-11251.130318,222.061783,-1915.238745
3005.658972,-10658.965565,814.226536,-306.438199
3005.659309,-8512.368333,814.226536,689.485948
3005.659647,-9178.553681,814.226536,1608.800546
3005.659984,-10658.965565,962.267725,-689.485948
3005.660321,-11399.171507,296.082377,-2987.772442
3005.660659,-10658.965565,-1480.411884,-3217.601092
3005.660996,-9770.718434,-2146.597232,-306.438199
3005.661333,-8438.347739,-1554.432478,0.000000
3005.661671,-8956.491898,-1406.391290,383.047749
3005.662008,-9918.759623,-1258.350101,0.000000
3005.662345,-10510.924376,-2738.761985,-1532.190996
3005.662682,-10214.842000,-2146.597232,-153.219100
3005.663020,-9178.553681,-3108.864956,1378.971896
3005.663357,-9548.656652,-2146.597232,1762.019645
3005.663694,-9918.759623,-1184.329507,1532.190996
3005.664032,-10214.842000,-888.247130,0.000000
3005.664369,-10807.006753,-666.185348,229.828649
3005.664706,-9770.718434,0.000000,383.047749
3005.665044,-9474.636058,518.144159,1455.581446
3005.665381,-10214.842000,666.185348,2298.286494
3005.665718,-10955.047942,1998.556043,1838.629195
3005.666056,-11251.130318,1998.556043,76.609550
3005.666393,-10732.986159,-518.144159,-306.438199
3005.666730,-9770.718434,518.144159,1072.533697
3005.667068,-9030.512492,370.102971,1915.238745
3005.667405,-8660.409521,1406.391290,1072.533697
3005.667742,-10807.006753,1406.391290,153.219100
3005.668080,-11399.171507,592.164754,-1762.019645
3005.668417,-9622.677246,0.000000,-2834.553343
3005.668754,-9104.533087,-1554.432478,-1608.800546
3005.669091,-7846.182985,-1480.411884,766.095498
3005.669429,-8068.244768,-962.267725,1072.533697
3005.669766,-11103.089130,-222.061783,612.876398
3005.670103,-10807.006753,-148.041188,-1072.533697
3005.670441,-10066.800811,-1184.329507,-842.705048
3005.670778,-10066.800811,-2516.700203,2451.505594
3005.671115,-9104.533087,-592.164754,3600.648841
3005.671453,-10066.800811,888.247130,3064.381992
3005.671790,-12213.398043,518.144159,1072.533697
3005.672127,-11473.192101,-148.041188,-1225.752797
3005.672465,-10140.821405,-1480.411884,-766.095498
3005.672802,-9104.533087,-1036.288319,2145.067394
3005.673139,-8068.244768,370.102971,2145.067394
3005.673477,-9844.739029,1628.453072,1072.533697
3005.673814,-11251.130318,1184.329507,-1378.971896
3005.674151,-11251.130318,0.000000,-1608.800546
3005.674488,-11843.295072,0.000000,0.000000
3005.674826,-10066.800811,0.000000,919.314598
3005.675163,-9548.656652,74.020594,1378.971896
3005.675500,-10362.883188,222.061783,536.266849
3005.675838,-10732.986159,-666.185348,-1072.533697
3005.676175,-9622.677246,-2368.659014,-1838.629195
3005.676512,-8808.450710,-2072.576638,76.609550
3005.676850,-8290.306550,-1406.391290,2068.457845
3005.677187,-9400.615463,0.000000,1302.362347
3005.677524,-10362.883188,0.000000,-306.438199
3005.677862,-11547.212695,-296.082377,-766.095498
3005.678199,-10066.800811,-1258.350101,-536.266849
3005.678536,-9030.512492,0.000000,1838.629195
3005.678874,-9252.574275,888.247130,3294.210641
3005.679211,-8660.409521,1998.556043,1532.190996
3005.679548,-10362.883188,962.267725,0.000000
3005.679886,-11769.274478,222.061783,-689.485948
3005.680223,-10807.006753,74.020594,-919.314598
3005.680560,-9844.739029,148.041188,383.047749
3005.680897,-9474.636058,888.247130,1455.581446
3005.681235,-9622.677246,1036.288319,153.219100
3005.681572,-11177.109724,1702.473667,-1225.752797
3005.681909,-11103.089130,-444.123565,-2528.115143
3005.682247,-9622.677246,-1406.391290,-1762.019645
3005.682584,-8956.491898,-1406.391290,0.000000
3005.682921,-8956.491898,-222.061783,306.438199
3005.683259,-10436.903782,0.000000,-383.047749
3005.683596,-11695.253884,-1480.411884,-1455.581446
3005.683933,-10807.006753,-1184.329507,-2221.676944
3005.684271,-9178.553681,-1628.453072,-383.047749
3005.684608,-9622.677246,-1258.350101,2681.334243
3005.684945,-9178.553681,-1850.514855,2298.286494
3005.685283,-10214.842000,-888.247130,1762.019645
3005.685620,-10955.047942,-444.123565,1302.362347
3005.685957,-10288.862594,-444.123565,919.314598
3005.686295,-10288.862594,-1036.288319,2298.286494
3005.686632,-9474.636058,666.185348,2374.896044
3005.686969,-9326.594869,1110.308913,2834.553343
3005.687306,-10881.027347,2072.576638,1685.410096
3005.687644,-11695.253884,1702.473667,-536.266849
3005.687981,-10807.006753,1332.370696,-1455.581446
3005.688318,-9548.656652,222.061783,-153.219100
3005.688656,-8660.409521,518.144159,689.485948
3005.688993,-8956.491898,296.082377,1072.533697
3005.689330,-10140.821405,888.247130,-459.657299
3005.689667,-10436.903782,814.226536,-1838.629195
3005.690004,-10436.903782,-222.061783,-2374.896044
3005.690342,-10066.800811,-888.247130,-383.047749
3005.690679,-8808.450710,-1850.514855,1915.238745
3005.691016,-8808.450710,-296.082377,2298.286494
3005.691353,-10362.883188,-1036.288319,1608.800546
3005.691691,-11325.150913,0.000000,76.609550
3005.692028,-10584.944971,-370.102971,-306.438199
3005.692365,-10658.965565,-592.164754,919.314598
3005.692702,-9400.615463,-370.102971,766.095498
3005.693040,-9326.594869,-592.164754,766.095498
3005.693377,-9178.553681,0.000000,689.485948
3005.693714,-8882.471304,-1332.370696,229.828649
3005.694051,-10436.903782,-222.061783,1455.581446
3005.694389,-10732.986159,592.164754,766.095498
3005.694726,-10658.965565,296.082377,0.000000
3005.695063,-10881.027347,0.000000,0.000000
3005.695400,-10066.800811,-518.144159,-1762.019645
3005.695738,-9178.553681,-962.267725,-1455.581446
3005.696075,-9252.574275,-1776.494261,-153.219100
3005.696412,-9474.636058,-1258.350101,-919.314598
3005.696749,-10288.862594,-666.185348,-689.485948
3005.697087,-10658.965565,-444.123565,-1302.362347
3005.697424,-11695.253884,-888.247130,-383.047749
3005.697761,-11769.274478,-2368.659014,76.609550
3005.698098,-9992.780217,-2072.576638,995.924147
3005.698436,-9030.512492,-888.247130,2528.115143
3005.698773,-9474.636058,-962.267725,2681.334243
3005.699110,-10584.944971,-666.185348,1378.971896
3005.699447,-10362.883188,0.000000,383.047749
3005.699785,-10807.006753,0.000000,536.266849
3005.700122,-9622.677246,0.000000,995.924147
3005.700459,-8956.491898,1406.391290,1608.800546
3005.700796,-9844.739029,2072.576638,1455.581446
3005.701133,-10288.862594,1480.411884,536.266849
3005.701471,-10288.862594,1924.535449,383.047749
3005.701808,-10584.944971,1332.370696,383.047749
3005.702145,-9918.759623,1480.411884,536.266849
3005.702482,-8512.368333,1110.308913,459.657299
3005.702820,-9548.656652,1702.473667,-612.876398
3005.703157,-9918.759623,296.082377,-1455.581446
3005.703494,-9844.739029,0.000000,-1685.410096
3005.703831,-9178.553681,-296.082377,-1302.362347
3005.704169,-8364.327145,0.000000,-1455.581446
3005.704506,-9400.615463,148.041188,-383.047749
3005.704843,-10658.965565,-740.205942,-536.266849
3005.705180,-10214.842000,-814.226536,-919.314598
3005.705518,-9992.780217,-1776.494261,-536.266849
3005.705855,-9844.739029,-1702.473667,1762.019645
3005.706192,-9474.636058,-1850.514855,2528.115143
3005.706529,-10288.862594,-370.102971,2451.505594
3005.706867,-10955.047942,296.082377,1608.800546
3005.707204,-11843.295072,888.247130,0.000000
3005.707541,-11399.171507,-444.123565,-536.266849
3005.707878,-10510.924376,-444.123565,0.000000
3005.708216,-9030.512492,148.041188,536.266849
3005.708553,-8882.471304,148.041188,306.438199
3005.708890,-9622.677246,74.020594,153.219100
3005.709227,-11621.233289,-1110.308913,-536.266849
3005.709565,-10436.903782,-1036.288319,0.000000
3005.709902,-10362.883188,370.102971,995.924147
3005.710239,-10436.903782,444.123565,1225.752797
3005.710576,-10510.924376,-296.082377,0.000000
3005.710914,-10066.800811,-444.123565,-766.095498
3005.711251,-9474.636058,-1406.391290,0.000000
3005.711588,-9844.739029,-1702.473667,229.828649
3005.711925,-9400.615463,-1332.370696,0.000000
3005.712262,-8586.388927,-814.226536,536.266849
3005.712600,-9770.718434,-592.164754,995.924147
3005.712937,-10955.047942,-296.082377,1455.581446
3005.713274,-9918.759623,296.082377,689.485948
3005.713611,-9696.697840,-296.082377,2068.457845
3005.713949,-10288.862594,296.082377,2604.724693
3005.714286,-10288.862594,592.164754,2374.896044
3005.714623,-10807.006753,148.041188,2451.505594
3005.714960,-9770.718434,-148.041188,1455.581446
3005.715298,-10066.800811,1554.432478,995.924147
3005.715635,-11251.130318,1036.288319,919.314598
3005.715972,-11103.089130,1184.329507,-536.266849
3005.716309,-9548.656652,592.164754,-1072.533697
3005.716647,-9474.636058,740.205942,-1455.581446
3005.716984,-9548.656652,0.000000,-1225.752797
3005.717321,-9548.656652,0.000000,-1378.971896
3005.717658,-9104.533087,296.082377,-2298.286494
3005.717996,-10140.821405,-1480.411884,-842.705048
3005.718333,-11251.130318,-1332.370696,-842.705048
3005.718670,-9030.512492,-1258.350101,-1302.362347
3005.719007,-9918.759623,-1332.370696,689.485948
3005.719345,-10362.883188,-1702.473667,0.000000
3005.719682,-10288.862594,-2220.617826,-842.705048
3005.720019,-9252.574275,-1332.370696,-1072.533697
3005.720356,-8956.491898,-1776.494261,459.657299
3005.720694,-10658.965565,-1110.308913,919.314598
3005.721031,-10140.821405,-370.102971,76.609550
3005.721368,-9770.718434,296.082377,842.705048
3005.721705,-10288.862594,0.000000,1225.752797
3005.722043,-10658.965565,1184.329507,2145.067394
3005.722380,-10214.842000,814.226536,1225.752797
3005.722717,-9844.739029,1036.288319,919.314598
3005.723054,-10288.862594,1036.288319,1149.143247
3005.723392,-11103.089130,740.205942,0.000000
3005.723729,-10214.842000,370.102971,383.047749
3005.724066,-9548.656652,0.000000,229.828649
3005.724403,-9770.718434,296.082377,-306.438199
3005.724740,-9918.759623,518.144159,-612.876398
3005.725078,-9918.759623,0.000000,-842.705048
3005.725415,-9696.697840,-444.123565,0.000000
3005.725752,-9326.594869,-592.164754,383.047749
3005.726089,-10436.903782,296.082377,919.314598
3005.726427,-10955.047942,-740.205942,1072.533697
3005.726764,-9474.636058,-296.082377,0.000000
3005.727101,-9548.656652,-962.267725,1072.533697
3005.727438,-10510.924376,-888.247130,1532.190996
3005.727776,-9844.739029,-518.144159,1302.362347
3005.728113,-9030.512492,-962.267725,1225.752797
3005.728450,-9622.677246,-518.144159,1455.581446
3005.728787,-10436.903782,-444.123565,995.924147
3005.729125,-10436.903782,0.000000,995.924147
3005.729462,-9696.697840,740.205942,0.000000
3005.729799,-11177.109724,444.123565,229.828649
3005.730136,-11769.274478,962.267725,76.609550
3005.730474,-9622.677246,0.000000,-995.924147
3005.730811,-9548.656652,-518.144159,383.047749
3005.731148,-9696.697840,-592.164754,0.000000
3005.731485,-9844.739029,-222.061783,-306.438199
3005.731823,-11399.171507,-666.185348,-766.095498
3005.732160,-10510.924376,-1258.350101,-1532.190996
3005.732497,-9252.574275,-592.164754,-1915.238745
3005.732834,-9548.656652,-1332.370696,-153.219100
3005.733172,-9992.780217,-814.226536,76.609550
3005.733509,-9326.594869,-814.226536,-689.485948
3005.733846,-10288.862594,-1036.288319,-153.219100
3005.734183,-10140.821405,-1332.370696,1225.752797
3005.734521,-9844.739029,-1554.432478,1685.410096
3005.734858,-10066.800811,-666.185348,2451.505594
3005.735195,-9770.718434,-592.164754,2374.896044
3005.735532,-10510.924376,74.020594,2528.115143
3005.735869,-10362.883188,444.123565,1149.143247
3005.736207,-10288.862594,0.000000,536.266849
3005.736544,-9696.697840,1258.350101,459.657299
3005.736881,-9326.594869,1184.329507,995.924147
3005.737218,-10066.800811,1998.556043,-306.438199
3005.737556,-9696.697840,888.247130,-1991.848295
3005.737893,-10436.903782,0.000000,-1302.362347
3005.738230,-9770.718434,-296.082377,-1455.581446
3005.738567,-9030.512492,-370.102971,-383.047749
3005.738905,-9474.636058,518.144159,229.828649
3005.739242,-9696.697840,-740.205942,-919.314598
3005.739579,-10436.903782,-2220.617826,-383.047749
3005.739916,-11251.130318,-2072.576638,-383.047749
3005.740254,-9030.512492,-2516.700203,-536.266849
3005.740591,-8882.471304,-2368.659014,919.314598
3005.740928,-9844.739029,-1850.514855,1762.019645
3005.741265,-9918.759623,-1184.329507,-383.047749
3005.741603,-10881.027347,-1554.432478,-536.266849
3005.741940,-10584.944971,-1480.411884,612.876398
3005.742277,-9918.759623,-1332.370696,766.095498
3005.742614,-10510.924376,0.000000,1532.190996
3005.742952,-11103.089130,666.185348,1302.362347
3005.743289,-11399.171507,1036.288319,1072.533697
3005.743626,-12139.377449,74.020594,536.266849
3005.743963,-10436.903782,0.000000,76.609550
3005.744301,-9992.780217,666.185348,1838.629195
3005.744638,-10214.842000,740.205942,919.314598
3005.744975,-10288.862594,592.164754,-995.924147
3005.745312,-10658.965565,814.226536,-1455.581446
3005.745650,-9252.574275,592.164754,-1838.629195
3005.745987,-8586.388927,444.123565,-1532.190996
3005.746324,-8808.450710,222.061783,76.609550
3005.746661,-9178.553681,1554.432478,383.047749
3005.746998,-10807.006753,0.000000,-995.924147
3005.747336,-10214.842000,0.000000,-842.705048
3005.747673,-9696.697840,-1184.329507,-153.219100
3005.748010,-8660.409521,-1332.370696,2374.896044
3005.748347,-7105.977043,-1184.329507,3907.087040
3005.748685,-9548.656652,1110.308913,4519.963438
3005.749022,-11325.150913,1110.308913,2451.505594
3005.749359,-11695.253884,740.205942,-536.266849
3005.749696,-10510.924376,666.185348,-919.314598
3005.750034,-8808.450710,148.041188,229.828649
3005.750371,-8882.471304,1406.391290,1915.238745
3005.750708,-10288.862594,1406.391290,766.095498
3005.751045,-11325.150913,296.082377,-995.924147
3005.751383,-10658.965565,-296.082377,-1608.800546
3005.751720,-10584.944971,-1332.370696,-383.047749
3005.752057,-10436.903782,-1480.411884,2068.457845
3005.752394,-10362.883188,-1184.329507,1532.190996
3005.752732,-10510.924376,-444.123565,229.828649
3005.753069,-10584.944971,-1480.411884,-1991.848295
3005.753406,-10881.027347,-2960.823768,-1762.019645
3005.753743,-10066.800811,-3701.029710,-919.314598
3005.754081,-9104.533087,-2738.761985,0.000000
3005.754418,-9622.677246,-2294.638420,1149.143247
3005.754755,-10436.903782,-2294.638420,842.705048
3005.755092,-10584.944971,-1850.514855,-766.095498
3005.755430,-9474.636058,-2072.576638,-1225.752797
3005.755767,-10214.842000,-2072.576638,1149.143247
3005.756104,-10214.842000,-1702.473667,1991.848295
3005.756441,-10436.903782,-444.123565,2221.676944
3005.756779,-10732.986159,518.144159,1608.800546
3005.757116,-10362.883188,74.020594,383.047749
3005.757453,-9844.739029,0.000000,459.657299
3005.757790,-9474.636058,592.164754,995.924147
3005.758127,-9252.574275,1332.370696,1915.238745
3005.758465,-9548.656652,2442.679609,306.438199
3005.758802,-11621.233289,2146.597232,-383.047749
3005.759139,-11399.171507,1924.535449,-2068.457845
3005.759476,-9326.594869,518.144159,-2068.457845
3005.759814,-8438.347739,888.247130,0.000000
3005.760151,-8216.285956,1332.370696,0.000000
3005.760488,-9474.636058,1036.288319,-306.438199
3005.760825,-9918.759623,888.247130,-842.705048
3005.761163,-9918.759623,-666.185348,-1378.971896
3005.761500,-10807.006753,0.000000,459.657299
3005.761837,-9992.780217,-666.185348,919.314598
3005.762174,-9252.574275,0.000000,1225.752797
3005.762512,-9474.636058,0.000000,1225.752797
3005.762849,-10584.944971,-74.020594,-536.266849
3005.763186,-9918.759623,148.041188,0.000000
3005.763523,-10214.842000,-1184.329507,76.609550
3005.763861,-9992.780217,-962.267725,919.314598
3005.764198,-10140.821405,-962.267725,2374.896044
3005.764535,-10584.944971,592.164754,1762.019645
3005.764872,-10584.944971,-1036.288319,306.438199
3005.765210,-10658.965565,-1258.350101,-306.438199
3005.765547,-9548.656652,-1036.288319,229.828649
3005.765884,-9918.759623,-1332.370696,842.705048
3005.766221,-9326.594869,-962.267725,612.876398
3005.766559,-11251.130318,-1258.350101,-536.266849
3005.766896,-11399.171507,-2442.679609,-1378.971896
3005.767233,-10436.903782,-2146.597232,-1762.019645
3005.767570,-9770.718434,-3182.885551,306.438199
3005.767908,-9622.677246,-2072.576638,1378.971896
3005.768245,-9400.615463,-1554.432478,842.705048
3005.768582,-10658.965565,-592.164754,0.000000
3005.768919,-10732.986159,-1554.432478,-612.876398
3005.769256,-10658.965565,-2220.617826,-536.266849
3005.769594,-9400.615463,-1554.432478,1838.629195
3005.769931,-9178.553681,222.061783,2757.943793
3005.770268,-10066.800811,888.247130,2987.772442
3005.770605,-11769.274478,740.205942,1225.752797
3005.770943,-10584.944971,1702.473667,536.266849
3005.771280,-9474.636058,592.164754,1455.581446
3005.771617,-9770.718434,1406.391290,2604.724693
3005.771954,-9474.636058,1998.556043,1915.238745
3005.772292,-9400.615463,2516.700203,612.876398
3005.772629,-9474.636058,2442.679609,-689.485948
3005.772966,-10066.800811,148.041188,-1762.019645
3005.773303,-9030.512492,592.164754,-612.876398
3005.773641,-9030.512492,296.082377,919.314598
3005.773978,-9918.759623,1332.370696,995.924147
3005.774315,-10214.842000,666.185348,-766.095498
3005.774652,-10658.965565,-74.020594,-1991.848295
3005.774990,-9622.677246,-1850.514855,-2451.505594
3005.775327,-8882.471304,-2664.741391,-842.705048
3005.775664,-8660.409521,-1332.370696,612.876398
3005.776001,-9548.656652,-740.205942,-459.657299
3005.776339,-11473.192101,-814.226536,-1685.410096
3005.776676,-11473.192101,-2294.638420,-1991.848295
3005.777013,-10140.821405,-3256.906145,-1149.143247
3005.777350,-9474.636058,-2812.782580,1838.629195
3005.777688,-8660.409521,-2220.617826,3830.477490
3005.778025,-9104.533087,-814.226536,2681.334243
3005.778362,-12139.377449,-888.247130,612.876398
3005.778699,-13619.789333,-1184.329507,-229.828649
3005.779037,-11769.274478,-1776.494261,-1378.971896
3005.779374,-9474.636058,-666.185348,229.828649
3005.779711,-8142.265362,444.123565,536.266849
3005.780048,-9252.574275,370.102971,153.219100
3005.780386,-11177.109724,74.020594,-1455.581446
3005.780723,-11177.109724,-518.144159,-3370.820191
3005.781060,-9548.656652,-1110.308913,-1149.143247
3005.781397,-9400.615463,-740.205942,1838.629195
3005.781734,-9252.574275,-740.205942,2757.943793
3005.782072,-9992.780217,74.020594,2221.676944
3005.782409,-11325.150913,0.000000,459.657299
3005.782746,-10658.965565,0.000000,-1072.533697
3005.783083,-9918.759623,-370.102971,-383.047749
3005.783421,-8808.450710,222.061783,1072.533697
3005.783758,-8216.285956,0.000000,1455.581446
3005.784095,-8586.388927,1110.308913,1455.581446
3005.784432,-9770.718434,2516.700203,766.095498
3005.784770,-10658.965565,1110.308913,766.095498
3005.785107,-10214.842000,2220.617826,995.924147
3005.785444,-10214.842000,2886.803174,2451.505594
3005.785781,-11103.089130,3256.906145,2604.724693
3005.786119,-11621.233289,1998.556043,1225.752797
3005.786456,-11029.068536,1332.370696,-536.266849
3005.786793,-8364.327145,666.185348,-306.438199
3005.787130,-8438.347739,-222.061783,229.828649
3005.787468,-8882.471304,370.102971,995.924147
3005.787805,-10510.924376,666.185348,-306.438199
3005.788142,-11325.150913,740.205942,-2528.115143
3005.788479,-10881.027347,0.000000,-4596.572988
3005.788817,-8882.471304,-1480.411884,-3830.477490
3005.789154,-8364.327145,-2738.761985,-1378.971896
3005.789491,-8438.347739,-3701.029710,1072.533697
3005.789829,-9770.718434,-2368.659014,1762.019645
3005.790166,-10510.924376,-2516.700203,1302.362347
3005.790503,-11251.130318,-3330.926739,689.485948
3005.790841,-12287.418637,-3775.050304,1762.019645
3005.791178,-11177.109724,-3478.967927,2374.896044
3005.791515,-9474.636058,-1850.514855,2145.067394
3005.791853,-9474.636058,-1628.453072,1302.362347
3005.792190,-9326.594869,-1406.391290,0.000000
3005.792527,-10214.842000,-1554.432478,-766.095498
3005.792865,-10881.027347,-518.144159,153.219100
3005.793202,-9548.656652,296.082377,766.095498
3005.793539,-10732.986159,592.164754,1838.629195
3005.793877,-11695.253884,740.205942,153.219100
3005.794214,-10807.006753,592.164754,0.000000
3005.794551,-10066.800811,370.102971,0.000000
3005.794889,-9474.636058,0.000000,1149.143247
3005.795226,-9178.553681,518.144159,1072.533697
3005.795563,-9474.636058,148.041188,0.000000
3005.795901,-10584.944971,0.000000,-1685.410096
3005.796238,-10140.821405,-1110.308913,-1225.752797
3005.796575,-9326.594869,-1036.288319,-995.924147
3005.796913,-7994.224174,518.144159,919.314598
3005.797250,-8438.347739,1480.411884,1302.362347
3005.797587,-9770.718434,1702.473667,-459.657299
3005.797925,-10362.883188,0.000000,-536.266849
3005.798262,-10584.944971,-444.123565,229.828649
3005.798599,-10510.924376,-222.061783,766.095498
3005.798937,-8956.491898,-296.082377,1378.971896
3005.799274,-8808.450710,518.144159,1838.629195
3005.799611,-9844.739029,518.144159,1302.362347
3005.799949,-10362.883188,1850.514855,0.000000
3005.800286,-11029.068536,888.247130,-1302.362347
3005.800624,-11103.089130,148.041188,-766.095498
3005.800961,-11325.150913,74.020594,0.000000
3005.801298,-10807.006753,1036.288319,229.828649
3005.801636,-9548.656652,814.226536,-612.876398
3005.801973,-10066.800811,-740.205942,-1915.238745
3005.802310,-10362.883188,-2072.576638,-2145.067394
3005.802648,-10362.883188,-2220.617826,-689.485948
3005.802985,-10362.883188,-2368.659014,0.000000
3005.803322,-10214.842000,-1628.453072,0.000000
3005.803660,-10807.006753,-1628.453072,536.266849
3005.803997,-10288.862594,-814.226536,-459.657299
3005.804334,-10288.862594,-1628.453072,-306.438199
3005.804672,-9622.677246,-1628.453072,1072.533697
3005.805009,-9104.533087,-1776.494261,1991.848295
3005.805346,-10214.842000,-962.267725,1991.848295
3005.805684,-10288.862594,0.000000,1762.019645
3005.806021,-9992.780217,0.000000,1991.848295
3005.806358,-10584.944971,-1036.288319,2528.115143
3005.806696,-9326.594869,1258.350101,2145.067394
3005.807033,-9474.636058,1332.370696,2757.943793
3005.807370,-10288.862594,2146.597232,1838.629195
3005.807708,-9696.697840,1628.453072,-383.047749
3005.808045,-10214.842000,1702.473667,0.000000
3005.808382,-9622.677246,1036.288319,383.047749
3005.808720,-9104.533087,1702.473667,0.000000
3005.809057,-9622.677246,1702.473667,459.657299
3005.809394,-9696.697840,2146.597232,229.828649
3005.809732,-11399.171507,888.247130,-536.266849
3005.810069,-10807.006753,-296.082377,-689.485948
3005.810406,-9400.615463,-1480.411884,-995.924147
3005.810744,-9178.553681,-1850.514855,1225.752797
3005.811081,-7772.162391,-1924.535449,1072.533697
3005.811418,-8586.388927,-814.226536,76.609550
3005.811756,-10214.842000,-370.102971,306.438199
3005.812093,-11843.295072,-1258.350101,0.000000
3005.812430,-11843.295072,-370.102971,0.000000
3005.812768,-10732.986159,-592.164754,0.000000
3005.813105,-10362.883188,0.000000,1149.143247
3005.813442,-9474.636058,-1332.370696,689.485948
3005.813780,-10584.944971,-962.267725,306.438199
3005.814117,-9770.718434,-888.247130,153.219100
3005.814455,-10066.800811,-1036.288319,-383.047749
3005.814792,-10140.821405,-370.102971,306.438199
3005.815129,-9918.759623,-370.102971,-459.657299
3005.815467,-11103.089130,-74.020594,0.000000
3005.815804,-10140.821405,-222.061783,-766.095498
3005.816141,-9474.636058,-814.226536,-612.876398
3005.816479,-10066.800811,-666.185348,-536.266849
3005.816816,-9400.615463,-962.267725,-383.047749
3005.817153,-10510.924376,-1554.432478,0.000000
3005.817491,-10510.924376,-962.267725,-612.876398
3005.817828,-9844.739029,-444.123565,-919.314598
3005.818165,-9622.677246,-370.102971,-612.876398
3005.818503,-9104.533087,-444.123565,-383.047749
3005.818840,-9548.656652,-592.164754,-153.219100
3005.819177,-9770.718434,-1332.370696,612.876398
3005.819515,-8956.491898,-666.185348,3524.039291
3005.819852,-11029.068536,592.164754,4290.134789
3005.820189,-11325.150913,814.226536,2911.162892
3005.820527,-10066.800811,1036.288319,1762.019645
3005.820864,-10066.800811,666.185348,1225.752797
3005.821201,-9474.636058,1406.391290,766.095498
3005.821539,-9326.594869,1998.556043,76.609550
3005.821876,-9844.739029,1258.350101,0.000000
3005.822213,-9622.677246,148.041188,-2298.286494
3005.822551,-9400.615463,962.267725,-2451.505594
3005.822888,-9474.636058,-222.061783,-766.095498
3005.823225,-9622.677246,-1702.473667,0.000000
3005.823563,-9400.615463,-1628.453072,0.000000
3005.823900,-10214.842000,-592.164754,306.438199
3005.824237,-10288.862594,-1406.391290,689.485948
3005.824575,-10214.842000,-1332.370696,459.657299
3005.824912,-9992.780217,-1406.391290,-689.485948
3005.825249,-10362.883188,-2072.576638,-459.657299
3005.825587,-10436.903782,-1554.432478,0.000000
3005.825924,-9844.739029,-814.226536,-459.657299
3005.826261,-9770.718434,-1332.370696,-306.438199
3005.826599,-10288.862594,-592.164754,459.657299
3005.826936,-11103.089130,-888.247130,1762.019645
3005.827273,-10807.006753,296.082377,1838.629195
3005.827611,-11029.068536,0.000000,2451.505594
3005.827948,-11251.130318,592.164754,3524.039291
3005.828285,-10658.965565,592.164754,1991.848295
3005.828623,-10362.883188,1110.308913,1072.533697
3005.828960,-9622.677246,962.267725,995.924147
3005.829298,-9252.574275,1406.391290,689.485948
3005.829635,-9696.697840,1406.391290,-76.609550
3005.829972,-9992.780217,1110.308913,-612.876398
3005.830310,-10066.800811,1776.494261,-1838.629195
3005.830647,-9178.553681,814.226536,-2145.067394
3005.830984,-8364.327145,962.267725,-2451.505594
3005.831322,-8364.327145,-518.144159,-459.657299
3005.831659,-9844.739029,-1702.473667,1455.581446
3005.831996,-9474.636058,-666.185348,1915.238745
3005.832334,-9918.759623,0.000000,1762.019645
3005.832671,-10214.842000,444.123565,3140.991542
3005.833008,-10436.903782,0.000000,1838.629195
3005.833346,-11029.068536,148.041188,1149.143247
3005.833683,-10584.944971,-444.123565,1149.143247
3005.834020,-9326.594869,-370.102971,-153.219100
3005.834358,-10066.800811,-370.102971,-612.876398
3005.834695,-10288.862594,-888.247130,-536.266849
3005.835032,-9474.636058,-814.226536,-766.095498
3005.835370,-9030.512492,814.226536,76.609550
3005.835707,-9770.718434,1628.453072,0.000000
3005.836044,-11399.171507,222.061783,-1149.143247
3005.836382,-11991.336260,-888.247130,-1225.752797
3005.836719,-10140.821405,-1184.329507,-459.657299
3005.837056,-9918.759623,-1998.556043,536.266849
3005.837394,-9696.697840,-1480.411884,919.314598
3005.837731,-9992.780217,-888.247130,-306.438199
3005.838068,-10436.903782,-1702.473667,-1915.238745
3005.838406,-10214.842000,-2294.638420,-2757.943793
3005.838743,-9696.697840,-2516.700203,-1225.752797
3005.839080,-9770.718434,-1850.514855,0.000000
3005.839418,-9548.656652,-1702.473667,0.000000
3005.839755,-9548.656652,-370.102971,-306.438199
3005.840092,-9548.656652,-1036.288319,-76.609550
3005.840430,-10881.027347,-814.226536,1072.533697
3005.840767,-9992.780217,-1554.432478,919.314598
3005.841104,-9474.636058,-1036.288319,2528.115143
3005.841442,-10955.047942,1554.432478,4290.134789
3005.841779,-10214.842000,1776.494261,2528.115143
3005.842116,-11547.212695,1998.556043,1608.800546
3005.842454,-11251.130318,666.185348,229.828649
3005.842791,-9622.677246,444.123565,306.438199
3005.843129,-8068.244768,2368.659014,612.876398
3005.843466,-8438.347739,1998.556043,842.705048
3005.843803,-9770.718434,1702.473667,76.609550
3005.844141,-10955.047942,962.267725,-1149.143247
3005.844478,-10807.006753,1110.308913,-1225.752797
3005.844815,-8586.388927,74.020594,-612.876398
3005.845153,-9252.574275,74.020594,1608.800546
3005.845490,-9326.594869,-296.082377,766.095498
3005.845827,-10140.821405,-814.226536,-383.047749
3005.846165,-10807.006753,-1628.453072,-995.924147
3005.846502,-9918.759623,-1628.453072,-76.609550
3005.846839,-8808.450710,-1998.556043,229.828649
3005.847177,-9400.615463,-1184.329507,766.095498
3005.847514,-9326.594869,-1258.350101,842.705048
3005.847851,-10066.800811,-222.061783,0.000000
3005.848189,-11547.212695,-1406.391290,383.047749
3005.848526,-10955.047942,-1998.556043,153.219100
3005.848863,-9104.533087,-1702.473667,842.705048
3005.849201,-8808.450710,-74.020594,1762.019645
3005.849538,-9548.656652,-444.123565,1378.971896
3005.849875,-11029.068536,-518.144159,0.000000
3005.850213,-10732.986159,-592.164754,-919.314598
3005.850550,-11103.089130,-1036.288319,-76.609550
3005.850887,-9844.739029,-592.164754,383.047749
3005.851225,-10066.800811,0.000000,995.924147
3005.851562,-10955.047942,1554.432478,0.000000
3005.851899,-11251.130318,-296.082377,-1915.238745
3005.852237,-11473.192101,-888.247130,-2451.505594
3005.852574,-8660.409521,-1258.350101,-2374.896044
3005.852911,-8660.409521,-1036.288319,766.095498
3005.853249,-10066.800811,1480.411884,1762.019645
3005.853586,-11621.233289,592.164754,-306.438199
3005.853923,-11695.253884,518.144159,-1838.629195
3005.854261,-10140.821405,-592.164754,-306.438199
3005.854598,-9178.553681,-666.185348,2145.067394
3005.854935,-7698.141797,518.144159,2757.943793
3005.855273,-7624.121203,1332.370696,2604.724693
3005.855610,-10584.944971,1924.535449,1378.971896
3005.855947,-11251.130318,1406.391290,-919.314598
3005.856285,-9770.718434,1406.391290,-612.876398
3005.856622,-8660.409521,148.041188,1072.533697
3005.856959,-8068.244768,1184.329507,1915.238745
3005.857297,-8660.409521,2442.679609,612.876398
3005.857634,-10807.006753,1184.329507,-76.609550
3005.857972,-10807.006753,-370.102971,-1302.362347
3005.858309,-10362.883188,-1332.370696,-1608.800546
3005.858646,-9252.574275,-1184.329507,383.047749
3005.858984,-9252.574275,-962.267725,1072.533697
3005.859321,-10584.944971,-296.082377,766.095498
3005.859658,-11621.233289,222.061783,-2528.115143
3005.859996,-11325.150913,-1036.288319,-3140.991542
3005.860333,-9992.780217,-2368.659014,-1608.800546
3005.860670,-9104.533087,-2664.741391,76.609550
3005.861008,-10066.800811,-2664.741391,2068.457845
3005.861345,-11325.150913,-2368.659014,1991.848295
3005.861682,-11621.233289,-1628.453072,76.609550
3005.862020,-11695.253884,-1924.535449,306.438199
3005.862357,-11103.089130,-2664.741391,1762.019645
3005.862694,-9104.533087,-888.247130,2987.772442
3005.863032,-9844.739029,-222.061783,2911.162892
3005.863369,-10510.924376,740.205942,1302.362347
3005.863706,-10362.883188,-1036.288319,-459.657299
3005.864044,-9696.697840,-444.123565,-383.047749
3005.864381,-9622.677246,-444.123565,0.000000
3005.864718,-9030.512492,-148.041188,689.485948
3005.865056,-8068.244768,1184.329507,459.657299
3005.865393,-8956.491898,370.102971,229.828649
3005.865730,-10732.986159,222.061783,-459.657299
3005.866068,-9844.739029,-592.164754,-1762.019645
3005.866405,-9326.594869,-592.164754,76.609550
3005.866742,-8512.368333,592.164754,1302.362347
3005.867080,-9400.615463,1036.288319,1455.581446
3005.867417,-10436.903782,1110.308913,612.876398
3005.867754,-11029.068536,296.082377,-1608.800546
3005.868092,-10362.883188,666.185348,612.876398
3005.868429,-9400.615463,518.144159,919.314598
3005.868766,-8290.306550,962.267725,2145.067394
3005.869104,-10881.027347,1480.411884,2145.067394
3005.869441,-12361.439231,1406.391290,0.000000
3005.869778,-12805.562797,1036.288319,-689.485948
3005.870116,-11325.150913,-592.164754,-229.828649
3005.870453,-8290.306550,-148.041188,1378.971896
3005.870790,-7328.038826,518.144159,1915.238745
3005.871128,-9474.636058,666.185348,1915.238745
3005.871465,-11621.233289,222.061783,-383.047749
3005.871803,-11769.274478,-888.247130,-1532.190996
3005.872140,-9992.780217,-2220.617826,-1378.971896
3005.872477,-8290.306550,-1776.494261,-689.485948
3005.872815,-8142.265362,-222.061783,-995.924147
3005.873152,-8586.388927,-740.205942,-2221.676944
3005.873489,-10066.800811,-3182.885551,-2834.553343
3005.873827,-10362.883188,-3701.029710,-1915.238745
3005.874164,-9474.636058,-3108.864956,229.828649
3005.874501,-9326.594869,-2442.679609,1762.019645
3005.874839,-10288.862594,-2368.659014,2451.505594
3005.875176,-11843.295072,-1998.556043,1378.971896
3005.875513,-11325.150913,-2294.638420,0.000000
3005.875851,-10436.903782,-1554.432478,383.047749
3005.876188,-9918.759623,-1554.432478,2068.457845
3005.876525,-9844.739029,0.000000,1762.019645
3005.876863,-9844.739029,592.164754,1302.362347
3005.877200,-11621.233289,1628.453072,1225.752797
3005.877537,-11547.212695,1554.432478,-1149.143247
3005.877875,-11325.150913,962.267725,-995.924147
3005.878212,-9992.780217,1554.432478,229.828649
3005.878549,-8290.306550,1554.432478,229.828649
3005.878887,-9770.718434,1776.494261,1991.848295
3005.879224,-10584.944971,1332.370696,536.266849
3005.879561,-9474.636058,0.000000,-536.266849
3005.879899,-10362.883188,-222.061783,536.266849
3005.880236,-9474.636058,-222.061783,1149.143247
3005.880573,-7624.121203,666.185348,842.705048
3005.880911,-9326.594869,1036.288319,612.876398
3005.881248,-10362.883188,888.247130,-1149.143247
3005.881585,-10658.965565,444.123565,-2757.943793
3005.881923,-9770.718434,-740.205942,-2604.724693
3005.882260,-7920.203579,-1110.308913,0.000000
3005.882597,-7698.141797,0.000000,1225.752797
3005.882935,-10066.800811,-740.205942,1991.848295
3005.883272,-11769.274478,-814.226536,153.219100
3005.883609,-11029.068536,-740.205942,842.705048
3005.883947,-9548.656652,-148.041188,1838.629195
3005.884284,-9844.739029,-296.082377,2834.553343
3005.884621,-11251.130318,222.061783,2757.943793
3005.884959,-12139.377449,0.000000,153.219100
3005.885296,-11029.068536,0.000000,-2145.067394
3005.885633,-9622.677246,-814.226536,-2221.676944
3005.885971,-9474.636058,-1184.329507,0.000000
3005.886308,-8882.471304,-2072.576638,536.266849
3005.886646,-8734.430116,-814.226536,76.609550
3005.886983,-11843.295072,-666.185348,459.657299
3005.887320,-12065.356855,-1554.432478,-536.266849
3005.887658,-11029.068536,-2590.720797,-1762.019645
3005.887995,-10584.944971,-2368.659014,459.657299
3005.888332,-8290.306550,-2072.576638,689.485948
3005.888670,-7994.224174,-1110.308913,1149.143247
3005.889007,-10140.821405,-2072.576638,1072.533697
3005.889344,-10881.027347,-1480.411884,-153.219100
3005.889682,-11325.150913,-1924.535449,306.438199
3005.890019,-10214.842000,-814.226536,1762.019645
3005.890356,-9474.636058,0.000000,1838.629195
3005.890693,-9992.780217,1406.391290,2145.067394
3005.891030,-9474.636058,1776.494261,1149.143247
3005.891368,-9548.656652,444.123565,306.438199
3005.891705,-9918.759623,1406.391290,842.705048
3005.892043,-9696.697840,1184.329507,689.485948
3005.892380,-10436.903782,2294.638420,842.705048
3005.892717,-10732.986159,2368.659014,-459.657299
3005.893055,-10807.006753,1776.494261,-1532.190996
3005.893392,-9992.780217,1332.370696,-1685.410096
3005.893729,-9252.574275,-222.061783,-995.924147
3005.894067,-8364.327145,444.123565,-612.876398
3005.894404,-9178.553681,-592.164754,-536.266849
3005.894741,-10362.883188,148.041188,-536.266849
3005.895079,-10510.924376,-1036.288319,-1532.190996
3005.895416,-10658.965565,-1184.329507,-306.438199
3005.895753,-9252.574275,-518.144159,-612.876398
3005.896091,-9622.677246,-592.164754,612.876398
3005.896428,-10362.883188,-666.185348,536.266849
3005.896766,-10066.800811,-888.247130,-536.266849
3005.897103,-10732.986159,-1480.411884,-459.657299
3005.897440,-10288.862594,-1258.350101,76.609550
3005.897778,-9918.759623,-1924.535449,1302.362347
3005.898115,-9474.636058,-1036.288319,1991.848295
3005.898452,-9104.533087,-888.247130,1302.362347
3005.898790,-10288.862594,0.000000,1915.238745
3005.899127,-11399.171507,-296.082377,1608.800546
3005.899464,-11325.150913,-962.267725,842.705048
3005.899802,-10510.924376,-370.102971,1302.362347
3005.900139,-9474.636058,-296.082377,919.314598
3005.900476,-9844.739029,148.041188,1149.143247
3005.900814,-11103.089130,-518.144159,229.828649
3005.901151,-10362.883188,0.000000,-1149.143247
3005.901489,-10732.986159,-296.082377,-1149.143247
3005.901826,-10658.965565,-444.123565,-1149.143247
3005.902163,-8660.409521,-666.185348,-995.924147
3005.902501,-9474.636058,-814.226536,-153.219100
3005.902838,-8956.491898,-888.247130,-229.828649
3005.903175,-9252.574275,-1184.329507,995.924147
3005.903513,-10214.842000,-444.123565,1532.190996
3005.903850,-10658.965565,0.000000,2068.457845
3005.904187,-11177.109724,518.144159,1838.629195
3005.904525,-11399.171507,666.185348,995.924147
3005.904862,-10658.965565,370.102971,766.095498
3005.905199,-9104.533087,-296.082377,689.485948
3005.905537,-8216.285956,148.041188,919.314598
3005.905874,-8512.368333,222.061783,229.828649
3005.906212,-9400.615463,296.082377,-612.876398
3005.906549,-9622.677246,1628.453072,-689.485948
3005.906886,-10732.986159,888.247130,-766.095498
3005.907224,-10732.986159,1110.308913,-229.828649
3005.907561,-10214.842000,444.123565,-306.438199
3005.907898,-9770.718434,-518.144159,76.609550
3005.908236,-9030.512492,-592.164754,383.047749
3005.908573,-9992.780217,0.000000,0.000000
3005.908910,-11325.150913,-1184.329507,-459.657299
3005.909248,-10066.800811,-1258.350101,-1915.238745
3005.909585,-10214.842000,-1554.432478,-1532.190996
3005.909922,-9770.718434,-1184.329507,-842.705048
3005.910260,-9622.677246,-1554.432478,0.000000
3005.910597,-9844.739029,-1480.411884,0.000000
3005.910935,-10140.821405,-1628.453072,229.828649
3005.911272,-10732.986159,-1480.411884,2451.505594
3005.911609,-11547.212695,-740.205942,3064.381992
3005.911947,-10807.006753,-666.185348,1991.848295
3005.912284,-9622.677246,-1258.350101,1838.629195
3005.912621,-9474.636058,-1258.350101,2374.896044
3005.912959,-8956.491898,-370.102971,1225.752797
3005.913296,-8808.450710,0.000000,919.314598
3005.913633,-9474.636058,-444.123565,689.485948
3005.913971,-9992.780217,370.102971,-995.924147
3005.914308,-10510.924376,1036.288319,-1838.629195
3005.914645,-8660.409521,518.144159,-1608.800546
3005.914983,-8068.244768,222.061783,-766.095498
3005.915320,-9474.636058,592.164754,-76.609550
3005.915658,-10288.862594,740.205942,-229.828649
3005.915995,-11103.089130,-74.020594,229.828649
3005.916332,-11695.253884,-1406.391290,995.924147
3005.916670,-11621.233289,0.000000,919.314598
3005.917007,-10807.006753,-888.247130,919.314598
3005.917344,-10362.883188,-962.267725,229.828649
3005.917682,-8586.388927,0.000000,-229.828649
3005.918019,-9622.677246,-518.144159,0.000000
3005.918356,-10732.986159,-296.082377,76.609550
3005.918694,-10510.924376,-296.082377,-383.047749
3005.919031,-11251.130318,518.144159,0.000000
3005.919368,-10807.006753,1184.329507,-689.485948
3005.919706,-10362.883188,1184.329507,-306.438199
3005.920043,-9844.739029,888.247130,383.047749
3005.920381,-9030.512492,222.061783,0.000000
3005.920718,-9326.594869,-1184.329507,612.876398
3005.921055,-9548.656652,74.020594,689.485948
3005.921393,-9918.759623,-962.267725,459.657299
3005.921730,-11325.150913,-1480.411884,0.000000
3005.922067,-9548.656652,-814.226536,-76.609550
3005.922405,-8142.265362,-296.082377,229.828649
3005.922742,-9030.512492,-222.061783,995.924147
3005.923079,-10066.800811,148.041188,-689.485948
3005.923417,-10881.027347,-1036.288319,-689.485948
3005.923754,-10510.924376,-1924.535449,-1072.533697
3005.924091,-8512.368333,-740.205942,229.828649
3005.924429,-10214.842000,-370.102971,2068.457845
3005.924766,-10881.027347,-296.082377,1532.190996
3005.925104,-9992.780217,74.020594,1225.752797
3005.925441,-10881.027347,888.247130,2145.067394
3005.925778,-10658.965565,0.000000,2298.286494
3005.926116,-10436.903782,74.020594,2374.896044
3005.926453,-10658.965565,814.226536,2528.115143
3005.926790,-10436.903782,592.164754,1991.848295
3005.927128,-9474.636058,1258.350101,1225.752797
3005.927465,-9770.718434,666.185348,842.705048
3005.927802,-9770.718434,740.205942,229.828649
3005.928140,-9918.759623,74.020594,-229.828649
3005.928477,-10066.800811,444.123565,-153.219100
3005.928814,-9548.656652,148.041188,-306.438199
3005.929152,-9992.780217,0.000000,-1302.362347
3005.929489,-8808.450710,-444.123565,-2298.286494
3005.929826,-8956.491898,-1184.329507,-1302.362347
3005.930164,-9696.697840,-1776.494261,-459.657299
3005.930501,-9622.677246,-1702.473667,0.000000
3005.930839,-10732.986159,-518.144159,383.047749
3005.931176,-10732.986159,-962.267725,-919.314598
3005.931513,-10510.924376,-888.247130,-612.876398
3005.931851,-10362.883188,-1110.308913,0.000000
3005.932188,-10140.821405,-1332.370696,612.876398
3005.932525,-10214.842000,-1406.391290,1378.971896
3005.932863,-11325.150913,-296.082377,383.047749
3005.933200,-11621.233289,0.000000,536.266849
3005.933537,-11621.233289,-370.102971,0.000000
3005.933875,-10436.903782,518.144159,1149.143247
3005.934212,-9696.697840,740.205942,1838.629195
3005.934549,-10436.903782,666.185348,1225.752797
3005.934887,-10362.883188,888.247130,689.485948
3005.935224,-11251.130318,1184.329507,-459.657299
3005.935562,-10214.842000,592.164754,-1455.581446
3005.935899,-9326.594869,-444.123565,-766.095498
3005.936236,-9770.718434,592.164754,689.485948
3005.936574,-8882.471304,370.102971,-612.876398
3005.936911,-8586.388927,74.020594,-1608.800546
3005.937248,-9844.739029,-370.102971,-1149.143247
3005.937586,-9474.636058,-1036.288319,-536.266849
3005.937923,-9400.615463,-1406.391290,0.000000
3005.938260,-9252.574275,-1036.288319,1149.143247
3005.938598,-8512.368333,592.164754,459.657299
3005.938935,-9474.636058,296.082377,229.828649
3005.939272,-10955.047942,-666.185348,459.657299
3005.939610,-9622.677246,-444.123565,536.266849
3005.939947,-10362.883188,-740.205942,1685.410096
3005.940285,-9992.780217,74.020594,1608.800546
3005.940622,-9252.574275,444.123565,766.095498
3005.940959,-10658.965565,74.020594,1225.752797
3005.941297,-10807.006753,-962.267725,459.657299
3005.941634,-10288.862594,-962.267725,1302.362347
3005.941971,-10362.883188,0.000000,2145.067394
3005.942309,-10140.821405,592.164754,1532.190996
3005.942646,-10955.047942,888.247130,-383.047749
3005.942983,-11621.233289,0.000000,-1685.410096
3005.943321,-10807.006753,-1110.308913,-1915.238745
3005.943658,-9030.512492,-1998.556043,-1302.362347
3005.943995,-8512.368333,-1110.308913,-536.266849
3005.944333,-8734.430116,-370.102971,-919.314598
3005.944670,-10510.924376,-1258.350101,-1149.143247
3005.945008,-12139.377449,-2072.576638,-1302.362347
3005.945345,-11399.171507,-2368.659014,-76.609550
3005.945682,-8660.409521,-1924.535449,1838.629195
3005.946020,-8438.347739,-1702.473667,3064.381992
3005.946357,-9696.697840,-1776.494261,3677.258390
3005.946694,-10288.862594,-296.082377,1455.581446
3005.947032,-11695.253884,-592.164754,842.705048
3005.947369,-10658.965565,-592.164754,1455.581446
3005.947706,-9474.636058,370.102971,842.705048
3005.948044,-8734.430116,1332.370696,2374.896044
3005.948381,-9030.512492,2146.597232,1072.533697
3005.948718,-10288.862594,1924.535449,0.000000
3005.949056,-11177.109724,1406.391290,-766.095498
3005.949393,-10066.800811,148.041188,-995.924147
3005.949731,-9326.594869,666.185348,1149.143247
3005.950068,-9178.553681,1184.329507,1915.238745
3005.950405,-9844.739029,1702.473667,459.657299
3005.950743,-10510.924376,814.226536,-766.095498
3005.951080,-10362.883188,-370.102971,-1762.019645
3005.951417,-8438.347739,-518.144159,-1915.238745
3005.951755,-8882.471304,-1184.329507,0.000000
3005.952092,-9474.636058,-444.123565,76.609550
3005.952429,-10584.944971,-1258.350101,-1455.581446
3005.952767,-11177.109724,-1628.453072,-1225.752797
3005.953104,-10436.903782,-1850.514855,-995.924147
3005.953441,-8290.306550,-2664.741391,1225.752797
3005.953779,-8808.450710,-1406.391290,2145.067394
3005.954116,-9326.594869,-444.123565,1991.848295
3005.954454,-11991.336260,-148.041188,1608.800546
3005.954791,-12509.480420,-444.123565,459.657299
3005.955128,-11473.192101,-148.041188,-689.485948
3005.955466,-9770.718434,-74.020594,536.266849
3005.955803,-9548.656652,370.102971,919.314598
3005.956140,-9252.574275,148.041188,536.266849
3005.956478,-10584.944971,1258.350101,-689.485948
3005.956815,-10066.800811,0.000000,-2145.067394
3005.957152,-11177.109724,0.000000,-2757.943793
3005.957490,-9622.677246,-814.226536,-1532.190996
3005.957827,-8882.471304,0.000000,229.828649
3005.958164,-9474.636058,592.164754,1455.581446
3005.958502,-10955.047942,0.000000,-153.219100
3005.958839,-10881.027347,-444.123565,0.000000
3005.959177,-10881.027347,-888.247130,612.876398
3005.959514,-9474.636058,0.000000,2374.896044
3005.959851,-10214.842000,888.247130,3294.210641
3005.960189,-10510.924376,222.061783,1762.019645
3005.960526,-10362.883188,-518.144159,383.047749
3005.960863,-9770.718434,222.061783,383.047749
3005.961201,-8808.450710,518.144159,1149.143247
3005.961538,-9178.553681,1998.556043,2374.896044
3005.961875,-9992.780217,2368.659014,1072.533697
3005.962213,-10584.944971,3404.947333,-229.828649
3005.962550,-10955.047942,2072.576638,-153.219100
3005.962887,-9548.656652,222.061783,0.000000
3005.963225,-8512.368333,296.082377,995.924147
3005.963562,-9474.636058,-222.061783,2757.943793
3005.963900,-9548.656652,814.226536,1762.019645
3005.964237,-10288.862594,296.082377,689.485948
3005.964574,-11769.274478,296.082377,153.219100
3005.964912,-10436.903782,-962.267725,-995.924147
3005.965249,-9400.615463,-1036.288319,-1302.362347
3005.965586,-8956.491898,-518.144159,-995.924147
3005.965924,-9622.677246,-740.205942,-919.314598
3005.966261,-10881.027347,-1480.411884,-1685.410096
3005.966598,-10732.986159,-2146.597232,-2221.676944
3005.966936,-9992.780217,-2960.823768,-536.266849
3005.967273,-9474.636058,-2516.700203,1838.629195
3005.967610,-9770.718434,-1554.432478,2374.896044
3005.967948,-10362.883188,-1406.391290,1685.410096
3005.968285,-11769.274478,-1110.308913,0.000000
3005.968623,-11399.171507,-1554.432478,-383.047749
3005.968960,-11177.109724,-1850.514855,842.705048
3005.969297,-8808.450710,-592.164754,1608.800546
3005.969635,-8882.471304,-666.185348,1072.533697
3005.969972,-10658.965565,0.000000,306.438199
3005.970309,-10066.800811,0.000000,-1378.971896
3005.970647,-10584.944971,-1110.308913,-383.047749
3005.970984,-9844.739029,-740.205942,306.438199
3005.971321,-8956.491898,74.020594,-383.047749
3005.971659,-9992.780217,1110.308913,76.609550
3005.971996,-10510.924376,0.000000,-1532.190996
3005.972333,-9696.697840,-1110.308913,-2145.067394
3005.972671,-9770.718434,-1332.370696,-459.657299
3005.973008,-9474.636058,-962.267725,766.095498
3005.973346,-8882.471304,814.226536,1608.800546
3005.973683,-9696.697840,222.061783,919.314598
3005.974020,-10807.006753,888.247130,-229.828649
3005.974358,-11621.233289,0.000000,-612.876398
3005.974695,-10658.965565,-222.061783,383.047749
3005.975032,-8808.450710,-592.164754,1532.190996
3005.975370,-8882.471304,888.247130,2681.334243
3005.975707,-9622.677246,2146.597232,2374.896044
3005.976044,-11029.068536,1036.288319,306.438199
3005.976382,-11177.109724,296.082377,-612.876398
3005.976719,-10066.800811,888.247130,0.000000
3005.977056,-9918.759623,444.123565,1149.143247
3005.977394,-8438.347739,814.226536,536.266849
3005.977731,-9770.718434,518.144159,229.828649
3005.978068,-9844.739029,0.000000,-766.095498
3005.978406,-10214.842000,-370.102971,-1838.629195
3005.978743,-10510.924376,-962.267725,-306.438199
3005.979081,-9326.594869,-1184.329507,0.000000
3005.979418,-9474.636058,-1110.308913,0.000000
3005.979755,-10362.883188,-1110.308913,-766.095498
3005.980093,-9474.636058,-2146.597232,-1455.581446
3005.980430,-10214.842000,-1998.556043,-536.266849
3005.980767,-9992.780217,-2294.638420,459.657299
3005.981105,-9326.594869,-888.247130,1149.143247
3005.981442,-10066.800811,-1184.329507,1685.410096
3005.981779,-11325.150913,-592.164754,612.876398
3005.982117,-10436.903782,-666.185348,229.828649
3005.982454,-10288.862594,-1110.308913,1532.190996
3005.982791,-9104.533087,962.267725,2834.553343
3005.983129,-9030.512492,1332.370696,2451.505594
3005.983466,-11547.212695,962.267725,3140.991542
3005.983804,-11621.233289,370.102971,1225.752797
3005.984141,-10881.027347,1184.329507,459.657299
3005.984478,-10140.821405,962.267725,0.000000
3005.984816,-8586.388927,1184.329507,612.876398
3005.985153,-7772.162391,962.267725,76.609550
3005.985490,-8956.491898,1406.391290,-229.828649
3005.985828,-9844.739029,222.061783,-1532.190996
3005.986165,-11177.109724,592.164754,-1455.581446
3005.986502,-10510.924376,74.020594,-842.705048
3005.986840,-8808.450710,370.102971,-766.095498
3005.987177,-8734.430116,74.020594,919.314598
3005.987514,-10658.965565,370.102971,1072.533697
3005.987852,-10658.965565,-740.205942,-842.705048
3005.988189,-9548.656652,-1258.350101,-1225.752797
3005.988527,-9770.718434,-1406.391290,1149.143247
3005.988864,-10140.821405,-814.226536,1762.019645
3005.989201,-9918.759623,-444.123565,536.266849
3005.989539,-10658.965565,-1332.370696,536.266849
3005.989876,-9622.677246,296.082377,-1072.533697
3005.990213,-8808.450710,0.000000,-919.314598
3005.990551,-10214.842000,-222.061783,1455.581446
3005.990888,-10066.800811,-1036.288319,536.266849
3005.991225,-10732.986159,0.000000,459.657299
3005.991563,-11103.089130,74.020594,459.657299
3005.991900,-10732.986159,-1406.391290,229.828649
3005.992238,-10510.924376,-1554.432478,995.924147
3005.992575,-9992.780217,-2368.659014,-383.047749
3005.992912,-9030.512492,-1110.308913,-536.266849
3005.993250,-10066.800811,-1258.350101,-766.095498
3005.993587,-9918.759623,-1628.453072,-1149.143247
3005.993924,-9622.677246,-1702.473667,-3600.648841
3005.994262,-9400.615463,-2294.638420,-1762.019645
3005.994599,-8882.471304,-1628.453072,919.314598
3005.994936,-8808.450710,-1702.473667,1532.190996
3005.995274,-10584.944971,-962.267725,2145.067394
3005.995611,-12879.583391,-1554.432478,919.314598
3005.995949,-11547.212695,-814.226536,76.609550
3005.996286,-9918.759623,-1332.370696,1455.581446
3005.996623,-9474.636058,592.164754,3600.648841
3005.996961,-9548.656652,1332.370696,3294.210641
3005.997298,-10584.944971,2368.659014,1149.143247
3005.997635,-11029.068536,1480.411884,-766.095498
3005.997973,-10955.047942,1258.350101,306.438199
3005.998310,-9622.677246,1406.391290,1378.971896
3005.998648,-9770.718434,2516.700203,1302.362347
3005.998985,-10140.821405,1110.308913,383.047749
3005.999322,-9918.759623,1184.329507,-1149.143247
3005.999660,-9474.636058,962.267725,-1302.362347
3005.999997,-9178.553681,444.123565,-1532.190996
3006.000334,-9548.656652,-666.185348,-1225.752797
3006.000672,-9104.533087,-1480.411884,-383.047749
3006.001009,-9030.512492,0.000000,459.657299
3006.001346,-9844.739029,-962.267725,1685.410096
3006.001684,-10436.903782,-814.226536,1072.533697
3006.002021,-10955.047942,-1480.411884,0.000000
3006.002359,-10066.800811,-888.247130,612.876398
3006.002696,-9326.594869,-1258.350101,383.047749
3006.003033,-10214.842000,-1110.308913,1302.362347
3006.003371,-10510.924376,-814.226536,0.000000
3006.003708,-10362.883188,-1036.288319,-842.705048
3006.004045,-10066.800811,444.123565,76.609550
3006.004383,-9548.656652,0.000000,383.047749
3006.004720,-10140.821405,74.020594,995.924147
3006.005058,-11103.089130,0.000000,306.438199
3006.005395,-10881.027347,666.185348,842.705048
3006.005732,-10658.965565,296.082377,536.266849
3006.006070,-9992.780217,74.020594,919.314598
3006.006407,-10214.842000,0.000000,1685.410096
3006.006744,-10436.903782,888.247130,229.828649
3006.007082,-10214.842000,74.020594,0.000000
3006.007419,-10732.986159,-296.082377,-842.705048
3006.007757,-9548.656652,74.020594,-1302.362347
3006.008094,-9400.615463,-222.061783,-1072.533697
3006.008431,-9400.615463,-962.267725,-1838.629195
3006.008769,-8512.368333,-814.226536,-842.705048
3006.009106,-9326.594869,-814.226536,76.609550
3006.009443,-8956.491898,-518.144159,842.705048
3006.009781,-9770.718434,-592.164754,1685.410096
3006.010118,-11029.068536,-370.102971,2451.505594
3006.010455,-9548.656652,592.164754,766.095498
3006.010793,-9696.697840,222.061783,1225.752797
3006.011130,-10362.883188,296.082377,1685.410096
3006.011468,-10066.800811,-666.185348,306.438199
3006.011805,-10658.965565,518.144159,229.828649
3006.012142,-8586.388927,592.164754,0.000000
3006.012480,-9548.656652,370.102971,-153.219100
3006.012817,-10807.006753,296.082377,153.219100
3006.013154,-10584.944971,-296.082377,-1225.752797
3006.013492,-9992.780217,0.000000,-459.657299
3006.013829,-11029.068536,-814.226536,76.609550
3006.014167,-10510.924376,370.102971,-229.828649
3006.014504,-10362.883188,-888.247130,-1991.848295
3006.014841,-10436.903782,-1998.556043,-1072.533697
3006.015179,-9918.759623,-2294.638420,-153.219100
3006.015516,-9474.636058,-1850.514855,229.828649
3006.015853,-10436.903782,-1628.453072,0.000000
3006.016191,-11177.109724,-1776.494261,-153.219100
3006.016528,-10436.903782,-1554.432478,-1225.752797
3006.016865,-9252.574275,-1998.556043,766.095498
3006.017203,-9844.739029,-666.185348,1608.800546
3006.017540,-9622.677246,-888.247130,2145.067394
3006.017878,-10658.965565,-1480.411884,1762.019645
3006.018215,-9622.677246,-592.164754,766.095498
3006.018552,-9400.615463,370.102971,2451.505594
3006.018890,-9918.759623,740.205942,2987.772442
3006.019227,-10658.965565,888.247130,306.438199
3006.019564,-9548.656652,1480.411884,-306.438199
3006.019902,-9770.718434,1998.556043,0.000000
3006.020239,-9622.677246,1110.308913,0.000000
3006.020577,-9178.553681,962.267725,-383.047749
3006.020914,-9548.656652,518.144159,689.485948
3006.021251,-9548.656652,222.061783,383.047749
3006.021589,-9474.636058,1406.391290,-306.438199
3006.021926,-9474.636058,1110.308913,-536.266849
3006.022263,-9622.677246,-444.123565,-612.876398
3006.022601,-9918.759623,-296.082377,-383.047749
3006.022938,-10140.821405,0.000000,536.266849
3006.023276,-10584.944971,-444.123565,766.095498
3006.023613,-10436.903782,-518.144159,919.314598
3006.023950,-10214.842000,-370.102971,0.000000
3006.024288,-10066.800811,-1480.411884,689.485948
3006.024625,-9696.697840,-1628.453072,1685.410096
3006.024962,-9252.574275,-1628.453072,2068.457845
3006.025300,-10214.842000,-962.267725,2528.115143
3006.025637,-10510.924376,-74.020594,995.924147
3006.025974,-11399.171507,0.000000,306.438199
3006.026312,-11251.130318,-1480.411884,-229.828649
3006.026649,-9400.615463,-1480.411884,306.438199
3006.026987,-10066.800811,-1036.288319,842.705048
3006.027324,-9696.697840,-592.164754,76.609550
3006.027661,-9178.553681,-518.144159,-2298.286494
3006.027999,-11103.089130,-1702.473667,-1149.143247
3006.028336,-9400.615463,-962.267725,-2145.067394
3006.028673,-8290.306550,-1184.329507,-1915.238745
3006.029011,-9770.718434,-1258.350101,0.000000
3006.029348,-9326.594869,-74.020594,0.000000
3006.029686,-10807.006753,-518.144159,-612.876398
3006.030023,-11547.212695,-962.267725,0.000000
3006.030360,-11843.295072,-962.267725,459.657299
3006.030698,-10066.800811,-370.102971,153.219100
3006.031035,-8808.450710,-370.102971,919.314598
3006.031372,-9030.512492,370.102971,2374.896044
3006.031710,-10288.862594,296.082377,766.095498
3006.032047,-11177.109724,592.164754,76.609550
3006.032384,-10584.944971,1258.350101,153.219100
3006.032722,-10214.842000,1850.514855,612.876398
3006.033059,-9474.636058,2812.782580,153.219100
3006.033397,-9474.636058,2664.741391,-1149.143247
3006.033734,-9178.553681,2146.597232,-612.876398
3006.034071,-9474.636058,888.247130,-306.438199
3006.034409,-9770.718434,518.144159,383.047749
3006.034746,-9104.533087,222.061783,919.314598
3006.035083,-9326.594869,518.144159,1608.800546
3006.035421,-10214.842000,592.164754,-153.219100
3006.035758,-10732.986159,-148.041188,-1991.848295
3006.036096,-10140.821405,-2368.659014,-2528.115143
3006.036433,-7920.203579,-2590.720797,-2221.676944
3006.036770,-7105.977043,-3108.864956,766.095498
3006.037108,-9326.594869,-962.267725,842.705048
3006.037445,-10881.027347,-666.185348,306.438199
3006.037782,-12583.501014,-888.247130,-612.876398
3006.038120,-11843.295072,-2368.659014,229.828649
3006.038457,-11325.150913,-1924.535449,2145.067394
3006.038795,-11399.171507,-1036.288319,4596.572988
3006.039132,-10881.027347,-2072.576638,2987.772442
3006.039469,-9992.780217,-1702.473667,2374.896044
3006.039807,-10066.800811,-1480.411884,1685.410096
3006.040144,-10436.903782,-1332.370696,1991.848295
3006.040481,-10732.986159,-1480.411884,2451.505594
3006.040819,-10140.821405,0.000000,1072.533697
3006.041156,-10362.883188,1406.391290,-383.047749
3006.041493,-10732.986159,1258.350101,-1072.533697
3006.041831,-9844.739029,148.041188,-1685.410096
3006.042168,-8512.368333,-1480.411884,-995.924147
3006.042506,-8364.327145,-1554.432478,536.266849
3006.042843,-9252.574275,-1036.288319,1915.238745
3006.043180,-9992.780217,296.082377,919.314598
3006.043518,-10881.027347,-592.164754,536.266849
3006.043855,-11399.171507,-1036.288319,536.266849
3006.044192,-8956.491898,-740.205942,536.266849
3006.044530,-8438.347739,0.000000,1302.362347
3006.044867,-8956.491898,962.267725,1838.629195
3006.045205,-10436.903782,148.041188,-76.609550
3006.045542,-11621.233289,1628.453072,-1302.362347
3006.045879,-10584.944971,2294.638420,-2681.334243
3006.046217,-8882.471304,1554.432478,-1225.752797
3006.046554,-9992.780217,1776.494261,459.657299
3006.046891,-9326.594869,1850.514855,0.000000
3006.047229,-9844.739029,1184.329507,-766.095498
3006.047566,-10510.924376,148.041188,-76.609550
3006.047903,-10288.862594,0.000000,0.000000
3006.048241,-10436.903782,370.102971,306.438199
3006.048578,-10510.924376,0.000000,459.657299
3006.048916,-10436.903782,888.247130,-306.438199
3006.049253,-9770.718434,148.041188,-1302.362347
3006.049590,-9992.780217,-518.144159,-1378.971896
3006.049928,-10807.006753,-1184.329507,-2298.286494
3006.050265,-10214.842000,-2072.576638,-2604.724693
3006.050602,-8660.409521,-2442.679609,-2068.457845
3006.050940,-7402.059420,-2294.638420,-1302.362347
3006.051277,-9326.594869,-1480.411884,-229.828649
3006.051615,-10807.006753,-2294.638420,-459.657299
3006.051952,-10658.965565,-1924.535449,-919.314598
3006.052289,-10214.842000,-2960.823768,2298.286494
3006.052627,-10584.944971,-1480.411884,4213.525239
3006.052964,-9992.780217,-444.123565,3524.039291
3006.053301,-12361.439231,148.041188,3600.648841
3006.053639,-11695.253884,-1110.308913,2298.286494
3006.053976,-10362.883188,-592.164754,1302.362347
3006.054313,-9178.553681,-296.082377,2528.115143
3006.054651,-9770.718434,740.205942,2987.772442
3006.054988,-9548.656652,1480.411884,536.266849
3006.055326,-11547.212695,1850.514855,-1149.143247
3006.055663,-10955.047942,1924.535449,-1455.581446
3006.056000,-9770.718434,592.164754,-1532.190996
3006.056338,-8882.471304,0.000000,689.485948
3006.056675,-7624.121203,296.082377,919.314598
3006.057012,-9326.594869,740.205942,1455.581446
3006.057350,-10584.944971,518.144159,766.095498
3006.057687,-11399.171507,0.000000,-612.876398
3006.058025,-10140.821405,-1110.308913,995.924147
3006.058362,-9622.677246,-592.164754,1685.410096
3006.058699,-9474.636058,0.000000,1072.533697
3006.059037,-9474.636058,74.020594,229.828649
3006.059374,-9770.718434,-888.247130,-689.485948
3006.059711,-9622.677246,-1110.308913,-766.095498
3006.060049,-9252.574275,-666.185348,0.000000
3006.060386,-9696.697840,0.000000,1685.410096
3006.060724,-10140.821405,1184.329507,1455.581446
3006.061061,-10955.047942,1702.473667,76.609550
3006.061398,-11399.171507,444.123565,0.000000
3006.061736,-10955.047942,-814.226536,-459.657299
3006.062073,-9252.574275,-814.226536,1532.190996
3006.062410,-9918.759623,-1110.308913,1838.629195
3006.062748,-10584.944971,-666.185348,1225.752797
3006.063085,-11251.130318,74.020594,-1685.410096
3006.063422,-11251.130318,-592.164754,-2221.676944
3006.063760,-9622.677246,-1332.370696,-2757.943793
3006.064097,-9104.533087,-1184.329507,-1149.143247
3006.064435,-9030.512492,-1258.350101,-766.095498
3006.064772,-8956.491898,-1110.308913,-1302.362347
3006.065109,-10881.027347,-1850.514855,-1455.581446
3006.065447,-11103.089130,-2146.597232,-919.314598
3006.065784,-9992.780217,-2072.576638,0.000000
3006.066121,-8586.388927,-1110.308913,1608.800546
3006.066459,-9474.636058,-444.123565,3677.258390
3006.066796,-11177.109724,148.041188,2221.676944
3006.067134,-11325.150913,592.164754,919.314598
3006.067471,-11399.171507,0.000000,1532.190996
3006.067808,-10584.944971,-74.020594,1455.581446
3006.068146,-8290.306550,518.144159,2528.115143
3006.068483,-7994.224174,1554.432478,1762.019645
3006.068820,-9696.697840,1554.432478,919.314598
3006.069158,-10881.027347,1924.535449,-1302.362347
3006.069495,-10955.047942,888.247130,-2374.896044
3006.069832,-9400.615463,444.123565,-306.438199
3006.070170,-8956.491898,814.226536,612.876398
3006.070507,-9474.636058,666.185348,612.876398
3006.070845,-9992.780217,518.144159,-919.314598
3006.071182,-10214.842000,-370.102971,-2145.067394
3006.071519,-9622.677246,-1406.391290,-1838.629195
3006.071857,-9622.677246,-1924.535449,229.828649
3006.072194,-9696.697840,-1628.453072,1149.143247
3006.072531,-9474.636058,-666.185348,306.438199
3006.072869,-10066.800811,-444.123565,76.609550
3006.073206,-11473.192101,-962.267725,-919.314598
3006.073544,-10584.944971,-2072.576638,0.000000
3006.073881,-9252.574275,-1628.453072,1149.143247
3006.074218,-9548.656652,-1332.370696,1762.019645
3006.074556,-11177.109724,0.000000,1685.410096
3006.074893,-11029.068536,0.000000,-612.876398
3006.075230,-10510.924376,0.000000,-306.438199
3006.075568,-10066.800811,-814.226536,459.657299
3006.075905,-9474.636058,-296.082377,1455.581446
3006.076243,-10140.821405,148.041188,1762.019645
3006.076580,-10510.924376,1110.308913,153.219100
3006.076917,-10807.006753,296.082377,-689.485948
3006.077255,-10658.965565,0.000000,-1762.019645
3006.077592,-9548.656652,-888.247130,-229.828649
3006.077929,-8734.430116,-74.020594,536.266849
3006.078267,-9030.512492,444.123565,536.266849
3006.078604,-9770.718434,0.000000,-919.314598
3006.078941,-10362.883188,-740.205942,-536.266849
3006.079279,-11325.150913,-814.226536,76.609550
3006.079616,-9474.636058,-1036.288319,0.000000
3006.079954,-9400.615463,-740.205942,1915.238745
3006.080291,-9844.739029,296.082377,3370.820191
3006.080628,-10436.903782,0.000000,1838.629195
3006.080966,-10584.944971,148.041188,1608.800546
3006.081303,-10362.883188,-592.164754,995.924147
3006.081640,-9770.718434,444.123565,1149.143247
3006.081978,-9770.718434,666.185348,1762.019645
3006.082315,-10140.821405,1258.350101,1455.581446
3006.082653,-10584.944971,1184.329507,229.828649
3006.082990,-10584.944971,148.041188,-1915.238745
3006.083327,-9844.739029,740.205942,-919.314598
3006.083665,-9474.636058,-814.226536,766.095498
3006.084002,-8290.306550,-296.082377,689.485948
3006.084339,-9400.615463,-592.164754,0.000000
3006.084677,-11325.150913,666.185348,-612.876398
3006.085014,-11029.068536,-518.144159,-3217.601092
3006.085351,-10362.883188,-1776.494261,-2221.676944
3006.085689,-9178.553681,-2442.679609,0.000000
3006.086026,-8660.409521,-2664.741391,919.314598
3006.086364,-10066.800811,-1702.473667,919.314598
3006.086701,-10732.986159,-666.185348,-1915.238745
3006.087038,-11843.295072,-2220.617826,-1991.848295
3006.087376,-10510.924376,-1998.556043,-1072.533697
3006.087713,-8956.491898,-1776.494261,383.047749
3006.088050,-7920.203579,-1332.370696,2834.553343
3006.088388,-9474.636058,-592.164754,2068.457845
3006.088725,-11399.171507,222.061783,1149.143247
3006.089063,-12139.377449,-518.144159,766.095498
3006.089400,-10140.821405,0.000000,1532.190996
3006.089737,-9252.574275,666.185348,2451.505594
3006.090075,-9474.636058,1628.453072,2834.553343
3006.090412,-10955.047942,2072.576638,383.047749
3006.090749,-10881.027347,888.247130,-919.314598
3006.091086,-9548.656652,740.205942,-1762.019645
3006.091424,-9178.553681,962.267725,-766.095498
3006.091761,-9326.594869,666.185348,536.266849
3006.092098,-9474.636058,814.226536,0.000000
3006.092436,-10140.821405,1332.370696,-1455.581446
3006.092773,-10066.800811,814.226536,-1915.238745
3006.093110,-10214.842000,-296.082377,-995.924147
3006.093448,-9474.636058,-222.061783,0.000000
3006.093785,-9474.636058,-1110.308913,459.657299
3006.094122,-10140.821405,74.020594,1149.143247
3006.094460,-10066.800811,-592.164754,383.047749
3006.094797,-10658.965565,-518.144159,1225.752797
3006.095134,-10510.924376,-814.226536,1378.971896
3006.095472,-9696.697840,-1184.329507,612.876398
3006.095809,-9474.636058,444.123565,1302.362347
3006.096146,-10140.821405,0.000000,1302.362347
3006.096484,-10807.006753,0.000000,689.485948
3006.096821,-9844.739029,-370.102971,0.000000
3006.097158,-9918.759623,-148.041188,383.047749
3006.097495,-10066.800811,-518.144159,766.095498
3006.097833,-10732.986159,-592.164754,306.438199
3006.098170,-10807.006753,-370.102971,0.000000
3006.098507,-9770.718434,-518.144159,-1991.848295
3006.098845,-9400.615463,-1184.329507,-1302.362347
3006.099182,-9696.697840,-518.144159,-995.924147
3006.099519,-8882.471304,-962.267725,-536.266849
3006.099857,-10362.883188,-1332.370696,76.609550
3006.100194,-10436.903782,-1332.370696,-459.657299
3006.100531,-10732.986159,-888.247130,0.000000
3006.100869,-11251.130318,-1036.288319,2068.457845
3006.101206,-10732.986159,-1332.370696,1838.629195
3006.101543,-9696.697840,-1332.370696,2298.286494
3006.101881,-9622.677246,-1258.350101,2757.943793
3006.102218,-9622.677246,-222.061783,3217.601092
3006.102555,-10955.047942,0.000000,2221.676944
3006.102893,-10881.027347,888.247130,1072.533697
3006.103230,-9844.739029,1036.288319,-229.828649
3006.103567,-9844.739029,592.164754,383.047749
3006.103904,-8586.388927,1332.370696,0.000000
3006.104242,-7772.162391,1036.288319,-383.047749
3006.104579,-9030.512492,1480.411884,229.828649
3006.104916,-10955.047942,666.185348,76.609550
3006.105254,-10584.944971,1702.473667,-1225.752797
3006.105591,-9770.718434,74.020594,153.219100
3006.105928,-10436.903782,296.082377,612.876398
3006.106266,-9696.697840,-1036.288319,-1378.971896
3006.106603,-9178.553681,-444.123565,-1991.848295
3006.106940,-8956.491898,-1702.473667,-1072.533697
3006.107278,-9474.636058,-1850.514855,-1072.533697
3006.107615,-10066.800811,-444.123565,-2221.676944
3006.107952,-11547.212695,-518.144159,-1685.410096
3006.108290,-10288.862594,0.000000,-459.657299
3006.108627,-10658.965565,-518.144159,-995.924147
3006.108964,-10955.047942,-1184.329507,-536.266849
3006.109302,-9918.759623,-1480.411884,153.219100
3006.109639,-10214.842000,-2072.576638,2145.067394
3006.109976,-10584.944971,-1776.494261,2528.115143
3006.110313,-11029.068536,-962.267725,2145.067394
3006.110651,-11029.068536,-962.267725,2681.334243
3006.110988,-11103.089130,-74.020594,459.657299
3006.111325,-9474.636058,222.061783,-842.705048
3006.111663,-10140.821405,0.000000,-612.876398
3006.112000,-9844.739029,-592.164754,-229.828649
3006.112337,-9030.512492,-370.102971,-459.657299
3006.112675,-9400.615463,148.041188,536.266849
3006.113012,-9844.739029,962.267725,0.000000
3006.113349,-9992.780217,740.205942,-1072.533697
3006.113687,-9918.759623,74.020594,-1072.533697
3006.114024,-9326.594869,-74.020594,-383.047749
3006.114361,-10140.821405,-518.144159,1225.752797
3006.114699,-9844.739029,0.000000,2298.286494
3006.115036,-9696.697840,-148.041188,842.705048
3006.115373,-9326.594869,148.041188,1149.143247
3006.115711,-8808.450710,0.000000,1225.752797
3006.116048,-10140.821405,666.185348,3064.381992
3006.116385,-10436.903782,518.144159,1991.848295
3006.116722,-10362.883188,444.123565,1072.533697
3006.117060,-9622.677246,1776.494261,766.095498
3006.117397,-9474.636058,1110.308913,1302.362347
3006.117734,-10066.800811,1776.494261,1608.800546
3006.118072,-10584.944971,222.061783,536.266849
3006.118409,-11029.068536,814.226536,-306.438199
3006.118746,-10066.800811,1702.473667,-1302.362347
3006.119084,-10066.800811,-148.041188,0.000000
3006.119421,-9696.697840,-592.164754,536.266849
3006.119758,-9548.656652,-888.247130,-383.047749
3006.120096,-9104.533087,-370.102971,-536.266849
3006.120433,-10288.862594,-222.061783,-1072.533697
3006.120770,-11251.130318,-1554.432478,-383.047749
3006.121108,-11473.192101,-2368.659014,-612.876398
3006.121445,-10140.821405,-2220.617826,-383.047749
3006.121782,-8586.388927,-814.226536,153.219100
3006.122120,-9474.636058,-1258.350101,1149.143247
3006.122457,-11325.150913,-1184.329507,2068.457845
3006.122794,-11251.130318,-1406.391290,689.485948
3006.123131,-10510.924376,0.000000,689.485948
3006.123469,-9992.780217,296.082377,2145.067394
3006.123806,-10510.924376,74.020594,1838.629195
3006.124143,-10214.842000,814.226536,2834.553343
3006.124481,-10214.842000,370.102971,2757.943793
3006.124818,-9918.759623,1332.370696,2298.286494
3006.125155,-9770.718434,2442.679609,1915.238745
3006.125493,-10955.047942,2516.700203,1991.848295
3006.125830,-10807.006753,2664.741391,995.924147
3006.126167,-8882.471304,2294.638420,229.828649
3006.126505,-8586.388927,3034.844362,1225.752797
3006.126842,-9030.512492,2590.720797,995.924147
3006.127179,-10288.862594,2368.659014,-919.314598
3006.127517,-9770.718434,740.205942,-689.485948
3006.127854,-8956.491898,-592.164754,1225.752797
3006.128191,-8808.450710,148.041188,2757.943793
3006.128529,-8216.285956,1702.473667,2911.162892
3006.128866,-9400.615463,2738.761985,2528.115143
3006.129203,-11251.130318,1184.329507,1378.971896
3006.129541,-10510.924376,962.267725,2298.286494
3006.129878,-10436.903782,444.123565,2757.943793
3006.130215,-10214.842000,74.020594,4749.792088
3006.130552,-9770.718434,1110.308913,3524.039291
3006.130890,-10362.883188,1110.308913,2834.553343
3006.131227,-10140.821405,1110.308913,2911.162892
3006.131564,-10436.903782,1258.350101,3294.210641
3006.131902,-10658.965565,1258.350101,2681.334243
3006.132239,-10807.006753,1702.473667,1915.238745
3006.132576,-10955.047942,2072.576638,2451.505594
3006.132914,-11103.089130,2220.617826,3294.210641
3006.133251,-10732.986159,2072.576638,2528.115143
3006.133588,-10732.986159,1850.514855,2374.896044
3006.133926,-10955.047942,1480.411884,536.266849
3006.134263,-10510.924376,1110.308913,306.438199
3006.134600,-9844.739029,0.000000,306.438199
3006.134938,-9178.553681,-296.082377,1072.533697
3006.135275,-8660.409521,148.041188,2451.505594
3006.135612,-8882.471304,814.226536,1991.848295
3006.135950,-9326.594869,1924.535449,1608.800546
3006.136287,-9622.677246,1184.329507,1915.238745
3006.136624,-10362.883188,1258.350101,2374.896044
3006.136961,-10955.047942,592.164754,3064.381992
3006.137299,-9400.615463,1110.308913,4136.915689
3006.137636,-9178.553681,3330.926739,4673.182538
3006.137973,-9770.718434,3034.844362,4596.572988
3006.138311,-9474.636058,4071.132681,3524.039291
3006.138648,-9400.615463,3478.967927,2757.943793
3006.138985,-11251.130318,3256.906145,3524.039291
3006.139323,-11325.150913,3923.091493,2145.067394
3006.139660,-10066.800811,3775.050304,1991.848295
3006.139997,-8808.450710,4367.215058,2604.724693
3006.140335,-9844.739029,4071.132681,3447.429741
3006.140672,-10436.903782,4737.318029,2374.896044
3006.141009,-10732.986159,3404.947333,689.485948
3006.141347,-10807.006753,2442.679609,459.657299
3006.141684,-10807.006753,1850.514855,229.828649
3006.142021,-10881.027347,666.185348,612.876398
3006.142359,-8808.450710,0.000000,1455.581446
3006.142696,-7846.182985,-1332.370696,2374.896044
3006.143033,-8142.265362,370.102971,3370.820191
3006.143370,-10214.842000,814.226536,3447.429741
3006.143708,-10510.924376,1776.494261,2451.505594
3006.144045,-11843.295072,1332.370696,2145.067394
3006.144382,-11843.295072,222.061783,1378.971896
3006.144720,-12065.356855,518.144159,1838.629195
3006.145057,-9178.553681,-666.185348,2221.676944
3006.145394,-7698.141797,-1110.308913,3600.648841
3006.145732,-7994.224174,-1554.432478,3217.601092
3006.146069,-9474.636058,-222.061783,3294.210641
3006.146406,-10584.944971,1110.308913,4290.134789
3006.146744,-10510.924376,3478.967927,2757.943793
3006.147081,-11547.212695,3923.091493,2451.505594
3006.147418,-13027.624579,3627.009116,1838.629195
3006.147756,-11769.274478,2886.803174,536.266849
3006.148093,-9992.780217,444.123565,2145.067394
3006.148430,-10436.903782,296.082377,2757.943793
3006.148768,-8882.471304,888.247130,1762.019645
3006.149105,-10066.800811,-148.041188,1608.800546
3006.149442,-8586.388927,518.144159,1608.800546
3006.149779,-7920.203579,592.164754,2221.676944
3006.150117,-10214.842000,3330.926739,3753.867940
3006.150454,-9770.718434,4663.297435,995.924147
3006.150791,-11621.233289,3775.050304,1225.752797
3006.151129,-12287.418637,2812.782580,1762.019645
3006.151466,-10881.027347,2072.576638,3140.991542
3006.151803,-10584.944971,2516.700203,4443.353888
3006.152141,-8364.327145,1184.329507,4213.525239
3006.152478,-8512.368333,1184.329507,2911.162892
3006.152815,-8882.471304,814.226536,3447.429741
3006.153153,-8808.450710,1924.535449,3907.087040
3006.153490,-9178.553681,2960.823768,3217.601092
3006.153827,-8882.471304,4219.173869,1608.800546
3006.154165,-10362.883188,4737.318029,1378.971896
3006.154502,-11917.315666,4737.318029,1532.190996
3006.154839,-11251.130318,3552.988522,0.000000
3006.155177,-10955.047942,1924.535449,536.266849
3006.155514,-10214.842000,-518.144159,1378.971896
3006.155851,-9622.677246,-1332.370696,1378.971896
3006.156188,-8438.347739,-1554.432478,919.314598
3006.156526,-8216.285956,-1628.453072,1608.800546
3006.156863,-8956.491898,-666.185348,2681.334243
3006.157200,-10955.047942,1998.556043,1378.971896
3006.157538,-10732.986159,2960.823768,229.828649
3006.157875,-11251.130318,3256.906145,1302.362347
3006.158212,-13027.624579,2220.617826,3217.601092
3006.158550,-12509.480420,2590.720797,3677.258390
3006.158887,-11177.109724,1480.411884,3524.039291
3006.159224,-9992.780217,0.000000,4136.915689
3006.159562,-8956.491898,-592.164754,4903.011187
3006.159899,-9326.594869,740.205942,5975.544884
3006.160236,-8438.347739,2738.761985,5132.839837
3006.160574,-8586.388927,3997.112087,2987.772442
3006.160911,-11103.089130,4441.235652,2528.115143
3006.161248,-11547.212695,4811.338623,306.438199
3006.161586,-10732.986159,4959.379811,1378.971896
3006.161923,-9178.553681,5625.565159,2451.505594
3006.162260,-9400.615463,3552.988522,1455.581446
3006.162597,-11251.130318,2072.576638,1455.581446
3006.162935,-10066.800811,444.123565,1378.971896
3006.163272,-7328.038826,148.041188,2068.457845
3006.163609,-6957.935855,74.020594,4060.306139
3006.163947,-7772.162391,1776.494261,3677.258390
3006.164284,-10658.965565,2368.659014,1455.581446
3006.164621,-11251.130318,2960.823768,229.828649
3006.164959,-10955.047942,2886.803174,0.000000
3006.165296,-11325.150913,2590.720797,1991.848295
3006.165633,-10288.862594,2664.741391,3217.601092
3006.165971,-10658.965565,2516.700203,3064.381992
3006.166308,-11621.233289,814.226536,2451.505594
3006.166645,-10584.944971,1110.308913,2374.896044
3006.166983,-10362.883188,-740.205942,3677.258390
3006.167320,-8660.409521,74.020594,3370.820191
3006.167657,-9252.574275,0.000000,2374.896044
3006.167995,-10658.965565,666.185348,2451.505594
3006.168332,-10140.821405,2294.638420,1302.362347
3006.168669,-9770.718434,3256.906145,1455.581446
3006.169006,-10436.903782,3330.926739,1302.362347
3006.169344,-10881.027347,2146.597232,1072.533697
3006.169681,-11843.295072,962.267725,1302.362347
3006.170018,-11103.089130,-222.061783,1455.581446
3006.170356,-9178.553681,-1258.350101,1225.752797
3006.170693,-8512.368333,-2146.597232,2987.772442
3006.171030,-8216.285956,-1776.494261,3294.210641
3006.171368,-8438.347739,-148.041188,2757.943793
3006.171705,-10214.842000,1554.432478,2145.067394
3006.172042,-10288.862594,2516.700203,1225.752797
3006.172380,-10881.027347,2960.823768,1838.629195
3006.172717,-11177.109724,3330.926739,2911.162892
3006.173054,-10436.903782,3923.091493,2987.772442
3006.173392,-10881.027347,3849.070898,3907.087040
3006.173729,-11029.068536,2812.782580,3677.258390
3006.174066,-9696.697840,2368.659014,3677.258390
3006.174404,-8808.450710,1924.535449,2987.772442
3006.174741,-8956.491898,2516.700203,2757.943793
3006.175078,-9326.594869,2960.823768,1378.971896
3006.175416,-9474.636058,3256.906145,306.438199
3006.175753,-10288.862594,3775.050304,-689.485948
3006.176090,-9548.656652,3108.864956,-612.876398
3006.176427,-9474.636058,2960.823768,-306.438199
3006.176765,-9474.636058,1998.556043,0.000000
3006.177102,-10066.800811,740.205942,919.314598
3006.177439,-8956.491898,0.000000,536.266849
3006.177777,-8956.491898,-592.164754,1838.629195
3006.178114,-9474.636058,-1924.535449,3217.601092
3006.178451,-9770.718434,-1406.391290,2911.162892
3006.178789,-10658.965565,-1258.350101,2911.162892
3006.179126,-10362.883188,222.061783,2298.286494
3006.179463,-9770.718434,-222.061783,2451.505594
3006.179801,-11251.130318,888.247130,3217.601092
3006.180138,-10584.944971,1406.391290,2757.943793
3006.180475,-11769.274478,1702.473667,2987.772442
3006.180813,-11399.171507,1628.453072,3217.601092
3006.181150,-10584.944971,296.082377,3524.039291
3006.181487,-10214.842000,1554.432478,4979.620737
3006.181825,-10140.821405,1480.411884,5592.497135
3006.182162,-10066.800811,2886.803174,5209.449386
3006.182499,-11251.130318,3330.926739,3983.696590
3006.182836,-11695.253884,3849.070898,3677.258390
3006.183174,-11325.150913,3849.070898,2451.505594
3006.183511,-11177.109724,2590.720797,2145.067394
3006.183848,-9178.553681,1998.556043,2221.676944
3006.184186,-8068.244768,1702.473667,2911.162892
3006.184523,-7920.203579,2368.659014,3677.258390
3006.184860,-8438.347739,3108.864956,3600.648841
3006.185198,-9104.533087,4071.132681,2911.162892
3006.185535,-10214.842000,3997.112087,2681.334243
3006.185872,-10955.047942,4145.153275,2374.896044
3006.186210,-9992.780217,2664.741391,3140.991542
3006.186547,-9696.697840,3108.864956,3830.477490
3006.186884,-8808.450710,2368.659014,4826.401637
3006.187222,-8956.491898,4737.318029,3830.477490
3006.187559,-9770.718434,4589.276840,3294.210641
3006.187896,-10362.883188,4515.256246,2757.943793
3006.188234,-10584.944971,4441.235652,2681.334243
3006.188571,-10807.006753,5551.544565,2451.505594
3006.188908,-11251.130318,5921.647536,536.266849
3006.189245,-11325.150913,4737.318029,-1838.629195
3006.189583,-10658.965565,2072.576638,-2145.067394
3006.189920,-9770.718434,592.164754,-383.047749
3006.190257,-7550.100608,814.226536,612.876398
3006.190595,-7772.162391,1184.329507,612.876398
3006.190932,-9474.636058,1702.473667,-153.219100
3006.191269,-11251.130318,518.144159,153.219100
3006.191607,-11399.171507,1184.329507,919.314598
3006.191944,-9696.697840,1184.329507,1149.143247
3006.192281,-9474.636058,1258.350101,2528.115143
3006.192618,-11029.068536,222.061783,3370.820191
3006.192956,-12583.501014,-518.144159,2451.505594
3006.193293,-10955.047942,-814.226536,995.924147
3006.193630,-9030.512492,-1850.514855,2145.067394
3006.193968,-8364.327145,-1184.329507,3983.696590
3006.194305,-9844.739029,148.041188,3524.039291
3006.194642,-9844.739029,1332.370696,995.924147
3006.194979,-8808.450710,1110.308913,612.876398
3006.195317,-9548.656652,1258.350101,3217.601092
3006.195654,-10436.903782,2590.720797,4903.011187
3006.195991,-10732.986159,3478.967927,4366.744339
3006.196329,-10658.965565,4219.173869,5056.230287
3006.196666,-11695.253884,3256.906145,4673.182538
3006.197003,-11843.295072,2664.741391,3600.648841
3006.197340,-10732.986159,1628.453072,3600.648841
3006.197678,-8586.388927,1036.288319,3753.867940
3006.198015,-8808.450710,1110.308913,3524.039291
3006.198352,-10436.903782,1554.432478,2374.896044
3006.198690,-9474.636058,1702.473667,995.924147
3006.199027,-8290.306550,1332.370696,0.000000
3006.199364,-9252.574275,1628.453072,1149.143247
3006.199701,-10140.821405,2368.659014,1915.238745
3006.200039,-9474.636058,2590.720797,1685.410096
3006.200376,-9770.718434,2664.741391,2681.334243
3006.200713,-10732.986159,1554.432478,2911.162892
3006.201051,-11547.212695,1406.391290,4519.963438
3006.201388,-9992.780217,592.164754,5132.839837
3006.201725,-9844.739029,1258.350101,5975.544884
3006.202062,-10881.027347,1850.514855,4060.306139
3006.202400,-10807.006753,1406.391290,2068.457845
3006.202737,-10881.027347,1184.329507,842.705048
3006.203074,-9474.636058,666.185348,-459.657299
3006.203412,-9474.636058,1258.350101,612.876398
3006.203749,-9992.780217,1258.350101,459.657299
3006.204086,-7550.100608,2738.761985,0.000000
3006.204423,-9622.677246,2294.638420,612.876398
3006.204761,-10584.944971,1998.556043,0.000000
3006.205098,-11621.233289,2368.659014,1378.971896
3006.205435,-12287.418637,1702.473667,995.924147
3006.205773,-9844.739029,518.144159,536.266849
3006.206110,-9992.780217,-1184.329507,1532.190996
3006.206447,-10955.047942,-370.102971,2451.505594
3006.206784,-8438.347739,-592.164754,2451.505594
3006.207122,-8734.430116,1554.432478,1915.238745
3006.207459,-9474.636058,2072.576638,3064.381992
3006.207796,-10066.800811,3404.947333,2757.943793
3006.208134,-11843.295072,4959.379811,2834.553343
3006.208471,-10584.944971,4293.194464,2374.896044
3006.208808,-11399.171507,4737.318029,2528.115143
3006.209145,-10955.047942,3108.864956,2987.772442
3006.209483,-10288.862594,2886.803174,4290.134789
3006.209820,-8512.368333,2664.741391,4826.401637
3006.210157,-8142.265362,2590.720797,4903.011187
3006.210495,-9326.594869,4589.276840,4749.792088
3006.210832,-10066.800811,4737.318029,3140.991542
3006.211169,-11177.109724,4737.318029,1915.238745
3006.211506,-10584.944971,4737.318029,842.705048
3006.211844,-10436.903782,3997.112087,1532.190996
3006.212181,-11547.212695,3404.947333,1838.629195
3006.212518,-9104.533087,1628.453072,383.047749
3006.212856,-7698.141797,814.226536,1762.019645
3006.213193,-8956.491898,592.164754,3064.381992
3006.213530,-9474.636058,518.144159,2221.676944
3006.213867,-9622.677246,1184.329507,536.266849
3006.214205,-9696.697840,1110.308913,2145.067394
3006.214542,-10510.924376,666.185348,3294.210641
3006.214879,-11251.130318,1110.308913,3677.258390
3006.215217,-11177.109724,1184.329507,4979.620737
3006.215554,-10881.027347,740.205942,6052.154434
3006.215891,-11473.192101,2368.659014,4443.353888
3006.216228,-11029.068536,962.267725,2221.676944
3006.216566,-10807.006753,222.061783,1762.019645
3006.216903,-9844.739029,-1184.329507,1378.971896
3006.217240,-10214.842000,-74.020594,2298.286494
3006.217578,-9474.636058,1776.494261,1455.581446
3006.217915,-9696.697840,2516.700203,1838.629195
3006.218252,-10362.883188,2442.679609,-536.266849
3006.218589,-10288.862594,1406.391290,-1225.752797
3006.218927,-10658.965565,888.247130,1072.533697
3006.219264,-10288.862594,74.020594,1302.362347
3006.219601,-10066.800811,0.000000,1302.362347
3006.219939,-10732.986159,888.247130,1302.362347
3006.220276,-10658.965565,-1184.329507,689.485948
3006.220613,-9326.594869,-1702.473667,689.485948
3006.220950,-7624.121203,-1406.391290,1072.533697
3006.221288,-8216.285956,-814.226536,1225.752797
3006.221625,-8808.450710,0.000000,2145.067394
3006.221962,-10066.800811,814.226536,536.266849
3006.222300,-10140.821405,2960.823768,1072.533697
3006.222637,-10214.842000,2886.803174,1762.019645
3006.222974,-11103.089130,2812.782580,1608.800546
3006.223311,-10658.965565,1998.556043,1455.581446
3006.223649,-10436.903782,-518.144159,2528.115143
3006.223986,-10288.862594,0.000000,3600.648841
3006.224323,-9622.677246,814.226536,2528.115143
3006.224661,-9992.780217,2294.638420,689.485948
3006.224998,-10732.986159,1332.370696,-1915.238745
3006.225335,-9326.594869,814.226536,-1302.362347
3006.225672,-8290.306550,74.020594,0.000000
3006.226010,-9548.656652,1184.329507,1455.581446
3006.226347,-11769.274478,1776.494261,-306.438199
3006.226684,-12509.480420,1702.473667,-3064.381992
3006.227022,-11843.295072,-1628.453072,-2298.286494
3006.227359,-9326.594869,-2886.803174,229.828649
3006.227696,-8142.265362,-2664.741391,2681.334243
3006.228033,-8512.368333,-2590.720797,2528.115143
3006.228371,-9474.636058,-1036.288319,0.000000
3006.228708,-10066.800811,-1110.308913,-1532.190996
3006.229045,-11621.233289,-740.205942,76.609550
3006.229383,-10881.027347,370.102971,1455.581446
3006.229720,-10658.965565,-370.102971,1685.410096
3006.230057,-10807.006753,1184.329507,1378.971896
3006.230394,-9400.615463,74.020594,0.000000
3006.230732,-9548.656652,-888.247130,1838.629195
3006.231069,-8956.491898,-1554.432478,2834.553343
3006.231406,-9326.594869,-740.205942,2911.162892
3006.231744,-10881.027347,740.205942,2681.334243
3006.232081,-9992.780217,1480.411884,612.876398
3006.232418,-9474.636058,2738.761985,-766.095498
3006.232755,-10362.883188,1702.473667,-536.266849
3006.233093,-11251.130318,1776.494261,-919.314598
3006.233430,-10732.986159,1036.288319,-1302.362347
3006.233767,-10436.903782,370.102971,-919.314598
3006.234105,-9178.553681,370.102971,0.000000
3006.234442,-9030.512492,-1184.329507,536.266849
3006.234779,-8734.430116,-1036.288319,1149.143247
3006.235116,-9400.615463,-592.164754,536.266849
3006.235454,-9548.656652,-518.144159,229.828649
3006.235791,-9622.677246,0.000000,459.657299
3006.236128,-9992.780217,222.061783,1149.143247
3006.236466,-10881.027347,1258.350101,766.095498
3006.236803,-11177.109724,592.164754,306.438199
3006.237140,-11325.150913,814.226536,612.876398
3006.237477,-10066.800811,-888.247130,229.828649
3006.237815,-8956.491898,-1332.370696,2068.457845
3006.238152,-9474.636058,-1184.329507,2374.896044
3006.238489,-9622.677246,-222.061783,383.047749
3006.238827,-10584.944971,666.185348,-1072.533697
3006.239164,-10288.862594,222.061783,-2834.553343
3006.239501,-9474.636058,-444.123565,-2451.505594
3006.239838,-9548.656652,-1036.288319,-1225.752797
3006.240176,-9104.533087,-1258.350101,-1378.971896
3006.240513,-9696.697840,-1332.370696,-995.924147
3006.240850,-11991.336260,-1332.370696,-229.828649
3006.241188,-10066.800811,-2146.597232,-1149.143247
3006.241525,-10584.944971,-3182.885551,536.266849
3006.241862,-10584.944971,-2442.679609,1455.581446
3006.242199,-9770.718434,-2368.659014,459.657299
3006.242537,-11029.068536,-1776.494261,1149.143247
3006.242874,-10214.842000,-1702.473667,1072.533697
3006.243211,-10214.842000,-592.164754,1149.143247
3006.243549,-10510.924376,370.102971,1685.410096
3006.243886,-11325.150913,0.000000,1072.533697
3006.244223,-10658.965565,74.020594,689.485948
3006.244560,-9474.636058,1036.288319,229.828649
3006.244898,-9696.697840,888.247130,1072.533697
3006.245235,-10362.883188,222.061783,306.438199
3006.245572,-9474.636058,0.000000,459.657299
3006.245910,-8956.491898,740.205942,1149.143247
3006.246247,-8882.471304,592.164754,2145.067394
3006.246584,-9400.615463,1406.391290,1302.362347
3006.246921,-11251.130318,962.267725,536.266849
3006.247259,-9252.574275,1036.288319,-1455.581446
3006.247596,-9770.718434,1110.308913,-1991.848295
3006.247933,-9844.739029,444.123565,-1762.019645
3006.248271,-8808.450710,-888.247130,-2451.505594
3006.248608,-9252.574275,-1702.473667,-2221.676944
3006.248945,-8808.450710,-1036.288319,-995.924147
3006.249282,-8734.430116,-592.164754,-842.705048
3006.249620,-10066.800811,-1258.350101,536.266849
3006.249957,-10214.842000,-1554.432478,459.657299
3006.250294,-10436.903782,-592.164754,919.314598
3006.250632,-11251.130318,74.020594,2681.334243
3006.250969,-11843.295072,74.020594,2681.334243
3006.251306,-11843.295072,0.000000,2681.334243
3006.251643,-11029.068536,0.000000,1532.190996
3006.251981,-10140.821405,0.000000,1149.143247
3006.252318,-10362.883188,-814.226536,1072.533697
3006.252655,-9918.759623,-740.205942,459.657299
3006.252993,-8882.471304,-518.144159,-1685.410096
3006.253330,-9770.718434,0.000000,-995.924147
3006.253667,-9622.677246,-592.164754,-383.047749
3006.254004,-9622.677246,-888.247130,-536.266849
3006.254342,-10362.883188,0.000000,536.266849
3006.254679,-9696.697840,-222.061783,-536.266849
3006.255016,-9844.739029,-1332.370696,0.000000
3006.255354,-9844.739029,-1406.391290,612.876398
3006.255691,-10066.800811,-1332.370696,1378.971896
3006.256028,-10510.924376,-1998.556043,1991.848295
3006.256365,-9770.718434,-1184.329507,1762.019645
3006.256703,-9770.718434,-222.061783,1149.143247
3006.257040,-10807.006753,-370.102971,1225.752797
3006.257377,-9622.677246,0.000000,76.609550
3006.257715,-10066.800811,1110.308913,229.828649
3006.258052,-10658.965565,0.000000,1225.752797
3006.258389,-10066.800811,740.205942,1685.410096
