#time,accel_x,accel_y,accel_z
3013.880061,-9770.718434,-370.102971,383.047749
3013.880399,-9252.574275,-518.144159,0.000000
3013.880737,-9770.718434,-740.205942,536.266849
3013.881074,-9770.718434,222.061783,612.876398
3013.881412,-9696.697840,-370.102971,0.000000
3013.881749,-10362.883188,518.144159,1302.362347
3013.882087,-10214.842000,666.185348,1072.533697
3013.882425,-10066.800811,0.000000,1149.143247
3013.882762,-10807.006753,1184.329507,1302.362347
3013.883100,-10881.027347,296.082377,229.828649
3013.883437,-10140.821405,1406.391290,-536.266849
3013.883775,-10436.903782,-296.082377,-612.876398
3013.884113,-10510.924376,-444.123565,-689.485948
3013.884450,-9326.594869,0.000000,-1378.971896
3013.884788,-9030.512492,-370.102971,-1302.362347
3013.885125,-9474.636058,-888.247130,-1149.143247
3013.885463,-9844.739029,-1702.473667,-1149.143247
3013.885801,-10584.944971,-1406.391290,-536.266849
3013.886138,-9844.739029,-1332.370696,-919.314598
3013.886476,-9770.718434,-1776.494261,-536.266849
3013.886813,-10140.821405,-1702.473667,-1149.143247
3013.887151,-10510.924376,-2960.823768,306.438199
3013.887489,-9400.615463,-2664.741391,306.438199
3013.887826,-9474.636058,-2294.638420,0.000000
3013.888164,-10584.944971,-1850.514855,536.266849
3013.888501,-10955.047942,-1554.432478,-995.924147
3013.888839,-10436.903782,-1776.494261,76.609550
3013.889177,-10140.821405,-814.226536,0.000000
3013.889514,-9474.636058,-296.082377,766.095498
3013.889852,-10955.047942,0.000000,766.095498
3013.890189,-10881.027347,148.041188,0.000000
3013.890527,-9548.656652,0.000000,612.876398
3013.890865,-9696.697840,-666.185348,1378.971896
3013.891202,-9844.739029,666.185348,1302.362347
3013.891540,-11103.089130,1554.432478,153.219100
3013.891877,-11251.130318,296.082377,-2221.676944
3013.892215,-8956.491898,-814.226536,-2374.896044
3013.892553,-8882.471304,-1850.514855,-842.705048
3013.892890,-8734.430116,-1110.308913,-612.876398
3013.893228,-9770.718434,-1332.370696,-3677.258390
3013.893565,-10066.800811,-1258.350101,-4136.915689
3013.893903,-8734.430116,-3256.906145,-2681.334243
3013.894241,-9178.553681,-2664.741391,-1225.752797
3013.894578,-10436.903782,-2368.659014,-1762.019645
3013.894916,-11103.089130,-2960.823768,-3064.381992
3013.895253,-10732.986159,-3108.864956,-4826.401637
3013.895591,-9474.636058,-4071.132681,-4136.915689
3013.895929,-9400.615463,-4145.153275,-2068.457845
3013.896266,-8882.471304,-4737.318029,-1915.238745
3013.896604,-9474.636058,-3923.091493,-1225.752797
3013.896941,-9770.718434,-2072.576638,-1455.581446
3013.897279,-10066.800811,-2368.659014,-1915.238745
3013.897617,-11177.109724,-2294.638420,-2374.896044
3013.897954,-11843.295072,-2738.761985,-2757.943793
3013.898292,-10807.006753,-3108.864956,-2911.162892
3013.898629,-10584.944971,-4367.215058,-2987.772442
3013.898967,-8882.471304,-5033.400406,-2451.505594
3013.899305,-7994.224174,-4663.297435,-1762.019645
3013.899642,-8734.430116,-4071.132681,-1991.848295
3013.899980,-10214.842000,-2812.782580,-2604.724693
3013.900317,-11399.171507,-2220.617826,-4290.134789
3013.900655,-11399.171507,-1924.535449,-4673.182538
3013.900993,-10584.944971,-3627.009116,-4060.306139
3013.901330,-10140.821405,-4515.256246,-1915.238745
3013.901668,-10214.842000,-3404.947333,-229.828649
3013.902005,-9918.759623,-3849.070898,0.000000
3013.902343,-9400.615463,-2960.823768,-306.438199
3013.902681,-9696.697840,-3775.050304,-459.657299
3013.903018,-9770.718434,-3256.906145,383.047749
3013.903356,-9474.636058,-1924.535449,1532.190996
3013.903693,-9770.718434,0.000000,2298.286494
3013.904031,-10436.903782,1776.494261,1225.752797
3013.904369,-11399.171507,1258.350101,-229.828649
3013.904706,-11399.171507,-296.082377,-1532.190996
3013.905044,-10288.862594,-1702.473667,-1149.143247
3013.905381,-9326.594869,-1184.329507,153.219100
3013.905719,-8216.285956,-1332.370696,-306.438199
3013.906057,-8216.285956,-2146.597232,-1378.971896
3013.906394,-8734.430116,-2368.659014,-1838.629195
3013.906732,-9474.636058,-1258.350101,-1762.019645
3013.907069,-9992.780217,296.082377,-2451.505594
3013.907407,-10584.944971,-518.144159,-3140.991542
3013.907745,-11769.274478,-1406.391290,-2834.553343
3013.908082,-11547.212695,-2220.617826,-3447.429741
3013.908420,-9326.594869,-2664.741391,-3294.210641
3013.908757,-7328.038826,-3849.070898,-766.095498
3013.909095,-8956.491898,-5255.462188,306.438199
3013.909433,-10658.965565,-4219.173869,-1302.362347
3013.909770,-10214.842000,-3256.906145,-3600.648841
3013.910108,-10436.903782,-3330.926739,-2374.896044
3013.910445,-11843.295072,-2812.782580,-2068.457845
3013.910783,-11843.295072,-2146.597232,-3830.477490
3013.911121,-10288.862594,-1110.308913,-3217.601092
3013.911458,-9474.636058,-1332.370696,-995.924147
3013.911796,-9992.780217,-1628.453072,-919.314598
3013.912133,-11325.150913,-1776.494261,-3217.601092
3013.912471,-11029.068536,-2220.617826,-3140.991542
3013.912809,-9252.574275,-2368.659014,-2604.724693
3013.913146,-8512.368333,-2368.659014,-1685.410096
3013.913484,-9844.739029,-1258.350101,-995.924147
3013.913821,-10362.883188,-1184.329507,-1762.019645
3013.914159,-10288.862594,-518.144159,-4443.353888
3013.914497,-10955.047942,-1554.432478,-4673.182538
3013.914834,-11029.068536,-2368.659014,-3983.696590
3013.915172,-9400.615463,-3182.885551,-2911.162892
3013.915509,-8438.347739,-2220.617826,-2068.457845
3013.915847,-8216.285956,-3330.926739,-1685.410096
3013.916185,-9252.574275,-2886.803174,-842.705048
3013.916522,-9622.677246,-2812.782580,-536.266849
3013.916860,-9252.574275,-1850.514855,689.485948
3013.917197,-11029.068536,-1258.350101,2145.067394
3013.917535,-11547.212695,0.000000,1685.410096
3013.917873,-11325.150913,-370.102971,153.219100
3013.918210,-10955.047942,-1184.329507,-612.876398
3013.918548,-10288.862594,-2664.741391,-995.924147
3013.918885,-9770.718434,-2072.576638,-1685.410096
3013.919223,-8438.347739,-3478.967927,-2451.505594
3013.919561,-9548.656652,-4293.194464,-1532.190996
3013.919898,-9104.533087,-3997.112087,-3140.991542
3013.920236,-9474.636058,-3108.864956,-1608.800546
3013.920573,-9918.759623,-1406.391290,0.000000
3013.920911,-10214.842000,-1702.473667,-1149.143247
3013.921249,-11917.315666,-1332.370696,-1762.019645
3013.921586,-12065.356855,-3256.906145,-3064.381992
3013.921924,-11399.171507,-4885.359217,-2987.772442
3013.922261,-9844.739029,-6069.688724,-3064.381992
3013.922599,-7846.182985,-7031.956449,-3217.601092
3013.922937,-7179.997637,-8438.347739,-2681.334243
3013.923274,-8364.327145,-6735.874072,-1838.629195
3013.923612,-8734.430116,-4885.359217,-1915.238745
3013.923949,-10658.965565,-3478.967927,-2451.505594
3013.924287,-11547.212695,-888.247130,-1685.410096
3013.924625,-12953.603985,-666.185348,-2834.553343
3013.924962,-12731.542202,-1332.370696,-2911.162892
3013.925300,-9474.636058,-2960.823768,-2298.286494
3013.925637,-8882.471304,-3627.009116,1302.362347
3013.925975,-8734.430116,-3849.070898,1378.971896
3013.926313,-9770.718434,-3404.947333,459.657299
3013.926650,-10732.986159,-1480.411884,-766.095498
3013.926988,-9474.636058,-666.185348,-2604.724693
3013.927325,-10881.027347,0.000000,-3524.039291
3013.927663,-11029.068536,0.000000,-4443.353888
3013.928001,-10214.842000,148.041188,-4519.963438
3013.928338,-9252.574275,-148.041188,-4366.744339
3013.928676,-8956.491898,-592.164754,-3370.820191
3013.929014,-9030.512492,-1332.370696,-1991.848295
3013.929351,-10066.800811,-2294.638420,-229.828649
3013.929689,-8438.347739,-4737.318029,-1072.533697
3013.930026,-10584.944971,-3849.070898,536.266849
3013.930364,-8734.430116,-4367.215058,-459.657299
3013.930702,-9400.615463,-3108.864956,-842.705048
3013.931039,-9548.656652,-1998.556043,-1149.143247
3013.931377,-9844.739029,0.000000,-2374.896044
3013.931714,-10881.027347,444.123565,-2451.505594
3013.932052,-11473.192101,-888.247130,-2604.724693
3013.932390,-11103.089130,-1628.453072,-2221.676944
3013.932727,-9548.656652,-2516.700203,-2451.505594
3013.933065,-9918.759623,-3330.926739,536.266849
3013.933402,-9474.636058,-3997.112087,1915.238745
3013.933740,-9030.512492,-2812.782580,612.876398
3013.934078,-11399.171507,-1924.535449,0.000000
3013.934415,-12361.439231,-814.226536,-1915.238745
3013.934753,-11399.171507,-962.267725,-3600.648841
3013.935090,-11399.171507,-1554.432478,-3447.429741
3013.935428,-9474.636058,-2294.638420,-2528.115143
3013.935766,-8216.285956,-2368.659014,-2681.334243
3013.936103,-8512.368333,-1702.473667,-3064.381992
3013.936441,-8956.491898,-4071.132681,-2987.772442
3013.936778,-9770.718434,-4663.297435,-2145.067394
3013.937116,-9844.739029,-4737.318029,76.609550
3013.937454,-10214.842000,-2368.659014,1378.971896
3013.937791,-9696.697840,-370.102971,383.047749
3013.938128,-10658.965565,0.000000,-766.095498
3013.938466,-10807.006753,-370.102971,-1149.143247
3013.938803,-9474.636058,-148.041188,-1685.410096
3013.939141,-9326.594869,-888.247130,842.705048
3013.939478,-10066.800811,-740.205942,1455.581446
3013.939815,-8956.491898,-222.061783,153.219100
3013.940153,-10214.842000,0.000000,306.438199
3013.940490,-9770.718434,222.061783,306.438199
3013.940828,-9400.615463,-222.061783,-689.485948
3013.941165,-10658.965565,888.247130,306.438199
3013.941502,-10510.924376,296.082377,-1532.190996
3013.941840,-9252.574275,1036.288319,-1762.019645
3013.942177,-10140.821405,296.082377,-1378.971896
3013.942515,-10732.986159,0.000000,-2451.505594
3013.942852,-10584.944971,-370.102971,-2757.943793
3013.943189,-9474.636058,-2294.638420,-842.705048
3013.943527,-9178.553681,-3330.926739,1455.581446
3013.943864,-10436.903782,-3330.926739,2834.553343
3013.944202,-10436.903782,-2368.659014,1072.533697
3013.944539,-11695.253884,-2664.741391,-766.095498
3013.944876,-9696.697840,-2812.782580,-2451.505594
3013.945214,-8808.450710,-3478.967927,-842.705048
3013.945551,-9326.594869,-2664.741391,1149.143247
3013.945889,-9178.553681,-2368.659014,1072.533697
3013.946226,-10362.883188,-1258.350101,-383.047749
3013.946563,-11399.171507,-1036.288319,-229.828649
3013.946901,-11177.109724,0.000000,306.438199
3013.947238,-10066.800811,-814.226536,2068.457845
3013.947576,-9622.677246,-666.185348,2681.334243
3013.947913,-10362.883188,-666.185348,1225.752797
3013.948250,-11991.336260,-1480.411884,76.609550
3013.948588,-10140.821405,-962.267725,-1991.848295
3013.948925,-9474.636058,-1110.308913,-1838.629195
3013.949263,-8290.306550,-1110.308913,0.000000
3013.949600,-9030.512492,444.123565,536.266849
3013.949937,-10436.903782,962.267725,536.266849
3013.950275,-10436.903782,444.123565,-459.657299
3013.950612,-11177.109724,888.247130,383.047749
3013.950950,-11917.315666,518.144159,919.314598
3013.951287,-10288.862594,0.000000,1149.143247
3013.951624,-9178.553681,592.164754,1072.533697
3013.951962,-7846.182985,-666.185348,229.828649
3013.952299,-8734.430116,-962.267725,766.095498
3013.952637,-9696.697840,-444.123565,1455.581446
3013.952974,-9474.636058,1258.350101,2374.896044
3013.953311,-10658.965565,2294.638420,1532.190996
3013.953649,-11177.109724,2738.761985,153.219100
3013.953986,-9992.780217,2812.782580,-459.657299
3013.954324,-9622.677246,1184.329507,153.219100
3013.954661,-9548.656652,814.226536,919.314598
3013.954998,-10066.800811,0.000000,2068.457845
3013.955336,-11473.192101,0.000000,1149.143247
3013.955673,-10807.006753,-444.123565,-536.266849
3013.956011,-10214.842000,-592.164754,-2451.505594
3013.956348,-9178.553681,-2146.597232,-1838.629195
3013.956685,-8586.388927,-2294.638420,-1378.971896
3013.957023,-9030.512492,-2294.638420,306.438199
3013.957360,-10140.821405,0.000000,-1302.362347
3013.957698,-11473.192101,-1184.329507,-2451.505594
3013.958035,-12287.418637,-1998.556043,-1225.752797
3013.958373,-10140.821405,-2368.659014,-306.438199
3013.958710,-9696.697840,-2664.741391,1455.581446
3013.959047,-10214.842000,-3330.926739,2374.896044
3013.959385,-9844.739029,-3627.009116,383.047749
3013.959722,-11177.109724,-3182.885551,0.000000
3013.960060,-11177.109724,-1924.535449,-612.876398
3013.960397,-9548.656652,-1110.308913,0.000000
3013.960734,-9770.718434,0.000000,1302.362347
3013.961072,-8882.471304,1702.473667,1072.533697
3013.961409,-10362.883188,1110.308913,383.047749
3013.961747,-11769.274478,1628.453072,1838.629195
3013.962084,-11547.212695,74.020594,919.314598
3013.962421,-10732.986159,296.082377,2221.676944
3013.962759,-9400.615463,592.164754,2298.286494
3013.963096,-9400.615463,296.082377,1302.362347
3013.963434,-9030.512492,666.185348,-766.095498
3013.963771,-7550.100608,222.061783,-2068.457845
3013.964108,-8364.327145,740.205942,-919.314598
3013.964446,-9918.759623,962.267725,-383.047749
3013.964783,-10140.821405,2368.659014,-1225.752797
3013.965121,-10362.883188,1258.350101,-1378.971896
3013.965458,-9400.615463,666.185348,0.000000
3013.965795,-8364.327145,370.102971,1685.410096
3013.966133,-9844.739029,0.000000,3370.820191
3013.966470,-9918.759623,-1332.370696,3753.867940
3013.966808,-11843.295072,-888.247130,2221.676944
3013.967145,-11547.212695,-592.164754,1378.971896
3013.967482,-9770.718434,-370.102971,612.876398
3013.967820,-9030.512492,-444.123565,76.609550
3013.968157,-9400.615463,-592.164754,153.219100
3013.968495,-10214.842000,518.144159,-536.266849
3013.968832,-11029.068536,-666.185348,0.000000
3013.969169,-11769.274478,-592.164754,306.438199
3013.969507,-10881.027347,-962.267725,459.657299
3013.969844,-10214.842000,-1998.556043,306.438199
3013.970182,-9474.636058,-2886.803174,536.266849
3013.970519,-8882.471304,-3330.926739,0.000000
3013.970856,-8808.450710,-3701.029710,-766.095498
3013.971194,-9474.636058,-2368.659014,-1991.848295
3013.971531,-9844.739029,-2368.659014,-2528.115143
3013.971869,-10955.047942,-3108.864956,-995.924147
3013.972206,-10140.821405,-1480.411884,-995.924147
3013.972543,-9400.615463,-1332.370696,689.485948
3013.972881,-10362.883188,-370.102971,1608.800546
3013.973218,-10881.027347,-1998.556043,0.000000
3013.973556,-10807.006753,-1480.411884,0.000000
3013.973893,-10584.944971,-1776.494261,2145.067394
3013.974230,-9696.697840,296.082377,3064.381992
3013.974568,-10807.006753,1998.556043,1685.410096
3013.974905,-11103.089130,2072.576638,459.657299
3013.975243,-11029.068536,2812.782580,0.000000
3013.975580,-10140.821405,3330.926739,0.000000
3013.975917,-10658.965565,2664.741391,612.876398
3013.976255,-9770.718434,3108.864956,766.095498
3013.976592,-8660.409521,2294.638420,-995.924147
3013.976930,-9474.636058,2812.782580,-689.485948
3013.977267,-9474.636058,1332.370696,-229.828649
3013.977604,-9622.677246,444.123565,229.828649
3013.977942,-9030.512492,-74.020594,-842.705048
3013.978279,-8512.368333,148.041188,-306.438199
3013.978617,-8512.368333,518.144159,-689.485948
3013.978954,-8660.409521,-296.082377,-842.705048
3013.979291,-9992.780217,-592.164754,-1532.190996
3013.979629,-10066.800811,-296.082377,-919.314598
3013.979966,-9548.656652,-888.247130,0.000000
3013.980304,-9622.677246,-962.267725,766.095498
3013.980641,-10510.924376,-1628.453072,2451.505594
3013.980978,-11547.212695,-2960.823768,2068.457845
3013.981316,-11029.068536,-2368.659014,1608.800546
3013.981653,-10658.965565,-1480.411884,2374.896044
3013.981991,-9918.759623,-1332.370696,1532.190996
3013.982328,-11325.150913,0.000000,1455.581446
3013.982666,-12139.377449,-370.102971,-459.657299
3013.983003,-12657.521608,518.144159,-459.657299
3013.983340,-11399.171507,-370.102971,-766.095498
3013.983678,-9770.718434,-1924.535449,383.047749
3013.984015,-8734.430116,-1628.453072,1455.581446
3013.984353,-9474.636058,-666.185348,2834.553343
3013.984690,-10214.842000,-888.247130,919.314598
3013.985027,-10288.862594,-1480.411884,-1225.752797
3013.985365,-10732.986159,-1332.370696,-995.924147
3013.985702,-10362.883188,-1332.370696,-306.438199
3013.986040,-9030.512492,-370.102971,153.219100
3013.986377,-7476.080014,0.000000,306.438199
3013.986714,-9622.677246,370.102971,842.705048
3013.987052,-9992.780217,740.205942,-612.876398
3013.987389,-9918.759623,-444.123565,0.000000
3013.987727,-9622.677246,222.061783,2145.067394
3013.988064,-9474.636058,1036.288319,2757.943793
3013.988401,-9770.718434,1480.411884,2757.943793
3013.988739,-10436.903782,1406.391290,842.705048
3013.989076,-9992.780217,1628.453072,612.876398
3013.989414,-9622.677246,1628.453072,919.314598
3013.989751,-10288.862594,1850.514855,1378.971896
3013.990088,-11103.089130,2294.638420,612.876398
3013.990426,-10955.047942,1110.308913,-919.314598
3013.990763,-10140.821405,370.102971,-1378.971896
3013.991101,-8882.471304,518.144159,-919.314598
3013.991438,-8956.491898,-296.082377,-229.828649
3013.991775,-10140.821405,0.000000,-689.485948
3013.992113,-9844.739029,-518.144159,-2757.943793
3013.992450,-10510.924376,-2146.597232,-2145.067394
3013.992788,-10436.903782,-3182.885551,-2221.676944
3013.993125,-9326.594869,-3701.029710,-689.485948
3013.993462,-9474.636058,-2590.720797,689.485948
3013.993800,-9178.553681,-1850.514855,0.000000
3013.994137,-10140.821405,-1554.432478,-766.095498
3013.994475,-11251.130318,-2886.803174,-1608.800546
3013.994812,-11103.089130,-3182.885551,-306.438199
3013.995149,-10807.006753,-3256.906145,1685.410096
3013.995487,-9992.780217,-1850.514855,3370.820191
3013.995824,-9918.759623,-888.247130,2528.115143
3013.996162,-11399.171507,0.000000,612.876398
3013.996499,-10955.047942,-1702.473667,-459.657299
3013.996836,-10658.965565,-962.267725,459.657299
3013.997174,-10066.800811,0.000000,1915.238745
3013.997511,-9770.718434,1554.432478,1685.410096
3013.997849,-10807.006753,1998.556043,-383.047749
3013.998186,-10214.842000,1406.391290,-1762.019645
3013.998523,-8882.471304,888.247130,-842.705048
3013.998861,-9252.574275,1924.535449,1455.581446
3013.999198,-10214.842000,1702.473667,2145.067394
3013.999536,-10881.027347,1480.411884,689.485948
3013.999873,-9918.759623,666.185348,-1685.410096
3014.000210,-9474.636058,296.082377,76.609550
3014.000548,-7846.182985,222.061783,1838.629195
3014.000885,-7105.977043,888.247130,2145.067394
3014.001223,-9104.533087,2516.700203,1532.190996
3014.001560,-11029.068536,2072.576638,-153.219100
3014.001897,-11843.295072,1628.453072,-919.314598
3014.002235,-10510.924376,370.102971,0.000000
3014.002572,-9178.553681,-74.020594,2374.896044
3014.002910,-8216.285956,1332.370696,3983.696590
3014.003247,-9474.636058,1184.329507,2911.162892
3014.003584,-11029.068536,1258.350101,229.828649
3014.003922,-11473.192101,-518.144159,-1072.533697
3014.004259,-11029.068536,0.000000,-612.876398
3014.004597,-10584.944971,0.000000,383.047749
3014.004934,-9030.512492,1258.350101,76.609550
3014.005271,-9252.574275,888.247130,-1302.362347
3014.005609,-10658.965565,74.020594,-2451.505594
3014.005946,-11473.192101,-888.247130,-2834.553343
3014.006284,-11251.130318,-2516.700203,-2451.505594
3014.006621,-10140.821405,-3108.864956,-153.219100
3014.006959,-8660.409521,-2368.659014,0.000000
3014.007296,-10362.883188,-3108.864956,1072.533697
3014.007633,-9918.759623,-2738.761985,-1838.629195
3014.007971,-9696.697840,-3034.844362,-1608.800546
3014.008308,-10140.821405,-1554.432478,1685.410096
3014.008646,-10066.800811,-518.144159,1455.581446
3014.008983,-11695.253884,370.102971,1455.581446
3014.009320,-11991.336260,-1480.411884,229.828649
3014.009658,-9844.739029,-2146.597232,-306.438199
3014.009995,-8586.388927,-962.267725,1225.752797
3014.010333,-8364.327145,0.000000,4443.353888
3014.010670,-8586.388927,740.205942,3600.648841
3014.011007,-10807.006753,1480.411884,1149.143247
3014.011345,-11769.274478,2664.741391,-536.266849
3014.011682,-11177.109724,1036.288319,-995.924147
3014.012020,-10140.821405,1406.391290,459.657299
3014.012357,-9474.636058,2294.638420,995.924147
3014.012694,-8956.491898,2368.659014,76.609550
3014.013032,-9474.636058,2664.741391,-689.485948
3014.013369,-9326.594869,-148.041188,-1838.629195
3014.013707,-8216.285956,-370.102971,-1225.752797
3014.014044,-8068.244768,-1036.288319,0.000000
3014.014381,-8290.306550,444.123565,1149.143247
3014.014719,-10214.842000,296.082377,-536.266849
3014.015056,-11325.150913,-592.164754,-2451.505594
3014.015394,-10955.047942,-2368.659014,-2451.505594
3014.015731,-8512.368333,-2442.679609,76.609550
3014.016068,-8142.265362,-1036.288319,2911.162892
3014.016406,-9252.574275,-1332.370696,3907.087040
3014.016743,-11621.233289,-592.164754,1991.848295
3014.017081,-12213.398043,-814.226536,0.000000
3014.017418,-12139.377449,-518.144159,-306.438199
3014.017755,-10584.944971,-296.082377,536.266849
3014.018093,-10436.903782,592.164754,1455.581446
3014.018430,-11177.109724,1110.308913,459.657299
3014.018768,-11325.150913,0.000000,-2298.286494
3014.019105,-11251.130318,-1776.494261,-1762.019645
3014.019442,-10510.924376,-1554.432478,-1532.190996
3014.019780,-8660.409521,-1184.329507,229.828649
3014.020117,-8660.409521,222.061783,612.876398
3014.020455,-9104.533087,148.041188,-383.047749
3014.020792,-10140.821405,-740.205942,-995.924147
3014.021129,-10807.006753,-1406.391290,-383.047749
3014.021467,-9918.759623,-1184.329507,0.000000
3014.021804,-9030.512492,-814.226536,2145.067394
3014.022142,-9474.636058,-370.102971,3064.381992
3014.022479,-9474.636058,0.000000,306.438199
3014.022816,-9622.677246,-444.123565,-1455.581446
3014.023154,-9326.594869,-1628.453072,-536.266849
3014.023491,-8216.285956,-592.164754,2145.067394
3014.023829,-8512.368333,1332.370696,4519.963438
3014.024166,-9252.574275,3478.967927,2374.896044
3014.024503,-11399.171507,2960.823768,1149.143247
3014.024841,-12953.603985,2664.741391,153.219100
3014.025178,-11325.150913,1332.370696,1072.533697
3014.025516,-9918.759623,2368.659014,2604.724693
3014.025853,-9918.759623,2146.597232,2911.162892
3014.026190,-11103.089130,1702.473667,0.000000
3014.026528,-9918.759623,-296.082377,-1915.238745
3014.026865,-9030.512492,-444.123565,-1608.800546
3014.027203,-9770.718434,-666.185348,459.657299
3014.027540,-9178.553681,444.123565,-459.657299
3014.027877,-10436.903782,666.185348,-1685.410096
3014.028215,-10881.027347,-444.123565,-2451.505594
3014.028552,-9696.697840,-1924.535449,-2145.067394
3014.028890,-9326.594869,-1554.432478,0.000000
3014.029227,-8808.450710,-2368.659014,919.314598
3014.029564,-9252.574275,-2220.617826,919.314598
3014.029902,-11103.089130,-2590.720797,0.000000
3014.030239,-10955.047942,-3627.009116,-612.876398
3014.030577,-9992.780217,-2664.741391,-153.219100
3014.030914,-8438.347739,-2368.659014,766.095498
3014.031252,-7624.121203,-666.185348,919.314598
3014.031589,-10436.903782,0.000000,1072.533697
3014.031926,-12139.377449,222.061783,306.438199
3014.032264,-10955.047942,962.267725,-919.314598
3014.032601,-10584.944971,1258.350101,0.000000
3014.032939,-10510.924376,1036.288319,536.266849
3014.033276,-10140.821405,1258.350101,0.000000
3014.033613,-8882.471304,518.144159,-536.266849
3014.033951,-10436.903782,-1110.308913,-306.438199
3014.034288,-10436.903782,-1258.350101,0.000000
3014.034626,-10140.821405,0.000000,-153.219100
3014.034963,-9252.574275,296.082377,306.438199
3014.035300,-9548.656652,592.164754,0.000000
3014.035638,-9918.759623,814.226536,-459.657299
3014.035975,-10214.842000,370.102971,-459.657299
3014.036313,-9918.759623,0.000000,229.828649
3014.036651,-9770.718434,370.102971,1149.143247
3014.036988,-9178.553681,222.061783,1378.971896
3014.037326,-9548.656652,0.000000,1225.752797
3014.037663,-10584.944971,-1776.494261,1225.752797
3014.038001,-10362.883188,-1480.411884,1378.971896
3014.038338,-9474.636058,-740.205942,1532.190996
3014.038676,-9178.553681,222.061783,2834.553343
3014.039014,-9918.759623,1480.411884,2145.067394
3014.039351,-10288.862594,1480.411884,-306.438199
3014.039689,-10807.006753,962.267725,-766.095498
3014.040026,-11399.171507,0.000000,383.047749
3014.040364,-10140.821405,-740.205942,842.705048
3014.040701,-10362.883188,-444.123565,1225.752797
3014.041039,-9918.759623,-370.102971,459.657299
3014.041377,-10140.821405,-1258.350101,-1302.362347
3014.041714,-10510.924376,-2072.576638,-1991.848295
3014.042052,-9252.574275,-2664.741391,-2298.286494
3014.042389,-7698.141797,-1776.494261,-612.876398
3014.042727,-9474.636058,-740.205942,-383.047749
3014.043064,-11029.068536,-518.144159,0.000000
3014.043402,-12139.377449,-592.164754,-995.924147
3014.043740,-11251.130318,-1702.473667,76.609550
3014.044077,-9992.780217,-1332.370696,2068.457845
3014.044415,-9030.512492,-296.082377,3294.210641
3014.044752,-9918.759623,-592.164754,3370.820191
3014.045090,-10881.027347,-1332.370696,766.095498
3014.045427,-10881.027347,-444.123565,-459.657299
3014.045765,-10436.903782,592.164754,689.485948
3014.046103,-9252.574275,1406.391290,612.876398
3014.046440,-8438.347739,2516.700203,0.000000
3014.046778,-10362.883188,2812.782580,-1532.190996
3014.047115,-11399.171507,888.247130,-612.876398
3014.047453,-10510.924376,370.102971,0.000000
3014.047790,-8216.285956,148.041188,1225.752797
3014.048128,-8734.430116,444.123565,2757.943793
3014.048466,-9474.636058,1998.556043,1302.362347
3014.048803,-10658.965565,1332.370696,-2145.067394
3014.049141,-10658.965565,740.205942,-3447.429741
3014.049478,-10288.862594,-592.164754,-2528.115143
3014.049816,-8586.388927,-370.102971,-1072.533697
3014.050153,-8660.409521,-222.061783,76.609550
3014.050491,-8660.409521,-296.082377,-536.266849
3014.050829,-9770.718434,-1480.411884,0.000000
3014.051166,-10807.006753,-1702.473667,1072.533697
3014.051504,-10362.883188,-1554.432478,1532.190996
3014.051841,-11399.171507,-1554.432478,3600.648841
3014.052179,-11103.089130,-592.164754,2834.553343
3014.052516,-11251.130318,-1036.288319,1149.143247
3014.052854,-10955.047942,0.000000,0.000000
3014.053192,-9918.759623,-1480.411884,-383.047749
3014.053529,-10140.821405,-1036.288319,383.047749
3014.053867,-9992.780217,-444.123565,995.924147
3014.054204,-9474.636058,-370.102971,-459.657299
3014.054542,-11399.171507,-370.102971,-459.657299
3014.054879,-10436.903782,-1480.411884,-1072.533697
3014.055217,-9178.553681,-1184.329507,-612.876398
3014.055555,-10140.821405,-592.164754,842.705048
3014.055892,-9696.697840,-814.226536,459.657299
3014.056230,-10066.800811,-1850.514855,0.000000
3014.056567,-11251.130318,-2886.803174,0.000000
3014.056905,-9548.656652,-1480.411884,-383.047749
3014.057242,-9252.574275,-888.247130,1072.533697
3014.057580,-8956.491898,-740.205942,1762.019645
3014.057918,-9696.697840,-296.082377,459.657299
3014.058255,-10436.903782,-592.164754,459.657299
3014.058593,-10510.924376,0.000000,1378.971896
3014.058930,-9992.780217,666.185348,1991.848295
3014.059268,-11251.130318,1258.350101,1685.410096
3014.059605,-10140.821405,2294.638420,842.705048
3014.059943,-9474.636058,1480.411884,306.438199
3014.060281,-9548.656652,1776.494261,766.095498
3014.060618,-10658.965565,2220.617826,1149.143247
3014.060956,-9770.718434,1184.329507,-612.876398
3014.061293,-9252.574275,148.041188,-383.047749
3014.061631,-8438.347739,1110.308913,383.047749
3014.061968,-8512.368333,592.164754,76.609550
3014.062306,-8364.327145,-740.205942,919.314598
3014.062644,-11399.171507,-1110.308913,-1685.410096
3014.062981,-9622.677246,-1554.432478,-1915.238745
3014.063319,-9844.739029,-1184.329507,-2298.286494
3014.063656,-8882.471304,-2960.823768,612.876398
3014.063994,-9326.594869,-2072.576638,306.438199
3014.064331,-9844.739029,-1554.432478,-1608.800546
3014.064669,-11103.089130,-2368.659014,-766.095498
3014.065007,-11251.130318,-2442.679609,536.266849
3014.065344,-11029.068536,-1628.453072,995.924147
3014.065682,-11843.295072,-962.267725,2221.676944
3014.066019,-11251.130318,-962.267725,1915.238745
3014.066357,-10658.965565,-1258.350101,2374.896044
3014.066694,-12139.377449,-1850.514855,1455.581446
3014.067032,-11103.089130,-1258.350101,536.266849
3014.067370,-9992.780217,-1776.494261,-842.705048
3014.067707,-9474.636058,-370.102971,1225.752797
3014.068045,-10436.903782,814.226536,-229.828649
3014.068382,-8808.450710,1998.556043,0.000000
3014.068720,-9474.636058,888.247130,-1838.629195
3014.069057,-9474.636058,740.205942,-612.876398
3014.069395,-10510.924376,-148.041188,0.000000
3014.069733,-10066.800811,370.102971,229.828649
3014.070070,-8956.491898,0.000000,1378.971896
3014.070408,-9400.615463,-592.164754,1072.533697
3014.070745,-9770.718434,-1258.350101,-306.438199
3014.071083,-8660.409521,-1332.370696,-995.924147
3014.071420,-7550.100608,-518.144159,842.705048
3014.071758,-8216.285956,148.041188,612.876398
3014.072096,-10807.006753,666.185348,0.000000
3014.072433,-10066.800811,592.164754,-1149.143247
3014.072771,-9622.677246,1850.514855,0.000000
3014.073108,-9918.759623,1702.473667,1608.800546
3014.073446,-11103.089130,1924.535449,1378.971896
3014.073783,-11547.212695,74.020594,1685.410096
3014.074121,-10807.006753,0.000000,612.876398
3014.074459,-10436.903782,-1480.411884,1225.752797
3014.074796,-10066.800811,-1554.432478,1838.629195
3014.075134,-8660.409521,-1036.288319,1915.238745
3014.075471,-9474.636058,-518.144159,1532.190996
3014.075809,-11621.233289,740.205942,-153.219100
3014.076146,-11177.109724,1110.308913,-2451.505594
3014.076484,-11029.068536,148.041188,-2145.067394
3014.076822,-10584.944971,-1406.391290,-2374.896044
3014.077159,-8512.368333,-1998.556043,-1378.971896
3014.077497,-9252.574275,-2738.761985,842.705048
3014.077834,-9326.594869,-3627.009116,536.266849
3014.078172,-8660.409521,-3849.070898,-229.828649
3014.078509,-10658.965565,-3478.967927,306.438199
3014.078847,-10140.821405,-3182.885551,536.266849
3014.079185,-10066.800811,-1998.556043,1532.190996
3014.079522,-9474.636058,148.041188,842.705048
3014.079860,-9474.636058,-296.082377,0.000000
3014.080197,-11325.150913,0.000000,1149.143247
3014.080535,-10807.006753,-592.164754,1685.410096
3014.080872,-10658.965565,0.000000,2528.115143
3014.081210,-11251.130318,1554.432478,2987.772442
3014.081548,-10510.924376,1924.535449,1455.581446
3014.081885,-11621.233289,1036.288319,76.609550
3014.082223,-9918.759623,-222.061783,-1302.362347
3014.082560,-9030.512492,740.205942,383.047749
3014.082898,-9252.574275,2220.617826,1302.362347
3014.083235,-9992.780217,1628.453072,0.000000
3014.083573,-10955.047942,2368.659014,-2221.676944
3014.083911,-10362.883188,1480.411884,-3064.381992
3014.084248,-9474.636058,592.164754,-1532.190996
3014.084586,-8882.471304,-1184.329507,-612.876398
3014.084923,-8068.244768,-740.205942,306.438199
3014.085261,-9252.574275,-1258.350101,612.876398
3014.085598,-10510.924376,-1702.473667,383.047749
3014.085936,-9918.759623,-2146.597232,0.000000
3014.086274,-9844.739029,-2516.700203,0.000000
3014.086611,-8956.491898,-1998.556043,459.657299
3014.086949,-8216.285956,592.164754,-229.828649
3014.087286,-10510.924376,0.000000,0.000000
3014.087624,-11251.130318,-74.020594,-766.095498
3014.087961,-11251.130318,-370.102971,-842.705048
3014.088299,-10510.924376,-444.123565,919.314598
3014.088637,-9326.594869,-740.205942,1915.238745
3014.088974,-11103.089130,0.000000,2528.115143
3014.089312,-12287.418637,-592.164754,766.095498
3014.089649,-11325.150913,-444.123565,-2374.896044
3014.089987,-10214.842000,-1036.288319,-2068.457845
3014.090324,-9696.697840,-1332.370696,-229.828649
3014.090662,-8956.491898,444.123565,-612.876398
3014.091000,-9252.574275,-740.205942,-459.657299
3014.091337,-11621.233289,-814.226536,0.000000
3014.091675,-10955.047942,-2146.597232,0.000000
3014.092012,-10436.903782,-1776.494261,1608.800546
3014.092350,-8734.430116,-1406.391290,3064.381992
3014.092687,-9770.718434,-1850.514855,2834.553343
3014.093025,-10658.965565,-814.226536,919.314598
3014.093363,-8808.450710,-1850.514855,-1608.800546
3014.093700,-9030.512492,-1702.473667,766.095498
3014.094038,-8660.409521,-1258.350101,1455.581446
3014.094375,-8290.306550,592.164754,919.314598
3014.094713,-9918.759623,814.226536,2221.676944
3014.095050,-10436.903782,1850.514855,1455.581446
3014.095388,-10584.944971,1924.535449,229.828649
3014.095726,-10288.862594,1110.308913,1225.752797
3014.096063,-10066.800811,1554.432478,2451.505594
3014.096401,-9992.780217,1332.370696,1838.629195
3014.096738,-9992.780217,1184.329507,229.828649
3014.097076,-11621.233289,0.000000,0.000000
3014.097413,-11695.253884,0.000000,229.828649
3014.097751,-8290.306550,-740.205942,-1149.143247
3014.098089,-7994.224174,518.144159,76.609550
3014.098426,-9326.594869,1110.308913,153.219100
3014.098764,-10140.821405,296.082377,-2528.115143
3014.099101,-12657.521608,-1628.453072,-766.095498
3014.099439,-11399.171507,-1776.494261,-1225.752797
3014.099776,-9400.615463,-1850.514855,76.609550
3014.100114,-9474.636058,74.020594,766.095498
3014.100452,-10066.800811,-666.185348,0.000000
3014.100789,-11177.109724,-2442.679609,-612.876398
3014.101127,-10881.027347,-3182.885551,-459.657299
3014.101464,-9326.594869,-2294.638420,689.485948
3014.101802,-9548.656652,74.020594,1991.848295
3014.102139,-10436.903782,-148.041188,995.924147
3014.102477,-11177.109724,814.226536,-459.657299
3014.102815,-11029.068536,-222.061783,-766.095498
3014.103152,-10288.862594,-296.082377,1072.533697
3014.103490,-8956.491898,0.000000,1455.581446
3014.103827,-9770.718434,0.000000,1455.581446
3014.104165,-11251.130318,222.061783,-612.876398
3014.104502,-9548.656652,-1110.308913,-2451.505594
3014.104840,-8364.327145,-1258.350101,-1378.971896
3014.105178,-8808.450710,-1480.411884,0.000000
3014.105515,-8586.388927,0.000000,-306.438199
3014.105853,-9474.636058,222.061783,-919.314598
3014.106190,-10881.027347,814.226536,-1149.143247
3014.106528,-10510.924376,-814.226536,-842.705048
3014.106865,-10214.842000,-148.041188,536.266849
3014.107203,-9474.636058,-1036.288319,2145.067394
3014.107541,-8882.471304,518.144159,2604.724693
3014.107878,-9696.697840,518.144159,2374.896044
3014.108216,-12435.459826,-222.061783,1455.581446
3014.108553,-11917.315666,-962.267725,383.047749
3014.108891,-10436.903782,148.041188,612.876398
3014.109228,-8216.285956,1406.391290,1838.629195
3014.109566,-9030.512492,2368.659014,2528.115143
3014.109904,-10510.924376,2368.659014,0.000000
3014.110241,-11325.150913,1332.370696,-1302.362347
3014.110579,-10732.986159,-814.226536,-919.314598
3014.110916,-10436.903782,-2072.576638,2374.896044
3014.111254,-8586.388927,-444.123565,2604.724693
3014.111591,-8734.430116,0.000000,1991.848295
3014.111929,-10214.842000,-592.164754,-459.657299
3014.112267,-10436.903782,-1850.514855,-2374.896044
3014.112604,-9992.780217,-1998.556043,-2145.067394
3014.112942,-8808.450710,-1998.556043,-689.485948
3014.113279,-9252.574275,-1036.288319,76.609550
3014.113617,-9474.636058,-370.102971,-919.314598
3014.113954,-10658.965565,-1184.329507,-1225.752797
3014.114292,-10140.821405,-1850.514855,-459.657299
3014.114630,-10066.800811,-2146.597232,995.924147
3014.114967,-9622.677246,-1702.473667,2528.115143
3014.115305,-9622.677246,-1332.370696,2681.334243
3014.115642,-11991.336260,-666.185348,2757.943793
3014.115980,-12287.418637,-1110.308913,995.924147
3014.116317,-10214.842000,-296.082377,1149.143247
3014.116655,-9252.574275,888.247130,1838.629195
3014.116993,-9326.594869,2146.597232,2451.505594
3014.117330,-10732.986159,3034.844362,0.000000
3014.117668,-12657.521608,1480.411884,-2068.457845
3014.118005,-12583.501014,0.000000,-2145.067394
3014.118343,-8956.491898,-370.102971,-2221.676944
3014.118680,-7254.018232,1110.308913,766.095498
3014.119018,-8290.306550,814.226536,1532.190996
3014.119356,-9326.594869,74.020594,-842.705048
3014.119693,-10732.986159,-666.185348,-1991.848295
3014.120031,-11473.192101,-1110.308913,-1225.752797
3014.120368,-9326.594869,-740.205942,-306.438199
3014.120706,-8512.368333,-370.102971,1302.362347
3014.121043,-8956.491898,222.061783,612.876398
3014.121381,-9548.656652,-444.123565,-459.657299
3014.121719,-9622.677246,-2146.597232,-1149.143247
3014.122056,-9252.574275,-1924.535449,383.047749
3014.122394,-9178.553681,-1406.391290,1455.581446
3014.122731,-10214.842000,0.000000,1072.533697
3014.123069,-10658.965565,518.144159,0.000000
3014.123406,-11029.068536,74.020594,0.000000
3014.123744,-10288.862594,0.000000,995.924147
3014.124082,-9178.553681,1110.308913,612.876398
3014.124419,-9992.780217,2738.761985,1455.581446
3014.124757,-12139.377449,1776.494261,0.000000
3014.125094,-12213.398043,296.082377,-1991.848295
3014.125432,-10807.006753,-592.164754,-1915.238745
3014.125769,-9178.553681,-518.144159,1149.143247
3014.126107,-9178.553681,-740.205942,2298.286494
3014.126445,-9474.636058,-296.082377,766.095498
3014.126782,-11029.068536,518.144159,-1149.143247
3014.127120,-11251.130318,-1258.350101,-2604.724693
3014.127457,-10510.924376,-2294.638420,-919.314598
3014.127795,-8438.347739,-2812.782580,383.047749
3014.128132,-7624.121203,-666.185348,1991.848295
3014.128470,-8586.388927,296.082377,1991.848295
3014.128808,-10732.986159,-296.082377,459.657299
3014.129145,-11325.150913,-518.144159,842.705048
3014.129483,-11843.295072,-740.205942,1532.190996
3014.129820,-10288.862594,370.102971,2298.286494
3014.130158,-8216.285956,592.164754,1455.581446
3014.130495,-8808.450710,0.000000,1685.410096
3014.130833,-9474.636058,-592.164754,536.266849
3014.131171,-9474.636058,-666.185348,306.438199
3014.131508,-10658.965565,888.247130,1378.971896
3014.131846,-10881.027347,1924.535449,1149.143247
3014.132183,-10881.027347,2812.782580,536.266849
3014.132521,-11547.212695,1406.391290,-459.657299
3014.132858,-10881.027347,-518.144159,-1225.752797
3014.133196,-9918.759623,-1554.432478,0.000000
3014.133534,-8364.327145,-1850.514855,383.047749
3014.133871,-8512.368333,-1258.350101,536.266849
3014.134209,-9400.615463,-444.123565,-2221.676944
3014.134546,-11177.109724,-1850.514855,-2604.724693
3014.134884,-11399.171507,-2738.761985,-1302.362347
3014.135221,-9622.677246,-2220.617826,-383.047749
3014.135559,-9252.574275,-222.061783,536.266849
3014.135897,-9326.594869,-666.185348,1378.971896
3014.136234,-10214.842000,-370.102971,153.219100
3014.136572,-11029.068536,-1998.556043,153.219100
3014.136909,-10510.924376,-1776.494261,383.047749
3014.137247,-8882.471304,-1850.514855,1915.238745
3014.137584,-9252.574275,-1924.535449,2987.772442
3014.137921,-9548.656652,0.000000,1455.581446
3014.138259,-10658.965565,296.082377,536.266849
3014.138596,-11325.150913,1702.473667,0.000000
3014.138934,-10362.883188,1332.370696,-612.876398
3014.139271,-10658.965565,1554.432478,995.924147
3014.139608,-10955.047942,2368.659014,1455.581446
3014.139946,-11325.150913,1332.370696,766.095498
3014.140283,-11399.171507,1036.288319,-612.876398
3014.140621,-10732.986159,0.000000,-153.219100
3014.140958,-9030.512492,222.061783,-153.219100
3014.141296,-8882.471304,-296.082377,0.000000
3014.141633,-9474.636058,0.000000,-536.266849
3014.141970,-9252.574275,-1184.329507,-689.485948
3014.142308,-9844.739029,-962.267725,-383.047749
3014.142645,-9474.636058,0.000000,-383.047749
3014.142983,-9030.512492,518.144159,689.485948
3014.143320,-10066.800811,1184.329507,2068.457845
3014.143657,-9918.759623,814.226536,1149.143247
3014.143995,-10066.800811,74.020594,536.266849
3014.144332,-9696.697840,-1184.329507,919.314598
3014.144670,-9548.656652,-2146.597232,1532.190996
3014.145007,-9474.636058,-592.164754,1991.848295
3014.145345,-9474.636058,148.041188,919.314598
3014.145682,-10658.965565,222.061783,229.828649
3014.146019,-11399.171507,0.000000,-1608.800546
3014.146357,-10436.903782,888.247130,-1838.629195
3014.146694,-9770.718434,-222.061783,-1225.752797
3014.147032,-8586.388927,962.267725,-153.219100
3014.147369,-10807.006753,888.247130,0.000000
3014.147706,-12213.398043,0.000000,-1149.143247
3014.148044,-10732.986159,-1332.370696,-2221.676944
3014.148381,-10658.965565,-1702.473667,-612.876398
3014.148719,-10436.903782,-2368.659014,1532.190996
3014.149056,-10807.006753,-1776.494261,536.266849
3014.149394,-8956.491898,-1332.370696,-153.219100
3014.149731,-10066.800811,-1184.329507,612.876398
3014.150068,-10510.924376,-1110.308913,0.000000
3014.150406,-10362.883188,-518.144159,536.266849
3014.150743,-7846.182985,962.267725,995.924147
3014.151081,-9252.574275,592.164754,2757.943793
3014.151418,-11473.192101,444.123565,2221.676944
3014.151755,-10436.903782,148.041188,1225.752797
3014.152093,-9326.594869,-222.061783,1915.238745
3014.152430,-9918.759623,0.000000,2681.334243
3014.152768,-9326.594869,1110.308913,1838.629195
3014.153105,-8956.491898,1184.329507,1378.971896
3014.153443,-9844.739029,1258.350101,153.219100
3014.153780,-8660.409521,1258.350101,-1072.533697
3014.154117,-9992.780217,2516.700203,-1149.143247
3014.154455,-10140.821405,1554.432478,-306.438199
3014.154792,-10214.842000,888.247130,-842.705048
3014.155130,-10436.903782,444.123565,-919.314598
3014.155467,-9622.677246,-666.185348,-1149.143247
3014.155804,-9474.636058,-1184.329507,689.485948
3014.156142,-9548.656652,-2220.617826,229.828649
3014.156479,-9548.656652,-2072.576638,0.000000
3014.156817,-10732.986159,-1554.432478,-229.828649
3014.157154,-11029.068536,-1406.391290,153.219100
3014.157492,-10658.965565,-962.267725,0.000000
3014.157829,-9104.533087,-1850.514855,0.000000
3014.158166,-9844.739029,-1850.514855,2068.457845
3014.158504,-10732.986159,-1406.391290,1532.190996
3014.158841,-10584.944971,-814.226536,0.000000
3014.159179,-11103.089130,-296.082377,919.314598
3014.159516,-9918.759623,-296.082377,0.000000
3014.159853,-9474.636058,-888.247130,-229.828649
3014.160191,-10807.006753,-222.061783,-459.657299
3014.160528,-9770.718434,-296.082377,-536.266849
3014.160866,-9400.615463,-740.205942,-766.095498
3014.161203,-10214.842000,0.000000,0.000000
3014.161541,-9548.656652,148.041188,-842.705048
3014.161878,-10214.842000,0.000000,-612.876398
3014.162215,-10436.903782,-148.041188,-612.876398
3014.162553,-10066.800811,-888.247130,-1149.143247
3014.162890,-9622.677246,-962.267725,76.609550
3014.163228,-9104.533087,-1480.411884,383.047749
3014.163565,-9918.759623,-814.226536,995.924147
3014.163902,-10066.800811,-222.061783,1149.143247
3014.164240,-9622.677246,592.164754,995.924147
3014.164577,-9844.739029,740.205942,1532.190996
3014.164915,-10955.047942,1628.453072,1685.410096
3014.165252,-10288.862594,2220.617826,0.000000
3014.165590,-10732.986159,1036.288319,689.485948
3014.165927,-10140.821405,592.164754,1455.581446
3014.166264,-9030.512492,1258.350101,2528.115143
3014.166602,-9400.615463,1184.329507,2987.772442
3014.166939,-9548.656652,2516.700203,1225.752797
3014.167277,-11325.150913,666.185348,306.438199
3014.167614,-10510.924376,1480.411884,-1378.971896
3014.167951,-10066.800811,444.123565,-1072.533697
3014.168289,-9696.697840,-296.082377,0.000000
3014.168626,-8882.471304,0.000000,76.609550
3014.168964,-9622.677246,-222.061783,-766.095498
3014.169301,-9622.677246,-518.144159,-766.095498
3014.169639,-9548.656652,-1554.432478,-1608.800546
3014.169976,-11399.171507,-1776.494261,-229.828649
3014.170313,-11325.150913,-2220.617826,-766.095498
3014.170651,-9474.636058,-2294.638420,76.609550
3014.170988,-9326.594869,-2590.720797,766.095498
3014.171326,-8586.388927,-2146.597232,1455.581446
3014.171663,-9400.615463,-1998.556043,1685.410096
3014.172000,-11251.130318,-2072.576638,2374.896044
3014.172338,-12065.356855,-444.123565,2451.505594
3014.172675,-12213.398043,0.000000,1455.581446
3014.173013,-11177.109724,-518.144159,1072.533697
3014.173350,-10066.800811,-1110.308913,1225.752797
3014.173688,-8734.430116,-740.205942,1455.581446
3014.174025,-9252.574275,0.000000,1455.581446
3014.174362,-9992.780217,74.020594,383.047749
3014.174700,-10140.821405,370.102971,-1991.848295
3014.175037,-11473.192101,-148.041188,-1608.800546
3014.175375,-10881.027347,-148.041188,0.000000
3014.175712,-9844.739029,1332.370696,1225.752797
3014.176049,-9474.636058,2146.597232,383.047749
3014.176387,-9844.739029,962.267725,-459.657299
3014.176724,-10584.944971,74.020594,-612.876398
3014.177062,-10658.965565,296.082377,-306.438199
3014.177399,-9844.739029,-1702.473667,-612.876398
3014.177737,-9252.574275,-1702.473667,766.095498
3014.178074,-8142.265362,0.000000,536.266849
3014.178411,-8068.244768,296.082377,0.000000
3014.178749,-8882.471304,814.226536,-383.047749
3014.179086,-9400.615463,444.123565,0.000000
3014.179424,-11177.109724,1332.370696,766.095498
3014.179761,-11473.192101,1480.411884,995.924147
3014.180098,-10807.006753,1184.329507,1072.533697
3014.180436,-10436.903782,0.000000,1608.800546
3014.180773,-9400.615463,-1332.370696,1149.143247
3014.181111,-10066.800811,-1702.473667,1302.362347
3014.181448,-9918.759623,-1258.350101,306.438199
3014.181786,-9178.553681,-444.123565,-1302.362347
3014.182123,-10955.047942,-518.144159,-2145.067394
3014.182460,-10955.047942,-444.123565,-3294.210641
3014.182798,-9622.677246,-740.205942,-3524.039291
3014.183135,-9252.574275,-1702.473667,-2451.505594
3014.183473,-8586.388927,-1036.288319,-766.095498
3014.183810,-10436.903782,-2516.700203,383.047749
3014.184147,-11917.315666,-2960.823768,459.657299
3014.184485,-11547.212695,-3034.844362,919.314598
3014.184822,-11695.253884,-2960.823768,1455.581446
3014.185160,-10362.883188,-3182.885551,1838.629195
3014.185497,-8364.327145,-2220.617826,2145.067394
3014.185835,-9400.615463,-1184.329507,2451.505594
3014.186172,-10436.903782,-518.144159,1762.019645
3014.186509,-10955.047942,-296.082377,536.266849
3014.186847,-10881.027347,1480.411884,1378.971896
3014.187184,-10140.821405,1480.411884,1762.019645
3014.187522,-10436.903782,2812.782580,995.924147
3014.187859,-9474.636058,1702.473667,612.876398
3014.188196,-9770.718434,1110.308913,0.000000
3014.188534,-9696.697840,370.102971,1838.629195
3014.188871,-9178.553681,740.205942,2068.457845
3014.189209,-9030.512492,1258.350101,2298.286494
3014.189546,-9696.697840,1998.556043,1302.362347
3014.189884,-10658.965565,2220.617826,-612.876398
3014.190221,-10436.903782,2146.597232,-1532.190996
3014.190558,-9696.697840,1184.329507,-1838.629195
3014.190896,-9030.512492,74.020594,-612.876398
3014.191233,-8142.265362,1258.350101,-612.876398
3014.191571,-10436.903782,-148.041188,0.000000
3014.191908,-11843.295072,-592.164754,-689.485948
3014.192245,-9918.759623,-2072.576638,-2221.676944
3014.192583,-9104.533087,-2442.679609,229.828649
3014.192920,-9474.636058,-1776.494261,2374.896044
3014.193258,-9252.574275,-740.205942,1532.190996
3014.193595,-10807.006753,0.000000,459.657299
3014.193933,-11325.150913,-888.247130,536.266849
3014.194270,-11029.068536,-74.020594,536.266849
3014.194607,-10510.924376,296.082377,919.314598
3014.194945,-10214.842000,-148.041188,153.219100
3014.195282,-10732.986159,-444.123565,-612.876398
3014.195620,-11399.171507,-1628.453072,-1149.143247
3014.195957,-10066.800811,-3330.926739,-1991.848295
3014.196294,-8438.347739,-3552.988522,-459.657299
3014.196632,-8660.409521,-1110.308913,1225.752797
3014.196969,-8956.491898,0.000000,-842.705048
3014.197307,-11325.150913,0.000000,-1991.848295
3014.197644,-11621.233289,-962.267725,-2451.505594
3014.197982,-10955.047942,-1332.370696,-1149.143247
3014.198319,-9696.697840,-1036.288319,306.438199
3014.198656,-8956.491898,0.000000,1838.629195
3014.198994,-10436.903782,-370.102971,1685.410096
3014.199331,-10732.986159,-1406.391290,0.000000
3014.199669,-9622.677246,-2146.597232,766.095498
3014.200006,-9326.594869,-666.185348,1838.629195
3014.200343,-8364.327145,444.123565,3064.381992
3014.200681,-9030.512492,2220.617826,1762.019645
3014.201018,-10362.883188,3182.885551,459.657299
3014.201356,-11177.109724,2368.659014,766.095498
3014.201693,-11917.315666,2368.659014,766.095498
3014.202031,-9696.697840,2368.659014,1608.800546
3014.202368,-9252.574275,2960.823768,2681.334243
3014.202705,-9918.759623,1480.411884,1915.238745
3014.203043,-9252.574275,888.247130,-842.705048
3014.203380,-9474.636058,-962.267725,-1225.752797
3014.203718,-9030.512492,-1036.288319,-689.485948
3014.204055,-9326.594869,-1036.288319,153.219100
3014.204392,-9474.636058,1110.308913,-689.485948
3014.204730,-9548.656652,0.000000,-2221.676944
3014.205067,-10066.800811,-1924.535449,-2528.115143
3014.205405,-10288.862594,-1850.514855,-1991.848295
3014.205742,-10214.842000,-2368.659014,383.047749
3014.206080,-9326.594869,-1258.350101,1302.362347
3014.206417,-9400.615463,-2664.741391,1302.362347
3014.206754,-11029.068536,-2664.741391,995.924147
3014.207092,-11325.150913,-3923.091493,0.000000
3014.207429,-11251.130318,-4071.132681,0.000000
3014.207767,-9326.594869,-2590.720797,612.876398
3014.208104,-8808.450710,-1554.432478,919.314598
3014.208441,-10362.883188,-370.102971,1302.362347
3014.208779,-11547.212695,-740.205942,306.438199
3014.209116,-11103.089130,-1036.288319,229.828649
3014.209454,-11769.274478,-962.267725,1149.143247
3014.209791,-10362.883188,0.000000,1608.800546
3014.210129,-10658.965565,1110.308913,1302.362347
3014.210466,-10732.986159,148.041188,-306.438199
3014.210803,-10807.006753,-962.267725,-1149.143247
3014.211141,-9252.574275,-1554.432478,-1455.581446
3014.211478,-8438.347739,-444.123565,-383.047749
3014.211816,-8068.244768,1184.329507,-306.438199
3014.212153,-9474.636058,888.247130,-1072.533697
3014.212490,-10584.944971,962.267725,-1225.752797
3014.212828,-11103.089130,518.144159,459.657299
3014.213165,-10807.006753,370.102971,1915.238745
3014.213503,-8734.430116,1332.370696,2298.286494
3014.213840,-8956.491898,1036.288319,2987.772442
3014.214178,-9770.718434,-148.041188,1762.019645
3014.214515,-10807.006753,-518.144159,1532.190996
3014.214852,-9178.553681,222.061783,153.219100
3014.215190,-7179.997637,1480.411884,766.095498
3014.215527,-8660.409521,2960.823768,1608.800546
3014.215865,-10881.027347,1924.535449,459.657299
3014.216202,-12361.439231,1850.514855,-1378.971896
3014.216539,-10584.944971,74.020594,-1149.143247
3014.216877,-9474.636058,740.205942,-306.438199
3014.217214,-9104.533087,0.000000,766.095498
3014.217552,-9696.697840,-74.020594,919.314598
3014.217889,-10436.903782,-592.164754,-306.438199
3014.218227,-11251.130318,-1480.411884,-919.314598
3014.218564,-11917.315666,-1702.473667,-1685.410096
3014.218901,-10214.842000,-1628.453072,-2451.505594
3014.219239,-8142.265362,-1184.329507,-1378.971896
3014.219576,-9326.594869,-1258.350101,-1608.800546
3014.219914,-10214.842000,-1628.453072,-1302.362347
3014.220251,-11325.150913,-1998.556043,-995.924147
3014.220588,-11251.130318,-3034.844362,153.219100
3014.220926,-11029.068536,-3256.906145,2145.067394
3014.221263,-10510.924376,-962.267725,3600.648841
3014.221601,-10066.800811,-888.247130,3753.867940
3014.221938,-10881.027347,-1554.432478,3140.991542
3014.222276,-10807.006753,-1702.473667,2145.067394
3014.222613,-9770.718434,-222.061783,919.314598
3014.222950,-9178.553681,962.267725,1149.143247
3014.223288,-10140.821405,1332.370696,536.266849
3014.223625,-10732.986159,1702.473667,-1302.362347
3014.223963,-10732.986159,1480.411884,-1532.190996
3014.224300,-8956.491898,1036.288319,-1225.752797
3014.224637,-7402.059420,888.247130,76.609550
3014.224975,-8734.430116,1702.473667,2681.334243
3014.225312,-10362.883188,1110.308913,1455.581446
3014.225650,-11843.295072,814.226536,153.219100
3014.225987,-10362.883188,148.041188,-536.266849
3014.226325,-9770.718434,-370.102971,919.314598
3014.226662,-8956.491898,-888.247130,2451.505594
3014.226999,-8956.491898,1110.308913,1838.629195
3014.227337,-9992.780217,1332.370696,153.219100
3014.227674,-10807.006753,-518.144159,-1762.019645
3014.228012,-11029.068536,-1184.329507,-2374.896044
3014.228349,-9474.636058,-1850.514855,-689.485948
3014.228686,-8290.306550,-296.082377,1149.143247
3014.229024,-9474.636058,-444.123565,1378.971896
3014.229361,-10881.027347,-1554.432478,1455.581446
3014.229699,-10881.027347,-1776.494261,919.314598
3014.230036,-10955.047942,-1554.432478,1072.533697
3014.230374,-10140.821405,-1480.411884,2145.067394
3014.230711,-9400.615463,-740.205942,1915.238745
3014.231048,-11029.068536,-518.144159,306.438199
3014.231386,-11103.089130,-1332.370696,-1838.629195
3014.231723,-9622.677246,-1924.535449,-2298.286494
3014.232061,-9696.697840,-2738.761985,-1762.019645
3014.232398,-8734.430116,-2146.597232,-1838.629195
3014.232735,-9400.615463,-1406.391290,-1762.019645
3014.233073,-10214.842000,-2146.597232,-1685.410096
3014.233410,-11325.150913,-2516.700203,-1762.019645
3014.233748,-9918.759623,-2220.617826,-1302.362347
3014.234085,-9030.512492,-740.205942,1225.752797
3014.234423,-10066.800811,0.000000,2987.772442
3014.234760,-11473.192101,0.000000,1762.019645
3014.235097,-12361.439231,-148.041188,919.314598
3014.235435,-10881.027347,-962.267725,459.657299
3014.235772,-9844.739029,0.000000,1302.362347
3014.236110,-8216.285956,74.020594,995.924147
3014.236447,-8216.285956,296.082377,2221.676944
3014.236784,-10140.821405,2442.679609,2298.286494
3014.237122,-10732.986159,3256.906145,76.609550
3014.237459,-10881.027347,3108.864956,-995.924147
3014.237797,-9770.718434,2738.761985,-995.924147
3014.238134,-10288.862594,2664.741391,1378.971896
3014.238471,-9474.636058,2886.803174,229.828649
3014.238809,-9770.718434,962.267725,-153.219100
3014.239146,-10362.883188,0.000000,689.485948
3014.239484,-9992.780217,-518.144159,-842.705048
3014.239821,-9474.636058,-518.144159,-612.876398
3014.240159,-9474.636058,-666.185348,-153.219100
3014.240496,-8068.244768,-1332.370696,-536.266849
3014.240833,-9030.512492,-518.144159,-612.876398
3014.241171,-10584.944971,370.102971,-459.657299
3014.241508,-10140.821405,-148.041188,-1225.752797
3014.241846,-10658.965565,-962.267725,-383.047749
3014.242183,-10436.903782,-1628.453072,919.314598
3014.242520,-10436.903782,-1850.514855,2068.457845
3014.242858,-11621.233289,-1998.556043,2068.457845
3014.243195,-10362.883188,-2294.638420,1455.581446
3014.243533,-9178.553681,-1850.514855,1608.800546
3014.243870,-8956.491898,-814.226536,2298.286494
3014.244207,-10362.883188,-1110.308913,1838.629195
3014.244545,-11399.171507,-444.123565,1149.143247
3014.244882,-11547.212695,222.061783,383.047749
3014.245220,-10658.965565,1110.308913,76.609550
3014.245557,-9844.739029,148.041188,-383.047749
3014.245894,-8956.491898,-444.123565,-229.828649
3014.246232,-9252.574275,-814.226536,229.828649
3014.246569,-10510.924376,-1110.308913,459.657299
3014.246907,-10214.842000,444.123565,0.000000
3014.247244,-9696.697840,-1184.329507,-919.314598
3014.247582,-9326.594869,-1480.411884,0.000000
3014.247919,-8142.265362,-296.082377,766.095498
3014.248256,-9622.677246,-444.123565,842.705048
3014.248594,-9400.615463,0.000000,689.485948
3014.248931,-9474.636058,370.102971,919.314598
3014.249269,-11029.068536,0.000000,1838.629195
3014.249606,-11103.089130,370.102971,2298.286494
3014.249943,-9400.615463,1184.329507,1608.800546
3014.250281,-10436.903782,1924.535449,1532.190996
3014.250618,-10362.883188,592.164754,536.266849
3014.250956,-9474.636058,222.061783,0.000000
3014.251293,-9548.656652,518.144159,0.000000
3014.251630,-9918.759623,1258.350101,0.000000
3014.251968,-11029.068536,1036.288319,-229.828649
3014.252305,-10658.965565,888.247130,-1072.533697
3014.252643,-9326.594869,-370.102971,-612.876398
3014.252980,-10436.903782,-1480.411884,0.000000
3014.253317,-9474.636058,-1036.288319,306.438199
3014.253655,-10066.800811,-1702.473667,-612.876398
3014.253992,-10807.006753,-2072.576638,-1149.143247
3014.254330,-10066.800811,-2368.659014,-1915.238745
3014.254667,-9474.636058,-2960.823768,-2221.676944
3014.255005,-8586.388927,-2738.761985,-2451.505594
3014.255342,-8290.306550,-2442.679609,-2221.676944
3014.255679,-10214.842000,-1776.494261,-536.266849
3014.256017,-11177.109724,-2812.782580,536.266849
3014.256354,-11029.068536,-2368.659014,383.047749
3014.256692,-11325.150913,-2294.638420,2145.067394
3014.257029,-11769.274478,-518.144159,2834.553343
3014.257366,-10658.965565,-1480.411884,2068.457845
3014.257704,-9918.759623,-962.267725,842.705048
3014.258041,-9474.636058,222.061783,1072.533697
3014.258379,-9918.759623,222.061783,1225.752797
3014.258716,-9844.739029,1036.288319,766.095498
3014.259053,-9992.780217,1776.494261,-459.657299
3014.259391,-10140.821405,2294.638420,-612.876398
3014.259728,-9622.677246,2886.803174,-995.924147
3014.260066,-10288.862594,1036.288319,-536.266849
3014.260403,-10881.027347,888.247130,689.485948
3014.260740,-9918.759623,592.164754,383.047749
3014.261078,-8882.471304,370.102971,1302.362347
3014.261415,-8956.491898,74.020594,2374.896044
3014.261753,-9918.759623,0.000000,3140.991542
3014.262090,-10140.821405,814.226536,612.876398
3014.262428,-9844.739029,74.020594,0.000000
3014.262765,-10140.821405,740.205942,612.876398
3014.263102,-9770.718434,222.061783,-229.828649
3014.263440,-8734.430116,1110.308913,536.266849
3014.263777,-8142.265362,0.000000,536.266849
3014.264115,-9548.656652,518.144159,842.705048
3014.264452,-9992.780217,814.226536,153.219100
3014.264789,-10955.047942,74.020594,689.485948
3014.265127,-10584.944971,-592.164754,2145.067394
3014.265464,-9770.718434,148.041188,1991.848295
3014.265802,-10362.883188,1258.350101,1608.800546
3014.266139,-11177.109724,148.041188,612.876398
3014.266476,-10658.965565,-962.267725,383.047749
3014.266814,-10955.047942,0.000000,0.000000
3014.267151,-9474.636058,0.000000,229.828649
3014.267489,-10066.800811,-222.061783,-1072.533697
3014.267826,-10955.047942,-1850.514855,-1838.629195
3014.268163,-10584.944971,-1924.535449,-2681.334243
3014.268501,-9844.739029,-2220.617826,-2145.067394
3014.268838,-8290.306550,-2072.576638,-459.657299
3014.269176,-8438.347739,-962.267725,1072.533697
3014.269513,-11473.192101,-1184.329507,383.047749
3014.269851,-12657.521608,-1480.411884,-153.219100
3014.270188,-10955.047942,-1554.432478,-689.485948
3014.270525,-9548.656652,-2146.597232,1532.190996
3014.270863,-8808.450710,-740.205942,2681.334243
3014.271200,-9474.636058,444.123565,2451.505594
3014.271538,-10436.903782,0.000000,1608.800546
3014.271875,-10510.924376,518.144159,-153.219100
3014.272212,-9992.780217,1184.329507,229.828649
3014.272550,-9400.615463,1406.391290,0.000000
3014.272887,-9252.574275,1332.370696,229.828649
3014.273225,-9326.594869,2220.617826,-459.657299
3014.273562,-9918.759623,1702.473667,-995.924147
3014.273899,-9696.697840,1628.453072,-919.314598
3014.274237,-9918.759623,1036.288319,-689.485948
3014.274574,-10436.903782,888.247130,459.657299
3014.274912,-10066.800811,148.041188,-1149.143247
3014.275249,-9030.512492,74.020594,-689.485948
3014.275586,-9844.739029,-1110.308913,0.000000
3014.275924,-10288.862594,-2442.679609,-612.876398
3014.276261,-10066.800811,-2220.617826,0.000000
3014.276599,-9400.615463,-1480.411884,1072.533697
3014.276936,-8808.450710,370.102971,383.047749
3014.277273,-10584.944971,-222.061783,0.000000
3014.277611,-12287.418637,-296.082377,-383.047749
3014.277948,-10658.965565,-962.267725,153.219100
3014.278286,-10066.800811,-1110.308913,842.705048
3014.278623,-9696.697840,-666.185348,2528.115143
3014.278961,-10658.965565,-518.144159,2604.724693
3014.279298,-11325.150913,-888.247130,1991.848295
3014.279635,-11917.315666,-1702.473667,459.657299
3014.279973,-9474.636058,-1110.308913,306.438199
3014.280310,-8290.306550,0.000000,1915.238745
3014.280648,-9400.615463,0.000000,1685.410096
3014.280985,-10658.965565,-296.082377,1072.533697
3014.281322,-11547.212695,74.020594,-383.047749
3014.281660,-10140.821405,-444.123565,-919.314598
3014.281997,-8956.491898,0.000000,153.219100
3014.282335,-8882.471304,592.164754,306.438199
3014.282672,-9918.759623,518.144159,-689.485948
3014.283009,-11251.130318,-1036.288319,-995.924147
3014.283347,-10658.965565,-1924.535449,76.609550
3014.283684,-8882.471304,-2072.576638,0.000000
3014.284022,-8142.265362,-1628.453072,1915.238745
3014.284359,-8586.388927,814.226536,2604.724693
3014.284696,-10436.903782,1184.329507,1685.410096
3014.285034,-10807.006753,1184.329507,1225.752797
3014.285371,-11843.295072,1628.453072,1225.752797
3014.285709,-11029.068536,1110.308913,1608.800546
3014.286046,-9474.636058,1184.329507,689.485948
3014.286384,-9030.512492,1702.473667,536.266849
3014.286721,-9622.677246,592.164754,0.000000
3014.287058,-9622.677246,222.061783,-919.314598
3014.287396,-9622.677246,-1332.370696,-1149.143247
3014.287733,-8290.306550,444.123565,-766.095498
3014.288071,-8734.430116,2812.782580,-842.705048
3014.288408,-12287.418637,2072.576638,-995.924147
3014.288745,-12583.501014,888.247130,-3370.820191
3014.289083,-10807.006753,-888.247130,-2451.505594
3014.289420,-9474.636058,-1184.329507,229.828649
3014.289758,-7920.203579,-666.185348,1072.533697
3014.290095,-10584.944971,0.000000,1991.848295
3014.290432,-13323.706956,-592.164754,0.000000
3014.290770,-12213.398043,-1480.411884,-3600.648841
3014.291107,-10140.821405,-2738.761985,-1991.848295
3014.291445,-8142.265362,-3330.926739,153.219100
3014.291782,-7105.977043,-1702.473667,1532.190996
3014.292119,-9030.512492,-518.144159,2068.457845
3014.292457,-9918.759623,222.061783,995.924147
3014.292794,-11843.295072,148.041188,1225.752797
3014.293132,-11917.315666,148.041188,2298.286494
3014.293469,-10362.883188,1480.411884,2604.724693
3014.293807,-9474.636058,444.123565,2604.724693
3014.294144,-9770.718434,74.020594,1685.410096
3014.294481,-10584.944971,-1036.288319,1225.752797
3014.294819,-8660.409521,-2294.638420,153.219100
3014.295156,-7105.977043,-1258.350101,306.438199
3014.295494,-7846.182985,962.267725,0.000000
3014.295831,-9992.780217,1480.411884,-919.314598
3014.296168,-11769.274478,814.226536,-2604.724693
3014.296506,-10658.965565,-518.144159,-2145.067394
3014.296843,-9326.594869,0.000000,-383.047749
3014.297181,-9474.636058,148.041188,2068.457845
3014.297518,-10955.047942,1702.473667,1838.629195
3014.297855,-12657.521608,-666.185348,995.924147
3014.298193,-13101.645173,-2146.597232,153.219100
3014.298530,-9844.739029,-2960.823768,459.657299
3014.298868,-9326.594869,-2220.617826,2681.334243
3014.299205,-8142.265362,-370.102971,2681.334243
3014.299542,-8808.450710,1332.370696,-1149.143247
3014.299880,-9992.780217,2590.720797,-1991.848295
3014.300217,-11547.212695,888.247130,-1455.581446
3014.300555,-11473.192101,370.102971,-1149.143247
3014.300892,-9992.780217,0.000000,-229.828649
3014.301230,-9474.636058,592.164754,2145.067394
3014.301567,-9548.656652,-592.164754,1915.238745
3014.301904,-10881.027347,-1554.432478,2298.286494
3014.302242,-11251.130318,-2812.782580,1685.410096
3014.302579,-9474.636058,-2294.638420,459.657299
3014.302917,-8734.430116,-222.061783,306.438199
3014.303254,-8512.368333,-740.205942,-1532.190996
3014.303591,-10066.800811,-370.102971,-2528.115143
3014.303929,-10955.047942,-1776.494261,-3370.820191
3014.304266,-9474.636058,-1554.432478,-3217.601092
3014.304604,-8956.491898,-1480.411884,-1378.971896
3014.304941,-9548.656652,0.000000,1072.533697
3014.305278,-9770.718434,0.000000,1149.143247
3014.305616,-11843.295072,-1480.411884,1149.143247
3014.305953,-12509.480420,-1998.556043,1685.410096
3014.306291,-10066.800811,-2294.638420,3217.601092
3014.306628,-9844.739029,-518.144159,6052.154434
3014.306965,-9400.615463,1628.453072,3370.820191
3014.307303,-11769.274478,2812.782580,1991.848295
3014.307640,-11991.336260,1998.556043,-612.876398
3014.307978,-10362.883188,1110.308913,-1915.238745
3014.308315,-9770.718434,1628.453072,153.219100
3014.308653,-8734.430116,1998.556043,-995.924147
3014.308990,-8956.491898,296.082377,-1991.848295
3014.309327,-9548.656652,0.000000,-1762.019645
3014.309665,-9252.574275,-1184.329507,-689.485948
3014.310002,-8882.471304,-148.041188,153.219100
3014.310340,-8290.306550,0.000000,76.609550
3014.310677,-9474.636058,592.164754,0.000000
3014.311014,-10584.944971,-148.041188,-689.485948
3014.311352,-10658.965565,-1258.350101,-842.705048
3014.311689,-10066.800811,-814.226536,0.000000
3014.312027,-9252.574275,-1776.494261,536.266849
3014.312364,-9178.553681,-370.102971,383.047749
3014.312701,-9770.718434,-444.123565,-766.095498
3014.313039,-10658.965565,-296.082377,76.609550
3014.313376,-10288.862594,-1924.535449,-229.828649
3014.313714,-11177.109724,-1332.370696,383.047749
3014.314051,-10140.821405,-444.123565,995.924147
3014.314388,-9548.656652,1184.329507,612.876398
3014.314726,-11325.150913,1554.432478,842.705048
3014.315063,-11769.274478,444.123565,306.438199
3014.315401,-10807.006753,0.000000,842.705048
3014.315738,-10140.821405,-222.061783,1608.800546
3014.316075,-10510.924376,148.041188,1838.629195
3014.316413,-9844.739029,-444.123565,1149.143247
3014.316750,-11399.171507,-1184.329507,536.266849
3014.317088,-10658.965565,-1332.370696,-995.924147
3014.317425,-9030.512492,-1184.329507,-1762.019645
3014.317763,-7328.038826,-962.267725,-919.314598
3014.318100,-8364.327145,-148.041188,-306.438199
3014.318437,-9548.656652,0.000000,-612.876398
3014.318775,-11177.109724,-666.185348,-842.705048
3014.319112,-11029.068536,-1258.350101,0.000000
3014.319450,-9548.656652,-1258.350101,1378.971896
3014.319787,-8956.491898,-666.185348,3217.601092
3014.320124,-9622.677246,-296.082377,2681.334243
3014.320462,-10362.883188,-962.267725,2987.772442
3014.320799,-11325.150913,-1850.514855,2298.286494
3014.321137,-9696.697840,-222.061783,1072.533697
3014.321474,-9326.594869,370.102971,536.266849
3014.321811,-10658.965565,1702.473667,1225.752797
3014.322149,-10362.883188,1184.329507,-383.047749
3014.322486,-10658.965565,1480.411884,-842.705048
3014.322824,-9770.718434,1184.329507,-612.876398
3014.323161,-9548.656652,666.185348,-153.219100
3014.323498,-10658.965565,888.247130,-306.438199
3014.323836,-11029.068536,-370.102971,-536.266849
3014.324173,-10881.027347,-444.123565,-995.924147
3014.324511,-10584.944971,-1924.535449,-1302.362347
3014.324848,-9622.677246,-2294.638420,-766.095498
3014.325186,-8290.306550,-2442.679609,0.000000
3014.325523,-9770.718434,-1406.391290,76.609550
3014.325860,-10066.800811,-666.185348,-536.266849
3014.326198,-10658.965565,-962.267725,-1608.800546
3014.326535,-11177.109724,-518.144159,-1915.238745
3014.326873,-10214.842000,-1850.514855,-1149.143247
3014.327210,-9178.553681,-1554.432478,536.266849
3014.327547,-9252.574275,-1776.494261,2068.457845
3014.327885,-8734.430116,-740.205942,2451.505594
3014.328222,-8660.409521,-444.123565,1455.581446
3014.328560,-11325.150913,0.000000,1838.629195
3014.328897,-11843.295072,592.164754,1149.143247
3014.329234,-10066.800811,1184.329507,-76.609550
3014.329572,-9770.718434,1480.411884,383.047749
3014.329909,-9548.656652,1554.432478,-306.438199
3014.330247,-10584.944971,962.267725,536.266849
3014.330584,-10658.965565,1628.453072,229.828649
3014.330921,-9548.656652,1258.350101,-1225.752797
3014.331259,-9844.739029,1258.350101,-689.485948
3014.331596,-10658.965565,-222.061783,-1378.971896
3014.331934,-8586.388927,-1628.453072,-1225.752797
3014.332271,-8068.244768,-1702.473667,995.924147
3014.332609,-8956.491898,-1702.473667,2987.772442
3014.332946,-10066.800811,740.205942,1455.581446
3014.333283,-12805.562797,370.102971,383.047749
3014.333621,-13175.665768,370.102971,0.000000
3014.333958,-10436.903782,-1998.556043,-1072.533697
3014.334296,-8290.306550,-666.185348,306.438199
3014.334633,-7254.018232,-888.247130,1608.800546
3014.334970,-9474.636058,-1628.453072,1225.752797
3014.335308,-9474.636058,-592.164754,-689.485948
3014.335645,-10658.965565,-740.205942,-229.828649
3014.335983,-10807.006753,-222.061783,842.705048
3014.336320,-10140.821405,-370.102971,0.000000
3014.336657,-9474.636058,0.000000,1378.971896
3014.336995,-9474.636058,370.102971,1149.143247
3014.337332,-10436.903782,-222.061783,1378.971896
3014.337670,-10288.862594,74.020594,306.438199
3014.338007,-10288.862594,-148.041188,-306.438199
3014.338344,-11325.150913,-888.247130,-153.219100
3014.338682,-11177.109724,-740.205942,-1838.629195
3014.339019,-9030.512492,-740.205942,-2604.724693
3014.339357,-8586.388927,-1406.391290,-612.876398
3014.339694,-8512.368333,-1332.370696,-459.657299
3014.340031,-8956.491898,-222.061783,-842.705048
3014.340369,-10955.047942,0.000000,842.705048
3014.340706,-11251.130318,592.164754,995.924147
3014.341043,-11103.089130,592.164754,842.705048
3014.341381,-11991.336260,592.164754,1532.190996
3014.341718,-10732.986159,0.000000,2145.067394
3014.342055,-9770.718434,-518.144159,3140.991542
3014.342393,-8438.347739,0.000000,3753.867940
3014.342730,-9400.615463,-666.185348,3294.210641
3014.343067,-11399.171507,296.082377,2298.286494
3014.343405,-9622.677246,888.247130,-689.485948
3014.343742,-8586.388927,0.000000,-1838.629195
3014.344079,-8216.285956,-444.123565,-76.609550
3014.344417,-7476.080014,962.267725,-153.219100
3014.344754,-8882.471304,962.267725,-1149.143247
3014.345091,-9030.512492,222.061783,-2068.457845
3014.345429,-11103.089130,74.020594,-1072.533697
3014.345766,-12213.398043,-1406.391290,-229.828649
3014.346103,-10288.862594,-1924.535449,-1378.971896
3014.346441,-8660.409521,-3256.906145,459.657299
3014.346778,-9252.574275,-2368.659014,1225.752797
3014.347115,-9844.739029,-888.247130,1149.143247
3014.347453,-12435.459826,-1110.308913,459.657299
3014.347790,-11251.130318,-518.144159,-842.705048
3014.348127,-11621.233289,-814.226536,-612.876398
3014.348465,-12435.459826,-148.041188,536.266849
3014.348802,-10066.800811,74.020594,0.000000
3014.349139,-9844.739029,-666.185348,459.657299
3014.349477,-10436.903782,-666.185348,76.609550
3014.349814,-10066.800811,-962.267725,153.219100
3014.350151,-11399.171507,296.082377,919.314598
3014.350489,-9918.759623,-1554.432478,536.266849
3014.350826,-10066.800811,-518.144159,536.266849
3014.351163,-10362.883188,518.144159,229.828649
3014.351501,-9474.636058,518.144159,-612.876398
3014.351838,-9326.594869,592.164754,-689.485948
3014.352175,-9252.574275,592.164754,-842.705048
3014.352513,-9252.574275,1110.308913,-459.657299
3014.352850,-9400.615463,666.185348,-612.876398
3014.353187,-9992.780217,-1036.288319,-383.047749
3014.353525,-9696.697840,-518.144159,-612.876398
3014.353862,-9252.574275,-888.247130,306.438199
3014.354199,-9326.594869,-370.102971,919.314598
3014.354537,-9104.533087,148.041188,1225.752797
3014.354874,-9696.697840,1406.391290,995.924147
3014.355211,-11029.068536,1258.350101,459.657299
3014.355549,-10140.821405,370.102971,612.876398
3014.355886,-10214.842000,1036.288319,1838.629195
3014.356223,-10807.006753,1554.432478,2681.334243
3014.356561,-9844.739029,1776.494261,2681.334243
3014.356898,-10140.821405,2072.576638,2145.067394
3014.357235,-11843.295072,592.164754,2604.724693
3014.357573,-12583.501014,740.205942,1072.533697
3014.357910,-9770.718434,222.061783,-459.657299
3014.358247,-8660.409521,-296.082377,612.876398
3014.358585,-8216.285956,-962.267725,-153.219100
3014.358922,-8956.491898,-1036.288319,-612.876398
3014.359259,-9622.677246,-1850.514855,-612.876398
3014.359597,-8956.491898,-666.185348,-612.876398
3014.359934,-9548.656652,-518.144159,-689.485948
3014.360271,-11177.109724,-1332.370696,-306.438199
3014.360609,-10807.006753,-2072.576638,-306.438199
3014.360946,-10807.006753,-3108.864956,-153.219100
3014.361283,-9548.656652,-2886.803174,-306.438199
3014.361621,-9030.512492,-3478.967927,-229.828649
3014.361958,-9252.574275,-2738.761985,842.705048
3014.362295,-9252.574275,-2294.638420,0.000000
3014.362633,-10807.006753,-1184.329507,-383.047749
3014.362970,-11399.171507,0.000000,459.657299
3014.363307,-11991.336260,370.102971,766.095498
3014.363645,-10807.006753,1332.370696,995.924147
3014.363982,-10732.986159,1036.288319,1685.410096
3014.364319,-10362.883188,1480.411884,1532.190996
3014.364657,-10732.986159,222.061783,612.876398
3014.364994,-11177.109724,444.123565,306.438199
3014.365331,-10362.883188,-222.061783,-306.438199
3014.365669,-8882.471304,592.164754,306.438199
3014.366006,-8660.409521,1110.308913,153.219100
3014.366343,-9992.780217,740.205942,-306.438199
3014.366681,-9918.759623,740.205942,-1685.410096
3014.367018,-10140.821405,1480.411884,-2145.067394
3014.367355,-9770.718434,296.082377,-1225.752797
3014.367693,-8660.409521,888.247130,-229.828649
3014.368030,-8808.450710,222.061783,-306.438199
3014.368367,-9548.656652,0.000000,-459.657299
3014.368705,-9548.656652,-962.267725,-842.705048
3014.369042,-9400.615463,-1776.494261,-306.438199
3014.369379,-10140.821405,-2516.700203,842.705048
3014.369717,-8586.388927,-1332.370696,766.095498
3014.370054,-9770.718434,-444.123565,689.485948
3014.370391,-10288.862594,-296.082377,459.657299
3014.370729,-9400.615463,0.000000,766.095498
3014.371066,-10140.821405,-296.082377,2145.067394
3014.371403,-11177.109724,296.082377,1225.752797
3014.371741,-11325.150913,592.164754,76.609550
3014.372078,-11621.233289,0.000000,-612.876398
3014.372415,-11177.109724,-1480.411884,0.000000
3014.372753,-10214.842000,-2590.720797,0.000000
3014.373090,-8734.430116,-2294.638420,1302.362347
3014.373427,-8512.368333,-1332.370696,689.485948
3014.373765,-11325.150913,-1110.308913,612.876398
3014.374102,-12361.439231,-740.205942,-1302.362347
3014.374439,-11251.130318,-1036.288319,-1225.752797
3014.374777,-10288.862594,-1702.473667,306.438199
3014.375114,-8586.388927,-1554.432478,1072.533697
3014.375451,-8512.368333,-1332.370696,1608.800546
3014.375789,-9622.677246,-2146.597232,1149.143247
3014.376126,-11325.150913,-2368.659014,842.705048
3014.376463,-10214.842000,-2368.659014,1378.971896
3014.376801,-8882.471304,-2146.597232,2145.067394
3014.377138,-8438.347739,148.041188,3677.258390
3014.377475,-8956.491898,1924.535449,2681.334243
3014.377813,-10881.027347,2368.659014,2068.457845
3014.378150,-11399.171507,1628.453072,1378.971896
3014.378487,-10658.965565,1998.556043,919.314598
3014.378825,-10066.800811,3108.864956,1532.190996
3014.379162,-8956.491898,2368.659014,229.828649
3014.379499,-9326.594869,2072.576638,-612.876398
3014.379837,-10658.965565,592.164754,-612.876398
3014.380174,-9474.636058,1036.288319,-1608.800546
3014.380511,-8512.368333,222.061783,-995.924147
3014.380849,-8438.347739,1924.535449,-689.485948
3014.381186,-9474.636058,2368.659014,-1991.848295
3014.381523,-12657.521608,888.247130,-2911.162892
3014.381861,-11325.150913,-518.144159,-2834.553343
3014.382198,-9104.533087,-2368.659014,-1225.752797
3014.382535,-9030.512492,-1036.288319,1991.848295
3014.382873,-9030.512492,-740.205942,1991.848295
3014.383210,-11029.068536,-1702.473667,536.266849
3014.383547,-11177.109724,-3108.864956,-1225.752797
3014.383885,-9770.718434,-4071.132681,-919.314598
3014.384222,-8734.430116,-2738.761985,306.438199
3014.384559,-8586.388927,-2146.597232,1532.190996
3014.384897,-9548.656652,-296.082377,612.876398
3014.385234,-10658.965565,74.020594,-1455.581446
3014.385571,-11399.171507,0.000000,-1532.190996
3014.385909,-11029.068536,-962.267725,383.047749
3014.386246,-10214.842000,-222.061783,1149.143247
3014.386583,-9992.780217,-370.102971,1302.362347
3014.386921,-10881.027347,518.144159,1225.752797
3014.387258,-10658.965565,-888.247130,383.047749
3014.387595,-11621.233289,-1628.453072,0.000000
3014.387933,-9992.780217,-1628.453072,-689.485948
3014.388270,-9474.636058,222.061783,153.219100
3014.388607,-9548.656652,0.000000,612.876398
3014.388945,-10066.800811,592.164754,-383.047749
3014.389282,-10436.903782,-370.102971,-766.095498
3014.389619,-10362.883188,-222.061783,-153.219100
3014.389957,-8660.409521,444.123565,459.657299
3014.390294,-9104.533087,148.041188,1838.629195
3014.390631,-9770.718434,592.164754,3140.991542
3014.390969,-9770.718434,148.041188,2221.676944
3014.391306,-9918.759623,814.226536,2987.772442
3014.391643,-9992.780217,74.020594,2987.772442
3014.391981,-8660.409521,1554.432478,2145.067394
3014.392318,-9178.553681,1998.556043,1455.581446
3014.392656,-10658.965565,1998.556043,459.657299
3014.392993,-10214.842000,1406.391290,-1225.752797
3014.393330,-9918.759623,666.185348,-1072.533697
3014.393668,-9178.553681,1554.432478,229.828649
3014.394005,-8216.285956,740.205942,76.609550
3014.394342,-9844.739029,1998.556043,459.657299
3014.394680,-12139.377449,74.020594,-536.266849
3014.395017,-11695.253884,-1998.556043,-1072.533697
3014.395354,-10066.800811,-1850.514855,-1149.143247
3014.395692,-9622.677246,-1258.350101,536.266849
3014.396029,-9030.512492,-1258.350101,0.000000
3014.396366,-9622.677246,-1480.411884,-919.314598
3014.396704,-11547.212695,-2220.617826,-1225.752797
3014.397041,-10658.965565,-1776.494261,-1608.800546
3014.397378,-10510.924376,-2960.823768,459.657299
3014.397716,-10584.944971,-2960.823768,2604.724693
3014.398053,-10214.842000,-1776.494261,1762.019645
3014.398390,-10955.047942,-1776.494261,1149.143247
3014.398728,-10362.883188,-1924.535449,76.609550
3014.399065,-9252.574275,-2220.617826,1149.143247
3014.399402,-9474.636058,-1258.350101,1991.848295
3014.399740,-8956.491898,148.041188,1302.362347
3014.400077,-10362.883188,1184.329507,689.485948
3014.400414,-11769.274478,444.123565,-842.705048
3014.400752,-11473.192101,74.020594,-1762.019645
3014.401089,-9770.718434,0.000000,-689.485948
3014.401426,-8290.306550,0.000000,842.705048
3014.401764,-8956.491898,592.164754,1225.752797
3014.402101,-10362.883188,1258.350101,0.000000
3014.402438,-10881.027347,222.061783,-1838.629195
3014.402776,-9918.759623,-814.226536,-2068.457845
3014.403113,-8290.306550,518.144159,-1072.533697
3014.403450,-8586.388927,592.164754,612.876398
3014.403788,-10362.883188,1258.350101,842.705048
3014.404125,-10658.965565,1184.329507,-919.314598
3014.404462,-11177.109724,1480.411884,-919.314598
3014.404800,-11473.192101,0.000000,1149.143247
3014.405137,-9696.697840,0.000000,2451.505594
3014.405474,-9622.677246,888.247130,2451.505594
3014.405812,-9400.615463,518.144159,995.924147
3014.406149,-10140.821405,370.102971,536.266849
3014.406486,-10584.944971,-1776.494261,536.266849
3014.406824,-9030.512492,-370.102971,0.000000
3014.407161,-8956.491898,1184.329507,1378.971896
3014.407498,-10955.047942,2072.576638,1685.410096
3014.407836,-10436.903782,1036.288319,-842.705048
3014.408173,-9400.615463,148.041188,-2451.505594
3014.408510,-9992.780217,-888.247130,-459.657299
3014.408848,-10510.924376,-1332.370696,0.000000
3014.409185,-9252.574275,-1258.350101,-229.828649
3014.409522,-9622.677246,-1554.432478,-766.095498
3014.409860,-10584.944971,-1998.556043,-612.876398
3014.410197,-11325.150913,-2516.700203,-459.657299
3014.410534,-9770.718434,-2220.617826,229.828649
3014.410872,-8956.491898,-740.205942,1072.533697
3014.411209,-10288.862594,-370.102971,2145.067394
3014.411546,-11917.315666,-740.205942,1072.533697
3014.411884,-11547.212695,-1554.432478,76.609550
3014.412221,-10510.924376,-2146.597232,995.924147
3014.412558,-8586.388927,-814.226536,2145.067394
3014.412896,-9474.636058,370.102971,4136.915689
3014.413233,-10881.027347,1480.411884,2374.896044
3014.413570,-10955.047942,1480.411884,-383.047749
3014.413908,-11029.068536,444.123565,-229.828649
3014.414245,-9696.697840,888.247130,0.000000
3014.414582,-8364.327145,518.144159,995.924147
3014.414920,-8734.430116,1702.473667,1838.629195
3014.415257,-9326.594869,1628.453072,383.047749
3014.415594,-11917.315666,1184.329507,-383.047749
3014.415932,-11843.295072,222.061783,-1608.800546
3014.416269,-9400.615463,-518.144159,-1685.410096
3014.416606,-8216.285956,-1702.473667,229.828649
3014.416944,-7920.203579,-1036.288319,-153.219100
3014.417281,-9622.677246,-962.267725,-229.828649
3014.417618,-10288.862594,-1554.432478,-1455.581446
3014.417956,-9844.739029,-1554.432478,-1685.410096
3014.418293,-10658.965565,-370.102971,0.000000
3014.418630,-9696.697840,1406.391290,612.876398
3014.418968,-9992.780217,814.226536,919.314598
3014.419305,-12065.356855,-148.041188,536.266849
3014.419642,-11029.068536,-1480.411884,-536.266849
3014.419980,-10288.862594,-1406.391290,1225.752797
3014.420317,-8586.388927,-296.082377,2451.505594
3014.420654,-9548.656652,-518.144159,1838.629195
3014.420992,-11621.233289,0.000000,306.438199
3014.421329,-9844.739029,740.205942,-1532.190996
3014.421666,-9178.553681,222.061783,-1149.143247
3014.422004,-8438.347739,222.061783,-766.095498
3014.422341,-9400.615463,0.000000,0.000000
3014.422678,-10658.965565,74.020594,0.000000
3014.423016,-10288.862594,-1184.329507,-76.609550
3014.423353,-10658.965565,-2442.679609,-153.219100
3014.423690,-9622.677246,-2294.638420,1762.019645
3014.424028,-8808.450710,-2294.638420,1838.629195
3014.424365,-10066.800811,-1924.535449,-536.266849
3014.424702,-9326.594869,-1480.411884,-1762.019645
3014.425040,-10214.842000,-1332.370696,-612.876398
3014.425377,-9918.759623,-1258.350101,689.485948
3014.425714,-8882.471304,-962.267725,0.000000
3014.426052,-10288.862594,1924.535449,995.924147
3014.426389,-11251.130318,1776.494261,1149.143247
3014.426726,-11103.089130,1406.391290,766.095498
3014.427064,-11695.253884,1258.350101,2221.676944
3014.427401,-11695.253884,1332.370696,2068.457845
3014.427738,-10881.027347,814.226536,2068.457845
3014.428076,-10732.986159,1110.308913,1302.362347
3014.428413,-9178.553681,1110.308913,229.828649
3014.428750,-8586.388927,222.061783,76.609550
3014.429088,-8734.430116,0.000000,-536.266849
3014.429425,-8882.471304,814.226536,-995.924147
3014.429762,-9104.533087,1554.432478,-612.876398
3014.430100,-10510.924376,1480.411884,-1302.362347
3014.430437,-11251.130318,1036.288319,-1991.848295
3014.430774,-9770.718434,-814.226536,-1455.581446
3014.431112,-8734.430116,-1406.391290,306.438199
3014.431449,-9770.718434,-1628.453072,1762.019645
3014.431786,-10658.965565,-1924.535449,995.924147
3014.432124,-10140.821405,-1998.556043,0.000000
3014.432461,-9770.718434,-2072.576638,-383.047749
3014.432798,-9622.677246,-1184.329507,383.047749
3014.433136,-9696.697840,-518.144159,0.000000
3014.433473,-9400.615463,-222.061783,1149.143247
3014.433810,-10362.883188,-592.164754,2298.286494
3014.434148,-11695.253884,-518.144159,2681.334243
3014.434485,-11843.295072,148.041188,2374.896044
3014.434822,-11251.130318,222.061783,2068.457845
3014.435160,-10807.006753,-740.205942,1302.362347
3014.435497,-9474.636058,-222.061783,229.828649
3014.435834,-9104.533087,222.061783,1225.752797
3014.436172,-9622.677246,-74.020594,689.485948
3014.436509,-9696.697840,-666.185348,-766.095498
3014.436846,-10955.047942,740.205942,-1532.190996
3014.437184,-10066.800811,-74.020594,-1302.362347
3014.437521,-10140.821405,-444.123565,-1225.752797
3014.437858,-9400.615463,-740.205942,-536.266849
3014.438195,-9400.615463,-962.267725,0.000000
3014.438533,-9992.780217,-592.164754,0.000000
3014.438870,-9770.718434,-1776.494261,536.266849
3014.439207,-9696.697840,-1332.370696,1072.533697
3014.439544,-9622.677246,-1184.329507,459.657299
3014.439882,-9326.594869,-666.185348,0.000000
3014.440219,-9326.594869,-296.082377,-842.705048
3014.440556,-10066.800811,-740.205942,-995.924147
3014.440893,-9400.615463,0.000000,-536.266849
3014.441231,-9770.718434,888.247130,1378.971896
3014.441568,-10510.924376,1258.350101,1685.410096
3014.441905,-11917.315666,444.123565,459.657299
3014.442243,-11177.109724,1110.308913,306.438199
3014.442580,-10140.821405,888.247130,1225.752797
3014.442917,-9992.780217,0.000000,459.657299
3014.443254,-9326.594869,-74.020594,-536.266849
3014.443592,-9770.718434,74.020594,-995.924147
3014.443929,-10066.800811,0.000000,-1149.143247
3014.444266,-9770.718434,0.000000,-2528.115143
3014.444603,-10436.903782,740.205942,-1762.019645
3014.444941,-10214.842000,-592.164754,-1838.629195
3014.445278,-10288.862594,-1628.453072,-766.095498
3014.445615,-9844.739029,-1036.288319,459.657299
3014.445952,-9400.615463,-1702.473667,1762.019645
3014.446290,-9770.718434,-1554.432478,1608.800546
3014.446627,-9844.739029,-2442.679609,1762.019645
3014.446964,-9400.615463,-1110.308913,1608.800546
3014.447301,-9326.594869,-1258.350101,2145.067394
3014.447639,-9844.739029,-1332.370696,3447.429741
3014.447976,-10732.986159,296.082377,2451.505594
3014.448313,-10732.986159,296.082377,1532.190996
3014.448650,-9992.780217,592.164754,995.924147
3014.448988,-9770.718434,1036.288319,1225.752797
3014.449325,-9400.615463,74.020594,1685.410096
3014.449662,-9474.636058,962.267725,1072.533697
3014.450000,-9474.636058,1258.350101,1149.143247
3014.450337,-10140.821405,888.247130,229.828649
3014.450674,-11251.130318,444.123565,76.609550
3014.451011,-10955.047942,-148.041188,76.609550
3014.451349,-10658.965565,518.144159,536.266849
3014.451686,-9400.615463,444.123565,229.828649
3014.452023,-9178.553681,0.000000,-459.657299
3014.452360,-11251.130318,-888.247130,-1225.752797
3014.452698,-10658.965565,-1406.391290,-919.314598
3014.453035,-9770.718434,-1998.556043,-1225.752797
3014.453372,-9474.636058,-962.267725,383.047749
3014.453709,-9474.636058,-222.061783,153.219100
3014.454047,-9992.780217,-592.164754,-306.438199
3014.454384,-10881.027347,-518.144159,-1455.581446
3014.454721,-9622.677246,-962.267725,-383.047749
3014.455058,-10436.903782,-444.123565,612.876398
3014.455396,-9548.656652,1036.288319,1608.800546
3014.455733,-9474.636058,962.267725,-766.095498
3014.456070,-9844.739029,-444.123565,306.438199
3014.456407,-10881.027347,-888.247130,1072.533697
3014.456745,-9548.656652,-1258.350101,1915.238745
3014.457082,-9030.512492,370.102971,1915.238745
3014.457419,-10066.800811,148.041188,536.266849
3014.457757,-10955.047942,0.000000,153.219100
3014.458094,-10584.944971,-74.020594,-1378.971896
3014.458431,-9770.718434,296.082377,-919.314598
3014.458768,-9918.759623,888.247130,-1225.752797
3014.459106,-9178.553681,0.000000,-1762.019645
3014.459443,-10807.006753,-1258.350101,-536.266849
3014.459780,-10510.924376,-666.185348,-1915.238745
3014.460117,-9696.697840,-1258.350101,-689.485948
3014.460455,-9770.718434,-888.247130,1532.190996
3014.460792,-9252.574275,-370.102971,1149.143247
3014.461129,-10807.006753,-740.205942,1378.971896
3014.461466,-11917.315666,-666.185348,1378.971896
3014.461804,-11029.068536,-1036.288319,1532.190996
3014.462141,-9474.636058,-370.102971,2298.286494
3014.462478,-8438.347739,518.144159,2681.334243
3014.462815,-9030.512492,1776.494261,1302.362347
3014.463153,-11029.068536,888.247130,842.705048
3014.463490,-11547.212695,148.041188,-1302.362347
3014.463827,-9252.574275,-740.205942,-1225.752797
3014.464164,-8956.491898,-740.205942,0.000000
3014.464502,-7846.182985,-444.123565,1072.533697
3014.464839,-9178.553681,-888.247130,0.000000
3014.465176,-10732.986159,-888.247130,-1225.752797
3014.465514,-11103.089130,-1924.535449,-995.924147
3014.465851,-9770.718434,-1924.535449,229.828649
3014.466188,-9104.533087,-1850.514855,1455.581446
3014.466525,-8956.491898,-518.144159,2221.676944
3014.466863,-11547.212695,222.061783,383.047749
3014.467200,-13323.706956,-592.164754,-229.828649
3014.467537,-12583.501014,-1554.432478,-536.266849
3014.467874,-10066.800811,-2146.597232,0.000000
3014.468212,-9770.718434,-518.144159,2145.067394
3014.468549,-10510.924376,74.020594,1302.362347
3014.468886,-11029.068536,0.000000,-536.266849
3014.469223,-11325.150913,-1332.370696,-689.485948
3014.469561,-9622.677246,-1406.391290,383.047749
3014.469898,-7920.203579,148.041188,3677.258390
3014.470235,-9030.512492,1554.432478,3677.258390
3014.470572,-10881.027347,1628.453072,2451.505594
3014.470910,-11695.253884,1036.288319,0.000000
3014.471247,-10584.944971,592.164754,229.828649
3014.471584,-8660.409521,-444.123565,766.095498
3014.471921,-7920.203579,222.061783,2374.896044
3014.472259,-8512.368333,962.267725,306.438199
3014.472596,-9252.574275,0.000000,-2528.115143
3014.472933,-9474.636058,0.000000,-3370.820191
3014.473271,-8660.409521,-1406.391290,-2757.943793
3014.473608,-8438.347739,-1184.329507,-842.705048
3014.473945,-8290.306550,0.000000,-766.095498
3014.474282,-10436.903782,1258.350101,-689.485948
3014.474620,-12361.439231,592.164754,-1378.971896
3014.474957,-11325.150913,-814.226536,-995.924147
3014.475294,-10658.965565,-962.267725,1302.362347
3014.475631,-10140.821405,-740.205942,2374.896044
3014.475969,-10658.965565,370.102971,2145.067394
3014.476306,-12139.377449,222.061783,76.609550
3014.476643,-11325.150913,-1628.453072,-1455.581446
3014.476980,-8882.471304,-1554.432478,-1225.752797
3014.477318,-9696.697840,-888.247130,1455.581446
3014.477655,-8882.471304,1554.432478,153.219100
3014.477992,-10140.821405,1702.473667,-612.876398
3014.478329,-12509.480420,666.185348,-1302.362347
3014.478667,-11399.171507,-740.205942,-2911.162892
3014.479004,-10066.800811,-1924.535449,0.000000
3014.479341,-7698.141797,-1702.473667,2374.896044
3014.479678,-8734.430116,-1332.370696,1608.800546
3014.480016,-10436.903782,-444.123565,-383.047749
3014.480353,-9696.697840,-1702.473667,-2374.896044
3014.480690,-10066.800811,-2738.761985,-766.095498
3014.481028,-9474.636058,-3330.926739,0.000000
3014.481365,-7550.100608,-666.185348,766.095498
3014.481702,-8660.409521,814.226536,689.485948
3014.482039,-10732.986159,0.000000,612.876398
3014.482377,-11473.192101,148.041188,-612.876398
3014.482714,-11325.150913,-1036.288319,919.314598
3014.483051,-9326.594869,666.185348,4290.134789
3014.483388,-10288.862594,1258.350101,3677.258390
3014.483726,-11473.192101,1628.453072,3447.429741
3014.484063,-11621.233289,740.205942,1991.848295
3014.484400,-9844.739029,-296.082377,766.095498
3014.484737,-9400.615463,-296.082377,1455.581446
3014.485075,-8660.409521,1998.556043,2374.896044
3014.485412,-9400.615463,3404.947333,612.876398
3014.485749,-10881.027347,3256.906145,-2068.457845
3014.486086,-11325.150913,2368.659014,-3447.429741
3014.486424,-10214.842000,-222.061783,-1838.629195
3014.486761,-8882.471304,-296.082377,689.485948
3014.487098,-7624.121203,0.000000,1072.533697
3014.487435,-9400.615463,-444.123565,995.924147
3014.487773,-10732.986159,-1850.514855,-995.924147
3014.488110,-11029.068536,-3034.844362,-1225.752797
3014.488447,-10362.883188,-2886.803174,-383.047749
3014.488785,-8216.285956,-2220.617826,689.485948
3014.489122,-9104.533087,-1258.350101,919.314598
3014.489459,-9400.615463,-740.205942,0.000000
3014.489796,-10510.924376,-1406.391290,306.438199
3014.490134,-12287.418637,-1332.370696,0.000000
3014.490471,-10881.027347,-740.205942,-383.047749
3014.490808,-10658.965565,-518.144159,1149.143247
3014.491145,-11325.150913,-222.061783,1915.238745
3014.491483,-10955.047942,-370.102971,153.219100
3014.491820,-10362.883188,-1258.350101,0.000000
3014.492157,-9696.697840,-2072.576638,-306.438199
3014.492494,-9326.594869,-74.020594,536.266849
3014.492832,-10807.006753,962.267725,153.219100
3014.493169,-10881.027347,1036.288319,-766.095498
3014.493506,-11251.130318,962.267725,-1762.019645
3014.493843,-10362.883188,0.000000,-536.266849
3014.494181,-9400.615463,222.061783,-306.438199
3014.494518,-9252.574275,0.000000,76.609550
3014.494855,-9548.656652,0.000000,0.000000
3014.495192,-9696.697840,-1776.494261,-919.314598
3014.495530,-9696.697840,-1776.494261,-153.219100
3014.495867,-9400.615463,-1332.370696,1532.190996
3014.496204,-8216.285956,-592.164754,1455.581446
3014.496542,-8142.265362,0.000000,1302.362347
3014.496879,-9696.697840,1554.432478,1225.752797
3014.497216,-9918.759623,1184.329507,919.314598
3014.497553,-11473.192101,1184.329507,536.266849
3014.497891,-10066.800811,296.082377,919.314598
3014.498228,-9622.677246,2590.720797,2451.505594
3014.498565,-10732.986159,2294.638420,1991.848295
3014.498902,-11325.150913,592.164754,-306.438199
3014.499240,-11029.068536,-1110.308913,-919.314598
3014.499577,-9770.718434,-1850.514855,-919.314598
3014.499914,-7476.080014,-666.185348,153.219100
3014.500251,-7994.224174,148.041188,383.047749
3014.500589,-9992.780217,1258.350101,0.000000
3014.500926,-12287.418637,222.061783,-2834.553343
3014.501263,-13841.851115,0.000000,-2757.943793
3014.501600,-10955.047942,-814.226536,-2528.115143
3014.501938,-9400.615463,-2220.617826,229.828649
3014.502275,-9326.594869,-2146.597232,1225.752797
3014.502612,-9992.780217,-2294.638420,766.095498
3014.502949,-10732.986159,-2516.700203,-536.266849
3014.503287,-9030.512492,-3478.967927,-1378.971896
3014.503624,-8956.491898,-3034.844362,1302.362347
3014.503961,-9844.739029,-1554.432478,2221.676944
3014.504299,-10066.800811,222.061783,1532.190996
3014.504636,-11621.233289,222.061783,459.657299
3014.504973,-11547.212695,-222.061783,612.876398
3014.505310,-9400.615463,370.102971,1685.410096
3014.505648,-9326.594869,814.226536,2834.553343
3014.505985,-9474.636058,0.000000,3140.991542
3014.506322,-11177.109724,222.061783,1302.362347
3014.506659,-11103.089130,444.123565,76.609550
3014.506997,-9400.615463,296.082377,-459.657299
3014.507334,-7402.059420,296.082377,383.047749
3014.507671,-8290.306550,814.226536,459.657299
3014.508008,-10214.842000,1406.391290,-76.609550
3014.508346,-10955.047942,1776.494261,-1838.629195
3014.508683,-10807.006753,1406.391290,-1225.752797
3014.509020,-10436.903782,222.061783,-612.876398
3014.509357,-9252.574275,0.000000,1149.143247
3014.509695,-9178.553681,-370.102971,1685.410096
3014.510032,-9474.636058,0.000000,1685.410096
3014.510369,-10658.965565,-1480.411884,0.000000
3014.510706,-10658.965565,-1850.514855,536.266849
3014.511044,-9104.533087,-2072.576638,842.705048
3014.511381,-9696.697840,-444.123565,1072.533697
3014.511718,-10362.883188,962.267725,995.924147
3014.512055,-10510.924376,1036.288319,-536.266849
3014.512393,-10658.965565,518.144159,0.000000
3014.512730,-10510.924376,-592.164754,-612.876398
3014.513067,-10584.944971,222.061783,383.047749
3014.513405,-10658.965565,296.082377,919.314598
3014.513742,-10584.944971,-592.164754,76.609550
3014.514079,-9474.636058,-962.267725,-612.876398
3014.514416,-9326.594869,-1036.288319,-689.485948
3014.514754,-10140.821405,-1628.453072,-919.314598
3014.515091,-9474.636058,-2220.617826,-1455.581446
3014.515428,-9474.636058,-740.205942,-1378.971896
3014.515765,-9992.780217,-518.144159,-1455.581446
3014.516103,-10732.986159,-1110.308913,-689.485948
3014.516440,-10362.883188,-1258.350101,-383.047749
3014.516777,-10362.883188,-888.247130,76.609550
3014.517114,-9770.718434,-666.185348,459.657299
3014.517452,-9844.739029,-370.102971,1455.581446
3014.517789,-10140.821405,-1036.288319,1608.800546
3014.518126,-11177.109724,-888.247130,1915.238745
3014.518463,-10955.047942,-814.226536,2298.286494
3014.518801,-9622.677246,814.226536,1838.629195
3014.519138,-9474.636058,740.205942,2451.505594
3014.519475,-10584.944971,2664.741391,2757.943793
3014.519812,-10584.944971,2590.720797,536.266849
3014.520150,-10436.903782,2368.659014,-536.266849
3014.520487,-9474.636058,1850.514855,-612.876398
3014.520824,-8808.450710,1554.432478,-306.438199
3014.521162,-8956.491898,1258.350101,536.266849
3014.521499,-10584.944971,296.082377,-76.609550
3014.521836,-9622.677246,444.123565,-919.314598
3014.522173,-9252.574275,-1110.308913,-766.095498
3014.522511,-8364.327145,-592.164754,536.266849
3014.522848,-9178.553681,-592.164754,459.657299
3014.523185,-9622.677246,-888.247130,76.609550
3014.523522,-10288.862594,-592.164754,-229.828649
3014.523860,-11325.150913,-1110.308913,-306.438199
3014.524197,-10362.883188,-666.185348,-766.095498
3014.524534,-10214.842000,-2368.659014,306.438199
3014.524871,-9844.739029,-1850.514855,1685.410096
3014.525209,-9770.718434,-2072.576638,1762.019645
3014.525546,-11695.253884,-1258.350101,2221.676944
3014.525883,-11991.336260,-740.205942,1762.019645
3014.526220,-11547.212695,-296.082377,0.000000
3014.526558,-10140.821405,-666.185348,689.485948
3014.526895,-9252.574275,222.061783,766.095498
3014.527232,-10066.800811,0.000000,1762.019645
3014.527569,-11399.171507,444.123565,-383.047749
3014.527907,-10362.883188,0.000000,-2145.067394
3014.528244,-10362.883188,-888.247130,-536.266849
3014.528581,-9252.574275,-962.267725,-612.876398
3014.528919,-8808.450710,-1184.329507,0.000000
3014.529256,-9400.615463,-1628.453072,0.000000
3014.529593,-9326.594869,-1406.391290,-842.705048
3014.529930,-9178.553681,-1184.329507,-1685.410096
3014.530268,-9178.553681,-814.226536,-842.705048
3014.530605,-9844.739029,0.000000,766.095498
3014.530942,-10436.903782,-296.082377,383.047749
3014.531279,-11251.130318,0.000000,689.485948
3014.531617,-9770.718434,-222.061783,76.609550
3014.531954,-9104.533087,-592.164754,1455.581446
3014.532291,-8068.244768,-592.164754,919.314598
3014.532628,-9178.553681,222.061783,1072.533697
3014.532966,-10510.924376,1776.494261,1072.533697
3014.533303,-11029.068536,1554.432478,76.609550
3014.533640,-10362.883188,2294.638420,-383.047749
3014.533977,-10510.924376,962.267725,0.000000
3014.534315,-10288.862594,1406.391290,1302.362347
3014.534652,-10214.842000,1036.288319,919.314598
3014.534989,-10288.862594,666.185348,689.485948
3014.535326,-10140.821405,888.247130,-459.657299
3014.535664,-10436.903782,-444.123565,-842.705048
3014.536001,-9918.759623,-1332.370696,-1302.362347
3014.536338,-9770.718434,-2294.638420,-1532.190996
3014.536676,-8660.409521,-2368.659014,0.000000
3014.537013,-9252.574275,-1776.494261,-383.047749
3014.537350,-10140.821405,-1258.350101,-383.047749
3014.537687,-9474.636058,-2146.597232,-1378.971896
3014.538025,-11103.089130,-2072.576638,-153.219100
3014.538362,-10584.944971,-1554.432478,1455.581446
3014.538699,-10436.903782,0.000000,1378.971896
3014.539036,-10881.027347,-1184.329507,1838.629195
3014.539374,-11325.150913,-2368.659014,153.219100
3014.539711,-9992.780217,-2886.803174,919.314598
3014.540048,-9326.594869,-1776.494261,2604.724693
3014.540385,-9178.553681,-666.185348,3294.210641
3014.540723,-9400.615463,1332.370696,3064.381992
3014.541060,-10214.842000,2442.679609,1302.362347
3014.541397,-12139.377449,2664.741391,536.266849
3014.541734,-12509.480420,2294.638420,689.485948
3014.542072,-10658.965565,2072.576638,536.266849
3014.542409,-9252.574275,2146.597232,919.314598
3014.542746,-9696.697840,962.267725,536.266849
3014.543083,-10066.800811,740.205942,459.657299
3014.543421,-9030.512492,-74.020594,-383.047749
3014.543758,-7994.224174,370.102971,229.828649
3014.544095,-8216.285956,814.226536,1378.971896
3014.544432,-8956.491898,518.144159,1532.190996
3014.544770,-9696.697840,1184.329507,1072.533697
3014.545107,-10362.883188,1554.432478,612.876398
3014.545444,-10214.842000,2442.679609,536.266849
3014.545781,-10807.006753,814.226536,1149.143247
3014.546119,-11103.089130,444.123565,2681.334243
3014.546456,-9178.553681,-444.123565,2911.162892
3014.546793,-8882.471304,592.164754,3064.381992
3014.547130,-10214.842000,222.061783,2681.334243
3014.547468,-10807.006753,444.123565,306.438199
3014.547805,-9252.574275,0.000000,842.705048
3014.548142,-8808.450710,888.247130,2145.067394
3014.548479,-9844.739029,3256.906145,2451.505594
3014.548817,-12805.562797,3256.906145,229.828649
3014.549154,-13693.809927,1628.453072,-1225.752797
3014.549491,-11103.089130,0.000000,-1378.971896
3014.549828,-8956.491898,0.000000,1378.971896
3014.550166,-8660.409521,74.020594,2757.943793
3014.550503,-9770.718434,74.020594,1455.581446
3014.550840,-10955.047942,-814.226536,-995.924147
3014.551177,-10436.903782,-1406.391290,-1532.190996
3014.551515,-9178.553681,-1480.411884,1302.362347
3014.551852,-9030.512492,370.102971,3907.087040
3014.552189,-9844.739029,1406.391290,3370.820191
3014.552526,-10732.986159,1924.535449,1532.190996
3014.552864,-11251.130318,2072.576638,1302.362347
3014.553201,-10362.883188,1036.288319,3064.381992
3014.553538,-9918.759623,1184.329507,4903.011187
3014.553876,-10436.903782,814.226536,5669.106685
3014.554213,-9770.718434,1480.411884,4060.306139
3014.554550,-9474.636058,2368.659014,4290.134789
3014.554887,-9326.594869,2590.720797,4519.963438
3014.555225,-8660.409521,3256.906145,3830.477490
3014.555562,-9770.718434,4811.338623,2604.724693
3014.555899,-10881.027347,4737.318029,1072.533697
3014.556236,-11325.150913,4441.235652,1072.533697
3014.556574,-9844.739029,4663.297435,1532.190996
3014.556911,-9770.718434,3849.070898,1991.848295
3014.557248,-9770.718434,3478.967927,2068.457845
3014.557585,-9992.780217,1184.329507,1225.752797
3014.557923,-9178.553681,518.144159,2298.286494
3014.558260,-8142.265362,222.061783,2757.943793
3014.558597,-8808.450710,-296.082377,3294.210641
3014.558934,-10066.800811,1184.329507,3447.429741
3014.559272,-10732.986159,2294.638420,995.924147
3014.559609,-10658.965565,3034.844362,0.000000
3014.559946,-10436.903782,2072.576638,0.000000
3014.560283,-9548.656652,1036.288319,1685.410096
3014.560621,-10436.903782,0.000000,2451.505594
3014.560958,-10658.965565,-148.041188,2834.553343
3014.561295,-9548.656652,444.123565,3294.210641
3014.561632,-9548.656652,444.123565,3983.696590
3014.561970,-9770.718434,1258.350101,3677.258390
3014.562307,-8956.491898,1702.473667,2911.162892
3014.562644,-11029.068536,1776.494261,3447.429741
3014.562981,-12435.459826,3108.864956,1608.800546
3014.563319,-11991.336260,2886.803174,919.314598
3014.563656,-10881.027347,2886.803174,1072.533697
3014.563993,-9178.553681,74.020594,2068.457845
3014.564330,-9030.512492,1628.453072,2757.943793
3014.564668,-9252.574275,1850.514855,1378.971896
3014.565005,-9548.656652,1110.308913,1302.362347
3014.565342,-9696.697840,740.205942,612.876398
3014.565679,-11621.233289,1406.391290,1608.800546
3014.566017,-10807.006753,1998.556043,1378.971896
3014.566354,-9326.594869,1776.494261,2451.505594
3014.566691,-9178.553681,1776.494261,4366.744339
3014.567028,-10214.842000,2294.638420,4749.792088
3014.567366,-11029.068536,2294.638420,3983.696590
3014.567703,-9548.656652,3997.112087,4749.792088
3014.568040,-11251.130318,3478.967927,3907.087040
3014.568377,-11399.171507,3330.926739,3600.648841
3014.568715,-11029.068536,2590.720797,2374.896044
3014.569052,-7698.141797,1998.556043,1685.410096
3014.569389,-7920.203579,1480.411884,2451.505594
3014.569726,-8438.347739,1702.473667,2374.896044
3014.570064,-8808.450710,3256.906145,2068.457845
3014.570401,-9548.656652,3034.844362,1762.019645
3014.570738,-10214.842000,4367.215058,612.876398
3014.571075,-11251.130318,2960.823768,1072.533697
3014.571413,-12805.562797,1480.411884,1608.800546
3014.571750,-10584.944971,0.000000,919.314598
3014.572087,-8586.388927,-1702.473667,2145.067394
3014.572424,-8882.471304,-1258.350101,2987.772442
3014.572762,-8808.450710,-1628.453072,2221.676944
3014.573099,-11325.150913,-444.123565,1302.362347
3014.573436,-9696.697840,74.020594,-766.095498
3014.573773,-10066.800811,518.144159,766.095498
3014.574111,-10584.944971,1998.556043,2068.457845
3014.574448,-10214.842000,2664.741391,2221.676944
3014.574785,-12435.459826,1702.473667,2604.724693
3014.575123,-11843.295072,888.247130,2451.505594
3014.575460,-11991.336260,740.205942,3753.867940
3014.575797,-10955.047942,888.247130,4903.011187
3014.576134,-9178.553681,740.205942,4596.572988
3014.576472,-9770.718434,666.185348,3064.381992
3014.576809,-9326.594869,2072.576638,2451.505594
3014.577146,-8660.409521,3108.864956,2068.457845
3014.577483,-9474.636058,4367.215058,2068.457845
3014.577821,-8586.388927,4367.215058,842.705048
3014.578158,-11177.109724,4441.235652,2068.457845
3014.578495,-12583.501014,4885.359217,2221.676944
3014.578832,-11621.233289,3478.967927,153.219100
3014.579170,-9622.677246,1258.350101,689.485948
3014.579507,-8660.409521,-444.123565,2451.505594
3014.579844,-7624.121203,-1110.308913,3677.258390
3014.580181,-6957.935855,444.123565,3370.820191
3014.580519,-7550.100608,666.185348,3677.258390
3014.580856,-9548.656652,2886.803174,2834.553343
3014.581193,-11769.274478,3701.029710,1378.971896
3014.581530,-11325.150913,4737.318029,1608.800546
3014.581868,-11103.089130,3997.112087,3370.820191
3014.582205,-12065.356855,3034.844362,4213.525239
3014.582542,-11325.150913,3478.967927,3370.820191
3014.582879,-9918.759623,1776.494261,1762.019645
3014.583217,-9696.697840,-518.144159,3830.477490
3014.583554,-9622.677246,-740.205942,4519.963438
3014.583891,-9104.533087,814.226536,4903.011187
3014.584228,-9474.636058,2960.823768,2528.115143
3014.584566,-9696.697840,2960.823768,612.876398
3014.584903,-11769.274478,3404.947333,383.047749
3014.585240,-11843.295072,2664.741391,306.438199
3014.585577,-10807.006753,2812.782580,1225.752797
3014.585915,-9918.759623,2442.679609,1225.752797
3014.586252,-11029.068536,1184.329507,842.705048
3014.586589,-11843.295072,-2072.576638,153.219100
3014.586926,-9030.512492,-1998.556043,919.314598
3014.587264,-7402.059420,-1702.473667,3447.429741
3014.587601,-7994.224174,0.000000,4366.744339
3014.587938,-9252.574275,1776.494261,2298.286494
3014.588275,-11325.150913,2368.659014,1072.533697
3014.588613,-11399.171507,2072.576638,1225.752797
3014.588950,-10288.862594,2886.803174,2298.286494
3014.589287,-10362.883188,3256.906145,5056.230287
3014.589624,-9844.739029,4367.215058,4826.401637
3014.589962,-10584.944971,3849.070898,3677.258390
3014.590299,-11621.233289,3034.844362,3370.820191
3014.590636,-10288.862594,2072.576638,3370.820191
3014.590973,-9326.594869,1998.556043,3677.258390
3014.591311,-7994.224174,2220.617826,2757.943793
3014.591648,-8438.347739,2294.638420,1608.800546
3014.591985,-9992.780217,3404.947333,1762.019645
3014.592322,-9844.739029,3627.009116,1302.362347
3014.592660,-9548.656652,4885.359217,766.095498
3014.592997,-10362.883188,4293.194464,536.266849
3014.593334,-11547.212695,2442.679609,1225.752797
3014.593671,-10436.903782,814.226536,1838.629195
3014.594009,-10066.800811,-1480.411884,2604.724693
3014.594346,-8438.347739,-1036.288319,3677.258390
3014.594683,-8660.409521,-2220.617826,3447.429741
3014.595020,-9548.656652,-1184.329507,3370.820191
3014.595358,-9992.780217,-370.102971,2068.457845
3014.595695,-10807.006753,888.247130,1915.238745
3014.596032,-11029.068536,1332.370696,1762.019645
3014.596369,-11473.192101,1702.473667,1072.533697
3014.596707,-11325.150913,2146.597232,1302.362347
3014.597044,-11029.068536,2516.700203,1915.238745
3014.597381,-11621.233289,1184.329507,2987.772442
3014.597719,-10807.006753,74.020594,2681.334243
3014.598056,-10288.862594,0.000000,2987.772442
3014.598393,-9844.739029,666.185348,1915.238745
3014.598730,-9696.697840,814.226536,612.876398
3014.599068,-9918.759623,1184.329507,229.828649
3014.599405,-10436.903782,1332.370696,0.000000
3014.599742,-9696.697840,2146.597232,0.000000
3014.600079,-9104.533087,2146.597232,76.609550
3014.600417,-9474.636058,1184.329507,229.828649
3014.600754,-9622.677246,1332.370696,1225.752797
3014.601091,-9696.697840,518.144159,1915.238745
3014.601428,-9030.512492,1924.535449,1378.971896
3014.601766,-8956.491898,888.247130,2604.724693
3014.602103,-9696.697840,814.226536,3524.039291
3014.602440,-9474.636058,814.226536,3677.258390
3014.602777,-10066.800811,1998.556043,4366.744339
3014.603115,-9400.615463,2738.761985,4213.525239
3014.603452,-9622.677246,3182.885551,3600.648841
3014.603789,-10732.986159,3849.070898,3600.648841
3014.604126,-10955.047942,4219.173869,1915.238745
3014.604464,-10732.986159,3034.844362,2374.896044
3014.604801,-9918.759623,2220.617826,2911.162892
3014.605138,-9474.636058,1998.556043,3217.601092
3014.605475,-8956.491898,2368.659014,3907.087040
3014.605813,-8956.491898,2220.617826,4060.306139
3014.606150,-9918.759623,2590.720797,3524.039291
3014.606487,-11103.089130,2368.659014,3064.381992
3014.606824,-11473.192101,3034.844362,2374.896044
3014.607162,-11621.233289,1924.535449,1532.190996
3014.607499,-10214.842000,888.247130,1455.581446
3014.607836,-9474.636058,0.000000,1991.848295
3014.608173,-9400.615463,-148.041188,3677.258390
3014.608511,-8512.368333,740.205942,3677.258390
3014.608848,-9622.677246,1702.473667,3447.429741
3014.609185,-10881.027347,2072.576638,2757.943793
3014.609522,-11621.233289,2442.679609,1915.238745
3014.609860,-11917.315666,1924.535449,2451.505594
3014.610197,-10955.047942,1998.556043,3370.820191
3014.610534,-9696.697840,1776.494261,4290.134789
3014.610871,-9474.636058,3256.906145,4673.182538
3014.611209,-9844.739029,3923.091493,3677.258390
3014.611546,-10214.842000,4293.194464,3294.210641
3014.611883,-10658.965565,3701.029710,3217.601092
3014.612220,-10066.800811,4367.215058,2987.772442
3014.612558,-10436.903782,6069.688724,2298.286494
3014.612895,-10732.986159,6069.688724,766.095498
3014.613232,-9992.780217,4811.338623,-1838.629195
3014.613569,-10732.986159,2294.638420,-1149.143247
3014.613907,-9548.656652,1776.494261,536.266849
3014.614244,-7179.997637,2590.720797,0.000000
3014.614581,-7698.141797,3108.864956,766.095498
3014.614918,-8734.430116,2146.597232,1532.190996
3014.615256,-9474.636058,1184.329507,766.095498
3014.615593,-9992.780217,3108.864956,2528.115143
3014.615930,-9326.594869,3701.029710,3524.039291
3014.616267,-9548.656652,3182.885551,3447.429741
3014.616605,-11991.336260,1258.350101,3677.258390
3014.616942,-13027.624579,1702.473667,2757.943793
3014.617279,-10881.027347,666.185348,2145.067394
3014.617616,-8364.327145,-518.144159,2834.553343
3014.617954,-8364.327145,0.000000,3677.258390
3014.618291,-9918.759623,518.144159,1302.362347
3014.618628,-9252.574275,814.226536,-689.485948
3014.618966,-9178.553681,222.061783,0.000000
3014.619303,-10955.047942,1110.308913,2221.676944
3014.619640,-11399.171507,2442.679609,2221.676944
3014.619977,-9770.718434,2294.638420,2604.724693
3014.620315,-10362.883188,1406.391290,3370.820191
3014.620652,-12731.542202,296.082377,3677.258390
3014.620989,-12657.521608,-296.082377,3370.820191
3014.621326,-10214.842000,-666.185348,2528.115143
3014.621664,-9474.636058,-1850.514855,3064.381992
3014.622001,-10066.800811,-1924.535449,2451.505594
3014.622338,-10066.800811,-1184.329507,1685.410096
3014.622675,-8808.450710,-296.082377,919.314598
3014.623013,-7920.203579,-592.164754,612.876398
3014.623350,-8956.491898,666.185348,1762.019645
3014.623687,-9992.780217,962.267725,2987.772442
3014.624024,-10066.800811,1036.288319,4903.011187
3014.624362,-9844.739029,3701.029710,5132.839837
3014.624699,-11843.295072,4515.256246,5439.278036
3014.625036,-12287.418637,2960.823768,5745.716235
3014.625373,-9992.780217,2960.823768,5132.839837
3014.625711,-10362.883188,3552.988522,6281.983084
3014.626048,-10658.965565,4145.153275,4213.525239
3014.626385,-9918.759623,2960.823768,1762.019645
3014.626722,-10436.903782,2960.823768,229.828649
3014.627060,-8586.388927,3182.885551,-1608.800546
3014.627397,-8512.368333,4145.153275,-766.095498
3014.627734,-9030.512492,3849.070898,0.000000
3014.628071,-7846.182985,5329.482782,0.000000
3014.628409,-10881.027347,3404.947333,612.876398
3014.628746,-11325.150913,3182.885551,995.924147
3014.629083,-10510.924376,2368.659014,2374.896044
3014.629420,-10881.027347,1406.391290,2451.505594
3014.629758,-9474.636058,666.185348,2528.115143
3014.630095,-10807.006753,-1406.391290,1685.410096
3014.630432,-9918.759623,-1332.370696,2528.115143
3014.630769,-7920.203579,-1110.308913,2298.286494
3014.631107,-8142.265362,1702.473667,1838.629195
3014.631444,-8956.491898,2590.720797,1838.629195
3014.631781,-11547.212695,2886.803174,1378.971896
3014.632118,-12731.542202,3997.112087,1149.143247
3014.632456,-10807.006753,3478.967927,383.047749
3014.632793,-11473.192101,2368.659014,2374.896044
3014.633130,-10066.800811,518.144159,3830.477490
3014.633467,-10732.986159,-370.102971,4290.134789
3014.633805,-8734.430116,740.205942,4213.525239
3014.634142,-8956.491898,1184.329507,4060.306139
3014.634479,-11103.089130,2442.679609,4060.306139
3014.634816,-11621.233289,2368.659014,1915.238745
3014.635154,-11251.130318,3849.070898,689.485948
3014.635491,-10140.821405,3552.988522,153.219100
3014.635828,-9400.615463,1850.514855,1302.362347
3014.636165,-9992.780217,1776.494261,2604.724693
3014.636503,-9178.553681,1702.473667,2604.724693
3014.636840,-8660.409521,1258.350101,2451.505594
3014.637177,-9252.574275,1998.556043,4213.525239
3014.637514,-10214.842000,2368.659014,3753.867940
3014.637852,-10362.883188,1628.453072,3294.210641
3014.638189,-8364.327145,1776.494261,3907.087040
3014.638526,-9474.636058,2812.782580,5669.106685
3014.638863,-10584.944971,3775.050304,4903.011187
3014.639201,-10807.006753,4589.276840,4136.915689
3014.639538,-11547.212695,4811.338623,4366.744339
3014.639875,-10732.986159,4885.359217,1991.848295
3014.640213,-10140.821405,2812.782580,1455.581446
3014.640550,-9474.636058,1998.556043,1838.629195
3014.640887,-8438.347739,1406.391290,1608.800546
3014.641225,-9178.553681,888.247130,2145.067394
3014.641562,-9474.636058,1480.411884,2298.286494
3014.641900,-9770.718434,1924.535449,2068.457845
3014.642237,-10066.800811,2886.803174,0.000000
3014.642574,-9918.759623,1110.308913,-1455.581446
3014.642912,-11399.171507,0.000000,-536.266849
3014.643249,-10510.924376,-1332.370696,689.485948
3014.643586,-10066.800811,-962.267725,1838.629195
3014.643924,-10214.842000,-592.164754,1838.629195
3014.644261,-9992.780217,-962.267725,76.609550
3014.644598,-10955.047942,-2072.576638,-76.609550
3014.644936,-9622.677246,-2368.659014,1225.752797
3014.645273,-9326.594869,-1702.473667,2068.457845
3014.645610,-9844.739029,666.185348,2145.067394
3014.645948,-11029.068536,1998.556043,2068.457845
3014.646285,-12583.501014,1110.308913,536.266849
3014.646622,-11843.295072,-444.123565,1378.971896
3014.646960,-9474.636058,666.185348,1608.800546
3014.647297,-8586.388927,666.185348,2681.334243
3014.647634,-10214.842000,370.102971,3370.820191
3014.647972,-10436.903782,1480.411884,1455.581446
3014.648309,-10362.883188,1480.411884,0.000000
3014.648647,-9030.512492,2294.638420,-689.485948
3014.648984,-9622.677246,962.267725,306.438199
3014.649321,-9992.780217,592.164754,76.609550
3014.649659,-8586.388927,888.247130,153.219100
3014.649996,-9030.512492,1258.350101,1991.848295
3014.650333,-9918.759623,2368.659014,1685.410096
3014.650671,-11103.089130,2146.597232,1149.143247
3014.651008,-11399.171507,1036.288319,612.876398
3014.651345,-10732.986159,-666.185348,1302.362347
3014.651683,-9030.512492,-222.061783,1991.848295
3014.652020,-9326.594869,0.000000,2451.505594
3014.652357,-10066.800811,444.123565,1225.752797
3014.652695,-9252.574275,888.247130,0.000000
3014.653032,-9844.739029,444.123565,612.876398
3014.653369,-9992.780217,1184.329507,1532.190996
3014.653707,-9252.574275,1628.453072,2374.896044
3014.654044,-10955.047942,1998.556043,919.314598
3014.654382,-11843.295072,1554.432478,-536.266849
3014.654719,-10066.800811,0.000000,-689.485948
3014.655056,-8956.491898,-888.247130,1149.143247
3014.655394,-8882.471304,-814.226536,2834.553343
3014.655731,-9622.677246,-370.102971,536.266849
3014.656068,-10510.924376,222.061783,-2298.286494
3014.656406,-10214.842000,-1850.514855,-2834.553343
3014.656743,-9770.718434,-1110.308913,-2298.286494
3014.657080,-9326.594869,-1924.535449,-536.266849
3014.657418,-9252.574275,-444.123565,229.828649
3014.657755,-10362.883188,-370.102971,842.705048
3014.658092,-11917.315666,-592.164754,995.924147
3014.658430,-11177.109724,-1258.350101,0.000000
3014.658767,-10214.842000,-1554.432478,1149.143247
3014.659104,-10288.862594,-2368.659014,2451.505594
3014.659442,-9770.718434,-1850.514855,1838.629195
3014.659779,-9548.656652,-740.205942,1378.971896
3014.660116,-10436.903782,-370.102971,1072.533697
3014.660454,-9918.759623,296.082377,153.219100
3014.660791,-9992.780217,888.247130,383.047749
3014.661129,-10066.800811,2072.576638,459.657299
3014.661466,-10140.821405,2738.761985,76.609550
3014.661803,-10436.903782,2368.659014,0.000000
3014.662141,-10214.842000,1110.308913,-1532.190996
3014.662478,-9326.594869,148.041188,-612.876398
3014.662815,-9326.594869,-148.041188,153.219100
3014.663153,-9104.533087,-370.102971,0.000000
3014.663490,-8660.409521,-296.082377,-1072.533697
3014.663827,-9474.636058,-1332.370696,-229.828649
3014.664165,-10362.883188,-148.041188,-1225.752797
3014.664502,-9622.677246,-148.041188,-1915.238745
3014.664839,-10658.965565,-518.144159,-306.438199
3014.665177,-9918.759623,-592.164754,0.000000
3014.665514,-10066.800811,-962.267725,-229.828649
3014.665851,-10658.965565,-740.205942,76.609550
3014.666189,-10584.944971,-2368.659014,0.000000
3014.666526,-9548.656652,-2960.823768,612.876398
3014.666863,-9252.574275,-1406.391290,1532.190996
3014.667201,-10214.842000,-1184.329507,2528.115143
3014.667538,-11177.109724,-296.082377,1149.143247
3014.667876,-10658.965565,-148.041188,-1302.362347
3014.668213,-11325.150913,-518.144159,-229.828649
3014.668550,-9992.780217,0.000000,153.219100
3014.668888,-9326.594869,0.000000,766.095498
3014.669225,-10066.800811,0.000000,842.705048
3014.669562,-10362.883188,0.000000,229.828649
3014.669900,-11029.068536,-666.185348,76.609550
3014.670237,-10584.944971,-1184.329507,0.000000
3014.670574,-9104.533087,-1480.411884,919.314598
3014.670912,-10140.821405,-1554.432478,612.876398
3014.671249,-9548.656652,-962.267725,0.000000
3014.671586,-8882.471304,-222.061783,-1149.143247
3014.671924,-9696.697840,0.000000,-766.095498
3014.672261,-9770.718434,0.000000,-1608.800546
3014.672598,-9992.780217,0.000000,-1225.752797
3014.672936,-10214.842000,-296.082377,459.657299
3014.673273,-10584.944971,-666.185348,2298.286494
3014.673610,-9622.677246,518.144159,3064.381992
3014.673948,-10140.821405,592.164754,3064.381992
3014.674285,-9400.615463,1406.391290,2145.067394
3014.674623,-9844.739029,888.247130,1378.971896
3014.674960,-10510.924376,1036.288319,1685.410096
3014.675297,-9474.636058,2072.576638,612.876398
3014.675635,-10436.903782,2294.638420,383.047749
3014.675972,-12213.398043,1110.308913,0.000000
3014.676309,-11325.150913,0.000000,-1762.019645
3014.676647,-9474.636058,0.000000,-1072.533697
3014.676984,-7402.059420,1110.308913,0.000000
3014.677321,-9030.512492,148.041188,612.876398
3014.677659,-10510.924376,-370.102971,-1225.752797
3014.677996,-11103.089130,-1036.288319,-2604.724693
3014.678333,-10732.986159,-2072.576638,-1302.362347
3014.678671,-9844.739029,-1258.350101,-76.609550
3014.679008,-9474.636058,-1258.350101,612.876398
3014.679345,-9918.759623,-1184.329507,383.047749
3014.679683,-10066.800811,-1480.411884,-919.314598
3014.680020,-10658.965565,-2072.576638,-612.876398
3014.680358,-10881.027347,-2886.803174,459.657299
3014.680695,-10288.862594,-2220.617826,1991.848295
3014.681032,-9474.636058,-666.185348,1455.581446
3014.681370,-10214.842000,-592.164754,919.314598
3014.681707,-10807.006753,-888.247130,459.657299
3014.682044,-10140.821405,-1998.556043,459.657299
3014.682382,-9474.636058,-962.267725,1608.800546
3014.682719,-8734.430116,592.164754,1762.019645
3014.683056,-9992.780217,1480.411884,1685.410096
3014.683394,-11621.233289,1110.308913,-306.438199
3014.683731,-11325.150913,-666.185348,-2451.505594
3014.684068,-9770.718434,-1406.391290,-1532.190996
3014.684406,-8956.491898,-888.247130,995.924147
3014.684743,-7624.121203,296.082377,766.095498
3014.685080,-9474.636058,962.267725,-1072.533697
3014.685418,-10584.944971,444.123565,-3140.991542
3014.685755,-10436.903782,-592.164754,-2987.772442
3014.686092,-9844.739029,-666.185348,383.047749
3014.686430,-8586.388927,1110.308913,1608.800546
3014.686767,-10436.903782,1702.473667,1072.533697
3014.687105,-11843.295072,1036.288319,-306.438199
3014.687442,-11251.130318,-296.082377,-842.705048
3014.687779,-10362.883188,-666.185348,1378.971896
3014.688117,-8364.327145,-740.205942,1991.848295
3014.688454,-8734.430116,222.061783,1915.238745
3014.688791,-10140.821405,74.020594,842.705048
3014.689129,-10436.903782,-148.041188,-153.219100
3014.689466,-10140.821405,518.144159,-612.876398
3014.689803,-9918.759623,592.164754,229.828649
3014.690141,-8734.430116,962.267725,612.876398
3014.690478,-9696.697840,888.247130,612.876398
3014.690815,-10436.903782,0.000000,0.000000
3014.691153,-10881.027347,-296.082377,-536.266849
3014.691490,-11769.274478,-2072.576638,-1149.143247
3014.691827,-9844.739029,-2368.659014,-1072.533697
3014.692165,-8438.347739,-1702.473667,-536.266849
3014.692502,-8364.327145,-1776.494261,536.266849
3014.692839,-9992.780217,-2146.597232,76.609550
3014.693177,-11251.130318,-1998.556043,-995.924147
3014.693514,-10807.006753,-1850.514855,-306.438199
3014.693852,-10658.965565,-1480.411884,1532.190996
3014.694189,-10436.903782,-444.123565,2451.505594
3014.694526,-11103.089130,-962.267725,2987.772442
3014.694864,-11029.068536,-962.267725,2451.505594
3014.695201,-9844.739029,-2072.576638,1838.629195
3014.695538,-10362.883188,-1184.329507,3907.087040
3014.695876,-9548.656652,0.000000,3524.039291
3014.696213,-10362.883188,1702.473667,2604.724693
3014.696550,-11547.212695,1628.453072,536.266849
3014.696888,-10955.047942,1406.391290,-1762.019645
3014.697225,-9770.718434,74.020594,-153.219100
3014.697562,-7624.121203,1258.350101,153.219100
3014.697900,-7550.100608,1184.329507,306.438199
3014.698237,-10066.800811,1702.473667,0.000000
3014.698574,-11621.233289,814.226536,-2221.676944
3014.698912,-9992.780217,-370.102971,-3447.429741
3014.699249,-9178.553681,-1258.350101,76.609550
3014.699586,-8068.244768,-1776.494261,536.266849
3014.699924,-9252.574275,-962.267725,-766.095498
3014.700261,-9918.759623,444.123565,-1685.410096
3014.700599,-10436.903782,-1110.308913,-2451.505594
3014.700936,-11399.171507,-2294.638420,-1915.238745
3014.701273,-9770.718434,-962.267725,-1225.752797
3014.701611,-8364.327145,-518.144159,0.000000
3014.701948,-9548.656652,-444.123565,1991.848295
3014.702285,-11547.212695,-888.247130,153.219100
3014.702623,-11029.068536,-370.102971,-229.828649
3014.702960,-10881.027347,-1184.329507,612.876398
3014.703297,-9918.759623,-1184.329507,1532.190996
3014.703635,-9992.780217,-296.082377,1225.752797
3014.703972,-11251.130318,-296.082377,306.438199
3014.704309,-10214.842000,0.000000,-1149.143247
