#time,accel_x,accel_y,accel_z
3327.431366,-11103.089130,-814.226536,1762.019645
3327.431704,-10732.986159,-222.061783,1072.533697
3327.432041,-10214.842000,222.061783,612.876398
3327.432379,-10807.006753,370.102971,1072.533697
3327.432717,-11325.150913,-296.082377,306.438199
3327.433054,-10658.965565,0.000000,76.609550
3327.433392,-9696.697840,-148.041188,612.876398
3327.433730,-9178.553681,222.061783,306.438199
3327.434067,-10436.903782,-814.226536,689.485948
3327.434405,-10584.944971,-1702.473667,153.219100
3327.434743,-9326.594869,-1628.453072,459.657299
3327.435081,-9252.574275,-1184.329507,689.485948
3327.435418,-9400.615463,-1184.329507,306.438199
3327.435756,-9844.739029,-1998.556043,-459.657299
3327.436094,-10066.800811,-2368.659014,0.000000
3327.436431,-9474.636058,-1702.473667,383.047749
3327.436769,-8882.471304,-1110.308913,995.924147
3327.437107,-9844.739029,-1184.329507,1608.800546
3327.437444,-10288.862594,-2220.617826,1302.362347
3327.437782,-10732.986159,-1628.453072,1838.629195
3327.438120,-9844.739029,-888.247130,2911.162892
3327.438457,-9844.739029,0.000000,3907.087040
3327.438795,-10881.027347,74.020594,3370.820191
3327.439133,-11251.130318,-666.185348,2757.943793
3327.439471,-10732.986159,0.000000,2911.162892
3327.439808,-9918.759623,74.020594,3907.087040
3327.440146,-9474.636058,370.102971,4443.353888
3327.440484,-10214.842000,-666.185348,2987.772442
3327.440821,-10362.883188,-518.144159,2681.334243
3327.441159,-10436.903782,-1184.329507,2298.286494
3327.441497,-9252.574275,-1702.473667,2681.334243
3327.441834,-9178.553681,-1480.411884,2145.067394
3327.442172,-9622.677246,-2146.597232,1608.800546
3327.442510,-9400.615463,-2368.659014,-689.485948
3327.442848,-9252.574275,-4441.235652,-306.438199
3327.443185,-9400.615463,-4663.297435,1455.581446
3327.443523,-8364.327145,-5255.462188,1838.629195
3327.443861,-9252.574275,-3775.050304,2221.676944
3327.444198,-10066.800811,-4071.132681,1991.848295
3327.444536,-10807.006753,-4367.215058,919.314598
3327.444874,-9992.780217,-4441.235652,2987.772442
3327.445211,-10658.965565,-4737.318029,3907.087040
3327.445549,-10584.944971,-2960.823768,4979.620737
3327.445887,-11251.130318,-2516.700203,2681.334243
3327.446224,-10807.006753,-2590.720797,1991.848295
3327.446562,-10288.862594,-2516.700203,1915.238745
3327.446900,-10436.903782,-3330.926739,2681.334243
3327.447238,-9696.697840,-3775.050304,2604.724693
3327.447575,-9770.718434,-2812.782580,3907.087040
3327.447913,-11695.253884,-2146.597232,3753.867940
3327.448251,-10732.986159,-1332.370696,2298.286494
3327.448588,-10066.800811,-1184.329507,153.219100
3327.448926,-9844.739029,-2072.576638,612.876398
3327.449264,-9696.697840,-2368.659014,1072.533697
3327.449601,-9030.512492,-2886.803174,1455.581446
3327.449939,-9326.594869,-3330.926739,1608.800546
3327.450277,-10140.821405,-3849.070898,3294.210641
3327.450615,-10066.800811,-3849.070898,2681.334243
3327.450952,-8438.347739,-3034.844362,2528.115143
3327.451290,-8660.409521,-3330.926739,4290.134789
3327.451628,-9474.636058,-2812.782580,4903.011187
3327.451965,-10881.027347,-1036.288319,4596.572988
3327.452303,-10807.006753,0.000000,2834.553343
3327.452641,-10584.944971,740.205942,1838.629195
3327.452978,-11177.109724,-1258.350101,2987.772442
3327.453316,-10214.842000,-1998.556043,2681.334243
3327.453654,-7994.224174,-1554.432478,2987.772442
3327.453991,-7994.224174,-1258.350101,3907.087040
3327.454329,-9696.697840,-1258.350101,3600.648841
3327.454667,-11991.336260,-2442.679609,3294.210641
3327.455005,-11917.315666,-222.061783,2451.505594
3327.455342,-10066.800811,1332.370696,383.047749
3327.455680,-10881.027347,1628.453072,0.000000
3327.456018,-11399.171507,-74.020594,-995.924147
3327.456355,-9622.677246,-2960.823768,-1991.848295
3327.456693,-7698.141797,-3627.009116,766.095498
3327.457031,-8808.450710,-4737.318029,3524.039291
3327.457368,-11769.274478,-4737.318029,3753.867940
3327.457706,-11769.274478,-4071.132681,766.095498
3327.458044,-9030.512492,-3108.864956,153.219100
3327.458382,-9104.533087,-2516.700203,2221.676944
3327.458719,-10807.006753,-2812.782580,2528.115143
3327.459057,-10066.800811,-2516.700203,1608.800546
3327.459395,-10066.800811,-2146.597232,2451.505594
3327.459732,-11399.171507,-1184.329507,3447.429741
3327.460070,-11695.253884,-2072.576638,2604.724693
3327.460408,-10362.883188,-2294.638420,3064.381992
3327.460745,-8438.347739,-3182.885551,3064.381992
3327.461083,-7994.224174,-3108.864956,3294.210641
3327.461421,-8364.327145,-1850.514855,4826.401637
3327.461758,-9548.656652,-1036.288319,6052.154434
3327.462096,-11843.295072,444.123565,4519.963438
3327.462434,-12213.398043,1184.329507,919.314598
3327.462772,-11547.212695,1628.453072,459.657299
3327.463109,-10436.903782,-814.226536,1915.238745
3327.463447,-9400.615463,-1924.535449,2757.943793
3327.463785,-8882.471304,-1332.370696,1302.362347
3327.464122,-7846.182985,-2590.720797,766.095498
3327.464460,-9400.615463,-3923.091493,1991.848295
3327.464798,-9918.759623,-4737.318029,3753.867940
3327.465135,-8586.388927,-4663.297435,4290.134789
3327.465473,-8512.368333,-2146.597232,4903.011187
3327.465811,-10807.006753,-1036.288319,3677.258390
3327.466149,-12583.501014,222.061783,1532.190996
3327.466486,-12139.377449,-1258.350101,0.000000
3327.466824,-11251.130318,-2738.761985,2681.334243
3327.467162,-9844.739029,-2886.803174,3140.991542
3327.467499,-9252.574275,-1850.514855,2757.943793
3327.467837,-9252.574275,-2886.803174,1149.143247
3327.468175,-8068.244768,-5033.400406,459.657299
3327.468512,-9178.553681,-5699.585753,1838.629195
3327.468850,-10288.862594,-3256.906145,3600.648841
3327.469188,-9770.718434,962.267725,689.485948
3327.469525,-10955.047942,296.082377,-383.047749
3327.469863,-14063.912898,0.000000,-1378.971896
3327.470201,-11547.212695,-3849.070898,-536.266849
3327.470539,-9474.636058,-2368.659014,842.705048
3327.470876,-7105.977043,-2294.638420,1149.143247
3327.471214,-10066.800811,-3478.967927,1149.143247
3327.471552,-12139.377449,-5551.544565,0.000000
3327.471889,-8882.471304,-6587.832884,153.219100
3327.472227,-7550.100608,-2590.720797,2757.943793
3327.472565,-8734.430116,-1480.411884,1608.800546
3327.472902,-12287.418637,-2072.576638,995.924147
3327.473240,-12509.480420,-2072.576638,-689.485948
3327.473578,-8068.244768,-444.123565,1608.800546
3327.473916,-8068.244768,888.247130,4060.306139
3327.474253,-12361.439231,518.144159,4903.011187
3327.474591,-14508.036463,-1184.329507,2221.676944
3327.474929,-9918.759623,-666.185348,-76.609550
3327.475266,-5847.626942,518.144159,1685.410096
3327.475604,-6513.812290,444.123565,4673.182538
3327.475942,-11325.150913,-888.247130,2451.505594
3327.476279,-10436.903782,0.000000,-3064.381992
3327.476617,-8882.471304,2590.720797,-2221.676944
3327.476955,-9326.594869,2886.803174,1762.019645
3327.477292,-12139.377449,1702.473667,2068.457845
3327.477630,-12657.521608,740.205942,-689.485948
3327.477968,-8956.491898,1184.329507,-3370.820191
3327.478306,-8068.244768,0.000000,-459.657299
3327.478643,-10066.800811,-1702.473667,2681.334243
3327.478981,-9474.636058,-3034.844362,766.095498
3327.479319,-7698.141797,-1850.514855,-536.266849
3327.479656,-8808.450710,-1036.288319,0.000000
3327.479994,-11325.150913,-1406.391290,459.657299
3327.480332,-13101.645173,-2516.700203,919.314598
3327.480669,-9622.677246,0.000000,-536.266849
3327.481007,-8660.409521,1110.308913,612.876398
3327.481345,-12731.542202,1480.411884,1915.238745
3327.481683,-13767.830521,-370.102971,0.000000
3327.482020,-9844.739029,-962.267725,-536.266849
3327.482358,-5847.626942,-1184.329507,919.314598
3327.482696,-9474.636058,-2368.659014,3907.087040
3327.483033,-12879.583391,-2294.638420,1532.190996
3327.483371,-8956.491898,222.061783,-2757.943793
3327.483709,-8956.491898,74.020594,-1838.629195
3327.484046,-10066.800811,962.267725,-995.924147
3327.484384,-11843.295072,-74.020594,-995.924147
3327.484722,-10584.944971,222.061783,-1532.190996
3327.485059,-7402.059420,592.164754,-995.924147
3327.485397,-10436.903782,-444.123565,459.657299
3327.485735,-13175.665768,-518.144159,459.657299
3327.486072,-9622.677246,-888.247130,-1302.362347
3327.486410,-7254.018232,0.000000,-383.047749
3327.486747,-8364.327145,-1184.329507,1149.143247
3327.487085,-11029.068536,-666.185348,1149.143247
3327.487423,-9696.697840,-592.164754,612.876398
3327.487760,-8734.430116,296.082377,995.924147
3327.488098,-11325.150913,1036.288319,2451.505594
3327.488435,-13767.830521,740.205942,1838.629195
3327.488773,-10955.047942,2590.720797,842.705048
3327.489110,-8068.244768,2146.597232,0.000000
3327.489448,-9400.615463,444.123565,1608.800546
3327.489785,-10807.006753,0.000000,76.609550
3327.490123,-8734.430116,-148.041188,-689.485948
3327.490460,-8068.244768,-888.247130,1225.752797
3327.490798,-9918.759623,-1628.453072,1072.533697
3327.491135,-11843.295072,-1036.288319,229.828649
3327.491473,-10658.965565,0.000000,-1149.143247
3327.491811,-8438.347739,74.020594,-1991.848295
3327.492148,-9178.553681,-740.205942,-1915.238745
3327.492486,-11991.336260,-2072.576638,-1915.238745
3327.492823,-10140.821405,-2664.741391,-2145.067394
3327.493161,-8216.285956,-2220.617826,-383.047749
3327.493498,-9474.636058,-2886.803174,1532.190996
3327.493836,-12065.356855,-3404.947333,1225.752797
3327.494173,-10436.903782,-2368.659014,0.000000
3327.494511,-8586.388927,-1332.370696,383.047749
3327.494848,-10881.027347,-1332.370696,2374.896044
3327.495186,-12731.542202,-1332.370696,536.266849
3327.495523,-11251.130318,-814.226536,383.047749
3327.495861,-7846.182985,222.061783,1072.533697
3327.496198,-9030.512492,-1036.288319,3677.258390
3327.496536,-12583.501014,-370.102971,4213.525239
3327.496874,-10807.006753,296.082377,689.485948
3327.497211,-9104.533087,1036.288319,76.609550
3327.497549,-9400.615463,1036.288319,612.876398
3327.497886,-10732.986159,0.000000,0.000000
3327.498224,-10066.800811,962.267725,-306.438199
3327.498561,-7402.059420,296.082377,0.000000
3327.498899,-8364.327145,518.144159,1455.581446
3327.499236,-11917.315666,-370.102971,383.047749
3327.499574,-11621.233289,74.020594,-1378.971896
3327.499911,-8142.265362,1776.494261,-1685.410096
3327.500249,-8438.347739,592.164754,689.485948
3327.500586,-10510.924376,-222.061783,306.438199
3327.500924,-9844.739029,-296.082377,-842.705048
3327.501261,-7846.182985,592.164754,0.000000
3327.501599,-9030.512492,-888.247130,1762.019645
3327.501937,-12509.480420,-1036.288319,2451.505594
3327.502274,-12139.377449,296.082377,1072.533697
3327.502612,-9326.594869,2368.659014,-612.876398
3327.502949,-9400.615463,1258.350101,-153.219100
3327.503287,-11621.233289,0.000000,-229.828649
3327.503624,-10288.862594,-666.185348,0.000000
3327.503962,-7846.182985,296.082377,-536.266849
3327.504299,-9030.512492,-1036.288319,1149.143247
3327.504637,-12583.501014,-1332.370696,919.314598
3327.504974,-11325.150913,-1036.288319,-1608.800546
3327.505312,-8290.306550,518.144159,-2451.505594
3327.505649,-8734.430116,0.000000,-1225.752797
3327.505987,-11843.295072,-1480.411884,-383.047749
3327.506325,-11029.068536,-1850.514855,-1915.238745
3327.506662,-8586.388927,-1628.453072,-1532.190996
3327.507000,-8512.368333,-1480.411884,995.924147
3327.507337,-12213.398043,-3182.885551,1685.410096
3327.507675,-12065.356855,-1924.535449,0.000000
3327.508012,-8586.388927,-962.267725,-919.314598
3327.508350,-7846.182985,-370.102971,689.485948
3327.508687,-10807.006753,-2146.597232,1378.971896
3327.509025,-11399.171507,-1924.535449,1149.143247
3327.509362,-8882.471304,148.041188,1532.190996
3327.509700,-8956.491898,888.247130,2987.772442
3327.510037,-12953.603985,666.185348,3370.820191
3327.510375,-12879.583391,814.226536,1378.971896
3327.510712,-8808.450710,2368.659014,766.095498
3327.511050,-7698.141797,2146.597232,1149.143247
3327.511388,-10658.965565,888.247130,1685.410096
3327.511725,-10288.862594,74.020594,-459.657299
3327.512063,-7179.997637,148.041188,-995.924147
3327.512400,-7031.956449,222.061783,1378.971896
3327.512738,-10362.883188,-370.102971,2145.067394
3327.513075,-12361.439231,0.000000,-153.219100
3327.513413,-9400.615463,1258.350101,-2451.505594
3327.513750,-7994.224174,1480.411884,-1762.019645
3327.514088,-11843.295072,0.000000,-689.485948
3327.514425,-11177.109724,-1998.556043,-1838.629195
3327.514763,-7846.182985,-1776.494261,-1072.533697
3327.515100,-6957.935855,-1480.411884,766.095498
3327.515438,-11251.130318,-3478.967927,2451.505594
3327.515775,-12953.603985,-2442.679609,1302.362347
3327.516113,-9844.739029,-1332.370696,0.000000
3327.516451,-8882.471304,-222.061783,0.000000
3327.516788,-11621.233289,-814.226536,1302.362347
3327.517126,-12213.398043,-222.061783,536.266849
3327.517463,-9622.677246,-444.123565,-919.314598
3327.517801,-8068.244768,-296.082377,1072.533697
3327.518138,-11177.109724,-1036.288319,2068.457845
3327.518476,-13101.645173,-1258.350101,306.438199
3327.518813,-9474.636058,222.061783,-2145.067394
3327.519151,-8290.306550,592.164754,-1225.752797
3327.519488,-10214.842000,-370.102971,-536.266849
3327.519826,-11621.233289,-1184.329507,-1685.410096
3327.520163,-8586.388927,-666.185348,-1915.238745
3327.520501,-7105.977043,-1184.329507,0.000000
3327.520839,-9844.739029,-1554.432478,2298.286494
3327.521176,-12509.480420,-962.267725,1225.752797
3327.521514,-10658.965565,814.226536,-612.876398
3327.521851,-8660.409521,1628.453072,-919.314598
3327.522189,-10807.006753,370.102971,766.095498
3327.522526,-11547.212695,-592.164754,153.219100
3327.522864,-7179.997637,-222.061783,-153.219100
3327.523201,-5995.668130,518.144159,2757.943793
3327.523539,-9622.677246,-74.020594,5132.839837
3327.523876,-13767.830521,814.226536,2604.724693
3327.524214,-11029.068536,3182.885551,0.000000
3327.524551,-8290.306550,3849.070898,536.266849
3327.524889,-11399.171507,2664.741391,1915.238745
3327.525226,-12879.583391,1406.391290,459.657299
3327.525564,-8586.388927,2294.638420,-1149.143247
3327.525902,-6957.935855,1184.329507,1072.533697
3327.526239,-9844.739029,-1776.494261,2374.896044
3327.526577,-12583.501014,-1554.432478,766.095498
3327.526914,-9918.759623,296.082377,-1838.629195
3327.527252,-7476.080014,592.164754,-2298.286494
3327.527589,-9696.697840,-740.205942,-1838.629195
3327.527927,-11991.336260,-2072.576638,-3140.991542
3327.528264,-9252.574275,-1554.432478,-3677.258390
3327.528602,-6809.894666,-1258.350101,-766.095498
3327.528939,-10658.965565,-2886.803174,2681.334243
3327.529277,-13693.809927,-3330.926739,2068.457845
3327.529614,-11251.130318,-1850.514855,0.000000
3327.529952,-8734.430116,-1036.288319,0.000000
3327.530289,-10807.006753,-2072.576638,1838.629195
3327.530627,-12287.418637,-2442.679609,-459.657299
3327.530965,-8882.471304,-666.185348,-536.266849
3327.531302,-7698.141797,-888.247130,2451.505594
3327.531640,-9548.656652,-1850.514855,3677.258390
3327.531977,-13397.727550,-1406.391290,3140.991542
3327.532315,-11399.171507,666.185348,1455.581446
3327.532652,-8142.265362,2368.659014,0.000000
3327.532990,-10436.903782,296.082377,229.828649
3327.533327,-11473.192101,74.020594,-919.314598
3327.533665,-8586.388927,296.082377,-1378.971896
3327.534002,-6809.894666,444.123565,229.828649
3327.534340,-8956.491898,-222.061783,766.095498
3327.534677,-12583.501014,-1776.494261,1302.362347
3327.535015,-10214.842000,0.000000,-229.828649
3327.535353,-6883.915261,1184.329507,-995.924147
3327.535690,-9178.553681,1184.329507,1378.971896
3327.536028,-12361.439231,370.102971,229.828649
3327.536365,-9770.718434,444.123565,-1302.362347
3327.536703,-7328.038826,888.247130,536.266849
3327.537040,-9400.615463,-1184.329507,3753.867940
3327.537378,-12213.398043,-1776.494261,3983.696590
3327.537715,-11177.109724,74.020594,919.314598
3327.538053,-8290.306550,1924.535449,0.000000
3327.538390,-10436.903782,1480.411884,919.314598
3327.538728,-12509.480420,148.041188,76.609550
3327.539065,-9844.739029,222.061783,-1072.533697
3327.539403,-6809.894666,592.164754,0.000000
3327.539740,-9696.697840,0.000000,2145.067394
3327.540078,-13101.645173,-1480.411884,1149.143247
3327.540416,-10881.027347,-592.164754,-1149.143247
3327.540753,-7179.997637,666.185348,-1608.800546
3327.541091,-10214.842000,0.000000,-76.609550
3327.541428,-12657.521608,-592.164754,-1685.410096
3327.541766,-10214.842000,-962.267725,-4213.525239
3327.542103,-8216.285956,-1850.514855,-1838.629195
3327.542441,-9178.553681,-2368.659014,766.095498
3327.542778,-12213.398043,-2516.700203,1225.752797
3327.543116,-11843.295072,-1776.494261,-229.828649
3327.543453,-8068.244768,666.185348,-1149.143247
3327.543791,-9548.656652,0.000000,1072.533697
3327.544128,-13249.686362,-592.164754,1608.800546
3327.544466,-10510.924376,-222.061783,-383.047749
3327.544803,-8290.306550,888.247130,1149.143247
3327.545141,-8882.471304,962.267725,3524.039291
3327.545479,-11991.336260,74.020594,2681.334243
3327.545816,-11251.130318,518.144159,1991.848295
3327.546154,-7550.100608,2590.720797,153.219100
3327.546491,-9548.656652,3034.844362,995.924147
3327.546829,-13175.665768,2294.638420,306.438199
3327.547166,-10288.862594,2294.638420,-2757.943793
3327.547504,-7031.956449,1776.494261,-1685.410096
3327.547841,-7105.977043,888.247130,1685.410096
3327.548179,-10362.883188,-444.123565,1915.238745
3327.548516,-10732.986159,222.061783,-383.047749
3327.548854,-8142.265362,1036.288319,-842.705048
3327.549191,-9548.656652,1332.370696,-153.219100
3327.549529,-13027.624579,0.000000,229.828649
3327.549867,-11399.171507,518.144159,-2221.676944
3327.550204,-7846.182985,-592.164754,-1991.848295
3327.550542,-8216.285956,-1184.329507,612.876398
3327.550879,-10436.903782,-2368.659014,1838.629195
3327.551217,-11029.068536,-2220.617826,1685.410096
3327.551554,-8956.491898,-592.164754,1225.752797
3327.551892,-10140.821405,-518.144159,1455.581446
3327.552229,-13619.789333,-1036.288319,1225.752797
3327.552567,-11621.233289,-1258.350101,-1072.533697
3327.552904,-7624.121203,-1406.391290,842.705048
3327.553242,-7698.141797,-1776.494261,2528.115143
3327.553579,-11325.150913,-2072.576638,3140.991542
3327.553917,-12879.583391,-1258.350101,153.219100
3327.554254,-9770.718434,-592.164754,-1915.238745
3327.554592,-8882.471304,148.041188,-689.485948
3327.554930,-11547.212695,-1480.411884,-766.095498
3327.555267,-10140.821405,-666.185348,-1915.238745
3327.555605,-7846.182985,-888.247130,-1685.410096
3327.555942,-8068.244768,-1554.432478,612.876398
3327.556280,-10288.862594,-2812.782580,1072.533697
3327.556617,-12509.480420,-1628.453072,919.314598
3327.556955,-9622.677246,222.061783,0.000000
3327.557292,-9474.636058,296.082377,306.438199
3327.557630,-11621.233289,148.041188,1378.971896
3327.557967,-10436.903782,-296.082377,-229.828649
3327.558305,-8586.388927,518.144159,612.876398
3327.558642,-8364.327145,814.226536,2451.505594
3327.558980,-11399.171507,0.000000,2757.943793
3327.559317,-12065.356855,1480.411884,1608.800546
3327.559655,-9178.553681,2294.638420,919.314598
3327.559993,-7846.182985,2368.659014,1072.533697
3327.560330,-10584.944971,1036.288319,766.095498
3327.560668,-10955.047942,2368.659014,-383.047749
3327.561005,-9178.553681,1924.535449,-1225.752797
3327.561343,-7846.182985,1332.370696,229.828649
3327.561680,-10214.842000,-222.061783,766.095498
3327.562018,-11177.109724,-740.205942,76.609550
3327.562355,-9178.553681,518.144159,-689.485948
3327.562693,-8438.347739,222.061783,-842.705048
3327.563030,-10658.965565,-1554.432478,-1378.971896
3327.563368,-10066.800811,-1258.350101,-2757.943793
3327.563705,-8882.471304,-1850.514855,-1378.971896
3327.564043,-8660.409521,-592.164754,229.828649
3327.564381,-11177.109724,-2294.638420,1149.143247
3327.564718,-13323.706956,-2442.679609,1225.752797
3327.565056,-9992.780217,-1776.494261,-536.266849
3327.565393,-8956.491898,-962.267725,459.657299
3327.565731,-11843.295072,-1628.453072,2298.286494
3327.566068,-11843.295072,-2146.597232,536.266849
3327.566406,-9770.718434,-740.205942,612.876398
3327.566743,-8956.491898,-592.164754,1532.190996
3327.567081,-10584.944971,-962.267725,2834.553343
3327.567418,-12657.521608,-1776.494261,2068.457845
3327.567756,-9696.697840,1036.288319,612.876398
3327.568093,-7920.203579,1850.514855,229.828649
3327.568431,-11177.109724,1036.288319,383.047749
3327.568768,-11991.336260,740.205942,-1225.752797
3327.569106,-9474.636058,888.247130,-2834.553343
3327.569444,-7920.203579,1628.453072,-1302.362347
3327.569781,-9178.553681,-444.123565,-306.438199
3327.570119,-10658.965565,-444.123565,-383.047749
3327.570456,-8734.430116,0.000000,-1225.752797
3327.570794,-7328.038826,814.226536,-1072.533697
3327.571131,-10288.862594,592.164754,383.047749
3327.571469,-11991.336260,0.000000,-153.219100
3327.571806,-9030.512492,962.267725,-1072.533697
3327.572144,-7550.100608,666.185348,1149.143247
3327.572481,-9992.780217,148.041188,3524.039291
3327.572819,-12213.398043,-518.144159,2068.457845
3327.573156,-10584.944971,1110.308913,-153.219100
3327.573494,-8364.327145,2294.638420,229.828649
3327.573831,-10881.027347,222.061783,1072.533697
3327.574169,-12213.398043,-370.102971,-842.705048
3327.574507,-9030.512492,370.102971,-1608.800546
3327.574844,-7920.203579,814.226536,842.705048
3327.575182,-8956.491898,-666.185348,1225.752797
3327.575519,-12805.562797,-1850.514855,1378.971896
3327.575857,-10510.924376,0.000000,-995.924147
3327.576194,-8734.430116,-666.185348,-306.438199
3327.576532,-11251.130318,-666.185348,1149.143247
3327.576869,-11769.274478,-1776.494261,-1149.143247
3327.577207,-9474.636058,-1554.432478,-2145.067394
3327.577544,-7698.141797,-2072.576638,-842.705048
3327.577882,-9622.677246,-2886.803174,995.924147
3327.578219,-12435.459826,-2368.659014,383.047749
3327.578557,-10807.006753,-2146.597232,-842.705048
3327.578895,-7476.080014,-740.205942,0.000000
3327.579232,-10807.006753,-1480.411884,1838.629195
3327.579570,-12509.480420,-1480.411884,1762.019645
3327.579907,-9548.656652,222.061783,153.219100
3327.580245,-7846.182985,370.102971,2834.553343
3327.580582,-9696.697840,0.000000,3907.087040
3327.580920,-12435.459826,-962.267725,2987.772442
3327.581257,-11325.150913,1036.288319,1455.581446
3327.581595,-8438.347739,1406.391290,76.609550
3327.581932,-9104.533087,1480.411884,76.609550
3327.582270,-11325.150913,1184.329507,-76.609550
3327.582607,-9696.697840,2072.576638,-1991.848295
3327.582945,-6883.915261,1554.432478,-919.314598
3327.583282,-8882.471304,1332.370696,229.828649
3327.583620,-11917.315666,296.082377,1149.143247
3327.583958,-11251.130318,1480.411884,-1762.019645
3327.584295,-8068.244768,1110.308913,-2451.505594
3327.584633,-9770.718434,0.000000,0.000000
3327.584970,-11473.192101,-1480.411884,689.485948
3327.585308,-10362.883188,-666.185348,0.000000
3327.585645,-7846.182985,-444.123565,306.438199
3327.585983,-9770.718434,-1036.288319,1532.190996
3327.586320,-12805.562797,-2220.617826,1532.190996
3327.586658,-11991.336260,-592.164754,-1072.533697
3327.586995,-7550.100608,148.041188,-1608.800546
3327.587333,-8660.409521,-1036.288319,306.438199
3327.587670,-11843.295072,-962.267725,-153.219100
3327.588008,-10214.842000,-1702.473667,-2221.676944
3327.588345,-7624.121203,-370.102971,153.219100
3327.588683,-8586.388927,-1554.432478,1762.019645
3327.589020,-12879.583391,-2368.659014,2604.724693
3327.589358,-11843.295072,-1332.370696,0.000000
3327.589695,-8142.265362,-666.185348,-995.924147
3327.590032,-9178.553681,0.000000,766.095498
3327.590370,-12065.356855,-2146.597232,383.047749
3327.590707,-11103.089130,-1036.288319,-1608.800546
3327.591045,-8216.285956,-444.123565,-1838.629195
3327.591382,-9030.512492,-1184.329507,536.266849
3327.591720,-11917.315666,-2590.720797,536.266849
3327.592057,-11473.192101,-1332.370696,-919.314598
3327.592395,-7772.162391,0.000000,0.000000
3327.592732,-8956.491898,444.123565,842.705048
3327.593069,-12435.459826,-370.102971,1302.362347
3327.593407,-12065.356855,-814.226536,0.000000
3327.593744,-7994.224174,296.082377,1455.581446
3327.594082,-8586.388927,370.102971,4519.963438
3327.594419,-12879.583391,0.000000,5056.230287
3327.594757,-11917.315666,1554.432478,1455.581446
3327.595094,-7772.162391,3627.009116,-229.828649
3327.595432,-8364.327145,2738.761985,306.438199
3327.595769,-11621.233289,222.061783,612.876398
3327.596106,-9548.656652,592.164754,-766.095498
3327.596444,-6735.874072,1628.453072,-153.219100
3327.596781,-8068.244768,1480.411884,842.705048
3327.597119,-11769.274478,296.082377,0.000000
3327.597456,-11917.315666,-148.041188,-2451.505594
3327.597794,-7994.224174,814.226536,-2451.505594
3327.598131,-8068.244768,74.020594,-229.828649
3327.598469,-11325.150913,-1628.453072,-153.219100
3327.598806,-11029.068536,-2368.659014,-2068.457845
3327.599144,-8068.244768,-1258.350101,-1072.533697
3327.599481,-8364.327145,-814.226536,842.705048
3327.599818,-12583.501014,-1998.556043,1532.190996
3327.600156,-13175.665768,-1258.350101,-306.438199
3327.600493,-9252.574275,-740.205942,-1762.019645
3327.600831,-8660.409521,370.102971,0.000000
3327.601168,-12583.501014,-1406.391290,383.047749
3327.601506,-12657.521608,-1628.453072,-842.705048
3327.601843,-7920.203579,0.000000,-919.314598
3327.602181,-8142.265362,0.000000,1838.629195
3327.602518,-12139.377449,-1110.308913,2451.505594
3327.602855,-12287.418637,-1184.329507,459.657299
3327.603193,-9104.533087,888.247130,0.000000
3327.603530,-9030.512492,1184.329507,1225.752797
3327.603868,-11547.212695,-74.020594,689.485948
3327.604205,-10807.006753,-592.164754,-842.705048
3327.604543,-7846.182985,444.123565,-766.095498
3327.604880,-7550.100608,666.185348,1225.752797
3327.605218,-11917.315666,-814.226536,1302.362347
3327.605555,-11843.295072,-148.041188,-689.485948
3327.605892,-8438.347739,222.061783,-1685.410096
3327.606230,-7624.121203,518.144159,-689.485948
3327.606567,-10140.821405,-444.123565,383.047749
3327.606905,-11177.109724,-1258.350101,383.047749
3327.607242,-7994.224174,-370.102971,536.266849
3327.607580,-7328.038826,0.000000,2681.334243
3327.607917,-11695.253884,0.000000,3983.696590
3327.608255,-13767.830521,-370.102971,2451.505594
3327.608592,-10066.800811,1110.308913,-536.266849
3327.608930,-8512.368333,1480.411884,383.047749
3327.609267,-10658.965565,370.102971,995.924147
3327.609604,-10955.047942,-518.144159,-919.314598
3327.609942,-8808.450710,-296.082377,-1225.752797
3327.610279,-7920.203579,74.020594,689.485948
3327.610617,-11029.068536,-1406.391290,1072.533697
3327.610954,-13175.665768,-1406.391290,612.876398
3327.611292,-9622.677246,0.000000,-1532.190996
3327.611629,-7698.141797,0.000000,-1378.971896
3327.611967,-11177.109724,-1554.432478,229.828649
3327.612304,-12879.583391,-2886.803174,229.828649
3327.612641,-9030.512492,-2590.720797,-1149.143247
3327.612979,-6883.915261,-3108.864956,76.609550
3327.613316,-9844.739029,-3330.926739,1302.362347
3327.613654,-12435.459826,-3404.947333,229.828649
3327.613991,-10066.800811,-1924.535449,-995.924147
3327.614329,-7624.121203,-1184.329507,-1072.533697
3327.614666,-10362.883188,-2146.597232,1532.190996
3327.615004,-12731.542202,-1924.535449,459.657299
3327.615341,-9178.553681,-444.123565,-459.657299
3327.615679,-7846.182985,0.000000,3294.210641
3327.616016,-11103.089130,-592.164754,4826.401637
3327.616353,-12953.603985,0.000000,2374.896044
3327.616691,-10807.006753,2368.659014,-153.219100
3327.617028,-9474.636058,2368.659014,1149.143247
3327.617366,-10658.965565,740.205942,995.924147
3327.617703,-11547.212695,962.267725,-383.047749
3327.618041,-8808.450710,1998.556043,-689.485948
3327.618378,-7105.977043,1702.473667,383.047749
3327.618716,-10214.842000,370.102971,1225.752797
3327.619053,-11843.295072,814.226536,-689.485948
3327.619390,-9770.718434,1776.494261,-1991.848295
3327.619728,-8290.306550,1776.494261,-995.924147
3327.620065,-9770.718434,74.020594,-306.438199
3327.620403,-11029.068536,-592.164754,-766.095498
3327.620740,-8808.450710,-148.041188,-1455.581446
3327.621078,-7179.997637,0.000000,689.485948
3327.621415,-9770.718434,-1554.432478,1685.410096
3327.621753,-12213.398043,-2442.679609,919.314598
3327.622090,-9918.759623,-814.226536,-689.485948
3327.622427,-8142.265362,222.061783,459.657299
3327.622765,-10658.965565,0.000000,1225.752797
3327.623102,-11991.336260,-1480.411884,0.000000
3327.623440,-9474.636058,74.020594,-1608.800546
3327.623777,-8364.327145,0.000000,612.876398
3327.624115,-11103.089130,-888.247130,2451.505594
3327.624452,-12731.542202,-1110.308913,459.657299
3327.624790,-10807.006753,-222.061783,-1532.190996
3327.625127,-8586.388927,148.041188,-1302.362347
3327.625465,-9770.718434,0.000000,-689.485948
3327.625802,-12287.418637,-1554.432478,-459.657299
3327.626139,-10658.965565,-1480.411884,-1915.238745
3327.626477,-7994.224174,-888.247130,-842.705048
3327.626814,-9992.780217,-1554.432478,1762.019645
3327.627152,-12657.521608,-2072.576638,536.266849
3327.627489,-10881.027347,-814.226536,-995.924147
3327.627827,-8068.244768,814.226536,-1302.362347
3327.628164,-9400.615463,0.000000,0.000000
3327.628502,-11843.295072,-1332.370696,-76.609550
3327.628839,-9622.677246,-1184.329507,-229.828649
3327.629176,-7179.997637,-518.144159,1225.752797
3327.629514,-8882.471304,-666.185348,3907.087040
3327.629851,-11843.295072,-148.041188,4673.182538
3327.630189,-11251.130318,740.205942,1532.190996
3327.630526,-8364.327145,2072.576638,459.657299
3327.630864,-9400.615463,2368.659014,1455.581446
3327.631201,-11917.315666,888.247130,1532.190996
3327.631539,-9474.636058,814.226536,-383.047749
3327.631876,-7254.018232,1332.370696,536.266849
3327.632214,-9104.533087,740.205942,1685.410096
3327.632551,-11991.336260,0.000000,383.047749
3327.632888,-11325.150913,-296.082377,-1378.971896
3327.633226,-8734.430116,148.041188,-2145.067394
3327.633563,-8808.450710,0.000000,-459.657299
3327.633901,-10807.006753,-1110.308913,-995.924147
3327.634238,-10510.924376,-1480.411884,-1455.581446
3327.634576,-8216.285956,-1036.288319,76.609550
3327.634913,-9770.718434,-2072.576638,2145.067394
3327.635251,-12583.501014,-2664.741391,1685.410096
3327.635588,-12509.480420,-2368.659014,612.876398
3327.635925,-9326.594869,-814.226536,0.000000
3327.636263,-8586.388927,-1406.391290,0.000000
3327.636600,-11843.295072,-1406.391290,689.485948
3327.636938,-11251.130318,-1924.535449,-459.657299
3327.637275,-7994.224174,-1332.370696,0.000000
3327.637613,-8660.409521,-1036.288319,2757.943793
3327.637950,-11621.233289,-1998.556043,2681.334243
3327.638288,-12213.398043,-222.061783,612.876398
3327.638625,-9400.615463,370.102971,-919.314598
3327.638962,-9178.553681,1258.350101,-229.828649
3327.639300,-10881.027347,370.102971,536.266849
3327.639637,-10584.944971,74.020594,-842.705048
3327.639975,-8438.347739,518.144159,0.000000
3327.640312,-8512.368333,-592.164754,842.705048
3327.640650,-11177.109724,-444.123565,1149.143247
3327.640987,-11843.295072,-666.185348,-536.266849
3327.641325,-8068.244768,888.247130,-612.876398
3327.641662,-7772.162391,592.164754,-229.828649
3327.642000,-11325.150913,222.061783,995.924147
3327.642337,-11103.089130,518.144159,-1302.362347
3327.642674,-7920.203579,1406.391290,-1532.190996
3327.643012,-7846.182985,0.000000,1149.143247
3327.643349,-10881.027347,-74.020594,2374.896044
3327.643687,-11843.295072,-222.061783,1685.410096
3327.644024,-9104.533087,2368.659014,153.219100
3327.644362,-8660.409521,1924.535449,766.095498
3327.644699,-12139.377449,888.247130,1991.848295
3327.645037,-11399.171507,296.082377,-1072.533697
3327.645374,-8364.327145,296.082377,-536.266849
3327.645711,-8586.388927,0.000000,2221.676944
3327.646049,-11029.068536,-962.267725,1915.238745
3327.646386,-11991.336260,-222.061783,-1149.143247
3327.646724,-9030.512492,148.041188,-2604.724693
3327.647061,-8142.265362,296.082377,-2068.457845
3327.647399,-11251.130318,-1850.514855,-1762.019645
3327.647736,-11843.295072,-1702.473667,-2221.676944
3327.648074,-8808.450710,-2368.659014,-1532.190996
3327.648411,-7698.141797,-2664.741391,1762.019645
3327.648749,-11029.068536,-4219.173869,2987.772442
3327.649086,-12805.562797,-3923.091493,1378.971896
3327.649423,-10214.842000,-1332.370696,-383.047749
3327.649761,-8956.491898,-1480.411884,153.219100
3327.650098,-11103.089130,-1554.432478,766.095498
3327.650436,-11547.212695,-2960.823768,689.485948
3327.650773,-8438.347739,-1184.329507,919.314598
3327.651111,-7772.162391,-518.144159,2757.943793
3327.651448,-11177.109724,-888.247130,4136.915689
3327.651786,-13027.624579,-222.061783,1455.581446
3327.652123,-10362.883188,1924.535449,-612.876398
3327.652460,-8882.471304,3404.947333,76.609550
3327.652798,-11177.109724,1406.391290,1532.190996
3327.653135,-11251.130318,1036.288319,0.000000
3327.653473,-8216.285956,2220.617826,-1149.143247
3327.653810,-7698.141797,1924.535449,1149.143247
3327.654148,-10658.965565,148.041188,1455.581446
3327.654485,-12509.480420,222.061783,-383.047749
3327.654823,-9030.512492,1406.391290,-1838.629195
3327.655160,-6957.935855,2368.659014,-1838.629195
3327.655497,-9696.697840,222.061783,-612.876398
3327.655835,-11843.295072,-518.144159,-2374.896044
3327.656172,-8512.368333,-370.102971,-2374.896044
3327.656510,-7402.059420,0.000000,1455.581446
3327.656847,-9918.759623,-1850.514855,2451.505594
3327.657185,-12583.501014,-1332.370696,1532.190996
3327.657522,-9696.697840,-666.185348,-459.657299
3327.657860,-7624.121203,518.144159,0.000000
3327.658197,-11029.068536,-370.102971,1225.752797
3327.658535,-13027.624579,-962.267725,229.828649
3327.658872,-8882.471304,148.041188,-1302.362347
3327.659209,-7402.059420,0.000000,919.314598
3327.659547,-11029.068536,-740.205942,2911.162892
3327.659884,-13545.768739,-1036.288319,689.485948
3327.660222,-10955.047942,518.144159,-919.314598
3327.660559,-8142.265362,814.226536,-1378.971896
3327.660897,-10584.944971,-740.205942,-153.219100
3327.661234,-12213.398043,-1776.494261,-766.095498
3327.661572,-9622.677246,-1998.556043,-1225.752797
3327.661909,-7105.977043,-740.205942,0.000000
3327.662246,-10066.800811,-1850.514855,1149.143247
3327.662584,-13397.727550,-1628.453072,995.924147
3327.662921,-10436.903782,-1332.370696,-842.705048
3327.663259,-7994.224174,666.185348,0.000000
3327.663596,-9844.739029,-74.020594,1685.410096
3327.663934,-12509.480420,-1480.411884,306.438199
3327.664271,-9474.636058,-296.082377,0.000000
3327.664609,-6957.935855,0.000000,1991.848295
3327.664946,-9252.574275,0.000000,4979.620737
3327.665284,-12731.542202,-296.082377,3447.429741
3327.665621,-10510.924376,888.247130,1608.800546
3327.665958,-7624.121203,2738.761985,1302.362347
3327.666296,-9474.636058,1998.556043,1149.143247
3327.666633,-11177.109724,1554.432478,-842.705048
3327.666971,-9252.574275,1184.329507,-1838.629195
3327.667308,-7105.977043,1776.494261,383.047749
3327.667646,-9326.594869,666.185348,2145.067394
3327.667983,-11399.171507,-518.144159,229.828649
3327.668321,-11177.109724,370.102971,-1915.238745
3327.668658,-9770.718434,74.020594,-1762.019645
3327.668995,-9548.656652,296.082377,-919.314598
3327.669333,-11177.109724,-1776.494261,-2221.676944
3327.669670,-10214.842000,-1924.535449,-2145.067394
3327.670008,-7105.977043,-1184.329507,-919.314598
3327.670345,-9178.553681,-2368.659014,2221.676944
3327.670683,-13693.809927,-3108.864956,2298.286494
3327.671020,-12213.398043,-1776.494261,-153.219100
3327.671358,-9622.677246,-1406.391290,306.438199
3327.671695,-10732.986159,-1924.535449,1762.019645
3327.672032,-11917.315666,-2220.617826,306.438199
3327.672370,-10140.821405,-1406.391290,-229.828649
3327.672707,-7772.162391,-1554.432478,766.095498
3327.673045,-8808.450710,-2368.659014,2451.505594
3327.673382,-12879.583391,-2368.659014,2681.334243
3327.673720,-10955.047942,-444.123565,-306.438199
3327.674057,-7624.121203,0.000000,-689.485948
3327.674395,-8808.450710,296.082377,919.314598
3327.674732,-11547.212695,-1110.308913,-612.876398
3327.675070,-10214.842000,0.000000,-1532.190996
3327.675407,-7179.997637,222.061783,-383.047749
3327.675744,-8512.368333,-518.144159,1455.581446
3327.676082,-12435.459826,-592.164754,459.657299
3327.676419,-12435.459826,74.020594,-995.924147
3327.676757,-8068.244768,1258.350101,-1302.362347
3327.677094,-8882.471304,148.041188,842.705048
3327.677432,-11473.192101,0.000000,842.705048
3327.677769,-10140.821405,1036.288319,-766.095498
3327.678107,-7846.182985,1924.535449,229.828649
3327.678444,-9548.656652,888.247130,2451.505594
3327.678781,-13027.624579,444.123565,2757.943793
3327.679119,-12509.480420,1998.556043,1072.533697
3327.679456,-8660.409521,2590.720797,0.000000
3327.679794,-8586.388927,2960.823768,995.924147
3327.680131,-11621.233289,1702.473667,383.047749
3327.680469,-10955.047942,370.102971,-1302.362347
3327.680806,-6513.812290,1258.350101,0.000000
3327.681144,-8290.306550,222.061783,1762.019645
3327.681481,-11843.295072,-222.061783,2757.943793
3327.681819,-11029.068536,-296.082377,-1685.410096
3327.682156,-8364.327145,1258.350101,-1302.362347
3327.682493,-8808.450710,814.226536,-536.266849
3327.682831,-11325.150913,-1480.411884,-689.485948
3327.683168,-10732.986159,-1406.391290,-2221.676944
3327.683506,-7698.141797,-1258.350101,-995.924147
3327.683843,-7846.182985,-2294.638420,766.095498
3327.684181,-12213.398043,-3701.029710,1072.533697
3327.684518,-12731.542202,-2516.700203,306.438199
3327.684856,-9030.512492,-962.267725,-612.876398
3327.685193,-8882.471304,-1332.370696,612.876398
3327.685530,-12361.439231,-1406.391290,536.266849
3327.685868,-11695.253884,-1776.494261,842.705048
3327.686205,-8734.430116,-592.164754,766.095498
3327.686543,-9400.615463,296.082377,2757.943793
3327.686880,-12657.521608,-444.123565,2987.772442
3327.687217,-12361.439231,444.123565,1225.752797
3327.687555,-9104.533087,888.247130,-306.438199
3327.687892,-8882.471304,1850.514855,0.000000
3327.688230,-11547.212695,962.267725,383.047749
3327.688567,-10584.944971,666.185348,-1532.190996
3327.688905,-7105.977043,444.123565,-995.924147
3327.689242,-8734.430116,296.082377,1455.581446
3327.689579,-11547.212695,-666.185348,1455.581446
3327.689917,-11769.274478,74.020594,0.000000
3327.690254,-8364.327145,1036.288319,-459.657299
3327.690592,-7698.141797,518.144159,-383.047749
3327.690929,-10658.965565,74.020594,0.000000
3327.691267,-10955.047942,-1184.329507,-919.314598
3327.691604,-7624.121203,-814.226536,-1072.533697
3327.691941,-7105.977043,-814.226536,612.876398
3327.692279,-11325.150913,-1480.411884,2604.724693
3327.692616,-12287.418637,-1776.494261,1378.971896
3327.692954,-9400.615463,-370.102971,536.266849
3327.693291,-9326.594869,962.267725,995.924147
3327.693628,-11695.253884,-370.102971,919.314598
3327.693966,-11547.212695,0.000000,-612.876398
3327.694303,-9030.512492,-444.123565,0.000000
3327.694641,-8734.430116,-148.041188,2681.334243
3327.694978,-11843.295072,-740.205942,3064.381992
3327.695316,-12731.542202,-740.205942,766.095498
3327.695653,-10362.883188,222.061783,-1072.533697
3327.695990,-9696.697840,370.102971,-919.314598
3327.696328,-10362.883188,-1036.288319,-1302.362347
3327.696665,-10732.986159,-1628.453072,-1532.190996
3327.697003,-8808.450710,-1480.411884,-612.876398
3327.697340,-7476.080014,-1702.473667,-306.438199
3327.697678,-10732.986159,-2146.597232,459.657299
3327.698015,-11917.315666,-2220.617826,459.657299
3327.698352,-9178.553681,-1184.329507,0.000000
3327.698690,-8068.244768,-444.123565,536.266849
3327.699027,-10436.903782,-1332.370696,459.657299
3327.699365,-10881.027347,-1406.391290,-612.876398
3327.699702,-9030.512492,-962.267725,153.219100
3327.700040,-7772.162391,-1258.350101,2911.162892
3327.700377,-9844.739029,-814.226536,4443.353888
3327.700714,-11917.315666,0.000000,3294.210641
3327.701052,-10362.883188,2072.576638,1378.971896
3327.701389,-8734.430116,2590.720797,306.438199
3327.701727,-10807.006753,2072.576638,459.657299
3327.702064,-11399.171507,1554.432478,0.000000
3327.702401,-8438.347739,1998.556043,-919.314598
3327.702739,-6957.935855,2294.638420,153.219100
3327.703076,-10214.842000,444.123565,1149.143247
3327.703414,-12509.480420,814.226536,-383.047749
3327.703751,-10362.883188,1332.370696,-1532.190996
3327.704089,-9252.574275,1184.329507,-766.095498
3327.704426,-10510.924376,0.000000,-689.485948
3327.704763,-10881.027347,-962.267725,-1302.362347
3327.705101,-8956.491898,-962.267725,-1149.143247
3327.705438,-6735.874072,-1628.453072,0.000000
3327.705776,-9178.553681,-2220.617826,612.876398
3327.706113,-12213.398043,-2368.659014,459.657299
3327.706451,-10066.800811,-1332.370696,-1072.533697
3327.706788,-8660.409521,-888.247130,76.609550
3327.707125,-10436.903782,-1628.453072,536.266849
3327.707463,-11399.171507,-1850.514855,0.000000
3327.707800,-9474.636058,-592.164754,0.000000
3327.708138,-8142.265362,-296.082377,1302.362347
3327.708475,-10214.842000,-1628.453072,2757.943793
3327.708812,-13101.645173,-592.164754,2681.334243
3327.709150,-10732.986159,222.061783,306.438199
3327.709487,-8882.471304,740.205942,153.219100
3327.709825,-10362.883188,444.123565,0.000000
3327.710162,-11621.233289,0.000000,-1072.533697
3327.710500,-9474.636058,0.000000,-1378.971896
3327.710837,-7476.080014,1036.288319,-995.924147
3327.711174,-9992.780217,0.000000,0.000000
3327.711512,-12879.583391,0.000000,-766.095498
3327.711849,-11103.089130,888.247130,-1302.362347
3327.712187,-8438.347739,444.123565,-536.266849
3327.712524,-9918.759623,148.041188,1378.971896
3327.712862,-10732.986159,-1924.535449,1072.533697
3327.713199,-9548.656652,-222.061783,0.000000
3327.713536,-6661.853478,518.144159,1225.752797
3327.713874,-9474.636058,-518.144159,3217.601092
3327.714211,-12435.459826,-1184.329507,2911.162892
3327.714549,-10214.842000,1184.329507,842.705048
3327.714886,-8068.244768,1776.494261,1302.362347
3327.715223,-9326.594869,1776.494261,1225.752797
3327.715561,-11399.171507,370.102971,0.000000
3327.715898,-10140.821405,1184.329507,-536.266849
3327.716236,-7031.956449,666.185348,-689.485948
3327.716573,-9400.615463,444.123565,2145.067394
3327.716911,-12065.356855,-888.247130,1532.190996
3327.717248,-10584.944971,-296.082377,0.000000
3327.717585,-8512.368333,518.144159,-995.924147
3327.717923,-10066.800811,74.020594,0.000000
3327.718260,-12139.377449,-666.185348,-1455.581446
3327.718598,-11325.150913,-1110.308913,-2374.896044
3327.718935,-8660.409521,-592.164754,-1532.190996
3327.719273,-8660.409521,-2146.597232,-76.609550
3327.719610,-12213.398043,-3108.864956,612.876398
3327.719947,-11769.274478,-2738.761985,-689.485948
3327.720285,-7920.203579,-2368.659014,-919.314598
3327.720622,-8068.244768,-1924.535449,229.828649
3327.720960,-11769.274478,-3330.926739,1302.362347
3327.721297,-11177.109724,-2368.659014,-229.828649
3327.721634,-7476.080014,-1850.514855,0.000000
3327.721972,-9474.636058,-962.267725,3753.867940
3327.722309,-12287.418637,-2146.597232,4443.353888
3327.722647,-11621.233289,-666.185348,1302.362347
3327.722984,-8882.471304,444.123565,995.924147
3327.723322,-9548.656652,1258.350101,1378.971896
3327.723659,-12065.356855,-370.102971,612.876398
3327.723996,-11621.233289,518.144159,-2145.067394
3327.724334,-7031.956449,962.267725,-2298.286494
3327.724671,-8068.244768,222.061783,1532.190996
3327.725009,-11621.233289,-518.144159,1685.410096
3327.725346,-11547.212695,444.123565,-1072.533697
3327.725684,-9252.574275,1628.453072,-612.876398
3327.726021,-8956.491898,296.082377,-76.609550
3327.726358,-11177.109724,-1184.329507,0.000000
3327.726696,-11103.089130,-814.226536,-459.657299
3327.727033,-7179.997637,0.000000,-612.876398
3327.727371,-7476.080014,-370.102971,1915.238745
3327.727708,-11843.295072,-296.082377,2298.286494
3327.728045,-11769.274478,-1036.288319,-689.485948
3327.728383,-9104.533087,370.102971,0.000000
3327.728720,-8956.491898,444.123565,1378.971896
3327.729058,-11029.068536,-518.144159,995.924147
3327.729395,-10658.965565,148.041188,-842.705048
3327.729733,-7254.018232,222.061783,-306.438199
3327.730070,-7402.059420,740.205942,1915.238745
3327.730407,-13027.624579,-1332.370696,2757.943793
3327.730745,-13175.665768,148.041188,-153.219100
3327.731082,-9622.677246,666.185348,-1762.019645
3327.731420,-8882.471304,888.247130,153.219100
3327.731757,-10807.006753,-962.267725,-995.924147
3327.732095,-10955.047942,-666.185348,-2987.772442
3327.732432,-8068.244768,0.000000,-2834.553343
3327.732769,-8438.347739,-962.267725,153.219100
3327.733107,-12583.501014,-2442.679609,1149.143247
3327.733444,-12213.398043,-962.267725,-306.438199
3327.733782,-9474.636058,74.020594,-536.266849
3327.734119,-8512.368333,-444.123565,1072.533697
3327.734456,-11251.130318,-814.226536,383.047749
3327.734794,-11621.233289,-518.144159,153.219100
3327.735131,-7994.224174,74.020594,-383.047749
3327.735469,-8364.327145,0.000000,2911.162892
3327.735806,-12657.521608,-814.226536,3677.258390
3327.736144,-12287.418637,1184.329507,536.266849
3327.736481,-8734.430116,2294.638420,229.828649
3327.736818,-7550.100608,2072.576638,2221.676944
3327.737156,-10584.944971,1110.308913,2451.505594
3327.737493,-11991.336260,1998.556043,153.219100
3327.737831,-8216.285956,2368.659014,-1608.800546
3327.738168,-7624.121203,1850.514855,689.485948
3327.738506,-11177.109724,148.041188,2221.676944
3327.738843,-11325.150913,296.082377,-1072.533697
3327.739180,-8438.347739,1554.432478,-1608.800546
3327.739518,-8142.265362,1628.453072,-919.314598
3327.739855,-10436.903782,-296.082377,-1532.190996
3327.740193,-11473.192101,-1258.350101,-2681.334243
3327.740530,-8512.368333,-740.205942,-2451.505594
3327.740867,-7550.100608,-888.247130,612.876398
3327.741205,-10881.027347,-2442.679609,2068.457845
3327.741542,-12879.583391,-1998.556043,689.485948
3327.741880,-10140.821405,-888.247130,-459.657299
3327.742217,-8808.450710,-1184.329507,1149.143247
3327.742555,-11621.233289,-2220.617826,1991.848295
3327.742892,-12287.418637,-2590.720797,1072.533697
3327.743229,-9104.533087,-666.185348,0.000000
3327.743567,-7772.162391,-1332.370696,1915.238745
3327.743904,-11769.274478,-2738.761985,2681.334243
3327.744242,-13175.665768,-2516.700203,1378.971896
3327.744579,-9770.718434,-888.247130,76.609550
3327.744917,-7994.224174,740.205942,459.657299
3327.745254,-10955.047942,-1480.411884,995.924147
3327.745591,-12139.377449,-1480.411884,-689.485948
3327.745929,-8364.327145,-1184.329507,-2528.115143
3327.746266,-6809.894666,-1184.329507,0.000000
3327.746604,-10214.842000,-2146.597232,766.095498
3327.746941,-12213.398043,-2442.679609,-689.485948
3327.747279,-9474.636058,-1258.350101,-2221.676944
3327.747616,-7698.141797,-814.226536,0.000000
3327.747953,-10066.800811,-888.247130,536.266849
3327.748291,-11843.295072,-1110.308913,0.000000
3327.748628,-9992.780217,0.000000,-842.705048
3327.748966,-7624.121203,0.000000,1302.362347
3327.749303,-10584.944971,-444.123565,3830.477490
3327.749640,-12509.480420,-740.205942,2298.286494
3327.749978,-9992.780217,888.247130,0.000000
3327.750315,-7772.162391,1998.556043,919.314598
3327.750653,-9844.739029,962.267725,1532.190996
3327.750990,-12657.521608,1258.350101,1072.533697
3327.751328,-9696.697840,1776.494261,-1149.143247
3327.751665,-8142.265362,1850.514855,153.219100
3327.752002,-10362.883188,518.144159,1302.362347
3327.752340,-11917.315666,0.000000,76.609550
3327.752677,-9104.533087,740.205942,-1302.362347
3327.753015,-6957.935855,518.144159,-1149.143247
3327.753352,-9696.697840,518.144159,153.219100
3327.753690,-12435.459826,0.000000,-1302.362347
3327.754027,-9844.739029,0.000000,-3447.429741
3327.754364,-8142.265362,-370.102971,-766.095498
3327.754702,-9918.759623,-2294.638420,842.705048
3327.755039,-12139.377449,-2146.597232,612.876398
3327.755377,-10807.006753,-740.205942,-766.095498
3327.755714,-7772.162391,-666.185348,-919.314598
3327.756051,-10658.965565,-1776.494261,536.266849
3327.756389,-13619.789333,-1924.535449,689.485948
3327.756726,-9622.677246,-740.205942,-459.657299
3327.757064,-7846.182985,-444.123565,2528.115143
3327.757401,-9992.780217,-1258.350101,4213.525239
3327.757739,-13175.665768,-814.226536,2068.457845
3327.758076,-11251.130318,740.205942,306.438199
3327.758413,-8512.368333,592.164754,1072.533697
3327.758751,-9770.718434,740.205942,1302.362347
3327.759088,-12657.521608,666.185348,153.219100
3327.759426,-10140.821405,370.102971,-1378.971896
3327.759763,-7328.038826,1036.288319,-383.047749
3327.760101,-8438.347739,0.000000,689.485948
3327.760438,-12361.439231,0.000000,766.095498
3327.760775,-10140.821405,1258.350101,-2221.676944
3327.761113,-7624.121203,666.185348,-2298.286494
3327.761450,-9178.553681,-148.041188,0.000000
3327.761788,-11029.068536,-1036.288319,-842.705048
3327.762125,-9770.718434,518.144159,-383.047749
3327.762462,-8364.327145,592.164754,229.828649
3327.762800,-9622.677246,0.000000,1532.190996
3327.763137,-12805.562797,-1480.411884,1685.410096
3327.763475,-11843.295072,814.226536,459.657299
3327.763812,-8142.265362,370.102971,-229.828649
3327.764150,-8808.450710,-148.041188,229.828649
3327.764487,-10881.027347,0.000000,0.000000
3327.764824,-10066.800811,74.020594,-995.924147
3327.765162,-7698.141797,0.000000,-459.657299
3327.765499,-9474.636058,-444.123565,842.705048
3327.765837,-12139.377449,-444.123565,1608.800546
3327.766174,-11621.233289,148.041188,0.000000
3327.766512,-8882.471304,296.082377,-689.485948
3327.766849,-9474.636058,-370.102971,0.000000
3327.767186,-11769.274478,-1776.494261,229.828649
3327.767524,-10140.821405,-2220.617826,-919.314598
3327.767861,-7846.182985,-1480.411884,-842.705048
3327.768199,-9178.553681,-2812.782580,919.314598
3327.768536,-11917.315666,-3775.050304,612.876398
3327.768873,-11029.068536,-1850.514855,-536.266849
3327.769211,-8438.347739,-148.041188,-766.095498
3327.769548,-9326.594869,-740.205942,-536.266849
3327.769886,-11917.315666,-1332.370696,0.000000
3327.770223,-10807.006753,-1628.453072,76.609550
3327.770561,-8512.368333,-666.185348,1838.629195
3327.770898,-9030.512492,-518.144159,3524.039291
3327.771235,-12435.459826,-592.164754,4136.915689
3327.771573,-12213.398043,148.041188,2604.724693
3327.771910,-8512.368333,1406.391290,536.266849
3327.772248,-8882.471304,1702.473667,1532.190996
3327.772585,-11473.192101,1036.288319,1072.533697
3327.772923,-10214.842000,370.102971,-1149.143247
3327.773260,-7920.203579,1998.556043,-1455.581446
3327.773597,-7920.203579,1332.370696,-229.828649
3327.773935,-10732.986159,444.123565,459.657299
3327.774272,-11473.192101,-592.164754,-383.047749
3327.774610,-7624.121203,1258.350101,-1838.629195
3327.774947,-7994.224174,518.144159,-459.657299
3327.775284,-10807.006753,-518.144159,-612.876398
3327.775622,-10214.842000,-1776.494261,-1225.752797
3327.775959,-9400.615463,-1998.556043,-306.438199
3327.776297,-8290.306550,-1776.494261,1915.238745
3327.776634,-11103.089130,-1332.370696,1838.629195
3327.776972,-12065.356855,-370.102971,383.047749
3327.777309,-9770.718434,-518.144159,-1302.362347
3327.777646,-9770.718434,296.082377,-689.485948
3327.777984,-12361.439231,-1258.350101,0.000000
3327.778321,-12139.377449,-1776.494261,0.000000
3327.778659,-8068.244768,-740.205942,306.438199
3327.778996,-8142.265362,-74.020594,2298.286494
3327.779334,-11917.315666,-888.247130,2528.115143
3327.779671,-12805.562797,-1110.308913,306.438199
3327.780008,-10436.903782,0.000000,-76.609550
3327.780346,-9104.533087,444.123565,-306.438199
3327.780683,-10732.986159,-592.164754,-76.609550
3327.781021,-11029.068536,-444.123565,-689.485948
3327.781358,-8216.285956,-1258.350101,-995.924147
3327.781695,-7402.059420,-740.205942,919.314598
3327.782033,-10584.944971,-1184.329507,1762.019645
3327.782370,-12435.459826,-814.226536,536.266849
3327.782708,-9474.636058,-592.164754,-1532.190996
3327.783045,-8660.409521,-518.144159,-612.876398
3327.783383,-10436.903782,-888.247130,459.657299
3327.783720,-10214.842000,-740.205942,0.000000
3327.784057,-8068.244768,0.000000,76.609550
3327.784395,-7994.224174,0.000000,2298.286494
3327.784732,-10955.047942,0.000000,2451.505594
3327.785070,-13027.624579,1184.329507,1608.800546
3327.785407,-10807.006753,1850.514855,0.000000
3327.785745,-8290.306550,2886.803174,0.000000
3327.786082,-10436.903782,1406.391290,919.314598
3327.786419,-11843.295072,2146.597232,229.828649
3327.786757,-9326.594869,1776.494261,-536.266849
3327.787094,-8068.244768,2516.700203,459.657299
3327.787432,-11177.109724,888.247130,766.095498
3327.787769,-13397.727550,592.164754,0.000000
3327.788107,-9992.780217,1332.370696,-2681.334243
3327.788444,-6809.894666,666.185348,-2068.457845
3327.788782,-9252.574275,-370.102971,-153.219100
3327.789119,-11177.109724,-1332.370696,-1302.362347
3327.789456,-8808.450710,-962.267725,-1838.629195
3327.789794,-7920.203579,-1258.350101,76.609550
3327.790131,-11029.068536,-2220.617826,2298.286494
3327.790469,-12879.583391,-2516.700203,459.657299
3327.790806,-9252.574275,-592.164754,-1532.190996
3327.791144,-7179.997637,-1480.411884,-229.828649
3327.791481,-9696.697840,-3108.864956,766.095498
3327.791819,-11621.233289,-2516.700203,766.095498
3327.792156,-9400.615463,-1554.432478,383.047749
3327.792493,-8364.327145,-740.205942,2451.505594
3327.792831,-11251.130318,-1628.453072,3447.429741
3327.793168,-13767.830521,-666.185348,2681.334243
3327.793506,-10510.924376,1332.370696,0.000000
3327.793843,-8734.430116,1406.391290,612.876398
3327.794181,-10362.883188,296.082377,1225.752797
3327.794518,-12361.439231,814.226536,-229.828649
3327.794856,-10140.821405,888.247130,-612.876398
3327.795193,-7772.162391,1036.288319,383.047749
3327.795531,-9992.780217,-592.164754,2298.286494
3327.795868,-13397.727550,-518.144159,1685.410096
3327.796205,-10066.800811,370.102971,-1532.190996
3327.796543,-7328.038826,1110.308913,-1378.971896
3327.796880,-9696.697840,-296.082377,0.000000
3327.797218,-10881.027347,-1110.308913,-766.095498
3327.797555,-8808.450710,0.000000,-1532.190996
3327.797893,-6661.853478,-222.061783,842.705048
3327.798230,-9104.533087,-1332.370696,2451.505594
3327.798568,-12509.480420,-1776.494261,2145.067394
3327.798905,-10140.821405,444.123565,383.047749
3327.799242,-7402.059420,592.164754,76.609550
3327.799580,-10288.862594,-666.185348,1378.971896
3327.799917,-11843.295072,-1036.288319,0.000000
3327.800255,-8882.471304,-518.144159,-995.924147
3327.800592,-6587.832884,370.102971,612.876398
3327.800930,-9770.718434,-592.164754,2298.286494
3327.801267,-13841.851115,-888.247130,919.314598
3327.801605,-11843.295072,74.020594,-1608.800546
3327.801942,-8142.265362,888.247130,-1378.971896
3327.802279,-9770.718434,-666.185348,229.828649
3327.802617,-12509.480420,-1998.556043,-766.095498
3327.802954,-10214.842000,-2220.617826,-995.924147
3327.803292,-8216.285956,-740.205942,-306.438199
3327.803629,-9474.636058,-2368.659014,1685.410096
3327.803967,-14359.995275,-2886.803174,1532.190996
3327.804304,-11843.295072,-1184.329507,-1532.190996
3327.804642,-8068.244768,-222.061783,-995.924147
3327.804979,-9696.697840,-962.267725,459.657299
3327.805317,-11991.336260,-1776.494261,-383.047749
3327.805654,-9622.677246,-1332.370696,-995.924147
3327.805991,-7254.018232,-222.061783,0.000000
3327.806329,-8660.409521,-1184.329507,2604.724693
3327.806666,-13101.645173,-888.247130,2911.162892
3327.807004,-11325.150913,222.061783,1149.143247
3327.807341,-7254.018232,1628.453072,1149.143247
3327.807679,-9030.512492,1850.514855,2757.943793
3327.808016,-12583.501014,1258.350101,1838.629195
3327.808354,-10807.006753,1258.350101,-612.876398
3327.808691,-7179.997637,2368.659014,-306.438199
3327.809028,-8216.285956,1110.308913,1838.629195
3327.809366,-12139.377449,222.061783,1378.971896
3327.809703,-10881.027347,740.205942,-995.924147
3327.810041,-7698.141797,2220.617826,-2145.067394
3327.810378,-9104.533087,1702.473667,-383.047749
3327.810716,-12065.356855,222.061783,-1302.362347
3327.811053,-10510.924376,-518.144159,-2145.067394
3327.811391,-7698.141797,74.020594,229.828649
3327.811728,-8512.368333,-370.102971,2298.286494
3327.812065,-13545.768739,-444.123565,2068.457845
3327.812403,-13027.624579,0.000000,-995.924147
3327.812740,-8142.265362,296.082377,-1532.190996
3327.813078,-9326.594869,-1036.288319,1149.143247
3327.813415,-12139.377449,-740.205942,689.485948
3327.813753,-10510.924376,-1258.350101,-536.266849
3327.814090,-7476.080014,-1258.350101,-306.438199
3327.814428,-8438.347739,-962.267725,1915.238745
3327.814765,-12139.377449,-1406.391290,1532.190996
3327.815103,-11695.253884,-666.185348,-383.047749
3327.815440,-7772.162391,518.144159,-1149.143247
3327.815777,-9474.636058,148.041188,995.924147
3327.816115,-11547.212695,-592.164754,-306.438199
3327.816452,-10510.924376,-1332.370696,-1532.190996
3327.816790,-7402.059420,-1036.288319,-766.095498
3327.817127,-7846.182985,-518.144159,612.876398
3327.817465,-11843.295072,-1924.535449,1149.143247
3327.817802,-12213.398043,-666.185348,-1225.752797
3327.818140,-8438.347739,-518.144159,-1915.238745
3327.818477,-9178.553681,0.000000,0.000000
3327.818814,-12139.377449,-962.267725,459.657299
3327.819152,-10732.986159,0.000000,-1072.533697
3327.819489,-7772.162391,296.082377,0.000000
3327.819827,-8586.388927,-222.061783,2604.724693
3327.820164,-11769.274478,-888.247130,2911.162892
3327.820502,-12805.562797,74.020594,2911.162892
3327.820839,-9252.574275,2146.597232,1608.800546
3327.821177,-9252.574275,1480.411884,2374.896044
3327.821514,-11251.130318,1184.329507,995.924147
3327.821851,-10732.986159,1184.329507,-229.828649
3327.822189,-8734.430116,2368.659014,383.047749
3327.822526,-8882.471304,1332.370696,1838.629195
3327.822864,-11843.295072,148.041188,1225.752797
3327.823201,-11695.253884,444.123565,-1532.190996
3327.823539,-7254.018232,1036.288319,-2221.676944
3327.823876,-7476.080014,0.000000,306.438199
3327.824214,-9918.759623,-1924.535449,-689.485948
3327.824551,-10362.883188,-1628.453072,-1455.581446
3327.824889,-7698.141797,-1406.391290,-1149.143247
3327.825226,-8290.306550,-1480.411884,1685.410096
3327.825563,-12065.356855,-2590.720797,2374.896044
3327.825901,-13027.624579,-1628.453072,306.438199
3327.826238,-9400.615463,-1036.288319,-766.095498
3327.826576,-9400.615463,-1332.370696,459.657299
3327.826913,-11177.109724,-2960.823768,689.485948
3327.827251,-11029.068536,-2294.638420,76.609550
3327.827588,-8808.450710,-1406.391290,306.438199
3327.827926,-8586.388927,-666.185348,1302.362347
3327.828263,-12287.418637,-1258.350101,1608.800546
3327.828600,-12953.603985,0.000000,689.485948
3327.828938,-9326.594869,592.164754,-306.438199
3327.829275,-9252.574275,1406.391290,919.314598
3327.829613,-11695.253884,148.041188,383.047749
3327.829950,-11695.253884,740.205942,-995.924147
3327.830288,-9178.553681,740.205942,-919.314598
3327.830625,-8290.306550,444.123565,842.705048
3327.830963,-10881.027347,-1110.308913,1378.971896
3327.831300,-11547.212695,-444.123565,153.219100
3327.831637,-8364.327145,592.164754,-1149.143247
3327.831975,-7994.224174,444.123565,-689.485948
3327.832312,-9992.780217,-1036.288319,-1072.533697
3327.832650,-10658.965565,-518.144159,-995.924147
3327.832987,-8290.306550,-444.123565,0.000000
3327.833325,-7105.977043,962.267725,1149.143247
3327.833662,-10881.027347,-1628.453072,2451.505594
3327.834000,-11917.315666,-296.082377,1838.629195
3327.834337,-9918.759623,148.041188,1072.533697
3327.834675,-8808.450710,740.205942,2604.724693
3327.835012,-10807.006753,74.020594,1915.238745
3327.835349,-12213.398043,0.000000,766.095498
3327.835687,-9326.594869,814.226536,0.000000
3327.836024,-7698.141797,888.247130,1532.190996
3327.836362,-10881.027347,148.041188,2145.067394
3327.836699,-12731.542202,0.000000,229.828649
3327.837037,-10807.006753,1036.288319,-1378.971896
3327.837374,-8956.491898,814.226536,-766.095498
3327.837712,-10436.903782,0.000000,-919.314598
3327.838049,-12065.356855,-666.185348,-1762.019645
3327.838386,-9918.759623,-962.267725,-2911.162892
3327.838724,-7254.018232,-888.247130,-995.924147
3327.839061,-9548.656652,-2442.679609,0.000000
3327.839399,-12509.480420,-2664.741391,1225.752797
3327.839736,-10066.800811,-1924.535449,-1149.143247
3327.840074,-8216.285956,-888.247130,689.485948
3327.840411,-10658.965565,-1628.453072,2068.457845
3327.840749,-11399.171507,-1702.473667,-229.828649
3327.841086,-9178.553681,-1036.288319,-612.876398
3327.841423,-8364.327145,-666.185348,1915.238745
3327.841761,-9474.636058,-1332.370696,2451.505594
3327.842098,-12213.398043,-148.041188,2145.067394
3327.842436,-11547.212695,1110.308913,1072.533697
3327.842773,-8808.450710,1702.473667,306.438199
3327.843111,-10658.965565,1480.411884,995.924147
3327.843448,-11843.295072,2590.720797,0.000000
3327.843786,-9770.718434,1406.391290,-1302.362347
3327.844123,-8290.306550,2368.659014,0.000000
3327.844461,-8956.491898,1406.391290,459.657299
3327.844798,-12953.603985,296.082377,1072.533697
3327.845135,-11473.192101,1110.308913,-689.485948
3327.845473,-8364.327145,814.226536,-1302.362347
3327.845810,-9474.636058,1480.411884,-1532.190996
3327.846148,-10807.006753,-296.082377,-2145.067394
3327.846485,-9252.574275,-518.144159,-2298.286494
3327.846823,-7254.018232,-1110.308913,-919.314598
3327.847160,-9178.553681,-1924.535449,919.314598
3327.847498,-11473.192101,-2590.720797,1532.190996
3327.847835,-9918.759623,-1924.535449,612.876398
3327.848172,-7920.203579,-666.185348,1378.971896
3327.848510,-9622.677246,-1480.411884,1838.629195
3327.848847,-11917.315666,-666.185348,1225.752797
3327.849185,-11547.212695,-888.247130,612.876398
3327.849522,-8956.491898,-888.247130,536.266849
3327.849860,-9400.615463,-1110.308913,1455.581446
3327.850197,-12435.459826,-1258.350101,1915.238745
3327.850535,-11177.109724,-1036.288319,229.828649
3327.850872,-7476.080014,74.020594,-536.266849
3327.851209,-10066.800811,370.102971,383.047749
3327.851547,-12879.583391,-1406.391290,76.609550
3327.851884,-11103.089130,-592.164754,-1685.410096
3327.852222,-7920.203579,-444.123565,0.000000
3327.852559,-8660.409521,-1184.329507,1608.800546
3327.852897,-11399.171507,-1850.514855,842.705048
3327.853234,-11177.109724,-666.185348,-1302.362347
3327.853572,-8438.347739,-518.144159,-766.095498
3327.853909,-9844.739029,-814.226536,383.047749
3327.854247,-12509.480420,-1924.535449,766.095498
3327.854584,-10288.862594,296.082377,-536.266849
3327.854921,-7179.997637,-296.082377,229.828649
3327.855259,-8586.388927,-592.164754,2604.724693
3327.855596,-11029.068536,-1258.350101,2528.115143
3327.855934,-11399.171507,518.144159,1532.190996
3327.856271,-7994.224174,2220.617826,1149.143247
3327.856609,-9400.615463,1850.514855,1608.800546
3327.856946,-12435.459826,1110.308913,995.924147
3327.857284,-10584.944971,666.185348,-612.876398
3327.857621,-7254.018232,2368.659014,0.000000
3327.857958,-8882.471304,1110.308913,1378.971896
3327.858296,-12509.480420,518.144159,1378.971896
3327.858633,-11621.233289,444.123565,-1991.848295
3327.858971,-8068.244768,1258.350101,-2451.505594
3327.859308,-8216.285956,740.205942,-612.876398
3327.859646,-11399.171507,-1702.473667,-1302.362347
3327.859983,-10732.986159,-518.144159,-2221.676944
3327.860321,-8364.327145,-1110.308913,-1149.143247
3327.860658,-8586.388927,-1702.473667,383.047749
3327.860995,-12287.418637,-2960.823768,919.314598
3327.861333,-12731.542202,-2368.659014,0.000000
3327.861670,-8290.306550,-1480.411884,-842.705048
3327.862008,-8956.491898,-1480.411884,1455.581446
3327.862345,-12213.398043,-2590.720797,1378.971896
3327.862683,-11769.274478,-2368.659014,0.000000
3327.863020,-8808.450710,-740.205942,153.219100
3327.863358,-9104.533087,-814.226536,2068.457845
3327.863695,-12065.356855,-1258.350101,2145.067394
3327.864033,-11769.274478,-296.082377,842.705048
3327.864370,-8586.388927,518.144159,153.219100
3327.864707,-7994.224174,1406.391290,1149.143247
3327.865045,-11621.233289,-370.102971,536.266849
3327.865382,-11695.253884,148.041188,-689.485948
3327.865720,-8068.244768,1036.288319,-1532.190996
3327.866057,-7550.100608,518.144159,919.314598
3327.866395,-11621.233289,-666.185348,1072.533697
3327.866732,-11621.233289,-148.041188,-229.828649
3327.867070,-8512.368333,1110.308913,-1302.362347
3327.867407,-7994.224174,666.185348,153.219100
3327.867744,-10510.924376,-444.123565,0.000000
3327.868082,-11177.109724,-592.164754,-1225.752797
3327.868419,-7402.059420,-518.144159,-919.314598
3327.868757,-6439.791695,74.020594,1685.410096
3327.869094,-10881.027347,-2072.576638,2451.505594
3327.869432,-12435.459826,-666.185348,1225.752797
3327.869769,-9326.594869,370.102971,229.828649
3327.870107,-8660.409521,1998.556043,1608.800546
3327.870444,-12287.418637,0.000000,1225.752797
3327.870781,-12361.439231,592.164754,-612.876398
3327.871119,-8956.491898,814.226536,-1608.800546
3327.871456,-7476.080014,-296.082377,1302.362347
3327.871794,-10807.006753,-814.226536,1685.410096
3327.872131,-12805.562797,-74.020594,0.000000
3327.872469,-9918.759623,888.247130,-1915.238745
3327.872806,-8216.285956,592.164754,-1762.019645
3327.873144,-11843.295072,-888.247130,-689.485948
3327.873481,-11103.089130,-592.164754,-1608.800546
3327.873819,-8216.285956,-592.164754,-1991.848295
3327.874156,-8068.244768,-814.226536,689.485948
3327.874493,-12213.398043,-2294.638420,153.219100
3327.874831,-13249.686362,-2220.617826,-383.047749
3327.875168,-9622.677246,-1702.473667,-995.924147
3327.875506,-7476.080014,-1184.329507,1378.971896
3327.875843,-10436.903782,-1924.535449,1608.800546
3327.876181,-11029.068536,-1480.411884,76.609550
3327.876518,-8216.285956,-962.267725,-612.876398
3327.876856,-8364.327145,-666.185348,1762.019645
3327.877193,-11695.253884,-1184.329507,2911.162892
3327.877530,-12879.583391,-370.102971,2145.067394
3327.877868,-9548.656652,1036.288319,1685.410096
3327.878205,-7402.059420,1924.535449,2068.457845
3327.878543,-10436.903782,592.164754,2451.505594
3327.878880,-11843.295072,1628.453072,919.314598
3327.879218,-9030.512492,1258.350101,-995.924147
3327.879555,-8068.244768,1406.391290,1149.143247
3327.879893,-11029.068536,592.164754,1991.848295
3327.880230,-11991.336260,296.082377,842.705048
3327.880567,-9474.636058,1776.494261,-1302.362347
3327.880905,-7994.224174,2072.576638,-459.657299
3327.881242,-10732.986159,444.123565,-383.047749
3327.881580,-11991.336260,-740.205942,-1685.410096
3327.881917,-9474.636058,74.020594,-2068.457845
3327.882255,-7550.100608,-222.061783,842.705048
3327.882592,-10436.903782,-1850.514855,1378.971896
3327.882930,-11991.336260,-2516.700203,0.000000
3327.883267,-9474.636058,-1036.288319,-1302.362347
3327.883605,-7476.080014,-666.185348,0.000000
3327.883942,-11029.068536,-1850.514855,1378.971896
3327.884279,-11843.295072,-1702.473667,-153.219100
3327.884617,-9474.636058,-1110.308913,-229.828649
3327.884954,-8364.327145,-740.205942,1915.238745
3327.885292,-10436.903782,-1776.494261,1915.238745
3327.885629,-12657.521608,-1850.514855,1762.019645
3327.885967,-10807.006753,148.041188,-612.876398
3327.886304,-7550.100608,-296.082377,-995.924147
3327.886642,-10807.006753,-814.226536,153.219100
3327.886979,-11843.295072,-2072.576638,-612.876398
3327.887316,-8882.471304,-296.082377,-2451.505594
3327.887654,-8290.306550,-222.061783,-306.438199
3327.887991,-10658.965565,-1702.473667,153.219100
3327.888329,-12287.418637,-1554.432478,-153.219100
3327.888666,-10362.883188,-740.205942,-1149.143247
3327.889004,-8734.430116,-222.061783,76.609550
3327.889341,-10658.965565,-888.247130,1225.752797
3327.889678,-12731.542202,-1110.308913,383.047749
3327.890016,-9474.636058,-740.205942,0.000000
3327.890353,-7550.100608,74.020594,2757.943793
3327.890691,-9918.759623,-814.226536,3294.210641
3327.891028,-13249.686362,-740.205942,1608.800546
3327.891365,-9696.697840,1258.350101,306.438199
3327.891703,-7698.141797,2072.576638,1838.629195
3327.892040,-9548.656652,1184.329507,1685.410096
3327.892378,-11251.130318,1258.350101,689.485948
3327.892715,-9252.574275,1924.535449,0.000000
3327.893052,-8216.285956,962.267725,1685.410096
3327.893390,-9696.697840,888.247130,1225.752797
3327.893727,-12361.439231,0.000000,689.485948
3327.894065,-10362.883188,370.102971,-459.657299
3327.894402,-7254.018232,296.082377,-1532.190996
3327.894739,-9030.512492,148.041188,-536.266849
3327.895077,-11399.171507,-814.226536,-1455.581446
3327.895414,-9474.636058,-740.205942,-2834.553343
3327.895752,-8586.388927,-1480.411884,-536.266849
3327.896089,-10066.800811,-888.247130,459.657299
3327.896427,-13101.645173,-2220.617826,459.657299
3327.896764,-11325.150913,-740.205942,-612.876398
3327.897101,-8290.306550,-296.082377,-1608.800546
3327.897439,-10510.924376,-1554.432478,0.000000
3327.897776,-12435.459826,-1554.432478,0.000000
3327.898114,-9992.780217,-1258.350101,-1225.752797
3327.898451,-8734.430116,-518.144159,919.314598
3327.898788,-10436.903782,-1258.350101,3140.991542
3327.899126,-12361.439231,-592.164754,2068.457845
3327.899463,-11695.253884,222.061783,612.876398
3327.899801,-8660.409521,814.226536,766.095498
3327.900138,-9326.594869,740.205942,1378.971896
3327.900475,-11695.253884,-296.082377,612.876398
3327.900813,-9252.574275,518.144159,-919.314598
3327.901150,-7254.018232,74.020594,-229.828649
3327.901488,-9252.574275,518.144159,1532.190996
3327.901825,-11843.295072,-296.082377,536.266849
3327.902163,-11325.150913,518.144159,-1072.533697
3327.902500,-8586.388927,666.185348,-1915.238745
3327.902837,-8364.327145,222.061783,-459.657299
3327.903175,-10214.842000,0.000000,-766.095498
3327.903512,-9326.594869,814.226536,-536.266849
3327.903850,-8512.368333,-518.144159,1149.143247
3327.904187,-8660.409521,-666.185348,2528.115143
3327.904524,-12065.356855,-666.185348,2757.943793
3327.904862,-12509.480420,74.020594,1838.629195
3327.905199,-9030.512492,1036.288319,153.219100
3327.905537,-9252.574275,1406.391290,1072.533697
3327.905874,-11547.212695,0.000000,306.438199
3327.906211,-9474.636058,148.041188,-536.266849
3327.906549,-8586.388927,-370.102971,306.438199
3327.906886,-9400.615463,-666.185348,2911.162892
3327.907224,-11547.212695,-740.205942,1915.238745
3327.907561,-12139.377449,-518.144159,306.438199
3327.907898,-9252.574275,296.082377,-2374.896044
3327.908236,-9104.533087,0.000000,-536.266849
3327.908573,-11473.192101,-1702.473667,-612.876398
3327.908911,-10066.800811,-1776.494261,-1608.800546
3327.909248,-8586.388927,-1776.494261,-1072.533697
3327.909586,-9030.512492,-2368.659014,612.876398
3327.909923,-12139.377449,-3775.050304,536.266849
3327.910260,-11991.336260,-2812.782580,-383.047749
3327.910598,-8364.327145,-1628.453072,-1072.533697
3327.910935,-8882.471304,-1480.411884,0.000000
3327.911273,-10658.965565,-1998.556043,-536.266849
3327.911610,-10584.944971,-1628.453072,-995.924147
3327.911947,-9104.533087,-1406.391290,689.485948
3327.912285,-9178.553681,-1184.329507,3217.601092
3327.912622,-11991.336260,-1480.411884,3524.039291
3327.912960,-11769.274478,0.000000,2145.067394
3327.913297,-9030.512492,2664.741391,1072.533697
3327.913634,-9622.677246,1480.411884,2374.896044
3327.913972,-11621.233289,1628.453072,842.705048
3327.914309,-11399.171507,1554.432478,-612.876398
3327.914647,-8438.347739,2146.597232,-459.657299
3327.914984,-7994.224174,1628.453072,919.314598
3327.915321,-11325.150913,888.247130,1149.143247
3327.915659,-11991.336260,962.267725,-153.219100
3327.915996,-8512.368333,2368.659014,-2145.067394
3327.916334,-8290.306550,2590.720797,0.000000
3327.916671,-10288.862594,370.102971,-1225.752797
3327.917009,-11103.089130,-148.041188,-1608.800546
3327.917346,-9178.553681,-740.205942,-1149.143247
3327.917683,-7772.162391,-518.144159,1685.410096
3327.918021,-10066.800811,-1406.391290,2451.505594
3327.918358,-11325.150913,-1554.432478,459.657299
3327.918696,-8364.327145,-444.123565,-1225.752797
3327.919033,-8734.430116,-370.102971,0.000000
3327.919370,-11103.089130,-1480.411884,842.705048
3327.919708,-11325.150913,-1776.494261,-383.047749
3327.920045,-8660.409521,-296.082377,0.000000
3327.920383,-8586.388927,0.000000,2757.943793
3327.920720,-11547.212695,-1702.473667,2451.505594
3327.921057,-13471.748144,-1258.350101,2145.067394
3327.921395,-10510.924376,0.000000,229.828649
3327.921732,-9400.615463,666.185348,459.657299
3327.922070,-11917.315666,-814.226536,0.000000
3327.922407,-12435.459826,-888.247130,-842.705048
3327.922745,-8512.368333,-962.267725,-1762.019645
3327.923082,-7624.121203,-666.185348,383.047749
3327.923419,-10658.965565,-888.247130,536.266849
3327.923757,-13175.665768,-1554.432478,-919.314598
3327.924094,-9918.759623,74.020594,-2681.334243
3327.924432,-8512.368333,1110.308913,-1838.629195
3327.924769,-10584.944971,-222.061783,0.000000
3327.925106,-11325.150913,-666.185348,-919.314598
3327.925444,-8142.265362,-518.144159,-1608.800546
3327.925781,-6439.791695,222.061783,2298.286494
3327.926119,-9844.739029,-1258.350101,4290.134789
3327.926456,-13027.624579,-740.205942,2834.553343
3327.926793,-10288.862594,1036.288319,0.000000
3327.927131,-7624.121203,2442.679609,1455.581446
3327.927468,-9696.697840,1184.329507,995.924147
3327.927806,-10214.842000,1110.308913,-229.828649
3327.928143,-8512.368333,1998.556043,-919.314598
3327.928480,-8364.327145,1776.494261,1762.019645
3327.928818,-10732.986159,1406.391290,2681.334243
3327.929155,-13397.727550,1036.288319,0.000000
3327.929493,-10807.006753,2294.638420,-2451.505594
3327.929830,-8142.265362,1850.514855,-2374.896044
3327.930168,-9252.574275,296.082377,-842.705048
3327.930505,-11103.089130,-1110.308913,-1532.190996
3327.930842,-8660.409521,-1406.391290,-2604.724693
3327.931180,-7994.224174,-1480.411884,0.000000
3327.931517,-10732.986159,-3330.926739,2451.505594
3327.931855,-13619.789333,-2072.576638,1455.581446
3327.932192,-11177.109724,-888.247130,0.000000
3327.932529,-8882.471304,-814.226536,-306.438199
3327.932867,-10140.821405,-2294.638420,995.924147
3327.933204,-11991.336260,-3108.864956,536.266849
3327.933542,-9326.594869,-1628.453072,-306.438199
3327.933879,-7328.038826,-2072.576638,1225.752797
3327.934216,-10214.842000,-2664.741391,3140.991542
3327.934554,-13101.645173,-1406.391290,1685.410096
3327.934891,-10881.027347,-222.061783,459.657299
3327.935229,-8438.347739,296.082377,1149.143247
3327.935566,-10658.965565,-148.041188,1149.143247
3327.935904,-12657.521608,-296.082377,0.000000
3327.936241,-9696.697840,-222.061783,-1302.362347
3327.936578,-7105.977043,0.000000,306.438199
3327.936916,-9696.697840,-1036.288319,2374.896044
3327.937253,-12287.418637,-1110.308913,689.485948
3327.937591,-9400.615463,148.041188,-2604.724693
3327.937928,-7402.059420,444.123565,-1838.629195
3327.938265,-9030.512492,0.000000,689.485948
3327.938603,-11769.274478,-888.247130,-1532.190996
3327.938940,-10658.965565,444.123565,-1532.190996
3327.939278,-7994.224174,444.123565,306.438199
3327.939615,-8734.430116,0.000000,3370.820191
3327.939952,-12435.459826,-222.061783,3983.696590
3327.940290,-12213.398043,666.185348,2298.286494
3327.940627,-9178.553681,1924.535449,1225.752797
3327.940965,-10436.903782,814.226536,1455.581446
3327.941302,-12953.603985,296.082377,0.000000
3327.941639,-8808.450710,888.247130,-1762.019645
3327.941977,-6587.832884,444.123565,0.000000
3327.942314,-8808.450710,0.000000,2757.943793
3327.942652,-11843.295072,-962.267725,229.828649
3327.942989,-11251.130318,666.185348,-1608.800546
3327.943327,-9104.533087,666.185348,-1455.581446
3327.943664,-9030.512492,370.102971,229.828649
3327.944001,-11251.130318,-1258.350101,-1149.143247
3327.944339,-9844.739029,-1776.494261,-1915.238745
3327.944676,-6291.750507,-1702.473667,-1455.581446
3327.945014,-8586.388927,-2738.761985,153.219100
3327.945351,-12805.562797,-3404.947333,306.438199
3327.945688,-11547.212695,-1776.494261,-2221.676944
3327.946026,-8586.388927,-666.185348,-1608.800546
3327.946363,-9844.739029,-370.102971,-153.219100
3327.946701,-12213.398043,-2072.576638,-995.924147
3327.947038,-10584.944971,-1850.514855,-1378.971896
3327.947375,-7772.162391,-888.247130,612.876398
3327.947713,-10140.821405,-148.041188,4903.011187
3327.948050,-14137.933492,-1184.329507,3753.867940
3327.948388,-12509.480420,222.061783,1225.752797
3327.948725,-8734.430116,2368.659014,-76.609550
3327.949063,-9252.574275,1924.535449,2221.676944
3327.949400,-12509.480420,1406.391290,0.000000
3327.949737,-11103.089130,1406.391290,-2374.896044
3327.950075,-7624.121203,2368.659014,-1225.752797
3327.950412,-8956.491898,1406.391290,1838.629195
3327.950750,-11177.109724,962.267725,1532.190996
3327.951087,-10584.944971,814.226536,-536.266849
3327.951424,-7698.141797,1480.411884,-612.876398
3327.951762,-8734.430116,1776.494261,306.438199
3327.952099,-11251.130318,0.000000,-229.828649
3327.952437,-9622.677246,0.000000,-1608.800546
3327.952774,-6661.853478,-444.123565,-766.095498
3327.953111,-8290.306550,-592.164754,2681.334243
3327.953449,-11325.150913,-962.267725,1455.581446
3327.953786,-11029.068536,-1184.329507,0.000000
3327.954124,-7994.224174,-296.082377,0.000000
3327.954461,-9252.574275,0.000000,612.876398
3327.954798,-11991.336260,-222.061783,536.266849
3327.955136,-11843.295072,-296.082377,-153.219100
3327.955473,-8364.327145,148.041188,306.438199
3327.955811,-8956.491898,0.000000,2681.334243
3327.956148,-11917.315666,-1332.370696,1838.629195
3327.956486,-12805.562797,-370.102971,459.657299
3327.956823,-9918.759623,222.061783,-459.657299
3327.957160,-9770.718434,370.102971,229.828649
3327.957498,-11251.130318,-962.267725,-1302.362347
3327.957835,-10288.862594,-1036.288319,-1838.629195
3327.958173,-8216.285956,-1036.288319,-1378.971896
3327.958510,-8808.450710,-1776.494261,306.438199
3327.958847,-12065.356855,-1850.514855,689.485948
3327.959185,-12065.356855,-1554.432478,-1225.752797
3327.959522,-8586.388927,-1258.350101,-919.314598
3327.959860,-8808.450710,-1480.411884,153.219100
3327.960197,-10436.903782,-1924.535449,76.609550
3327.960534,-9844.739029,-2368.659014,-995.924147
3327.960872,-7698.141797,-1332.370696,153.219100
3327.961209,-8438.347739,-2072.576638,2451.505594
3327.961547,-11769.274478,-1850.514855,2451.505594
3327.961884,-11843.295072,222.061783,1608.800546
3327.962222,-9178.553681,740.205942,766.095498
3327.962559,-8882.471304,1406.391290,1608.800546
3327.962896,-10436.903782,0.000000,1838.629195
3327.963234,-11103.089130,1406.391290,383.047749
3327.963571,-8734.430116,2294.638420,-229.828649
3327.963909,-9548.656652,888.247130,919.314598
3327.964246,-11621.233289,1036.288319,536.266849
3327.964583,-11547.212695,1110.308913,-459.657299
3327.964921,-8808.450710,740.205942,-459.657299
3327.965258,-8438.347739,222.061783,-689.485948
3327.965596,-10732.986159,-888.247130,0.000000
3327.965933,-11325.150913,-444.123565,-1532.190996
3327.966270,-8586.388927,-1110.308913,-2145.067394
3327.966608,-8364.327145,-814.226536,383.047749
3327.966945,-10658.965565,-2664.741391,1072.533697
3327.967283,-11695.253884,-1776.494261,536.266849
3327.967620,-9844.739029,-740.205942,-612.876398
3327.967957,-9104.533087,-1406.391290,153.219100
3327.968295,-10584.944971,-2368.659014,536.266849
3327.968632,-11103.089130,-1628.453072,-229.828649
3327.968970,-8660.409521,-1110.308913,0.000000
3327.969307,-8290.306550,-1110.308913,1302.362347
3327.969645,-10066.800811,-1406.391290,2604.724693
3327.969982,-11991.336260,-666.185348,1991.848295
3327.970319,-10066.800811,740.205942,1072.533697
3327.970657,-9474.636058,1480.411884,689.485948
3327.970994,-11843.295072,518.144159,612.876398
3327.971332,-11991.336260,370.102971,229.828649
3327.971669,-9030.512492,666.185348,-612.876398
3327.972006,-7402.059420,962.267725,842.705048
3327.972344,-9992.780217,74.020594,1378.971896
3327.972681,-12213.398043,370.102971,153.219100
3327.973019,-9918.759623,518.144159,-2298.286494
3327.973356,-8808.450710,1406.391290,-1608.800546
3327.973693,-10214.842000,148.041188,229.828649
3327.974031,-11621.233289,0.000000,-995.924147
3327.974368,-9252.574275,518.144159,-1532.190996
3327.974706,-7920.203579,1110.308913,919.314598
3327.975043,-10214.842000,74.020594,2911.162892
3327.975381,-11991.336260,-148.041188,1762.019645
3327.975718,-10140.821405,148.041188,1225.752797
3327.976055,-8216.285956,1480.411884,1455.581446
3327.976393,-10214.842000,-222.061783,2374.896044
3327.976730,-11177.109724,222.061783,153.219100
3327.977068,-8512.368333,888.247130,-1072.533697
3327.977405,-7994.224174,740.205942,536.266849
3327.977742,-9992.780217,-222.061783,536.266849
3327.978080,-11325.150913,-1110.308913,-459.657299
3327.978417,-10214.842000,370.102971,0.000000
3327.978755,-8586.388927,0.000000,0.000000
3327.979092,-9844.739029,-592.164754,0.000000
3327.979429,-11843.295072,-888.247130,-1149.143247
3327.979767,-9770.718434,-592.164754,-2221.676944
3327.980104,-7698.141797,-592.164754,-919.314598
3327.980442,-10510.924376,-2368.659014,842.705048
3327.980779,-12583.501014,-2664.741391,-306.438199
3327.981116,-11917.315666,-2220.617826,-1685.410096
3327.981454,-9252.574275,-1184.329507,-536.266849
3327.981791,-9844.739029,-1924.535449,306.438199
3327.982129,-11473.192101,-1332.370696,0.000000
3327.982466,-9770.718434,-1036.288319,-1225.752797
3327.982804,-8734.430116,-1110.308913,229.828649
3327.983141,-9992.780217,-1480.411884,2834.553343
3327.983478,-12435.459826,-592.164754,3600.648841
3327.983816,-11621.233289,-148.041188,2451.505594
3327.984153,-8586.388927,1110.308913,1378.971896
3327.984491,-9548.656652,888.247130,1915.238745
3327.984828,-11695.253884,666.185348,995.924147
3327.985165,-9400.615463,518.144159,-689.485948
3327.985503,-6883.915261,888.247130,-76.609550
3327.985840,-8512.368333,0.000000,842.705048
3327.986178,-10362.883188,-444.123565,383.047749
3327.986515,-10732.986159,1036.288319,-459.657299
3327.986852,-7698.141797,1110.308913,-689.485948
3327.987190,-9030.512492,1406.391290,383.047749
3327.987527,-11547.212695,0.000000,-383.047749
3327.987865,-10288.862594,740.205942,-1838.629195
3327.988202,-8216.285956,0.000000,-306.438199
3327.988540,-9844.739029,-1036.288319,2145.067394
3327.988877,-11917.315666,-1776.494261,1149.143247
3327.989214,-11103.089130,-444.123565,-383.047749
3327.989551,-8364.327145,-148.041188,-383.047749
3327.989889,-9622.677246,-814.226536,995.924147
3327.990226,-12435.459826,-592.164754,842.705048
3327.990563,-11621.233289,-370.102971,0.000000
3327.990901,-8734.430116,74.020594,766.095498
3327.991238,-9548.656652,-222.061783,2451.505594
3327.991575,-12435.459826,-592.164754,1608.800546
3327.991912,-11621.233289,-296.082377,0.000000
3327.992250,-8586.388927,74.020594,-459.657299
3327.992587,-9104.533087,-370.102971,306.438199
3327.992924,-11325.150913,-1850.514855,-995.924147
3327.993262,-10881.027347,-666.185348,-2451.505594
3327.993599,-8290.306550,-1258.350101,-1685.410096
3327.993936,-7698.141797,-1258.350101,0.000000
3327.994274,-11177.109724,-3108.864956,689.485948
3327.994611,-12361.439231,-2072.576638,689.485948
3327.994948,-8364.327145,-888.247130,-536.266849
3327.995285,-8586.388927,-666.185348,153.219100
3327.995623,-11621.233289,-1554.432478,306.438199
3327.995960,-11103.089130,-666.185348,-1685.410096
3327.996297,-7624.121203,-296.082377,-766.095498
3327.996635,-8882.471304,-370.102971,2298.286494
3327.996972,-11547.212695,-1184.329507,3064.381992
3327.997309,-11621.233289,444.123565,1608.800546
3327.997647,-9400.615463,2442.679609,459.657299
3327.997984,-9696.697840,1776.494261,1991.848295
3327.998321,-12065.356855,888.247130,2145.067394
3327.998658,-11251.130318,1480.411884,1302.362347
3327.998996,-8290.306550,2442.679609,919.314598
3327.999333,-9104.533087,1850.514855,2298.286494
3327.999670,-11843.295072,1628.453072,383.047749
3328.000008,-11991.336260,1110.308913,-1378.971896
3328.000345,-8586.388927,1628.453072,-1149.143247
3328.000682,-7550.100608,814.226536,-1072.533697
3328.001019,-9992.780217,-962.267725,-383.047749
3328.001357,-10584.944971,-444.123565,-1685.410096
3328.001694,-7698.141797,-666.185348,-1991.848295
3328.002031,-7402.059420,-1036.288319,766.095498
3328.002369,-11769.274478,-2590.720797,842.705048
3328.002706,-11991.336260,-1628.453072,-153.219100
3328.003043,-8586.388927,-888.247130,-1608.800546
3328.003381,-7846.182985,-370.102971,153.219100
3328.003718,-10658.965565,-2368.659014,612.876398
3328.004055,-11695.253884,-2294.638420,-612.876398
3328.004392,-8882.471304,-814.226536,-766.095498
3328.004730,-8956.491898,-518.144159,2145.067394
3328.005067,-12213.398043,-1332.370696,1915.238745
3328.005404,-13175.665768,-962.267725,459.657299
3328.005742,-9548.656652,740.205942,-459.657299
3328.006079,-9104.533087,1332.370696,1225.752797
3328.006416,-11991.336260,74.020594,1302.362347
3328.006754,-13027.624579,0.000000,-459.657299
3328.007091,-9696.697840,444.123565,-995.924147
3328.007428,-8734.430116,0.000000,536.266849
3328.007765,-11473.192101,-740.205942,76.609550
3328.008103,-11769.274478,0.000000,-995.924147
3328.008440,-8290.306550,592.164754,-2374.896044
3328.008777,-7698.141797,370.102971,-612.876398
3328.009115,-10288.862594,-1480.411884,76.609550
3328.009452,-10807.006753,-1036.288319,-306.438199
3328.009789,-7402.059420,-814.226536,0.000000
3328.010126,-7105.977043,444.123565,2528.115143
3328.010464,-10732.986159,-1258.350101,2145.067394
3328.010801,-11399.171507,-740.205942,766.095498
3328.011138,-9252.574275,666.185348,1532.190996
3328.011476,-8882.471304,1036.288319,2604.724693
3328.011813,-10955.047942,740.205942,1225.752797
3328.012150,-11917.315666,444.123565,383.047749
3328.012488,-9400.615463,1110.308913,459.657299
3328.012825,-7550.100608,740.205942,1378.971896
3328.013162,-10584.944971,0.000000,1532.190996
3328.013499,-12583.501014,888.247130,383.047749
3328.013837,-10658.965565,1258.350101,-1149.143247
3328.014174,-8808.450710,518.144159,0.000000
3328.014511,-11325.150913,518.144159,0.000000
3328.014849,-12657.521608,-518.144159,-842.705048
3328.015186,-9548.656652,-148.041188,-2221.676944
3328.015523,-7550.100608,-1110.308913,-1072.533697
3328.015860,-10807.006753,-3034.844362,1072.533697
3328.016198,-11843.295072,-3108.864956,0.000000
3328.016535,-9844.739029,-2072.576638,-842.705048
3328.016872,-8660.409521,-1702.473667,0.000000
3328.017210,-10732.986159,-2738.761985,229.828649
3328.017547,-11251.130318,-2664.741391,-919.314598
3328.017884,-8290.306550,-2368.659014,-383.047749
3328.018222,-7254.018232,-1776.494261,2528.115143
3328.018559,-10066.800811,-2220.617826,2757.943793
3328.018896,-12805.562797,-888.247130,1762.019645
3328.019233,-10658.965565,0.000000,0.000000
3328.019571,-8142.265362,-74.020594,306.438199
3328.019908,-10214.842000,-370.102971,2145.067394
3328.020245,-11399.171507,0.000000,229.828649
3328.020583,-8660.409521,962.267725,-612.876398
3328.020920,-8364.327145,666.185348,612.876398
3328.021257,-10807.006753,-592.164754,1532.190996
3328.021595,-12657.521608,0.000000,306.438199
3328.021932,-10140.821405,1924.535449,-842.705048
3328.022269,-8216.285956,1776.494261,-766.095498
3328.022606,-9844.739029,592.164754,-1072.533697
3328.022944,-11621.233289,0.000000,-1302.362347
3328.023281,-10510.924376,0.000000,-995.924147
3328.023618,-7994.224174,444.123565,383.047749
3328.023956,-10658.965565,-962.267725,1915.238745
3328.024293,-12361.439231,-1036.288319,1455.581446
3328.024630,-9622.677246,148.041188,842.705048
3328.024967,-7772.162391,148.041188,842.705048
3328.025305,-9622.677246,-666.185348,1608.800546
3328.025642,-11325.150913,-666.185348,306.438199
3328.025979,-9548.656652,0.000000,229.828649
3328.026317,-8142.265362,666.185348,842.705048
3328.026654,-10362.883188,-666.185348,2681.334243
3328.026991,-12213.398043,-444.123565,1149.143247
3328.027329,-9178.553681,962.267725,-995.924147
3328.027666,-8142.265362,1036.288319,0.000000
3328.028003,-10658.965565,-888.247130,229.828649
3328.028340,-11251.130318,-1776.494261,-1149.143247
3328.028678,-9548.656652,-592.164754,-1532.190996
3328.029015,-8438.347739,-666.185348,0.000000
3328.029352,-9178.553681,-1258.350101,612.876398
3328.029690,-11621.233289,-2368.659014,-76.609550
3328.030027,-11177.109724,-296.082377,-536.266849
3328.030364,-9178.553681,-888.247130,-995.924147
3328.030702,-10066.800811,-962.267725,0.000000
3328.031039,-12065.356855,-1628.453072,-383.047749
3328.031376,-10362.883188,-1110.308913,-612.876398
3328.031713,-7698.141797,-222.061783,0.000000
3328.032051,-9400.615463,-666.185348,2374.896044
3328.032388,-12509.480420,-962.267725,2068.457845
3328.032725,-11843.295072,814.226536,306.438199
3328.033063,-9548.656652,1628.453072,766.095498
3328.033400,-10066.800811,1628.453072,536.266849
3328.033737,-11695.253884,740.205942,612.876398
3328.034074,-9030.512492,1258.350101,-459.657299
3328.034412,-7031.956449,1332.370696,306.438199
3328.034749,-9992.780217,888.247130,2451.505594
3328.035086,-12509.480420,148.041188,306.438199
3328.035424,-10510.924376,1258.350101,-1762.019645
3328.035761,-7994.224174,1406.391290,-1991.848295
3328.036098,-8364.327145,296.082377,-1532.190996
3328.036436,-9844.739029,-592.164754,-1532.190996
3328.036773,-8956.491898,-666.185348,-1991.848295
3328.037110,-6957.935855,-962.267725,-229.828649
3328.037447,-9474.636058,-2072.576638,1532.190996
3328.037785,-12731.542202,-1628.453072,2374.896044
3328.038122,-11325.150913,-518.144159,-689.485948
3328.038459,-9326.594869,-518.144159,-612.876398
3328.038797,-9696.697840,-592.164754,1302.362347
3328.039134,-11103.089130,-1998.556043,766.095498
3328.039471,-10436.903782,-1628.453072,612.876398
3328.039809,-9178.553681,-962.267725,1532.190996
3328.040146,-10214.842000,-74.020594,3370.820191
3328.040483,-13101.645173,-1480.411884,2451.505594
3328.040820,-12139.377449,0.000000,1685.410096
3328.041158,-9252.574275,-148.041188,612.876398
3328.041495,-9252.574275,-74.020594,2374.896044
3328.041832,-11473.192101,-222.061783,1455.581446
3328.042170,-10584.944971,-592.164754,229.828649
3328.042507,-8956.491898,148.041188,383.047749
3328.042844,-9548.656652,-740.205942,1378.971896
3328.043181,-12287.418637,-592.164754,842.705048
3328.043519,-10807.006753,814.226536,-1072.533697
3328.043856,-8586.388927,148.041188,-2604.724693
3328.044193,-7402.059420,-296.082377,-1991.848295
3328.044531,-9474.636058,-1332.370696,-1608.800546
3328.044868,-9696.697840,-1184.329507,-612.876398
3328.045205,-7476.080014,-740.205942,-536.266849
3328.045543,-8882.471304,-592.164754,2834.553343
3328.045880,-11547.212695,-962.267725,2298.286494
3328.046217,-11399.171507,444.123565,1455.581446
3328.046554,-9696.697840,2368.659014,1072.533697
3328.046892,-9770.718434,1258.350101,2145.067394
3328.047229,-11769.274478,1776.494261,0.000000
3328.047566,-11325.150913,1110.308913,-1608.800546
3328.047904,-8660.409521,888.247130,-2145.067394
3328.048241,-8068.244768,740.205942,842.705048
3328.048578,-11177.109724,-666.185348,766.095498
3328.048916,-11251.130318,1036.288319,-919.314598
3328.049253,-9178.553681,1184.329507,-2451.505594
3328.049590,-9252.574275,740.205942,383.047749
3328.049927,-11843.295072,-370.102971,-383.047749
3328.050265,-11029.068536,74.020594,-1225.752797
3328.050602,-8512.368333,-518.144159,-1225.752797
3328.050939,-7994.224174,-1628.453072,612.876398
3328.051277,-10436.903782,-2590.720797,1302.362347
3328.051614,-11769.274478,-2738.761985,-919.314598
3328.051951,-9400.615463,-1480.411884,-1532.190996
3328.052288,-8290.306550,-1480.411884,-76.609550
3328.052626,-11251.130318,-2072.576638,1149.143247
3328.052963,-10658.965565,-2368.659014,-306.438199
3328.053300,-7920.203579,-1776.494261,612.876398
3328.053638,-8808.450710,-1998.556043,4826.401637
3328.053975,-11695.253884,-2368.659014,4673.182538
3328.054312,-11695.253884,-814.226536,2681.334243
3328.054650,-9770.718434,888.247130,1072.533697
3328.054987,-9326.594869,740.205942,1762.019645
3328.055324,-11547.212695,-296.082377,842.705048
3328.055661,-11843.295072,-148.041188,383.047749
3328.055999,-8216.285956,1628.453072,-306.438199
3328.056336,-8290.306550,888.247130,1149.143247
3328.056673,-11547.212695,0.000000,1149.143247
3328.057011,-11843.295072,222.061783,-842.705048
3328.057348,-9400.615463,1406.391290,-766.095498
3328.057685,-7846.182985,1258.350101,383.047749
3328.058023,-9622.677246,0.000000,153.219100
3328.058360,-11029.068536,-296.082377,-306.438199
3328.058697,-9400.615463,-444.123565,-766.095498
3328.059034,-7772.162391,0.000000,919.314598
3328.059372,-10807.006753,-1480.411884,1608.800546
3328.059709,-12657.521608,-1480.411884,153.219100
3328.060046,-8734.430116,444.123565,-1762.019645
3328.060384,-7846.182985,296.082377,536.266849
3328.060721,-10066.800811,148.041188,766.095498
3328.061058,-11695.253884,-740.205942,-612.876398
3328.061395,-9770.718434,1184.329507,-1072.533697
3328.061733,-8216.285956,370.102971,229.828649
3328.062070,-10807.006753,-222.061783,2451.505594
3328.062407,-12435.459826,-740.205942,919.314598
3328.062745,-9326.594869,1184.329507,-1608.800546
3328.063082,-7846.182985,1036.288319,-689.485948
3328.063419,-10658.965565,222.061783,-919.314598
3328.063757,-11843.295072,-1332.370696,-2145.067394
3328.064094,-8734.430116,-222.061783,-2834.553343
3328.064431,-7624.121203,370.102971,-612.876398
3328.064768,-10807.006753,-962.267725,1302.362347
3328.065106,-12583.501014,-1406.391290,-229.828649
3328.065443,-9918.759623,-666.185348,-1225.752797
3328.065780,-8734.430116,-814.226536,383.047749
3328.066118,-10658.965565,-1332.370696,2068.457845
3328.066455,-12139.377449,-2072.576638,229.828649
3328.066792,-9770.718434,-1184.329507,-306.438199
3328.067130,-7402.059420,-592.164754,1915.238745
3328.067467,-10510.924376,-1998.556043,3907.087040
3328.067804,-12953.603985,-592.164754,2374.896044
3328.068141,-10584.944971,592.164754,919.314598
3328.068479,-8660.409521,1776.494261,1991.848295
3328.068816,-10288.862594,1480.411884,1762.019645
3328.069153,-12361.439231,444.123565,612.876398
3328.069491,-9178.553681,962.267725,0.000000
3328.069828,-6661.853478,1258.350101,2221.676944
3328.070165,-9770.718434,1110.308913,3294.210641
3328.070502,-13027.624579,444.123565,1072.533697
3328.070840,-10288.862594,1480.411884,-1685.410096
3328.071177,-8068.244768,1036.288319,-1302.362347
3328.071514,-10066.800811,148.041188,0.000000
3328.071852,-11325.150913,-740.205942,-2145.067394
3328.072189,-8586.388927,-222.061783,-2834.553343
3328.072526,-6365.771101,-888.247130,-919.314598
3328.072864,-8808.450710,-1924.535449,1302.362347
3328.073201,-12435.459826,-1554.432478,1455.581446
3328.073538,-12139.377449,-740.205942,-459.657299
3328.073875,-8586.388927,-518.144159,-612.876398
3328.074213,-10066.800811,-1332.370696,919.314598
3328.074550,-11621.233289,-2146.597232,459.657299
3328.074887,-9030.512492,-1036.288319,-536.266849
3328.075225,-7402.059420,-962.267725,612.876398
3328.075562,-10362.883188,-1406.391290,2834.553343
3328.075899,-13619.789333,-1258.350101,1225.752797
3328.076237,-11769.274478,74.020594,229.828649
3328.076574,-8586.388927,444.123565,-612.876398
3328.076911,-9474.636058,-222.061783,842.705048
3328.077248,-11843.295072,-814.226536,0.000000
3328.077586,-9622.677246,0.000000,-1532.190996
3328.077923,-7550.100608,370.102971,-306.438199
3328.078260,-9696.697840,-1036.288319,1685.410096
3328.078598,-12879.583391,-1480.411884,0.000000
3328.078935,-11399.171507,-222.061783,-1915.238745
3328.079272,-8290.306550,0.000000,-1072.533697
3328.079609,-8586.388927,-888.247130,842.705048
3328.079947,-11103.089130,-1776.494261,-306.438199
3328.080284,-9918.759623,-518.144159,-919.314598
3328.080621,-7550.100608,-962.267725,-153.219100
3328.080959,-9104.533087,-1554.432478,2911.162892
3328.081296,-12435.459826,-1184.329507,3524.039291
3328.081633,-10955.047942,-74.020594,536.266849
3328.081971,-7920.203579,1628.453072,612.876398
3328.082308,-9548.656652,888.247130,2604.724693
3328.082645,-12361.439231,518.144159,1225.752797
3328.082982,-10214.842000,888.247130,0.000000
3328.083320,-8734.430116,1998.556043,842.705048
3328.083657,-9844.739029,222.061783,2604.724693
3328.083994,-12361.439231,-296.082377,383.047749
3328.084332,-11325.150913,1184.329507,-1149.143247
3328.084669,-7698.141797,1332.370696,-1225.752797
3328.085006,-8660.409521,888.247130,0.000000
3328.085343,-12435.459826,-962.267725,-1225.752797
3328.085681,-10658.965565,148.041188,-2681.334243
3328.086018,-8216.285956,0.000000,-1532.190996
3328.086355,-8660.409521,-1258.350101,766.095498
3328.086693,-11547.212695,-1924.535449,536.266849
3328.087030,-11769.274478,-1110.308913,-459.657299
3328.087367,-8586.388927,-370.102971,-1225.752797
3328.087705,-9252.574275,-962.267725,229.828649
3328.088042,-11917.315666,-1776.494261,-153.219100
3328.088379,-10436.903782,-1332.370696,-2221.676944
3328.088716,-7994.224174,0.000000,-459.657299
3328.089054,-8512.368333,-1036.288319,3064.381992
3328.089391,-11621.233289,-1850.514855,3217.601092
3328.089728,-11917.315666,222.061783,2298.286494
3328.090067,-9474.636058,1924.535449,766.095498
3328.090404,-9622.677246,1332.370696,1838.629195
3328.090741,-11547.212695,666.185348,0.000000
3328.091078,-10955.047942,1110.308913,-1072.533697
3328.091416,-7846.182985,1406.391290,-612.876398
3328.091753,-7994.224174,1036.288319,459.657299
3328.092090,-11325.150913,0.000000,536.266849
3328.092427,-12139.377449,518.144159,306.438199
3328.092764,-8364.327145,1184.329507,-1378.971896
3328.093102,-8290.306550,1036.288319,0.000000
3328.093439,-11029.068536,0.000000,-229.828649
3328.093776,-11177.109724,-1110.308913,-1762.019645
3328.094113,-7920.203579,-962.267725,-306.438199
3328.094451,-7476.080014,444.123565,2298.286494
3328.094788,-11399.171507,-1702.473667,2911.162892
3328.095125,-13471.748144,-222.061783,689.485948
3328.095462,-9474.636058,-74.020594,-1378.971896
3328.095799,-9030.512492,-740.205942,919.314598
3328.096137,-10066.800811,-962.267725,1072.533697
3328.096474,-10140.821405,-1332.370696,-383.047749
3328.096811,-8956.491898,-296.082377,76.609550
3328.097148,-9474.636058,0.000000,1915.238745
3328.097486,-11843.295072,-370.102971,2145.067394
3328.097823,-13175.665768,222.061783,383.047749
3328.098160,-9770.718434,814.226536,-842.705048
3328.098497,-8956.491898,0.000000,0.000000
3328.098834,-11177.109724,-1480.411884,0.000000
3328.099172,-10658.965565,-1110.308913,-1149.143247
3328.099509,-8068.244768,-1036.288319,-1608.800546
3328.099846,-8364.327145,-1258.350101,229.828649
3328.100183,-10732.986159,-2516.700203,-153.219100
3328.100520,-11917.315666,-2072.576638,-306.438199
3328.100858,-9622.677246,-1184.329507,0.000000
3328.101195,-8586.388927,-1184.329507,1149.143247
3328.101532,-10288.862594,-1480.411884,1225.752797
3328.101869,-11695.253884,-1332.370696,0.000000
3328.102207,-9030.512492,-888.247130,536.266849
3328.102544,-7772.162391,-888.247130,2604.724693
3328.102881,-11103.089130,-1406.391290,3524.039291
3328.103218,-12657.521608,-370.102971,1762.019645
3328.103555,-9548.656652,1110.308913,0.000000
3328.103893,-8364.327145,1184.329507,919.314598
3328.104230,-11103.089130,740.205942,766.095498
3328.104567,-10732.986159,962.267725,-1302.362347
3328.104904,-8438.347739,2146.597232,-766.095498
3328.105242,-8586.388927,1480.411884,1149.143247
3328.105579,-10510.924376,814.226536,1608.800546
3328.105916,-12435.459826,296.082377,383.047749
3328.106253,-10436.903782,1480.411884,-766.095498
3328.106590,-8438.347739,888.247130,-383.047749
3328.106928,-10288.862594,-370.102971,-383.047749
3328.107265,-10288.862594,-518.144159,-2298.286494
3328.107602,-7772.162391,-518.144159,-3370.820191
3328.107939,-7846.182985,-1258.350101,-1225.752797
3328.108276,-9844.739029,-2220.617826,383.047749
3328.108614,-12361.439231,-1924.535449,0.000000
3328.108951,-10807.006753,-222.061783,-383.047749
3328.109288,-8882.471304,-518.144159,-229.828649
3328.109625,-11029.068536,-1406.391290,1072.533697
3328.109963,-11547.212695,-1628.453072,0.000000
3328.110300,-9030.512492,-666.185348,0.000000
3328.110637,-9104.533087,-592.164754,1685.410096
3328.110974,-11029.068536,-1480.411884,2757.943793
3328.111311,-12435.459826,-1332.370696,1072.533697
3328.111649,-10436.903782,444.123565,-459.657299
3328.111986,-9474.636058,296.082377,1149.143247
3328.112323,-10436.903782,-444.123565,1608.800546
3328.112660,-11177.109724,0.000000,-76.609550
3328.112998,-9030.512492,518.144159,-612.876398
3328.113335,-7698.141797,518.144159,0.000000
3328.113672,-10288.862594,-1036.288319,612.876398
3328.114009,-12287.418637,-740.205942,-229.828649
3328.114346,-9474.636058,296.082377,-1455.581446
3328.114684,-7624.121203,296.082377,-612.876398
3328.115021,-9178.553681,-666.185348,459.657299
3328.115358,-10584.944971,-1110.308913,-383.047749
3328.115695,-9844.739029,-74.020594,-76.609550
3328.116033,-8512.368333,148.041188,306.438199
3328.116370,-9696.697840,-592.164754,1762.019645
3328.116707,-11917.315666,-814.226536,2145.067394
3328.117044,-9770.718434,814.226536,1532.190996
3328.117381,-7994.224174,1332.370696,1225.752797
3328.117719,-10214.842000,1036.288319,2451.505594
3328.118056,-11991.336260,814.226536,229.828649
3328.118393,-10362.883188,962.267725,-459.657299
3328.118730,-8734.430116,1702.473667,0.000000
3328.119067,-9474.636058,592.164754,1149.143247
3328.119405,-12065.356855,296.082377,1225.752797
3328.119742,-10362.883188,740.205942,-995.924147
3328.120079,-7920.203579,666.185348,-919.314598
3328.120416,-9622.677246,-296.082377,612.876398
3328.120754,-11769.274478,-1184.329507,-919.314598
3328.121091,-9918.759623,-740.205942,-2451.505594
3328.121428,-7846.182985,-962.267725,-919.314598
3328.121765,-8808.450710,-1776.494261,0.000000
3328.122102,-11473.192101,-2590.720797,-383.047749
3328.122440,-10732.986159,-1850.514855,-1915.238745
3328.122777,-8364.327145,-2072.576638,-1302.362347
3328.123114,-10288.862594,-1924.535449,383.047749
3328.123451,-11103.089130,-1924.535449,-689.485948
3328.123789,-10584.944971,-2220.617826,0.000000
3328.124126,-7772.162391,-1480.411884,995.924147
3328.124463,-9474.636058,-814.226536,3140.991542
3328.124800,-13619.789333,-1480.411884,3677.258390
3328.125137,-11695.253884,-222.061783,919.314598
3328.125475,-9030.512492,592.164754,1455.581446
3328.125812,-10362.883188,666.185348,2145.067394
3328.126149,-11177.109724,0.000000,153.219100
3328.126486,-10510.924376,370.102971,-383.047749
3328.126823,-7994.224174,444.123565,-383.047749
3328.127161,-8586.388927,1258.350101,1608.800546
3328.127498,-11695.253884,0.000000,229.828649
3328.127835,-11621.233289,666.185348,-689.485948
3328.128172,-8364.327145,814.226536,-2145.067394
3328.128510,-8216.285956,518.144159,0.000000
3328.128847,-10362.883188,-888.247130,229.828649
3328.129184,-10362.883188,-666.185348,-766.095498
3328.129521,-7624.121203,0.000000,-76.609550
3328.129858,-8808.450710,0.000000,995.924147
3328.130196,-12213.398043,-1480.411884,1608.800546
3328.130533,-11991.336260,-370.102971,0.000000
3328.130870,-8808.450710,0.000000,-1072.533697
3328.131207,-8512.368333,-296.082377,1378.971896
3328.131545,-10881.027347,-1036.288319,1455.581446
3328.131882,-10807.006753,0.000000,-842.705048
3328.132219,-8068.244768,740.205942,-153.219100
3328.132556,-9548.656652,666.185348,2374.896044
3328.132893,-12805.562797,-888.247130,1455.581446
3328.133231,-12879.583391,814.226536,-919.314598
3328.133568,-8438.347739,814.226536,-383.047749
3328.133905,-8660.409521,370.102971,1762.019645
3328.134242,-10955.047942,-1480.411884,689.485948
3328.134579,-10881.027347,-666.185348,-919.314598
3328.134917,-9030.512492,-1036.288319,-1225.752797
3328.135254,-8438.347739,-1554.432478,76.609550
3328.135591,-11177.109724,-2516.700203,306.438199
3328.135928,-11325.150913,-1554.432478,-1225.752797
3328.136266,-7846.182985,-1258.350101,-1838.629195
3328.136603,-8438.347739,-962.267725,229.828649
3328.136940,-11399.171507,-2294.638420,0.000000
3328.137277,-12213.398043,-1776.494261,-689.485948
3328.137614,-9030.512492,-962.267725,229.828649
3328.137952,-8068.244768,-1110.308913,2298.286494
3328.138289,-11695.253884,-1110.308913,3217.601092
3328.138626,-12287.418637,-370.102971,1762.019645
3328.138963,-9252.574275,1184.329507,919.314598
3328.139301,-9474.636058,962.267725,2221.676944
3328.139638,-11991.336260,-296.082377,1608.800546
3328.139975,-11399.171507,1036.288319,229.828649
3328.140312,-8364.327145,2146.597232,229.828649
3328.140649,-7476.080014,1998.556043,0.000000
3328.140987,-10732.986159,592.164754,229.828649
3328.141324,-12731.542202,1628.453072,-306.438199
3328.141661,-9104.533087,1998.556043,-2298.286494
3328.141998,-8364.327145,1924.535449,-612.876398
3328.142335,-10955.047942,-518.144159,-459.657299
3328.142673,-11695.253884,-518.144159,-1685.410096
3328.143010,-7920.203579,-962.267725,-1608.800546
3328.143347,-7031.956449,-444.123565,995.924147
3328.143684,-10436.903782,-2442.679609,2068.457845
3328.144022,-11991.336260,-1258.350101,-229.828649
3328.144359,-9400.615463,0.000000,-1532.190996
3328.144696,-8882.471304,370.102971,-229.828649
3328.145033,-10732.986159,-1184.329507,383.047749
3328.145370,-11695.253884,-888.247130,-1149.143247
3328.145708,-9178.553681,-148.041188,-766.095498
3328.146045,-8068.244768,-296.082377,1685.410096
3328.146382,-10584.944971,-1702.473667,2604.724693
3328.146719,-11917.315666,-1332.370696,1455.581446
3328.147057,-9548.656652,666.185348,689.485948
3328.147394,-9178.553681,0.000000,919.314598
3328.147731,-11399.171507,-148.041188,842.705048
3328.148068,-12361.439231,-740.205942,-76.609550
3328.148405,-9474.636058,74.020594,-153.219100
3328.148743,-7402.059420,222.061783,842.705048
3328.149080,-10732.986159,-814.226536,1455.581446
3328.149417,-12879.583391,-1110.308913,0.000000
3328.149754,-9474.636058,-370.102971,-2298.286494
3328.150091,-8438.347739,-296.082377,-229.828649
3328.150429,-10584.944971,-1480.411884,689.485948
3328.150766,-11103.089130,-1850.514855,-766.095498
3328.151103,-8586.388927,-1258.350101,-766.095498
3328.151440,-7179.997637,-1110.308913,1608.800546
3328.151778,-10214.842000,-2220.617826,2757.943793
3328.152115,-12805.562797,-1850.514855,1838.629195
3328.152452,-9474.636058,296.082377,1225.752797
3328.152789,-7772.162391,518.144159,2068.457845
3328.153126,-10288.862594,888.247130,2451.505594
3328.153464,-12213.398043,74.020594,0.000000
3328.153801,-9252.574275,1702.473667,0.000000
3328.154138,-8438.347739,1332.370696,689.485948
3328.154475,-11473.192101,666.185348,1072.533697
3328.154813,-12509.480420,296.082377,-689.485948
3328.155150,-9326.594869,666.185348,-1991.848295
3328.155487,-7105.977043,296.082377,-1072.533697
3328.155824,-9474.636058,0.000000,-76.609550
3328.156161,-11991.336260,222.061783,-919.314598
3328.156499,-10658.965565,814.226536,-2451.505594
3328.156836,-9400.615463,0.000000,-1225.752797
3328.157173,-11547.212695,-1184.329507,76.609550
3328.157510,-11991.336260,-1776.494261,-383.047749
3328.157848,-9474.636058,-740.205942,-153.219100
3328.158185,-7402.059420,-962.267725,0.000000
3328.158522,-9030.512492,-2072.576638,459.657299
3328.158859,-11843.295072,-2368.659014,-919.314598
3328.159196,-9474.636058,-1628.453072,306.438199
3328.159534,-7994.224174,-1036.288319,1378.971896
3328.159871,-9844.739029,-1332.370696,3447.429741
3328.160208,-12065.356855,0.000000,2834.553343
3328.160545,-10362.883188,518.144159,689.485948
3328.160882,-8586.388927,1184.329507,2528.115143
3328.161220,-10584.944971,296.082377,2987.772442
3328.161557,-12139.377449,222.061783,1225.752797
3328.161894,-9992.780217,1036.288319,0.000000
3328.162231,-8364.327145,666.185348,919.314598
3328.162569,-9474.636058,0.000000,995.924147
3328.162906,-11103.089130,-740.205942,306.438199
3328.163243,-10214.842000,1480.411884,-842.705048
3328.163580,-8142.265362,962.267725,-2145.067394
3328.163917,-9844.739029,962.267725,-1838.629195
3328.164255,-11621.233289,-444.123565,-1991.848295
3328.164592,-10066.800811,0.000000,-1225.752797
3328.164929,-7624.121203,444.123565,536.266849
3328.165266,-10140.821405,-1110.308913,1915.238745
3328.165604,-11769.274478,-370.102971,1762.019645
3328.165941,-11917.315666,0.000000,153.219100
3328.166278,-8808.450710,-592.164754,536.266849
3328.166615,-9770.718434,-962.267725,1455.581446
3328.166952,-11917.315666,-1480.411884,995.924147
3328.167290,-9622.677246,-222.061783,-842.705048
3328.167627,-7402.059420,444.123565,153.219100
3328.167964,-9844.739029,-592.164754,2068.457845
3328.168301,-11917.315666,-888.247130,229.828649
3328.168638,-10732.986159,814.226536,-1378.971896
3328.168976,-9030.512492,1554.432478,-919.314598
3328.169313,-9400.615463,0.000000,-842.705048
3328.169650,-10955.047942,-1184.329507,-459.657299
3328.169987,-9696.697840,-592.164754,-1455.581446
3328.170325,-8364.327145,-1036.288319,-383.047749
3328.170662,-9622.677246,-2294.638420,0.000000
3328.170999,-12213.398043,-2220.617826,0.000000
3328.171336,-10955.047942,-1554.432478,-612.876398
3328.171673,-7772.162391,-740.205942,-1455.581446
3328.172011,-9474.636058,-740.205942,153.219100
3328.172348,-11917.315666,-1924.535449,-459.657299
3328.172685,-9992.780217,-814.226536,-1762.019645
3328.173022,-7920.203579,-1628.453072,306.438199
3328.173360,-9474.636058,-888.247130,2911.162892
3328.173697,-12139.377449,-1702.473667,2528.115143
3328.174034,-11991.336260,0.000000,2145.067394
3328.174371,-8586.388927,2220.617826,995.924147
3328.174708,-10140.821405,1110.308913,2451.505594
3328.175046,-11843.295072,444.123565,1762.019645
3328.175383,-10436.903782,888.247130,919.314598
3328.175720,-8142.265362,1406.391290,1225.752797
3328.176057,-8808.450710,1036.288319,2068.457845
3328.176394,-11251.130318,-74.020594,842.705048
3328.176732,-11399.171507,1628.453072,0.000000
3328.177069,-8734.430116,1184.329507,-1455.581446
3328.177406,-9030.512492,962.267725,0.000000
3328.177743,-10584.944971,-518.144159,-842.705048
3328.178081,-9992.780217,-370.102971,-1685.410096
3328.178418,-7328.038826,-1110.308913,-689.485948
3328.178755,-8438.347739,-1554.432478,1915.238745
3328.179092,-11251.130318,-1628.453072,1838.629195
3328.179429,-11473.192101,-1554.432478,536.266849
3328.179767,-8808.450710,-296.082377,-306.438199
3328.180104,-8956.491898,-592.164754,459.657299
3328.180441,-11251.130318,-1184.329507,919.314598
3328.180778,-10881.027347,-592.164754,153.219100
3328.181116,-9178.553681,-592.164754,-229.828649
3328.181453,-9622.677246,0.000000,1532.190996
3328.181790,-12139.377449,-888.247130,306.438199
3328.182127,-11399.171507,0.000000,0.000000
3328.182464,-8586.388927,148.041188,-689.485948
3328.182802,-8734.430116,814.226536,536.266849
3328.183139,-10955.047942,-148.041188,0.000000
3328.183476,-10881.027347,0.000000,-689.485948
3328.183813,-9252.574275,0.000000,-612.876398
3328.184150,-9326.594869,-888.247130,459.657299
3328.184488,-11251.130318,-962.267725,612.876398
3328.184825,-11695.253884,-148.041188,153.219100
3328.185162,-9326.594869,148.041188,-1072.533697
3328.185499,-8956.491898,0.000000,-306.438199
3328.185837,-11251.130318,-1184.329507,-76.609550
3328.186174,-10510.924376,-222.061783,-995.924147
3328.186511,-8364.327145,-370.102971,-842.705048
3328.186848,-8660.409521,0.000000,1455.581446
3328.187185,-10955.047942,-1036.288319,1532.190996
3328.187523,-11991.336260,-296.082377,1302.362347
3328.187860,-9474.636058,666.185348,1455.581446
3328.188197,-8438.347739,592.164754,2451.505594
3328.188534,-11103.089130,592.164754,2681.334243
3328.188872,-11843.295072,444.123565,1455.581446
3328.189209,-9104.533087,1110.308913,459.657299
3328.189546,-9252.574275,888.247130,1608.800546
3328.189883,-11103.089130,370.102971,1149.143247
3328.190220,-11399.171507,74.020594,0.000000
3328.190558,-9030.512492,740.205942,-2221.676944
3328.190895,-6883.915261,370.102971,-1225.752797
3328.191232,-9474.636058,-740.205942,-229.828649
3328.191570,-11177.109724,-962.267725,-995.924147
3328.191907,-9844.739029,-740.205942,-2145.067394
3328.192244,-8512.368333,-592.164754,0.000000
3328.192582,-10807.006753,-2590.720797,1532.190996
3328.192919,-12213.398043,-2664.741391,1685.410096
3328.193256,-10140.821405,-1258.350101,-306.438199
3328.193594,-9178.553681,-1702.473667,766.095498
3328.193931,-11177.109724,-2146.597232,1072.533697
3328.194268,-11177.109724,-2294.638420,-153.219100
3328.194606,-9400.615463,-1628.453072,-383.047749
3328.194943,-8290.306550,-1110.308913,766.095498
3328.195280,-10066.800811,-1554.432478,2145.067394
3328.195618,-12657.521608,-518.144159,1685.410096
3328.195955,-10436.903782,1184.329507,-536.266849
3328.196292,-8142.265362,1258.350101,153.219100
3328.196630,-11547.212695,148.041188,1455.581446
3328.196967,-11621.233289,0.000000,76.609550
3328.197304,-8808.450710,888.247130,-995.924147
3328.197642,-7846.182985,1332.370696,383.047749
3328.197979,-9178.553681,-222.061783,0.000000
3328.198316,-12213.398043,-222.061783,0.000000
3328.198654,-10140.821405,1332.370696,-1225.752797
3328.198991,-7920.203579,1406.391290,-766.095498
3328.199328,-10288.862594,370.102971,0.000000
3328.199666,-11251.130318,-518.144159,-1302.362347
3328.200003,-7772.162391,0.000000,-2145.067394
3328.200340,-6587.832884,518.144159,306.438199
3328.200678,-9696.697840,-740.205942,1838.629195
3328.201015,-13175.665768,-1184.329507,995.924147
3328.201352,-11103.089130,518.144159,-689.485948
3328.201690,-8216.285956,740.205942,306.438199
3328.202027,-10584.944971,-666.185348,1991.848295
3328.202364,-11843.295072,-1480.411884,919.314598
3328.202702,-9030.512492,0.000000,153.219100
3328.203039,-7105.977043,74.020594,995.924147
3328.203376,-10214.842000,222.061783,2145.067394
3328.203714,-14285.974681,-962.267725,995.924147
3328.204051,-11251.130318,814.226536,-1302.362347
3328.204388,-8068.244768,1776.494261,-919.314598
3328.204726,-10066.800811,-666.185348,536.266849
3328.205063,-10807.006753,-1332.370696,-536.266849
3328.205400,-9030.512492,-1702.473667,-1149.143247
3328.205738,-7328.038826,-1406.391290,842.705048
3328.206075,-10066.800811,-1480.411884,1608.800546
3328.206412,-13915.871710,-1998.556043,306.438199
3328.206750,-11621.233289,-1628.453072,-2068.457845
3328.207087,-7476.080014,-814.226536,-1225.752797
3328.207424,-9104.533087,-1924.535449,1378.971896
3328.207762,-10732.986159,-2812.782580,1149.143247
3328.208099,-9178.553681,-1332.370696,383.047749
3328.208437,-7550.100608,-1110.308913,1072.533697
3328.208774,-10436.903782,-1184.329507,3294.210641
3328.209111,-13545.768739,-1258.350101,2604.724693
3328.209449,-11695.253884,592.164754,1608.800546
3328.209786,-7920.203579,1776.494261,0.000000
3328.210123,-9178.553681,1184.329507,1838.629195
3328.210461,-12213.398043,814.226536,1072.533697
3328.210798,-9844.739029,1406.391290,-459.657299
3328.211135,-7179.997637,1258.350101,536.266849
3328.211473,-9400.615463,2072.576638,2145.067394
3328.211810,-12509.480420,814.226536,919.314598
3328.212147,-11177.109724,1406.391290,-689.485948
3328.212485,-7846.182985,1924.535449,-1072.533697
3328.212822,-9030.512492,222.061783,306.438199
3328.213159,-11991.336260,-444.123565,-842.705048
3328.213497,-9770.718434,0.000000,-2911.162892
3328.213834,-6587.832884,-518.144159,-1608.800546
3328.214171,-7920.203579,-2368.659014,459.657299
3328.214509,-11547.212695,-2294.638420,1225.752797
3328.214846,-11251.130318,-1184.329507,-842.705048
3328.215183,-7772.162391,-444.123565,-1225.752797
3328.215521,-9474.636058,-1036.288319,1302.362347
3328.215858,-12213.398043,-1480.411884,383.047749
3328.216195,-10584.944971,-1628.453072,-766.095498
3328.216533,-8290.306550,-1110.308913,536.266849
3328.216870,-9252.574275,-1110.308913,2451.505594
3328.217207,-12953.603985,-1776.494261,1608.800546
3328.217545,-12287.418637,-518.144159,-383.047749
3328.217882,-8142.265362,148.041188,-995.924147
3328.218219,-9326.594869,-74.020594,1225.752797
3328.218557,-11991.336260,-1924.535449,536.266849
3328.218894,-10807.006753,-592.164754,-459.657299
3328.219231,-8142.265362,-74.020594,-153.219100
3328.219569,-9474.636058,-1332.370696,1915.238745
3328.219906,-12287.418637,-1258.350101,1685.410096
3328.220243,-11843.295072,0.000000,306.438199
3328.220581,-8660.409521,222.061783,-1072.533697
3328.220918,-8808.450710,-888.247130,229.828649
3328.221255,-11473.192101,-888.247130,383.047749
3328.221593,-9696.697840,-814.226536,-842.705048
3328.221930,-7031.956449,222.061783,-229.828649
3328.222267,-8734.430116,-148.041188,2374.896044
3328.222605,-12953.603985,-518.144159,2911.162892
3328.222942,-12435.459826,518.144159,1225.752797
3328.223279,-8438.347739,3034.844362,306.438199
3328.223617,-8660.409521,2368.659014,1225.752797
3328.223954,-10584.944971,1850.514855,-229.828649
3328.224291,-10362.883188,1554.432478,-1838.629195
3328.224629,-7920.203579,2368.659014,-1532.190996
3328.224966,-8142.265362,1110.308913,1072.533697
3328.225303,-11843.295072,666.185348,1378.971896
3328.225641,-11991.336260,1628.453072,-612.876398
3328.225978,-9326.594869,2368.659014,-1685.410096
3328.226316,-8660.409521,1110.308913,0.000000
3328.226653,-11399.171507,-1036.288319,76.609550
3328.226990,-10066.800811,-888.247130,-1149.143247
3328.227328,-7476.080014,-962.267725,-1455.581446
3328.227665,-8364.327145,-740.205942,0.000000
3328.228002,-11917.315666,-2812.782580,-306.438199
3328.228340,-11695.253884,-2146.597232,-1072.533697
3328.228677,-9178.553681,-518.144159,-1685.410096
3328.229014,-9400.615463,-1036.288319,0.000000
3328.229352,-11621.233289,-2368.659014,-383.047749
3328.229689,-11251.130318,-2738.761985,-995.924147
3328.230026,-8586.388927,-2368.659014,229.828649
3328.230364,-8364.327145,-2664.741391,3217.601092
3328.230701,-11991.336260,-2516.700203,3447.429741
3328.231038,-12583.501014,-1480.411884,2681.334243
3328.231376,-10362.883188,74.020594,1915.238745
3328.231713,-9252.574275,0.000000,1915.238745
3328.232050,-12065.356855,-518.144159,1532.190996
3328.232388,-11473.192101,0.000000,153.219100
3328.232725,-7698.141797,444.123565,-689.485948
3328.233062,-8142.265362,592.164754,536.266849
3328.233400,-11547.212695,-592.164754,459.657299
3328.233737,-11621.233289,148.041188,-766.095498
3328.234074,-9252.574275,1628.453072,-1762.019645
3328.234412,-8216.285956,1184.329507,-153.219100
3328.234749,-10288.862594,0.000000,0.000000
3328.235086,-10362.883188,-592.164754,-689.485948
3328.235424,-8068.244768,-370.102971,0.000000
3328.235761,-7698.141797,0.000000,1838.629195
3328.236098,-10881.027347,-1258.350101,2528.115143
3328.236436,-11547.212695,-370.102971,1225.752797
3328.236773,-9104.533087,814.226536,0.000000
3328.237110,-7846.182985,1184.329507,1072.533697
3328.237448,-10510.924376,148.041188,689.485948
3328.237785,-11843.295072,0.000000,-229.828649
3328.238122,-9104.533087,888.247130,-919.314598
3328.238460,-8290.306550,370.102971,1455.581446
3328.238797,-10732.986159,-370.102971,1838.629195
3328.239134,-12139.377449,-222.061783,919.314598
3328.239472,-9770.718434,1110.308913,-383.047749
3328.239809,-9474.636058,74.020594,383.047749
3328.240146,-11399.171507,-518.144159,536.266849
3328.240484,-11325.150913,-814.226536,-1608.800546
3328.240821,-8956.491898,-370.102971,-1838.629195
3328.241158,-8364.327145,-740.205942,-766.095498
3328.241496,-10436.903782,-2368.659014,-842.705048
3328.241833,-11473.192101,-2146.597232,-1455.581446
3328.242170,-9474.636058,-1776.494261,-459.657299
3328.242508,-8660.409521,-1554.432478,229.828649
3328.242845,-10510.924376,-2442.679609,689.485948
3328.243182,-11991.336260,-1258.350101,0.000000
3328.243520,-8586.388927,-1998.556043,-766.095498
3328.243857,-8142.265362,-2220.617826,1915.238745
3328.244195,-10584.944971,-2294.638420,4136.915689
3328.244532,-12065.356855,-296.082377,3294.210641
3328.244869,-10807.006753,814.226536,2221.676944
3328.245207,-9548.656652,1184.329507,536.266849
3328.245544,-10732.986159,962.267725,1072.533697
3328.245881,-11325.150913,1110.308913,76.609550
3328.246219,-8216.285956,1998.556043,-459.657299
3328.246556,-7772.162391,1332.370696,612.876398
3328.246893,-10436.903782,1110.308913,1455.581446
3328.247231,-11843.295072,1332.370696,536.266849
3328.247568,-9918.759623,2442.679609,-459.657299
3328.247905,-8512.368333,1628.453072,0.000000
3328.248243,-10658.965565,1258.350101,612.876398
3328.248580,-11769.274478,814.226536,-2145.067394
3328.248917,-8660.409521,296.082377,-2834.553343
3328.249255,-7402.059420,-1110.308913,-919.314598
3328.249592,-9104.533087,-1554.432478,1302.362347
3328.249929,-11177.109724,-1184.329507,459.657299
3328.250267,-10584.944971,74.020594,0.000000
3328.250604,-9104.533087,0.000000,-995.924147
3328.250941,-10732.986159,-888.247130,76.609550
3328.251279,-11547.212695,-1406.391290,0.000000
3328.251616,-8956.491898,-592.164754,-306.438199
3328.251953,-8068.244768,-222.061783,842.705048
3328.252291,-10140.821405,-1480.411884,2681.334243
3328.252628,-12213.398043,-1406.391290,2068.457845
3328.252965,-11177.109724,-518.144159,995.924147
3328.253303,-9326.594869,592.164754,-229.828649
3328.253640,-10955.047942,-518.144159,0.000000
3328.253977,-11547.212695,-1480.411884,-612.876398
3328.254315,-9030.512492,666.185348,-2145.067394
3328.254652,-8142.265362,-592.164754,-1072.533697
3328.254989,-9918.759623,-1184.329507,383.047749
3328.255327,-11843.295072,-2146.597232,-919.314598
3328.255664,-10807.006753,-814.226536,0.000000
3328.256001,-8290.306550,0.000000,-459.657299
3328.256339,-10066.800811,-1036.288319,766.095498
3328.256676,-12065.356855,-1628.453072,-536.266849
