#time,accel_x,accel_y,accel_z
3043.006496,-10436.903782,814.226536,0.000000
3043.006834,-9918.759623,592.164754,-1455.581446
3043.007171,-10658.965565,148.041188,-1532.190996
3043.007509,-9770.718434,-740.205942,-995.924147
3043.007847,-10066.800811,-2072.576638,-612.876398
3043.008184,-9474.636058,-1110.308913,-153.219100
3043.008522,-9400.615463,-444.123565,-1532.190996
3043.008860,-10510.924376,-1554.432478,-383.047749
3043.009197,-11399.171507,-1998.556043,-1455.581446
3043.009535,-10658.965565,-2072.576638,-536.266849
3043.009872,-9844.739029,-1480.411884,306.438199
3043.010210,-9326.594869,-1702.473667,229.828649
3043.010548,-10658.965565,-1850.514855,229.828649
3043.010885,-10955.047942,-2960.823768,536.266849
3043.011223,-9696.697840,-1776.494261,689.485948
3043.011561,-9474.636058,-814.226536,766.095498
3043.011898,-10362.883188,-740.205942,995.924147
3043.012236,-10955.047942,0.000000,229.828649
3043.012574,-10807.006753,-962.267725,-383.047749
3043.012911,-9770.718434,740.205942,76.609550
3043.013249,-9400.615463,740.205942,0.000000
3043.013587,-10362.883188,888.247130,0.000000
3043.013924,-10436.903782,74.020594,-995.924147
3043.014262,-9474.636058,-592.164754,-766.095498
3043.014599,-9252.574275,222.061783,0.000000
3043.014937,-10436.903782,592.164754,0.000000
3043.015275,-10658.965565,518.144159,-2298.286494
3043.015612,-10214.842000,-518.144159,-3524.039291
3043.015950,-9252.574275,-1776.494261,-2298.286494
3043.016288,-8956.491898,-1850.514855,-995.924147
3043.016625,-9030.512492,-1332.370696,-2298.286494
3043.016963,-9918.759623,-1628.453072,-2528.115143
3043.017301,-10214.842000,-1554.432478,-2987.772442
3043.017638,-9400.615463,-2590.720797,-1378.971896
3043.017976,-10510.924376,-1998.556043,-995.924147
3043.018314,-10436.903782,-2368.659014,-1991.848295
3043.018651,-11769.274478,-2368.659014,-2757.943793
3043.018989,-10362.883188,-3701.029710,-3907.087040
3043.019327,-8808.450710,-3923.091493,-3677.258390
3043.019664,-9104.533087,-4219.173869,-1532.190996
3043.020002,-9178.553681,-3849.070898,-1302.362347
3043.020339,-9326.594869,-3701.029710,-2068.457845
3043.020677,-10510.924376,-2072.576638,-1608.800546
3043.021015,-10881.027347,-2294.638420,-2451.505594
3043.021352,-11769.274478,-3108.864956,-2987.772442
3043.021690,-11177.109724,-3552.988522,-3524.039291
3043.022028,-9918.759623,-5699.585753,-4596.572988
3043.022365,-9474.636058,-5477.523971,-2451.505594
3043.022703,-8586.388927,-6143.709319,-2528.115143
3043.023041,-7994.224174,-5625.565159,-2374.896044
3043.023378,-9474.636058,-4663.297435,-2374.896044
3043.023716,-10658.965565,-4367.215058,-2068.457845
3043.024054,-11547.212695,-2220.617826,-3447.429741
3043.024391,-10955.047942,-3108.864956,-3064.381992
3043.024729,-11029.068536,-3701.029710,-1455.581446
3043.025066,-10658.965565,-4589.276840,-612.876398
3043.025404,-10214.842000,-3404.947333,1378.971896
3043.025742,-9770.718434,-3478.967927,1991.848295
3043.026079,-9474.636058,-2738.761985,612.876398
3043.026417,-9918.759623,-2590.720797,0.000000
3043.026755,-9918.759623,-1776.494261,0.000000
3043.027092,-9178.553681,-1036.288319,612.876398
3043.027430,-9548.656652,888.247130,612.876398
3043.027768,-11103.089130,1628.453072,0.000000
3043.028105,-11473.192101,148.041188,-2145.067394
3043.028443,-10436.903782,-1628.453072,-3370.820191
3043.028781,-9252.574275,-2664.741391,-919.314598
3043.029118,-8142.265362,-2664.741391,-689.485948
3043.029456,-7994.224174,-2220.617826,-2451.505594
3043.029794,-9104.533087,-3627.009116,-3370.820191
3043.030131,-8956.491898,-2664.741391,-4443.353888
3043.030469,-9844.739029,-2220.617826,-3140.991542
3043.030806,-9474.636058,-888.247130,-3447.429741
3043.031144,-9548.656652,-962.267725,-2911.162892
3043.031482,-12213.398043,-2294.638420,-2221.676944
3043.031819,-11177.109724,-2072.576638,-2681.334243
3043.032157,-8808.450710,-2590.720797,-2298.286494
3043.032495,-9474.636058,-3849.070898,995.924147
3043.032832,-10881.027347,-3627.009116,995.924147
3043.033170,-10955.047942,-2294.638420,-1225.752797
3043.033508,-10140.821405,-1332.370696,-2145.067394
3043.033845,-10584.944971,-1628.453072,-2145.067394
3043.034183,-11991.336260,-814.226536,-2834.553343
3043.034521,-11399.171507,-1036.288319,-4826.401637
3043.034858,-9104.533087,0.000000,-3217.601092
3043.035196,-8586.388927,-814.226536,-1685.410096
3043.035534,-9918.759623,-888.247130,-1915.238745
3043.035871,-10881.027347,-1850.514855,-2757.943793
3043.036209,-10881.027347,-2146.597232,-1455.581446
3043.036546,-9474.636058,-1776.494261,-842.705048
3043.036884,-9770.718434,-2294.638420,0.000000
3043.037222,-10214.842000,-962.267725,-842.705048
3043.037559,-9770.718434,-814.226536,-2528.115143
3043.037897,-10510.924376,-1628.453072,-3370.820191
3043.038235,-10140.821405,-1776.494261,-3447.429741
3043.038572,-10214.842000,-2072.576638,-2451.505594
3043.038910,-9252.574275,-1850.514855,-1532.190996
3043.039248,-8808.450710,-2368.659014,-2451.505594
3043.039585,-9178.553681,-2664.741391,-766.095498
3043.039923,-9992.780217,-2664.741391,306.438199
3043.040261,-8808.450710,-1776.494261,1838.629195
3043.040598,-9844.739029,-296.082377,2298.286494
3043.040936,-10881.027347,592.164754,1302.362347
3043.041273,-11473.192101,1184.329507,-76.609550
3043.041611,-12213.398043,-74.020594,-1532.190996
3043.041949,-10362.883188,-1110.308913,-3064.381992
3043.042286,-10140.821405,-2442.679609,-2604.724693
3043.042624,-8734.430116,-3330.926739,-3447.429741
3043.042962,-7550.100608,-4441.235652,-3524.039291
3043.043299,-9252.574275,-5551.544565,-2681.334243
3043.043637,-9104.533087,-4663.297435,-2757.943793
3043.043975,-10140.821405,-3552.988522,-1685.410096
3043.044312,-10584.944971,-2442.679609,-1225.752797
3043.044650,-10955.047942,-2590.720797,-1991.848295
3043.044988,-11769.274478,-3108.864956,-1762.019645
3043.045325,-11325.150913,-4293.194464,-2145.067394
3043.045663,-11251.130318,-5699.585753,-2145.067394
3043.046001,-8956.491898,-6143.709319,-3830.477490
3043.046338,-8290.306550,-7624.121203,-3370.820191
3043.046676,-7624.121203,-8216.285956,-2528.115143
3043.047013,-8808.450710,-6143.709319,-842.705048
3043.047351,-8660.409521,-3997.112087,-766.095498
3043.047689,-10584.944971,-1554.432478,-1915.238745
3043.048026,-11177.109724,-1110.308913,-2068.457845
3043.048364,-13693.809927,-222.061783,-1608.800546
3043.048702,-12731.542202,-1036.288319,-1455.581446
3043.049039,-10732.986159,-2146.597232,-306.438199
3043.049377,-10214.842000,-2886.803174,383.047749
3043.049715,-9770.718434,-3775.050304,-459.657299
3043.050052,-9104.533087,-2960.823768,-1532.190996
3043.050390,-8882.471304,-2442.679609,-1762.019645
3043.050728,-8956.491898,-962.267725,-2221.676944
3043.051065,-10732.986159,-740.205942,-4290.134789
3043.051403,-11473.192101,-518.144159,-5515.887586
3043.051741,-9770.718434,-1776.494261,-5209.449386
3043.052078,-9030.512492,-1628.453072,-2987.772442
3043.052416,-8216.285956,-1036.288319,-536.266849
3043.052753,-8808.450710,-1998.556043,76.609550
3043.053091,-9474.636058,-2738.761985,-306.438199
3043.053429,-9622.677246,-4145.153275,-1455.581446
3043.053766,-9918.759623,-3775.050304,-919.314598
3043.054104,-9474.636058,-3330.926739,-383.047749
3043.054442,-9252.574275,-3256.906145,0.000000
3043.054779,-8734.430116,-1258.350101,-766.095498
3043.055117,-9696.697840,-518.144159,-919.314598
3043.055455,-11843.295072,444.123565,-459.657299
3043.055792,-11843.295072,-962.267725,-3064.381992
3043.056130,-12139.377449,-1850.514855,-3447.429741
3043.056468,-10955.047942,-3478.967927,-2298.286494
3043.056805,-9770.718434,-4145.153275,-1072.533697
3043.057143,-8438.347739,-4145.153275,-612.876398
3043.057480,-8068.244768,-2886.803174,-1378.971896
3043.057818,-9770.718434,-2516.700203,-2604.724693
3043.058156,-11991.336260,-1776.494261,-3907.087040
3043.058493,-12435.459826,-1628.453072,-4673.182538
3043.058831,-11843.295072,-1480.411884,-3753.867940
3043.059169,-11177.109724,-2738.761985,-2528.115143
3043.059506,-9474.636058,-2664.741391,-2451.505594
3043.059844,-8660.409521,-4367.215058,-1225.752797
3043.060182,-7698.141797,-3627.009116,-919.314598
3043.060519,-8512.368333,-4145.153275,-229.828649
3043.060857,-11325.150913,-3701.029710,842.705048
3043.061195,-11917.315666,-1332.370696,-76.609550
3043.061532,-11769.274478,-962.267725,-1838.629195
3043.061870,-9622.677246,1480.411884,-2374.896044
3043.062207,-7846.182985,592.164754,-2298.286494
3043.062545,-9474.636058,148.041188,-689.485948
3043.062883,-9400.615463,-740.205942,-306.438199
3043.063220,-9844.739029,74.020594,383.047749
3043.063558,-11473.192101,518.144159,0.000000
3043.063895,-10807.006753,888.247130,-1685.410096
3043.064233,-9252.574275,-296.082377,-1915.238745
3043.064571,-7179.997637,-1702.473667,-766.095498
3043.064908,-7772.162391,-370.102971,383.047749
3043.065246,-9548.656652,74.020594,-1378.971896
3043.065583,-12435.459826,148.041188,-3294.210641
3043.065921,-12139.377449,-962.267725,-5669.106685
3043.066259,-10807.006753,-1554.432478,-3677.258390
3043.066596,-8586.388927,-1184.329507,-1608.800546
3043.066934,-7105.977043,-2812.782580,612.876398
3043.067272,-9326.594869,-2738.761985,1838.629195
3043.067609,-9918.759623,-3330.926739,-1225.752797
3043.067947,-11547.212695,-4071.132681,459.657299
3043.068284,-12509.480420,-2738.761985,995.924147
3043.068622,-11399.171507,-2516.700203,229.828649
3043.068960,-9326.594869,-1924.535449,766.095498
3043.069297,-8586.388927,-2368.659014,0.000000
3043.069635,-8808.450710,-2368.659014,-76.609550
3043.069972,-10955.047942,-2294.638420,-2068.457845
3043.070310,-9770.718434,-2738.761985,-3447.429741
3043.070648,-9992.780217,-3256.906145,-459.657299
3043.070985,-10288.862594,-3923.091493,1685.410096
3043.071323,-9252.574275,-2146.597232,536.266849
3043.071660,-10140.821405,-2442.679609,229.828649
3043.071998,-10066.800811,-2146.597232,-1072.533697
3043.072336,-9918.759623,-1850.514855,-1838.629195
3043.072673,-11251.130318,-2146.597232,-1149.143247
3043.073011,-9548.656652,-2590.720797,-766.095498
3043.073348,-10658.965565,-2072.576638,-689.485948
3043.073686,-10140.821405,-1258.350101,-2451.505594
3043.074024,-9326.594869,-1850.514855,-459.657299
3043.074361,-9400.615463,-1110.308913,2298.286494
3043.074699,-8734.430116,-962.267725,2221.676944
3043.075037,-10807.006753,-518.144159,3064.381992
3043.075374,-12509.480420,444.123565,1149.143247
3043.075712,-11251.130318,222.061783,-153.219100
3043.076049,-9622.677246,1628.453072,536.266849
3043.076387,-7772.162391,2072.576638,1532.190996
3043.076725,-9918.759623,2960.823768,2604.724693
3043.077062,-11325.150913,888.247130,0.000000
3043.077400,-10436.903782,666.185348,-1685.410096
3043.077737,-11177.109724,814.226536,612.876398
3043.078075,-9548.656652,1924.535449,-1149.143247
3043.078413,-8216.285956,0.000000,-919.314598
3043.078750,-9474.636058,-1480.411884,0.000000
3043.079088,-8512.368333,-1258.350101,1455.581446
3043.079425,-9622.677246,518.144159,1072.533697
3043.079763,-10066.800811,592.164754,0.000000
3043.080101,-11251.130318,-666.185348,-2298.286494
3043.080438,-12509.480420,-2368.659014,-2528.115143
3043.080776,-9474.636058,-1258.350101,-1915.238745
3043.081113,-6883.915261,-1184.329507,459.657299
3043.081451,-7476.080014,-1332.370696,0.000000
3043.081789,-9252.574275,-1628.453072,-459.657299
3043.082126,-12509.480420,-2368.659014,-383.047749
3043.082464,-12879.583391,-1110.308913,1608.800546
3043.082802,-11621.233289,-1110.308913,2451.505594
3043.083139,-11177.109724,222.061783,1378.971896
3043.083477,-9918.759623,-222.061783,459.657299
3043.083814,-9844.739029,0.000000,383.047749
3043.084152,-9326.594869,0.000000,536.266849
3043.084490,-9918.759623,-148.041188,2374.896044
3043.084827,-11029.068536,1702.473667,1225.752797
3043.085165,-11843.295072,666.185348,-766.095498
3043.085502,-12287.418637,518.144159,-306.438199
3043.085840,-9474.636058,-222.061783,-383.047749
3043.086178,-9326.594869,666.185348,1072.533697
3043.086515,-8660.409521,740.205942,536.266849
3043.086853,-9770.718434,0.000000,0.000000
3043.087190,-10066.800811,-962.267725,-919.314598
3043.087528,-7994.224174,-666.185348,-229.828649
3043.087866,-9696.697840,-518.144159,2604.724693
3043.088203,-9474.636058,296.082377,1991.848295
3043.088541,-9696.697840,296.082377,1685.410096
3043.088878,-10288.862594,370.102971,1762.019645
3043.089216,-8438.347739,1406.391290,2528.115143
3043.089554,-10214.842000,2072.576638,2145.067394
3043.089891,-11843.295072,370.102971,-689.485948
3043.090229,-10955.047942,-1110.308913,-1378.971896
3043.090567,-10510.924376,-740.205942,0.000000
3043.090904,-7179.997637,-296.082377,919.314598
3043.091242,-7179.997637,592.164754,2451.505594
3043.091579,-10288.862594,370.102971,1455.581446
3043.091917,-11399.171507,814.226536,-766.095498
3043.092255,-12879.583391,592.164754,-459.657299
3043.092592,-12065.356855,0.000000,0.000000
3043.092930,-10807.006753,-1184.329507,76.609550
3043.093267,-9844.739029,-1776.494261,-1991.848295
3043.093605,-8290.306550,-2442.679609,-1762.019645
3043.093943,-8660.409521,-2886.803174,-1378.971896
3043.094280,-8290.306550,-3182.885551,-1685.410096
3043.094618,-10288.862594,-3256.906145,-1685.410096
3043.094955,-11251.130318,-3849.070898,-1991.848295
3043.095293,-10362.883188,-3404.947333,-995.924147
3043.095631,-10140.821405,-2664.741391,383.047749
3043.095968,-8438.347739,-2664.741391,2374.896044
3043.096306,-8438.347739,-1702.473667,3294.210641
3043.096643,-11029.068536,-148.041188,2757.943793
3043.096981,-12657.521608,-666.185348,995.924147
3043.097319,-12139.377449,74.020594,-612.876398
3043.097656,-10140.821405,-1702.473667,0.000000
3043.097994,-9918.759623,-148.041188,1762.019645
3043.098332,-9474.636058,444.123565,1225.752797
3043.098669,-8290.306550,1702.473667,536.266849
3043.099007,-9474.636058,2886.803174,536.266849
3043.099344,-11843.295072,2368.659014,-1072.533697
3043.099682,-12731.542202,1998.556043,-766.095498
3043.100020,-11843.295072,1480.411884,-612.876398
3043.100357,-9622.677246,740.205942,766.095498
3043.100695,-9104.533087,1998.556043,383.047749
3043.101032,-7328.038826,1184.329507,-689.485948
3043.101370,-9104.533087,-962.267725,-689.485948
3043.101708,-9918.759623,-888.247130,-306.438199
3043.102045,-9770.718434,-518.144159,76.609550
3043.102383,-9770.718434,370.102971,0.000000
3043.102720,-9178.553681,888.247130,-995.924147
3043.103058,-9400.615463,0.000000,-919.314598
3043.103396,-8438.347739,-814.226536,-919.314598
3043.103733,-8586.388927,-962.267725,2528.115143
3043.104071,-9474.636058,0.000000,4903.011187
3043.104408,-10881.027347,-296.082377,3983.696590
3043.104746,-12213.398043,-814.226536,1225.752797
3043.105084,-11695.253884,-1480.411884,-76.609550
3043.105421,-9992.780217,-1702.473667,536.266849
3043.105759,-7920.203579,-1850.514855,229.828649
3043.106096,-7624.121203,0.000000,842.705048
3043.106434,-9770.718434,148.041188,-76.609550
3043.106772,-12509.480420,296.082377,-2145.067394
3043.107109,-12805.562797,-1924.535449,-1378.971896
3043.107447,-12435.459826,-888.247130,229.828649
3043.107785,-9030.512492,-1110.308913,153.219100
3043.108122,-8734.430116,-2072.576638,1455.581446
3043.108460,-10436.903782,-2368.659014,1685.410096
3043.108797,-10510.924376,-1924.535449,306.438199
3043.109135,-9992.780217,-666.185348,229.828649
3043.109473,-11103.089130,-1406.391290,383.047749
3043.109810,-11621.233289,-1332.370696,-689.485948
3043.110148,-9770.718434,-666.185348,-1149.143247
3043.110485,-8438.347739,-518.144159,1991.848295
3043.110823,-8882.471304,1184.329507,2757.943793
3043.111161,-9548.656652,2072.576638,1302.362347
3043.111498,-11177.109724,2146.597232,0.000000
3043.111836,-10510.924376,1184.329507,1149.143247
3043.112173,-9844.739029,666.185348,2451.505594
3043.112511,-9548.656652,3108.864956,1838.629195
3043.112849,-9622.677246,2368.659014,459.657299
3043.113186,-10288.862594,1258.350101,-1225.752797
3043.113524,-8956.491898,888.247130,-3140.991542
3043.113861,-8290.306550,0.000000,-1378.971896
3043.114199,-9030.512492,592.164754,306.438199
3043.114537,-9030.512492,222.061783,-995.924147
3043.114874,-9326.594869,0.000000,-2528.115143
3043.115212,-11103.089130,-962.267725,-1991.848295
3043.115550,-9770.718434,-1628.453072,383.047749
3043.115887,-7772.162391,-222.061783,1072.533697
3043.116225,-10066.800811,0.000000,1378.971896
3043.116562,-13027.624579,-1702.473667,842.705048
3043.116900,-11843.295072,-2220.617826,-1991.848295
3043.117238,-10732.986159,-3108.864956,-689.485948
3043.117575,-9326.594869,-1258.350101,1149.143247
3043.117913,-8586.388927,-888.247130,842.705048
3043.118250,-10807.006753,-1110.308913,153.219100
3043.118588,-10510.924376,-814.226536,-383.047749
3043.118926,-11547.212695,-1406.391290,1685.410096
3043.119263,-10658.965565,0.000000,1838.629195
3043.119601,-9696.697840,222.061783,1915.238745
3043.119938,-12287.418637,74.020594,2451.505594
3043.120276,-11843.295072,-518.144159,229.828649
3043.120614,-9548.656652,-814.226536,383.047749
3043.120951,-8882.471304,-296.082377,919.314598
3043.121289,-8808.450710,-444.123565,766.095498
3043.121626,-10362.883188,-962.267725,-919.314598
3043.121964,-9030.512492,-666.185348,-2834.553343
3043.122302,-8290.306550,-740.205942,-536.266849
3043.122639,-8882.471304,222.061783,229.828649
3043.122977,-9696.697840,1480.411884,995.924147
3043.123315,-11325.150913,1036.288319,-229.828649
3043.123652,-9696.697840,518.144159,-153.219100
3043.123990,-9770.718434,0.000000,2145.067394
3043.124327,-8956.491898,222.061783,2987.772442
3043.124665,-8956.491898,740.205942,2987.772442
3043.125003,-10807.006753,1184.329507,1149.143247
3043.125340,-11177.109724,666.185348,-995.924147
3043.125678,-10436.903782,74.020594,612.876398
3043.126015,-10066.800811,1554.432478,1455.581446
3043.126353,-9474.636058,2442.679609,1072.533697
3043.126691,-10732.986159,1924.535449,-1302.362347
3043.127028,-10584.944971,1258.350101,-1302.362347
3043.127366,-9400.615463,74.020594,306.438199
3043.127703,-9474.636058,592.164754,1762.019645
3043.128041,-10140.821405,1776.494261,306.438199
3043.128379,-12805.562797,740.205942,-1762.019645
3043.128716,-11621.233289,-1998.556043,-4290.134789
3043.129054,-9104.533087,-4071.132681,-1915.238745
3043.129391,-6809.894666,-3701.029710,612.876398
3043.129729,-6365.771101,-2442.679609,1762.019645
3043.130067,-9918.759623,-2664.741391,689.485948
3043.130404,-11843.295072,-1998.556043,-2068.457845
3043.130742,-12139.377449,-1776.494261,-1915.238745
3043.131080,-11251.130318,-1554.432478,383.047749
3043.131417,-8734.430116,-1110.308913,1302.362347
3043.131755,-8808.450710,-296.082377,1838.629195
3043.132092,-8734.430116,-1480.411884,766.095498
3043.132430,-10362.883188,-2368.659014,1915.238745
3043.132768,-11843.295072,-962.267725,2145.067394
3043.133105,-10807.006753,740.205942,1762.019645
3043.133443,-12065.356855,2146.597232,689.485948
3043.133780,-10732.986159,1628.453072,-919.314598
3043.134118,-9326.594869,1998.556043,0.000000
3043.134456,-10066.800811,2294.638420,1302.362347
3043.134793,-9992.780217,2812.782580,1149.143247
3043.135131,-11251.130318,2738.761985,153.219100
3043.135468,-11695.253884,2368.659014,-2068.457845
3043.135806,-10658.965565,518.144159,-1532.190996
3043.136144,-8660.409521,0.000000,536.266849
3043.136481,-5921.647536,-592.164754,1378.971896
3043.136819,-7550.100608,370.102971,383.047749
3043.137156,-9400.615463,0.000000,-766.095498
3043.137494,-9918.759623,444.123565,-919.314598
3043.137832,-10140.821405,296.082377,842.705048
3043.138169,-10362.883188,1332.370696,1915.238745
3043.138507,-10955.047942,1184.329507,-306.438199
3043.138845,-10140.821405,-592.164754,76.609550
3043.139182,-8290.306550,-666.185348,1762.019645
3043.139520,-8882.471304,-592.164754,2911.162892
3043.139857,-9918.759623,74.020594,2298.286494
3043.140195,-11843.295072,-888.247130,383.047749
3043.140533,-12731.542202,-2368.659014,-153.219100
3043.140870,-11177.109724,-1776.494261,76.609550
3043.141208,-8438.347739,592.164754,919.314598
3043.141545,-8290.306550,518.144159,459.657299
3043.141883,-9992.780217,-370.102971,-612.876398
3043.142221,-12213.398043,-1554.432478,-2757.943793
3043.142558,-13027.624579,-2442.679609,-1149.143247
3043.142896,-10658.965565,-1480.411884,383.047749
3043.143233,-9030.512492,-1258.350101,229.828649
3043.143571,-9474.636058,-2516.700203,-459.657299
3043.143909,-10214.842000,-3256.906145,-1072.533697
3043.144246,-8660.409521,-2516.700203,-995.924147
3043.144584,-8956.491898,-2146.597232,1072.533697
3043.144921,-10732.986159,-1110.308913,2145.067394
3043.145259,-12509.480420,-444.123565,-689.485948
3043.145597,-9992.780217,-592.164754,-1532.190996
3043.145934,-9548.656652,-888.247130,1608.800546
3043.146272,-8956.491898,-740.205942,4519.963438
3043.146610,-8142.265362,1258.350101,3447.429741
3043.146947,-10140.821405,2368.659014,1915.238745
3043.147285,-10658.965565,1554.432478,0.000000
3043.147622,-12065.356855,962.267725,0.000000
3043.147960,-12065.356855,1998.556043,-383.047749
3043.148298,-8882.471304,1628.453072,-1072.533697
3043.148635,-8364.327145,2738.761985,-1378.971896
3043.148973,-7994.224174,1998.556043,-1838.629195
3043.149310,-9548.656652,1036.288319,-1302.362347
3043.149648,-9696.697840,1480.411884,0.000000
3043.149986,-10584.944971,1628.453072,-229.828649
3043.150323,-10658.965565,1406.391290,-1378.971896
3043.150661,-11177.109724,-148.041188,-612.876398
3043.150998,-9844.739029,-1110.308913,0.000000
3043.151336,-8956.491898,-1332.370696,689.485948
3043.151674,-8068.244768,-888.247130,919.314598
3043.152011,-9252.574275,-592.164754,-919.314598
3043.152349,-10288.862594,-888.247130,-1225.752797
3043.152686,-11325.150913,-2368.659014,-1072.533697
3043.153024,-10955.047942,-1480.411884,1072.533697
3043.153362,-9474.636058,0.000000,1838.629195
3043.153699,-9696.697840,0.000000,2451.505594
3043.154037,-10881.027347,814.226536,919.314598
3043.154375,-11399.171507,-1924.535449,1915.238745
3043.154712,-10881.027347,-1184.329507,2604.724693
3043.155050,-9770.718434,-740.205942,3600.648841
3043.155387,-11621.233289,592.164754,3064.381992
3043.155725,-10881.027347,296.082377,-1225.752797
3043.156063,-9992.780217,-962.267725,-2298.286494
3043.156400,-7772.162391,-518.144159,-612.876398
3043.156738,-7920.203579,-370.102971,1302.362347
3043.157075,-9992.780217,74.020594,1302.362347
3043.157413,-11843.295072,0.000000,-919.314598
3043.157751,-11695.253884,-1184.329507,-919.314598
3043.158088,-9326.594869,0.000000,919.314598
3043.158426,-8068.244768,814.226536,3677.258390
3043.158763,-9548.656652,814.226536,2221.676944
3043.159101,-10732.986159,814.226536,-383.047749
3043.159438,-11325.150913,-74.020594,-1991.848295
3043.159776,-9844.739029,0.000000,536.266849
3043.160113,-8808.450710,0.000000,2145.067394
3043.160451,-9622.677246,740.205942,1378.971896
3043.160788,-9400.615463,1480.411884,0.000000
3043.161126,-10066.800811,1258.350101,612.876398
3043.161463,-10881.027347,1184.329507,1072.533697
3043.161801,-10066.800811,1332.370696,919.314598
3043.162138,-9696.697840,1776.494261,0.000000
3043.162475,-10362.883188,814.226536,-306.438199
3043.162813,-10584.944971,0.000000,-1378.971896
3043.163150,-8660.409521,-1554.432478,-1378.971896
3043.163488,-7772.162391,-1036.288319,919.314598
3043.163825,-9844.739029,-444.123565,-612.876398
3043.164163,-10362.883188,74.020594,-3217.601092
3043.164500,-10807.006753,-666.185348,-2911.162892
3043.164837,-10436.903782,-1258.350101,-2757.943793
3043.165175,-10584.944971,-1924.535449,-1838.629195
3043.165512,-10140.821405,-1480.411884,-995.924147
3043.165850,-8216.285956,-2368.659014,-842.705048
3043.166187,-8956.491898,-3256.906145,1532.190996
3043.166525,-10955.047942,-2664.741391,3524.039291
3043.166862,-11769.274478,-1184.329507,2911.162892
3043.167200,-11399.171507,-962.267725,1072.533697
3043.167537,-11473.192101,-592.164754,229.828649
3043.167874,-11325.150913,-1184.329507,459.657299
3043.168212,-9030.512492,-296.082377,612.876398
3043.168549,-8290.306550,0.000000,2145.067394
3043.168887,-9622.677246,1554.432478,2451.505594
3043.169224,-10732.986159,1332.370696,0.000000
3043.169562,-10955.047942,888.247130,0.000000
3043.169899,-10140.821405,814.226536,919.314598
3043.170237,-8882.471304,666.185348,2681.334243
3043.170574,-9548.656652,1258.350101,1225.752797
3043.170911,-9474.636058,2072.576638,383.047749
3043.171249,-10140.821405,1184.329507,-459.657299
3043.171586,-9992.780217,-1184.329507,-1455.581446
3043.171924,-8808.450710,-1554.432478,1378.971896
3043.172261,-8290.306550,-148.041188,2681.334243
3043.172599,-8216.285956,222.061783,612.876398
3043.172936,-9992.780217,0.000000,153.219100
3043.173273,-10658.965565,-740.205942,-612.876398
3043.173611,-10807.006753,-148.041188,229.828649
3043.173948,-10658.965565,222.061783,0.000000
3043.174286,-9918.759623,-222.061783,1072.533697
3043.174623,-11029.068536,-1184.329507,1072.533697
3043.174961,-9918.759623,-1554.432478,842.705048
3043.175298,-9252.574275,-296.082377,1532.190996
3043.175636,-9474.636058,0.000000,1302.362347
3043.175973,-11029.068536,0.000000,-229.828649
3043.176310,-10436.903782,0.000000,306.438199
3043.176648,-12287.418637,-74.020594,-1915.238745
3043.176985,-8956.491898,-666.185348,153.219100
3043.177323,-9992.780217,-888.247130,0.000000
3043.177660,-10288.862594,-592.164754,536.266849
3043.177998,-11177.109724,-1332.370696,-1532.190996
3043.178335,-10584.944971,-1554.432478,-2604.724693
3043.178672,-9548.656652,-3034.844362,-1685.410096
3043.179010,-9622.677246,-2664.741391,-306.438199
3043.179347,-8512.368333,-1258.350101,-612.876398
3043.179685,-9400.615463,-1554.432478,-306.438199
3043.180022,-9178.553681,-1702.473667,536.266849
3043.180360,-10066.800811,-1332.370696,1149.143247
3043.180697,-11177.109724,296.082377,1378.971896
3043.181035,-11473.192101,0.000000,919.314598
3043.181372,-12139.377449,370.102971,383.047749
3043.181709,-9622.677246,888.247130,1608.800546
3043.182047,-7846.182985,740.205942,1455.581446
3043.182384,-8290.306550,1258.350101,1685.410096
3043.182722,-9992.780217,1924.535449,-919.314598
3043.183059,-10807.006753,1776.494261,-612.876398
3043.183397,-10732.986159,1776.494261,612.876398
3043.183734,-10807.006753,1702.473667,2604.724693
3043.184072,-10658.965565,2072.576638,1991.848295
3043.184409,-9474.636058,2294.638420,306.438199
3043.184746,-8882.471304,1036.288319,0.000000
3043.185084,-9400.615463,-222.061783,995.924147
3043.185421,-9918.759623,-1110.308913,459.657299
3043.185759,-9548.656652,-1332.370696,-1915.238745
3043.186096,-9178.553681,-148.041188,-1532.190996
3043.186434,-9770.718434,-740.205942,-1608.800546
3043.186771,-9770.718434,-296.082377,-2145.067394
3043.187108,-8586.388927,-1628.453072,-1532.190996
3043.187446,-9030.512492,-2072.576638,-76.609550
3043.187783,-8660.409521,-2442.679609,1685.410096
3043.188121,-11251.130318,-1554.432478,3677.258390
3043.188458,-11843.295072,-1776.494261,2834.553343
3043.188796,-11473.192101,-1258.350101,2221.676944
3043.189133,-10658.965565,-2146.597232,1838.629195
3043.189471,-9252.574275,-1554.432478,1838.629195
3043.189808,-11103.089130,-1998.556043,3370.820191
3043.190145,-11177.109724,0.000000,1225.752797
3043.190483,-9770.718434,-296.082377,-1149.143247
3043.190820,-11177.109724,1332.370696,-1149.143247
3043.191158,-10510.924376,296.082377,-2374.896044
3043.191495,-10955.047942,-888.247130,-842.705048
3043.191833,-9770.718434,0.000000,-383.047749
3043.192170,-8882.471304,-666.185348,-229.828649
3043.192507,-10807.006753,-222.061783,1378.971896
3043.192845,-10510.924376,-1258.350101,76.609550
3043.193182,-10288.862594,-1628.453072,383.047749
3043.193520,-10362.883188,-1998.556043,612.876398
3043.193857,-9030.512492,-370.102971,1838.629195
3043.194195,-9104.533087,74.020594,1149.143247
3043.194532,-9252.574275,-740.205942,-1072.533697
3043.194870,-9178.553681,222.061783,-919.314598
3043.195207,-10214.842000,740.205942,-229.828649
3043.195544,-9400.615463,1258.350101,-383.047749
3043.195882,-10066.800811,222.061783,536.266849
3043.196219,-10288.862594,0.000000,766.095498
3043.196557,-9030.512492,370.102971,1685.410096
3043.196894,-9548.656652,1184.329507,1072.533697
3043.197232,-9252.574275,74.020594,1378.971896
3043.197569,-10881.027347,518.144159,76.609550
3043.197907,-12287.418637,-592.164754,-383.047749
3043.198244,-9770.718434,888.247130,-1225.752797
3043.198581,-7994.224174,1406.391290,-1915.238745
3043.198919,-10140.821405,444.123565,-1532.190996
3043.199256,-9918.759623,-814.226536,-3753.867940
3043.199594,-10066.800811,-1184.329507,-2834.553343
3043.199931,-9844.739029,-1110.308913,-919.314598
3043.200269,-9104.533087,-888.247130,-766.095498
3043.200606,-10584.944971,-1332.370696,766.095498
3043.200943,-12583.501014,-2220.617826,1378.971896
3043.201281,-11917.315666,-740.205942,536.266849
3043.201618,-9844.739029,-1776.494261,1072.533697
3043.201956,-8882.471304,-1702.473667,2528.115143
3043.202293,-8734.430116,-2442.679609,2298.286494
3043.202631,-10807.006753,-2368.659014,1455.581446
3043.202968,-11103.089130,-1628.453072,1608.800546
3043.203306,-10066.800811,-370.102971,1302.362347
3043.203643,-10288.862594,1406.391290,1991.848295
3043.203980,-10436.903782,1480.411884,229.828649
3043.204318,-9400.615463,814.226536,0.000000
3043.204655,-8956.491898,-1110.308913,1762.019645
3043.204993,-9622.677246,0.000000,3524.039291
3043.205330,-9622.677246,888.247130,1915.238745
3043.205668,-10288.862594,518.144159,1532.190996
3043.206005,-10807.006753,148.041188,-459.657299
3043.206342,-9696.697840,148.041188,-689.485948
3043.206680,-9474.636058,592.164754,919.314598
3043.207017,-9252.574275,74.020594,459.657299
3043.207355,-10510.924376,666.185348,-1225.752797
3043.207692,-9918.759623,1184.329507,-2451.505594
3043.208030,-9622.677246,296.082377,-1532.190996
3043.208367,-10658.965565,-1406.391290,766.095498
3043.208705,-9178.553681,-962.267725,306.438199
3043.209042,-10214.842000,-962.267725,2145.067394
3043.209379,-9844.739029,-148.041188,536.266849
3043.209717,-9622.677246,-1184.329507,1608.800546
3043.210054,-11769.274478,0.000000,2068.457845
3043.210392,-10881.027347,222.061783,536.266849
3043.210729,-11029.068536,1036.288319,-306.438199
3043.211067,-10436.903782,0.000000,-1532.190996
3043.211404,-9918.759623,-1258.350101,-1225.752797
3043.211742,-10214.842000,-1332.370696,-612.876398
3043.212079,-7772.162391,0.000000,-2451.505594
3043.212416,-8216.285956,518.144159,-1915.238745
3043.212754,-11029.068536,-1628.453072,-2298.286494
3043.213091,-10584.944971,-2886.803174,-2374.896044
3043.213429,-10140.821405,-3182.885551,-842.705048
3043.213766,-8956.491898,-1554.432478,-229.828649
3043.214104,-9252.574275,-2072.576638,0.000000
3043.214441,-11399.171507,-2368.659014,0.000000
3043.214778,-10658.965565,-2960.823768,-919.314598
3043.215116,-10510.924376,-2590.720797,153.219100
3043.215453,-9474.636058,74.020594,842.705048
3043.215791,-10288.862594,-444.123565,842.705048
3043.216128,-12213.398043,-592.164754,-536.266849
3043.216466,-10436.903782,-2072.576638,1378.971896
3043.216803,-11473.192101,888.247130,3677.258390
3043.217141,-9474.636058,1924.535449,2451.505594
3043.217478,-9178.553681,1480.411884,1915.238745
3043.217815,-11843.295072,888.247130,1532.190996
3043.218153,-11621.233289,222.061783,-1072.533697
3043.218490,-9548.656652,148.041188,842.705048
3043.218828,-7920.203579,1776.494261,2681.334243
3043.219165,-8512.368333,1258.350101,1532.190996
3043.219503,-9548.656652,1406.391290,-1149.143247
3043.219840,-8882.471304,0.000000,-1455.581446
3043.220177,-9622.677246,-74.020594,1225.752797
3043.220515,-8068.244768,296.082377,1225.752797
3043.220852,-9326.594869,592.164754,-306.438199
3043.221190,-10955.047942,74.020594,-2604.724693
3043.221527,-9252.574275,-3108.864956,-2298.286494
3043.221865,-8142.265362,-2664.741391,689.485948
3043.222202,-7624.121203,-1998.556043,2757.943793
3043.222540,-9770.718434,-370.102971,2987.772442
3043.222877,-11991.336260,0.000000,-306.438199
3043.223214,-13323.706956,-1258.350101,-842.705048
3043.223552,-11769.274478,-1258.350101,842.705048
3043.223889,-9548.656652,-222.061783,2604.724693
3043.224227,-9474.636058,814.226536,2451.505594
3043.224564,-9992.780217,148.041188,0.000000
3043.224902,-11473.192101,-1184.329507,-306.438199
3043.225239,-12731.542202,-1110.308913,919.314598
3043.225577,-11399.171507,370.102971,1225.752797
3043.225914,-10436.903782,518.144159,76.609550
3043.226251,-11103.089130,1036.288319,-766.095498
3043.226589,-9474.636058,-962.267725,-919.314598
3043.226926,-9474.636058,-740.205942,76.609550
3043.227264,-9104.533087,148.041188,612.876398
3043.227601,-9992.780217,74.020594,-383.047749
3043.227939,-11177.109724,296.082377,-2374.896044
3043.228276,-10807.006753,-962.267725,-2221.676944
3043.228613,-10436.903782,-2368.659014,-306.438199
3043.228951,-7476.080014,-1850.514855,383.047749
3043.229288,-7402.059420,-1184.329507,1762.019645
3043.229626,-9252.574275,-518.144159,0.000000
3043.229963,-9844.739029,-962.267725,-229.828649
3043.230301,-10584.944971,-666.185348,766.095498
3043.230638,-9992.780217,1258.350101,1149.143247
3043.230976,-9474.636058,2516.700203,766.095498
3043.231313,-11399.171507,3256.906145,153.219100
3043.231650,-10955.047942,592.164754,-536.266849
3043.231988,-10436.903782,592.164754,0.000000
3043.232325,-8586.388927,666.185348,1225.752797
3043.232663,-10066.800811,888.247130,2681.334243
3043.233000,-11547.212695,666.185348,0.000000
3043.233338,-10362.883188,-888.247130,-1762.019645
3043.233675,-10214.842000,74.020594,-612.876398
3043.234012,-8438.347739,518.144159,0.000000
3043.234350,-9548.656652,1110.308913,306.438199
3043.234687,-11547.212695,370.102971,-2298.286494
3043.235025,-10732.986159,0.000000,-2911.162892
3043.235362,-10807.006753,-1480.411884,-2221.676944
3043.235700,-9548.656652,-2368.659014,-842.705048
3043.236037,-8512.368333,-2960.823768,459.657299
3043.236375,-9326.594869,-3478.967927,1149.143247
3043.236712,-9770.718434,-3330.926739,842.705048
3043.237049,-9474.636058,-2960.823768,1149.143247
3043.237387,-10510.924376,-740.205942,2298.286494
3043.237724,-11325.150913,-1406.391290,2221.676944
3043.238062,-11547.212695,-1184.329507,459.657299
3043.238399,-9918.759623,-2072.576638,2221.676944
3043.238737,-9622.677246,-1480.411884,3753.867940
3043.239074,-8734.430116,-518.144159,4596.572988
3043.239412,-10436.903782,370.102971,2987.772442
3043.239749,-11991.336260,1184.329507,229.828649
3043.240086,-11991.336260,0.000000,-1072.533697
3043.240424,-10214.842000,-592.164754,-919.314598
3043.240761,-8882.471304,-888.247130,459.657299
3043.241099,-8068.244768,0.000000,1608.800546
3043.241436,-8216.285956,1480.411884,-306.438199
3043.241774,-9844.739029,1554.432478,-1532.190996
3043.242111,-11177.109724,592.164754,-1225.752797
3043.242448,-11251.130318,518.144159,-383.047749
3043.242786,-10732.986159,1036.288319,1149.143247
3043.243123,-9918.759623,518.144159,536.266849
3043.243461,-10436.903782,-1258.350101,995.924147
3043.243798,-10140.821405,-1406.391290,995.924147
3043.244136,-8438.347739,-962.267725,383.047749
3043.244473,-9178.553681,-518.144159,1149.143247
3043.244811,-8734.430116,888.247130,76.609550
3043.245148,-10955.047942,148.041188,76.609550
3043.245485,-10732.986159,962.267725,-1225.752797
3043.245823,-9030.512492,1184.329507,-1838.629195
3043.246160,-9252.574275,1332.370696,229.828649
3043.246498,-9400.615463,1110.308913,383.047749
3043.246835,-10362.883188,2294.638420,-689.485948
3043.247173,-11103.089130,666.185348,-842.705048
3043.247510,-9696.697840,-1406.391290,-995.924147
3043.247847,-8956.491898,-2220.617826,459.657299
3043.248185,-9326.594869,-1628.453072,153.219100
3043.248522,-9252.574275,-1258.350101,-919.314598
3043.248860,-10510.924376,-1184.329507,-1455.581446
3043.249197,-9104.533087,444.123565,-2068.457845
3043.249535,-10362.883188,148.041188,-2221.676944
3043.249872,-11473.192101,-518.144159,-766.095498
3043.250210,-10584.944971,-1110.308913,-612.876398
3043.250547,-10658.965565,-1702.473667,-306.438199
3043.250884,-11177.109724,-1184.329507,1608.800546
3043.251222,-10658.965565,-1776.494261,1302.362347
3043.251559,-9548.656652,-1998.556043,1072.533697
3043.251897,-10214.842000,-2146.597232,2068.457845
3043.252234,-9770.718434,370.102971,2374.896044
3043.252572,-9474.636058,814.226536,2834.553343
3043.252909,-10807.006753,740.205942,2298.286494
3043.253247,-10436.903782,1850.514855,1762.019645
3043.253584,-10732.986159,2294.638420,2221.676944
3043.253921,-10510.924376,2146.597232,1915.238745
3043.254259,-9622.677246,2368.659014,1225.752797
3043.254596,-10658.965565,518.144159,995.924147
3043.254934,-9030.512492,666.185348,0.000000
3043.255271,-8364.327145,-888.247130,-536.266849
3043.255609,-9844.739029,666.185348,995.924147
3043.255946,-8364.327145,-444.123565,-689.485948
3043.256283,-9400.615463,370.102971,0.000000
3043.256621,-9548.656652,592.164754,-1072.533697
3043.256958,-9696.697840,74.020594,-995.924147
3043.257296,-11103.089130,0.000000,-383.047749
3043.257633,-8512.368333,592.164754,-689.485948
3043.257971,-9474.636058,-592.164754,1149.143247
3043.258308,-9326.594869,-888.247130,1302.362347
3043.258646,-10807.006753,-1332.370696,1302.362347
3043.258983,-12287.418637,-962.267725,1455.581446
3043.259320,-10510.924376,-1776.494261,689.485948
3043.259658,-9326.594869,-1406.391290,1455.581446
3043.259995,-9992.780217,-666.185348,1915.238745
3043.260333,-9770.718434,296.082377,1685.410096
3043.260670,-11103.089130,0.000000,536.266849
3043.261008,-11547.212695,-518.144159,76.609550
3043.261345,-11177.109724,0.000000,-1455.581446
3043.261683,-10140.821405,-148.041188,-995.924147
3043.262020,-8586.388927,-518.144159,0.000000
3043.262358,-9622.677246,-666.185348,306.438199
3043.262695,-10436.903782,0.000000,-919.314598
3043.263033,-10584.944971,-1406.391290,-1608.800546
3043.263370,-10362.883188,-1702.473667,-612.876398
3043.263708,-9474.636058,-2664.741391,-536.266849
3043.264045,-9844.739029,-740.205942,-76.609550
3043.264383,-8808.450710,-666.185348,229.828649
3043.264720,-9474.636058,-1036.288319,-536.266849
3043.265058,-9326.594869,-222.061783,-536.266849
3043.265395,-9030.512492,-370.102971,229.828649
3043.265733,-10807.006753,222.061783,2068.457845
3043.266070,-11103.089130,222.061783,1302.362347
3043.266408,-11325.150913,1184.329507,766.095498
3043.266746,-9770.718434,1554.432478,536.266849
3043.267083,-9252.574275,-518.144159,1149.143247
3043.267421,-9844.739029,888.247130,1149.143247
3043.267758,-8290.306550,740.205942,459.657299
3043.268096,-9992.780217,1332.370696,459.657299
3043.268433,-10362.883188,1406.391290,-766.095498
3043.268771,-11103.089130,814.226536,-689.485948
3043.269108,-10510.924376,1998.556043,-1225.752797
3043.269446,-8586.388927,1184.329507,-76.609550
3043.269783,-10066.800811,1110.308913,919.314598
3043.270121,-10584.944971,74.020594,-995.924147
3043.270458,-9918.759623,-1480.411884,-1685.410096
3043.270796,-11251.130318,-1924.535449,-306.438199
3043.271133,-8882.471304,-2368.659014,-766.095498
3043.271471,-9474.636058,-2368.659014,766.095498
3043.271808,-9770.718434,-2146.597232,1072.533697
3043.272146,-8290.306550,-1480.411884,1072.533697
3043.272483,-10362.883188,-1628.453072,1685.410096
3043.272821,-11177.109724,-1036.288319,1991.848295
3043.273158,-10732.986159,-1110.308913,1991.848295
3043.273496,-11029.068536,370.102971,3140.991542
3043.273833,-10881.027347,0.000000,4443.353888
3043.274171,-12139.377449,1110.308913,2681.334243
3043.274508,-10658.965565,1184.329507,1378.971896
3043.274846,-9178.553681,-592.164754,306.438199
3043.275183,-9400.615463,-1184.329507,153.219100
3043.275521,-9400.615463,-148.041188,1838.629195
3043.275858,-9992.780217,1702.473667,1838.629195
3043.276196,-10732.986159,2294.638420,383.047749
3043.276533,-11769.274478,666.185348,-2068.457845
3043.276871,-10658.965565,962.267725,-2145.067394
3043.277208,-9622.677246,74.020594,-383.047749
3043.277546,-8364.327145,518.144159,1225.752797
3043.277883,-8808.450710,0.000000,0.000000
3043.278221,-10140.821405,-222.061783,-689.485948
3043.278559,-10658.965565,-592.164754,-1302.362347
3043.278896,-9030.512492,-1406.391290,-612.876398
3043.279234,-8142.265362,-296.082377,0.000000
3043.279571,-8438.347739,370.102971,153.219100
3043.279909,-11325.150913,0.000000,459.657299
3043.280246,-10510.924376,444.123565,-1149.143247
3043.280584,-9696.697840,-74.020594,-1149.143247
3043.280921,-8734.430116,518.144159,536.266849
3043.281259,-8808.450710,518.144159,1685.410096
3043.281596,-11399.171507,518.144159,1455.581446
3043.281934,-10658.965565,-296.082377,-459.657299
3043.282271,-10955.047942,-296.082377,919.314598
3043.282609,-11473.192101,1184.329507,229.828649
3043.282946,-9770.718434,814.226536,-1915.238745
3043.283284,-10362.883188,518.144159,-1915.238745
3043.283621,-10214.842000,-296.082377,-2681.334243
3043.283959,-9030.512492,-296.082377,-2681.334243
3043.284296,-9844.739029,-740.205942,-2068.457845
3043.284634,-10288.862594,-1480.411884,-919.314598
3043.284971,-9696.697840,-1332.370696,-536.266849
3043.285309,-11399.171507,-1184.329507,76.609550
3043.285646,-10066.800811,-2220.617826,2374.896044
3043.285984,-10214.842000,-2368.659014,1685.410096
3043.286321,-10288.862594,-1184.329507,1378.971896
3043.286659,-10881.027347,-2146.597232,919.314598
3043.286996,-10807.006753,-2072.576638,612.876398
3043.287334,-9104.533087,-2072.576638,1225.752797
3043.287671,-8586.388927,0.000000,1685.410096
3043.288009,-8734.430116,-666.185348,306.438199
3043.288346,-9770.718434,0.000000,459.657299
3043.288684,-10214.842000,518.144159,1302.362347
3043.289021,-9326.594869,592.164754,2298.286494
3043.289359,-9770.718434,1998.556043,3677.258390
3043.289696,-11177.109724,2294.638420,3983.696590
3043.290034,-12879.583391,740.205942,1838.629195
3043.290372,-12361.439231,592.164754,1149.143247
3043.290709,-9918.759623,-1554.432478,1149.143247
3043.291047,-9252.574275,370.102971,1762.019645
3043.291384,-8142.265362,814.226536,-459.657299
3043.291722,-9252.574275,-888.247130,-1685.410096
3043.292059,-9474.636058,-1406.391290,-2374.896044
3043.292397,-10066.800811,-962.267725,-1455.581446
3043.292734,-9992.780217,1480.411884,-1149.143247
3043.293072,-9992.780217,1258.350101,-1072.533697
3043.293409,-10658.965565,148.041188,-536.266849
3043.293747,-10658.965565,-1110.308913,0.000000
3043.294084,-10510.924376,-1184.329507,2681.334243
3043.294422,-9030.512492,-592.164754,3370.820191
3043.294759,-9104.533087,-222.061783,2068.457845
3043.295097,-10362.883188,-74.020594,76.609550
3043.295434,-10362.883188,-666.185348,-995.924147
3043.295772,-9844.739029,-666.185348,-995.924147
3043.296109,-8216.285956,666.185348,-1378.971896
3043.296447,-9252.574275,1554.432478,-229.828649
3043.296784,-10658.965565,1480.411884,-1532.190996
3043.297122,-9696.697840,-444.123565,-2068.457845
3043.297459,-10362.883188,-1554.432478,1072.533697
3043.297797,-10510.924376,-296.082377,2221.676944
3043.298134,-10362.883188,1258.350101,1378.971896
3043.298472,-11325.150913,-444.123565,-1302.362347
3043.298809,-10584.944971,-1184.329507,-1838.629195
3043.299147,-10807.006753,-1924.535449,-612.876398
3043.299484,-9252.574275,-444.123565,-766.095498
3043.299822,-7550.100608,0.000000,229.828649
3043.300159,-12139.377449,740.205942,536.266849
3043.300497,-11325.150913,0.000000,-2757.943793
3043.300834,-10362.883188,0.000000,-842.705048
3043.301172,-9696.697840,-296.082377,2451.505594
3043.301509,-9326.594869,-370.102971,2987.772442
3043.301847,-11325.150913,0.000000,2298.286494
3043.302184,-9548.656652,74.020594,1915.238745
3043.302522,-9918.759623,-1776.494261,2757.943793
3043.302860,-10362.883188,222.061783,1991.848295
3043.303197,-9104.533087,962.267725,1302.362347
3043.303535,-10214.842000,518.144159,-306.438199
3043.303872,-9474.636058,-222.061783,-2068.457845
3043.304210,-8586.388927,-1036.288319,-1608.800546
3043.304547,-8660.409521,0.000000,-153.219100
3043.304885,-8068.244768,-666.185348,536.266849
3043.305222,-10214.842000,666.185348,229.828649
3043.305560,-11325.150913,74.020594,-1455.581446
3043.305897,-11843.295072,-2294.638420,-612.876398
3043.306235,-10436.903782,-2960.823768,1455.581446
3043.306572,-8290.306550,-3182.885551,1532.190996
3043.306910,-9474.636058,-814.226536,1532.190996
3043.307247,-9918.759623,0.000000,689.485948
3043.307585,-10140.821405,444.123565,229.828649
3043.307922,-11695.253884,-962.267725,-689.485948
3043.308260,-11621.233289,0.000000,919.314598
3043.308597,-11547.212695,148.041188,1685.410096
3043.308935,-10436.903782,-962.267725,1762.019645
3043.309272,-11029.068536,-1850.514855,2528.115143
3043.309610,-10288.862594,74.020594,2451.505594
3043.309947,-7846.182985,1258.350101,2757.943793
3043.310285,-10658.965565,1184.329507,2911.162892
3043.310622,-11177.109724,1332.370696,229.828649
3043.310960,-11843.295072,74.020594,-766.095498
3043.311297,-10807.006753,0.000000,0.000000
3043.311635,-7328.038826,-74.020594,153.219100
3043.311972,-8660.409521,1554.432478,76.609550
3043.312310,-9400.615463,0.000000,-1762.019645
3043.312647,-9622.677246,-1480.411884,-1915.238745
3043.312985,-9252.574275,-888.247130,-995.924147
3043.313322,-8586.388927,-1110.308913,0.000000
3043.313660,-10140.821405,-1036.288319,76.609550
3043.313997,-10881.027347,-592.164754,-306.438199
3043.314335,-10584.944971,-1998.556043,-612.876398
3043.314673,-9178.553681,-1036.288319,153.219100
3043.315010,-7254.018232,296.082377,1532.190996
3043.315348,-9474.636058,370.102971,1685.410096
3043.315685,-11695.253884,-296.082377,-383.047749
3043.316023,-12805.562797,-222.061783,-1608.800546
3043.316360,-12139.377449,0.000000,-766.095498
3043.316698,-9770.718434,148.041188,689.485948
3043.317035,-9622.677246,740.205942,536.266849
3043.317373,-9474.636058,370.102971,-459.657299
3043.317710,-8956.491898,0.000000,-306.438199
3043.318048,-10362.883188,0.000000,1072.533697
3043.318385,-11251.130318,592.164754,383.047749
3043.318723,-11695.253884,1184.329507,-766.095498
3043.319060,-11547.212695,0.000000,-1225.752797
3043.319398,-10436.903782,-1184.329507,-306.438199
3043.319735,-8808.450710,-1036.288319,0.000000
3043.320073,-7179.997637,-666.185348,-995.924147
3043.320410,-8068.244768,-1776.494261,-919.314598
3043.320748,-10066.800811,-1776.494261,-1302.362347
3043.321085,-10584.944971,-2294.638420,-995.924147
3043.321423,-10807.006753,-740.205942,0.000000
3043.321760,-8364.327145,-740.205942,1455.581446
3043.322098,-8438.347739,-888.247130,1991.848295
3043.322435,-9770.718434,-148.041188,3064.381992
3043.322773,-10955.047942,222.061783,4213.525239
3043.323110,-11769.274478,296.082377,3294.210641
3043.323448,-11547.212695,444.123565,1838.629195
3043.323785,-11991.336260,1110.308913,1685.410096
3043.324123,-10510.924376,1110.308913,-306.438199
3043.324460,-7920.203579,-1184.329507,76.609550
3043.324798,-7328.038826,222.061783,842.705048
3043.325135,-8364.327145,962.267725,1608.800546
3043.325473,-11103.089130,2220.617826,536.266849
3043.325810,-11991.336260,2146.597232,-2145.067394
3043.326148,-13101.645173,-296.082377,-229.828649
3043.326486,-12139.377449,-666.185348,842.705048
3043.326823,-8734.430116,-370.102971,612.876398
3043.327161,-8660.409521,-1998.556043,1838.629195
3043.327498,-9474.636058,-1702.473667,383.047749
3043.327836,-10658.965565,-3552.988522,76.609550
3043.328173,-10658.965565,-1332.370696,-995.924147
3043.328511,-9548.656652,-2072.576638,-919.314598
3043.328848,-9548.656652,-1258.350101,-1302.362347
3043.329186,-9474.636058,-740.205942,-1915.238745
3043.329523,-9992.780217,-1480.411884,-1149.143247
3043.329861,-9400.615463,-296.082377,306.438199
3043.330198,-9252.574275,-888.247130,995.924147
3043.330536,-10436.903782,0.000000,1915.238745
3043.330873,-10881.027347,74.020594,1991.848295
3043.331211,-10658.965565,0.000000,1378.971896
3043.331548,-10955.047942,-666.185348,766.095498
3043.331886,-10214.842000,-666.185348,306.438199
3043.332223,-9548.656652,666.185348,-689.485948
3043.332561,-8364.327145,1924.535449,-2451.505594
3043.332898,-9326.594869,1184.329507,-2604.724693
3043.333236,-11103.089130,222.061783,-1991.848295
3043.333573,-10955.047942,0.000000,-2451.505594
3043.333911,-10658.965565,-370.102971,-1838.629195
3043.334248,-9400.615463,74.020594,153.219100
3043.334586,-10955.047942,-1258.350101,2451.505594
3043.334923,-10214.842000,-1406.391290,1302.362347
3043.335261,-9770.718434,-296.082377,1302.362347
3043.335598,-11103.089130,-222.061783,842.705048
3043.335936,-9474.636058,-1776.494261,0.000000
3043.336273,-9400.615463,-1702.473667,459.657299
3043.336611,-9844.739029,0.000000,1378.971896
3043.336948,-9474.636058,740.205942,766.095498
3043.337286,-10510.924376,888.247130,-229.828649
3043.337623,-9474.636058,1332.370696,-1072.533697
3043.337961,-9770.718434,-740.205942,766.095498
3043.338299,-9030.512492,-296.082377,1991.848295
3043.338636,-9474.636058,-518.144159,3064.381992
3043.338974,-11695.253884,-740.205942,4290.134789
3043.339311,-10510.924376,-1036.288319,919.314598
3043.339649,-10362.883188,-1036.288319,1072.533697
3043.339986,-9770.718434,148.041188,0.000000
3043.340324,-7772.162391,-518.144159,-306.438199
3043.340661,-9474.636058,74.020594,-1378.971896
3043.340999,-9030.512492,518.144159,-2834.553343
3043.341336,-11325.150913,-444.123565,-3064.381992
3043.341674,-11843.295072,-1036.288319,-1762.019645
3043.342011,-9548.656652,-1110.308913,-459.657299
3043.342349,-11251.130318,-1184.329507,1838.629195
3043.342686,-11547.212695,-666.185348,2221.676944
3043.343024,-9770.718434,-962.267725,1378.971896
3043.343361,-10510.924376,-1850.514855,2145.067394
3043.343699,-10732.986159,-1924.535449,2911.162892
3043.344036,-11251.130318,-444.123565,1838.629195
3043.344374,-10436.903782,0.000000,1838.629195
3043.344711,-8882.471304,0.000000,1072.533697
3043.345049,-8586.388927,1924.535449,1225.752797
3043.345386,-9474.636058,1628.453072,612.876398
3043.345724,-10510.924376,1184.329507,76.609550
3043.346061,-9918.759623,1702.473667,-1149.143247
3043.346399,-10807.006753,1628.453072,0.000000
3043.346736,-10436.903782,962.267725,-306.438199
3043.347074,-9178.553681,-2072.576638,-842.705048
3043.347411,-8438.347739,-1924.535449,383.047749
3043.347749,-7328.038826,-814.226536,1072.533697
3043.348086,-7920.203579,-518.144159,459.657299
3043.348424,-10140.821405,-444.123565,-229.828649
3043.348761,-10436.903782,148.041188,-2221.676944
3043.349099,-10732.986159,-1110.308913,-2604.724693
3043.349436,-10881.027347,-814.226536,-919.314598
3043.349774,-9252.574275,-1702.473667,0.000000
3043.350112,-9918.759623,-1480.411884,-306.438199
3043.350449,-10584.944971,-2368.659014,0.000000
3043.350787,-11029.068536,-1184.329507,689.485948
3043.351124,-10288.862594,-740.205942,612.876398
3043.351462,-11547.212695,-1480.411884,1072.533697
3043.351799,-11843.295072,-444.123565,0.000000
3043.352137,-10955.047942,-148.041188,-306.438199
3043.352474,-10140.821405,148.041188,-153.219100
3043.352812,-8956.491898,148.041188,-1302.362347
3043.353149,-10807.006753,1036.288319,-612.876398
3043.353487,-10658.965565,222.061783,-1302.362347
3043.353824,-9474.636058,-814.226536,-1149.143247
3043.354162,-10362.883188,-1110.308913,612.876398
3043.354499,-9548.656652,-2146.597232,229.828649
3043.354837,-8586.388927,-1850.514855,153.219100
3043.355174,-8882.471304,-1184.329507,-76.609550
3043.355512,-9400.615463,-1702.473667,-536.266849
3043.355849,-9548.656652,-1480.411884,-766.095498
3043.356187,-9548.656652,-666.185348,-306.438199
3043.356524,-9252.574275,-518.144159,689.485948
3043.356862,-9400.615463,592.164754,919.314598
3043.357199,-9696.697840,222.061783,2298.286494
3043.357537,-10955.047942,0.000000,2834.553343
3043.357874,-10658.965565,148.041188,2298.286494
3043.358212,-11103.089130,814.226536,2145.067394
3043.358549,-10658.965565,1036.288319,2528.115143
3043.358887,-9474.636058,-740.205942,2834.553343
3043.359224,-10658.965565,962.267725,3753.867940
3043.359562,-10288.862594,2146.597232,2681.334243
3043.359899,-10214.842000,1998.556043,1455.581446
3043.360237,-11103.089130,2516.700203,459.657299
3043.360574,-10658.965565,1776.494261,-1915.238745
3043.360912,-9770.718434,-370.102971,-1838.629195
3043.361249,-9252.574275,-1184.329507,995.924147
3043.361587,-9474.636058,-1258.350101,1302.362347
3043.361924,-9326.594869,370.102971,0.000000
3043.362262,-9104.533087,-740.205942,-1455.581446
3043.362599,-10807.006753,-2442.679609,-1302.362347
3043.362936,-9844.739029,-3701.029710,-383.047749
3043.363274,-9178.553681,-2886.803174,919.314598
3043.363611,-7772.162391,-740.205942,0.000000
3043.363948,-9918.759623,-1184.329507,-1072.533697
3043.364286,-11029.068536,-1332.370696,-2374.896044
3043.364623,-10436.903782,-2146.597232,-1302.362347
3043.364960,-9992.780217,-592.164754,1302.362347
3043.365298,-9844.739029,444.123565,1378.971896
3043.365635,-10955.047942,0.000000,612.876398
3043.365973,-12657.521608,-814.226536,153.219100
3043.366310,-11177.109724,-814.226536,995.924147
3043.366647,-9400.615463,1258.350101,306.438199
3043.366985,-9696.697840,2294.638420,-536.266849
3043.367322,-11029.068536,1036.288319,-536.266849
3043.367659,-11029.068536,1924.535449,-1762.019645
3043.367997,-9918.759623,1406.391290,-1915.238745
3043.368334,-9844.739029,1480.411884,-766.095498
3043.368671,-10732.986159,2664.741391,-1608.800546
3043.369009,-10732.986159,1554.432478,-2145.067394
3043.369346,-10066.800811,666.185348,-3370.820191
3043.369683,-7476.080014,-1776.494261,-612.876398
3043.370021,-8142.265362,-2368.659014,2757.943793
3043.370358,-8290.306550,-1258.350101,2145.067394
3043.370695,-10214.842000,-962.267725,2145.067394
3043.371033,-12139.377449,-814.226536,1149.143247
3043.371370,-9918.759623,-814.226536,1225.752797
3043.371707,-9844.739029,-740.205942,2834.553343
3043.372045,-8438.347739,518.144159,2451.505594
3043.372382,-6957.935855,222.061783,842.705048
3043.372719,-10214.842000,-1258.350101,995.924147
3043.373057,-10881.027347,-888.247130,1072.533697
3043.373394,-10436.903782,-592.164754,1072.533697
3043.373732,-10732.986159,666.185348,842.705048
3043.374069,-10436.903782,0.000000,-229.828649
3043.374406,-11029.068536,-962.267725,0.000000
3043.374744,-8586.388927,-1184.329507,995.924147
3043.375081,-8142.265362,-1110.308913,2604.724693
3043.375418,-11029.068536,-592.164754,2374.896044
3043.375756,-12583.501014,-370.102971,229.828649
3043.376093,-13619.789333,-444.123565,-1225.752797
3043.376430,-11621.233289,-2072.576638,-766.095498
3043.376768,-9400.615463,-1628.453072,-612.876398
3043.377105,-7402.059420,-296.082377,-1685.410096
3043.377442,-9178.553681,-1554.432478,-1455.581446
3043.377780,-9622.677246,-3330.926739,-1608.800546
3043.378117,-10955.047942,-3404.947333,-76.609550
3043.378454,-10288.862594,-1628.453072,612.876398
3043.378792,-9992.780217,-296.082377,1455.581446
3043.379129,-11325.150913,-1184.329507,1991.848295
3043.379466,-10436.903782,-148.041188,0.000000
3043.379804,-8216.285956,0.000000,1302.362347
3043.380141,-9474.636058,222.061783,3370.820191
3043.380479,-10066.800811,740.205942,2528.115143
3043.380816,-11325.150913,1702.473667,689.485948
3043.381153,-11399.171507,2072.576638,-1608.800546
3043.381491,-9400.615463,1258.350101,-1838.629195
3043.381828,-9030.512492,962.267725,-995.924147
3043.382165,-8660.409521,1332.370696,-919.314598
3043.382503,-8660.409521,1924.535449,-1225.752797
3043.382840,-9548.656652,3256.906145,-2145.067394
3043.383177,-10436.903782,1480.411884,-1991.848295
3043.383515,-11695.253884,74.020594,-229.828649
3043.383852,-11399.171507,370.102971,766.095498
3043.384189,-9474.636058,1406.391290,-306.438199
3043.384527,-9178.553681,-518.144159,459.657299
3043.384864,-9326.594869,-2072.576638,1991.848295
3043.385201,-9844.739029,-1850.514855,1838.629195
3043.385539,-10955.047942,592.164754,995.924147
3043.385876,-10732.986159,222.061783,-1378.971896
3043.386213,-10436.903782,-1480.411884,-1455.581446
3043.386551,-9400.615463,-2220.617826,0.000000
3043.386888,-8586.388927,-1184.329507,1378.971896
3043.387225,-6365.771101,-222.061783,2145.067394
3043.387563,-9252.574275,444.123565,1991.848295
3043.387900,-13397.727550,-592.164754,1072.533697
3043.388238,-12435.459826,-518.144159,0.000000
3043.388575,-11399.171507,-1554.432478,1072.533697
3043.388912,-9326.594869,-1110.308913,2528.115143
3043.389250,-9548.656652,-740.205942,2298.286494
3043.389587,-9770.718434,296.082377,-919.314598
3043.389924,-9770.718434,-1110.308913,-2451.505594
3043.390262,-9918.759623,-888.247130,-1838.629195
3043.390599,-9918.759623,0.000000,-689.485948
3043.390936,-11399.171507,148.041188,0.000000
3043.391274,-10881.027347,444.123565,-842.705048
3043.391611,-10214.842000,-962.267725,-536.266849
3043.391948,-11251.130318,-1184.329507,1838.629195
3043.392286,-9548.656652,-814.226536,2145.067394
3043.392623,-9770.718434,0.000000,2834.553343
3043.392960,-9696.697840,222.061783,612.876398
3043.393298,-9770.718434,-370.102971,1225.752797
3043.393635,-10807.006753,74.020594,3600.648841
3043.393972,-9844.739029,1554.432478,2374.896044
3043.394310,-8882.471304,3034.844362,-536.266849
3043.394647,-9548.656652,1924.535449,-1225.752797
3043.394985,-8734.430116,222.061783,-1455.581446
3043.395322,-9326.594869,-370.102971,0.000000
3043.395659,-8068.244768,444.123565,995.924147
3043.395997,-7846.182985,148.041188,1072.533697
3043.396334,-11103.089130,222.061783,842.705048
3043.396671,-11399.171507,-592.164754,-689.485948
3043.397009,-9622.677246,-666.185348,-842.705048
3043.397346,-8734.430116,-1184.329507,153.219100
3043.397683,-8216.285956,-1258.350101,-306.438199
3043.398021,-10436.903782,-2072.576638,-1225.752797
3043.398358,-10436.903782,-2590.720797,-2374.896044
3043.398695,-10881.027347,-2368.659014,-612.876398
3043.399033,-11029.068536,-814.226536,383.047749
3043.399370,-10214.842000,-888.247130,-612.876398
3043.399707,-10732.986159,-1036.288319,-459.657299
3043.400045,-11325.150913,-1628.453072,76.609550
3043.400382,-11399.171507,-1480.411884,995.924147
3043.400719,-11029.068536,-740.205942,1762.019645
3043.401057,-10732.986159,-814.226536,2374.896044
3043.401394,-11399.171507,74.020594,1225.752797
3043.401731,-11917.315666,-1406.391290,229.828649
3043.402069,-9474.636058,-518.144159,76.609550
3043.402406,-8882.471304,-370.102971,919.314598
3043.402744,-9770.718434,296.082377,0.000000
3043.403081,-9178.553681,518.144159,-2834.553343
3043.403418,-8512.368333,222.061783,-1991.848295
3043.403756,-9326.594869,-296.082377,76.609550
3043.404093,-9252.574275,740.205942,229.828649
3043.404430,-9696.697840,666.185348,0.000000
3043.404768,-9178.553681,666.185348,-1225.752797
3043.405105,-8586.388927,444.123565,-459.657299
3043.405442,-9992.780217,592.164754,-689.485948
3043.405780,-9548.656652,-296.082377,0.000000
3043.406117,-9030.512492,-1184.329507,1072.533697
3043.406454,-9400.615463,-74.020594,2298.286494
3043.406792,-10140.821405,74.020594,2221.676944
3043.407129,-11029.068536,296.082377,3677.258390
3043.407466,-11103.089130,888.247130,3447.429741
3043.407804,-11103.089130,1554.432478,1991.848295
3043.408141,-10881.027347,2664.741391,459.657299
3043.408478,-10807.006753,1776.494261,1225.752797
3043.408816,-11029.068536,740.205942,2374.896044
3043.409153,-10288.862594,0.000000,689.485948
3043.409491,-9992.780217,1184.329507,536.266849
3043.409828,-9474.636058,1184.329507,-383.047749
3043.410165,-10140.821405,-1184.329507,-842.705048
3043.410503,-11251.130318,-2294.638420,-229.828649
3043.410840,-8660.409521,-1110.308913,-842.705048
3043.411177,-9548.656652,-962.267725,995.924147
3043.411515,-10214.842000,0.000000,0.000000
3043.411852,-10214.842000,-1998.556043,-1378.971896
3043.412189,-10658.965565,-2664.741391,-229.828649
3043.412527,-9178.553681,-3034.844362,459.657299
3043.412864,-9770.718434,-1480.411884,1455.581446
3043.413201,-10881.027347,-1480.411884,-766.095498
3043.413539,-10066.800811,-3330.926739,-2451.505594
3043.413876,-8956.491898,-2738.761985,-1225.752797
3043.414213,-8364.327145,-2368.659014,459.657299
3043.414551,-9622.677246,-1628.453072,2298.286494
3043.414888,-9622.677246,1184.329507,0.000000
3043.415225,-10658.965565,1184.329507,306.438199
3043.415563,-12953.603985,962.267725,1378.971896
3043.415900,-10881.027347,962.267725,1302.362347
3043.416237,-11547.212695,2220.617826,3064.381992
3043.416575,-11621.233289,1850.514855,2451.505594
3043.416912,-10658.965565,1702.473667,0.000000
3043.417250,-10510.924376,814.226536,-1149.143247
3043.417587,-9474.636058,518.144159,0.000000
3043.417924,-9548.656652,0.000000,0.000000
3043.418262,-9104.533087,1628.453072,-2068.457845
3043.418599,-8290.306550,1480.411884,-2145.067394
3043.418936,-9918.759623,1110.308913,-1149.143247
3043.419274,-10881.027347,1406.391290,-995.924147
3043.419611,-10807.006753,1184.329507,-1915.238745
3043.419948,-9178.553681,-1036.288319,-1149.143247
3043.420286,-8660.409521,-1554.432478,1685.410096
3043.420623,-9030.512492,-1776.494261,2221.676944
3043.420960,-8438.347739,-2072.576638,2681.334243
3043.421298,-9178.553681,-1924.535449,3064.381992
3043.421635,-10732.986159,-1110.308913,1302.362347
3043.421972,-10510.924376,-666.185348,229.828649
3043.422310,-10288.862594,0.000000,0.000000
3043.422647,-8364.327145,444.123565,-612.876398
3043.422984,-9844.739029,-666.185348,0.000000
3043.423322,-10436.903782,370.102971,-383.047749
3043.423659,-9696.697840,-592.164754,-766.095498
3043.423997,-11103.089130,-518.144159,153.219100
3043.424334,-11029.068536,-1184.329507,383.047749
3043.424671,-11547.212695,-2368.659014,612.876398
3043.425009,-10584.944971,-1628.453072,383.047749
3043.425346,-9844.739029,-2368.659014,76.609550
3043.425683,-10881.027347,-592.164754,0.000000
3043.426021,-10288.862594,-1184.329507,-1685.410096
3043.426358,-10066.800811,-1258.350101,-612.876398
3043.426695,-9844.739029,-1184.329507,-766.095498
3043.427033,-10140.821405,-1258.350101,-536.266849
3043.427370,-11325.150913,-1924.535449,229.828649
3043.427707,-9252.574275,-518.144159,153.219100
3043.428045,-9400.615463,-962.267725,1302.362347
3043.428382,-9770.718434,-296.082377,1991.848295
3043.428719,-9474.636058,-740.205942,3064.381992
3043.429057,-11103.089130,-74.020594,3217.601092
3043.429394,-10214.842000,740.205942,1838.629195
3043.429731,-9474.636058,814.226536,1225.752797
3043.430069,-9918.759623,1776.494261,1455.581446
3043.430406,-8882.471304,592.164754,1302.362347
3043.430743,-8660.409521,2146.597232,153.219100
3043.431081,-8142.265362,2368.659014,0.000000
3043.431418,-9770.718434,2590.720797,-612.876398
3043.431756,-11473.192101,1628.453072,-766.095498
3043.432093,-11399.171507,1406.391290,-1685.410096
3043.432430,-9696.697840,1258.350101,-1072.533697
3043.432768,-9178.553681,592.164754,-689.485948
3043.433105,-9770.718434,-1258.350101,-383.047749
3043.433442,-10214.842000,-1776.494261,-1302.362347
3043.433780,-7994.224174,-1184.329507,-229.828649
3043.434117,-9992.780217,-1776.494261,383.047749
3043.434454,-11325.150913,-592.164754,-76.609550
3043.434792,-11325.150913,-1924.535449,-919.314598
3043.435129,-11399.171507,-1184.329507,306.438199
3043.435466,-9326.594869,-1480.411884,306.438199
3043.435804,-10066.800811,-1184.329507,536.266849
3043.436141,-9770.718434,-962.267725,1762.019645
3043.436478,-9696.697840,-1628.453072,1455.581446
3043.436816,-11399.171507,-222.061783,76.609550
3043.437153,-10658.965565,-740.205942,612.876398
3043.437490,-10214.842000,-1332.370696,612.876398
3043.437828,-8808.450710,-2146.597232,383.047749
3043.438165,-8956.491898,-666.185348,459.657299
3043.438503,-9178.553681,-370.102971,0.000000
3043.438840,-8808.450710,-592.164754,229.828649
3043.439177,-10732.986159,-814.226536,153.219100
3043.439515,-10732.986159,74.020594,-1608.800546
3043.439852,-10066.800811,0.000000,-536.266849
3043.440189,-10658.965565,740.205942,-536.266849
3043.440527,-9696.697840,-296.082377,306.438199
3043.440864,-11029.068536,444.123565,842.705048
3043.441201,-9548.656652,518.144159,459.657299
3043.441539,-9992.780217,-222.061783,1532.190996
3043.441876,-10807.006753,1036.288319,1072.533697
3043.442213,-9696.697840,740.205942,0.000000
3043.442551,-9918.759623,740.205942,1149.143247
3043.442888,-9918.759623,962.267725,1991.848295
3043.443225,-10140.821405,592.164754,1685.410096
3043.443563,-11399.171507,370.102971,2911.162892
3043.443900,-10214.842000,666.185348,2911.162892
3043.444237,-9918.759623,814.226536,1991.848295
3043.444575,-10140.821405,518.144159,1685.410096
3043.444912,-8512.368333,-1036.288319,0.000000
3043.445249,-8882.471304,-740.205942,383.047749
3043.445587,-7994.224174,296.082377,-229.828649
3043.445924,-9104.533087,518.144159,-1762.019645
3043.446262,-10288.862594,148.041188,-2757.943793
3043.446599,-10658.965565,-1184.329507,-3370.820191
3043.446936,-10807.006753,-1776.494261,-2528.115143
3043.447274,-9918.759623,-3923.091493,-1302.362347
3043.447611,-8808.450710,-2368.659014,-536.266849
3043.447948,-8660.409521,-2146.597232,1149.143247
3043.448286,-11399.171507,-1924.535449,76.609550
3043.448623,-11177.109724,-2072.576638,-229.828649
3043.448960,-11917.315666,-2738.761985,1532.190996
3043.449298,-11103.089130,-592.164754,1991.848295
3043.449635,-10955.047942,0.000000,383.047749
3043.449972,-12509.480420,-444.123565,153.219100
3043.450310,-11473.192101,-962.267725,-1149.143247
3043.450647,-9178.553681,-1332.370696,306.438199
3043.450984,-8660.409521,-888.247130,1455.581446
3043.451322,-8290.306550,962.267725,1685.410096
3043.451659,-11177.109724,666.185348,689.485948
3043.451996,-10732.986159,1258.350101,-1838.629195
3043.452334,-10436.903782,296.082377,459.657299
3043.452671,-10066.800811,1776.494261,2451.505594
3043.453008,-8512.368333,2812.782580,995.924147
3043.453346,-9696.697840,1776.494261,76.609550
3043.453683,-10140.821405,518.144159,-76.609550
3043.454021,-9696.697840,0.000000,306.438199
3043.454358,-10066.800811,518.144159,-612.876398
3043.454695,-7328.038826,518.144159,-1302.362347
3043.455033,-8512.368333,-444.123565,-612.876398
3043.455370,-9992.780217,-74.020594,-995.924147
3043.455707,-9992.780217,518.144159,0.000000
3043.456045,-9844.739029,2590.720797,153.219100
3043.456382,-9326.594869,1702.473667,-459.657299
3043.456719,-10881.027347,-444.123565,536.266849
3043.457057,-11769.274478,-1036.288319,1915.238745
3043.457394,-10658.965565,-1332.370696,3524.039291
3043.457731,-9252.574275,0.000000,4136.915689
3043.458069,-8882.471304,1036.288319,2604.724693
3043.458406,-11769.274478,-888.247130,306.438199
3043.458743,-10881.027347,-1184.329507,-383.047749
3043.459081,-8882.471304,-1110.308913,76.609550
3043.459418,-9622.677246,518.144159,842.705048
3043.459755,-9696.697840,444.123565,-919.314598
3043.460093,-10510.924376,-148.041188,-2451.505594
3043.460430,-11103.089130,-1776.494261,-1762.019645
3043.460768,-10066.800811,-2664.741391,-689.485948
3043.461105,-9178.553681,-1628.453072,0.000000
3043.461442,-9030.512492,-2886.803174,766.095498
3043.461780,-10732.986159,-3256.906145,766.095498
3043.462117,-11103.089130,-3627.009116,-153.219100
3043.462454,-10066.800811,-2516.700203,919.314598
3043.462792,-9622.677246,-888.247130,1608.800546
3043.463129,-8956.491898,-148.041188,536.266849
3043.463466,-11029.068536,0.000000,153.219100
3043.463803,-10732.986159,-740.205942,-612.876398
3043.464141,-10658.965565,-518.144159,995.924147
3043.464478,-11473.192101,888.247130,1608.800546
3043.464815,-10362.883188,74.020594,536.266849
3043.465153,-10140.821405,370.102971,1762.019645
3043.465490,-9252.574275,296.082377,1455.581446
3043.465827,-8956.491898,-148.041188,1685.410096
3043.466164,-10214.842000,1406.391290,2298.286494
3043.466502,-10214.842000,2368.659014,459.657299
3043.466839,-11029.068536,2738.761985,-2145.067394
3043.467176,-9844.739029,1924.535449,-3140.991542
3043.467514,-9770.718434,888.247130,-1608.800546
3043.467851,-9770.718434,296.082377,-612.876398
3043.468188,-8068.244768,296.082377,-1608.800546
3043.468525,-9474.636058,-740.205942,-2298.286494
3043.468863,-9474.636058,-1998.556043,-1991.848295
3043.469200,-9104.533087,-3330.926739,0.000000
3043.469537,-9326.594869,-1924.535449,1072.533697
3043.469875,-8882.471304,-814.226536,612.876398
3043.470212,-11695.253884,-1110.308913,76.609550
3043.470549,-11029.068536,-1332.370696,-1302.362347
3043.470886,-9918.759623,-1776.494261,0.000000
3043.471224,-9548.656652,-1258.350101,1532.190996
3043.471561,-9548.656652,-444.123565,2681.334243
3043.471898,-11399.171507,222.061783,995.924147
3043.472235,-11177.109724,444.123565,-919.314598
3043.472573,-10658.965565,-2368.659014,919.314598
3043.472910,-11399.171507,-814.226536,2987.772442
3043.473247,-10140.821405,592.164754,2221.676944
3043.473585,-10584.944971,1036.288319,536.266849
3043.473922,-9770.718434,666.185348,-766.095498
3043.474259,-10214.842000,-518.144159,229.828649
3043.474596,-11177.109724,0.000000,1149.143247
3043.474934,-9178.553681,0.000000,0.000000
3043.475271,-10362.883188,592.164754,995.924147
3043.475608,-11621.233289,0.000000,-536.266849
3043.475946,-9696.697840,-1406.391290,-229.828649
3043.476283,-9400.615463,-592.164754,1915.238745
3043.476620,-7179.997637,-74.020594,1072.533697
3043.476957,-9474.636058,222.061783,0.000000
3043.477295,-11399.171507,-74.020594,0.000000
3043.477632,-8956.491898,-666.185348,459.657299
3043.477969,-8290.306550,0.000000,1838.629195
3043.478307,-8290.306550,1702.473667,2911.162892
3043.478644,-9622.677246,3478.967927,1838.629195
3043.478981,-11991.336260,1184.329507,-229.828649
3043.479318,-11547.212695,888.247130,-689.485948
3043.479656,-9918.759623,222.061783,153.219100
3043.479993,-9474.636058,0.000000,2068.457845
3043.480330,-9770.718434,0.000000,2068.457845
3043.480668,-9918.759623,-370.102971,-919.314598
3043.481005,-9548.656652,-1110.308913,-766.095498
3043.481342,-10214.842000,-592.164754,-153.219100
3043.481679,-9252.574275,370.102971,-842.705048
3043.482017,-10362.883188,222.061783,-2451.505594
3043.482354,-12287.418637,-592.164754,-2757.943793
3043.482691,-11769.274478,-1554.432478,-3447.429741
3043.483028,-10658.965565,-1776.494261,-1915.238745
3043.483366,-8956.491898,-1998.556043,-995.924147
3043.483703,-8956.491898,-3108.864956,-383.047749
3043.484040,-10658.965565,-3108.864956,-306.438199
3043.484378,-9696.697840,-3997.112087,-153.219100
3043.484715,-10066.800811,-3256.906145,2374.896044
3043.485052,-10288.862594,-888.247130,2757.943793
3043.485389,-10510.924376,-222.061783,153.219100
3043.485727,-10436.903782,0.000000,0.000000
3043.486064,-10510.924376,-1702.473667,229.828649
3043.486401,-9178.553681,-666.185348,1532.190996
3043.486739,-9474.636058,518.144159,3064.381992
3043.487076,-11251.130318,1554.432478,2451.505594
3043.487413,-11843.295072,1110.308913,-995.924147
3043.487750,-10214.842000,-518.144159,-1149.143247
3043.488088,-7994.224174,-666.185348,153.219100
3043.488425,-6809.894666,518.144159,1149.143247
3043.488762,-8734.430116,2368.659014,-459.657299
3043.489100,-11103.089130,1110.308913,-1762.019645
3043.489437,-12361.439231,0.000000,-2451.505594
3043.489774,-10881.027347,1110.308913,-1685.410096
3043.490111,-9770.718434,1110.308913,1608.800546
3043.490449,-8438.347739,1480.411884,2987.772442
3043.490786,-9474.636058,-296.082377,1225.752797
3043.491123,-10584.944971,-370.102971,1149.143247
3043.491460,-10807.006753,0.000000,1302.362347
3043.491798,-10807.006753,-962.267725,3064.381992
3043.492135,-11177.109724,-444.123565,2068.457845
3043.492472,-10955.047942,1406.391290,306.438199
3043.492810,-9474.636058,1036.288319,536.266849
3043.493147,-8512.368333,-296.082377,919.314598
3043.493484,-8364.327145,0.000000,1378.971896
3043.493821,-10510.924376,592.164754,1225.752797
3043.494159,-10288.862594,888.247130,766.095498
3043.494496,-11029.068536,-1110.308913,1685.410096
3043.494833,-11769.274478,-592.164754,689.485948
3043.495171,-9474.636058,-518.144159,-383.047749
3043.495508,-8364.327145,-1776.494261,-459.657299
3043.495845,-7772.162391,-1332.370696,-76.609550
3043.496182,-10066.800811,-2072.576638,-766.095498
3043.496520,-10436.903782,-666.185348,-1455.581446
3043.496857,-9770.718434,-1480.411884,-1225.752797
3043.497194,-11769.274478,-1998.556043,-995.924147
3043.497532,-11103.089130,-1184.329507,-2068.457845
3043.497869,-9400.615463,-2516.700203,-919.314598
3043.498206,-9770.718434,-2368.659014,1838.629195
3043.498543,-9474.636058,-1036.288319,919.314598
3043.498881,-11843.295072,370.102971,842.705048
3043.499218,-11473.192101,888.247130,0.000000
3043.499555,-10510.924376,-814.226536,0.000000
3043.499893,-11251.130318,74.020594,1072.533697
3043.500230,-9622.677246,0.000000,536.266849
3043.500567,-8586.388927,740.205942,1838.629195
3043.500904,-9030.512492,1184.329507,1302.362347
3043.501242,-10732.986159,1258.350101,153.219100
3043.501579,-11399.171507,1332.370696,0.000000
3043.501916,-10732.986159,0.000000,919.314598
3043.502253,-9178.553681,1258.350101,-383.047749
3043.502591,-8142.265362,1258.350101,-766.095498
3043.502928,-10214.842000,0.000000,-1149.143247
3043.503265,-9622.677246,-592.164754,-919.314598
3043.503603,-7402.059420,0.000000,-2298.286494
3043.503940,-10362.883188,-444.123565,-995.924147
3043.504277,-10066.800811,0.000000,-689.485948
3043.504614,-9918.759623,-148.041188,76.609550
3043.504952,-10955.047942,-962.267725,0.000000
3043.505289,-10584.944971,-1332.370696,153.219100
3043.505626,-10584.944971,-1184.329507,1072.533697
3043.505964,-9770.718434,-1184.329507,1378.971896
3043.506301,-10214.842000,-2220.617826,995.924147
3043.506638,-9770.718434,-1702.473667,1302.362347
3043.506975,-8734.430116,-2294.638420,2528.115143
3043.507313,-10584.944971,-666.185348,2451.505594
3043.507650,-9992.780217,370.102971,1149.143247
3043.507987,-11547.212695,518.144159,1072.533697
3043.508325,-10881.027347,666.185348,306.438199
3043.508662,-10214.842000,296.082377,-229.828649
3043.508999,-10955.047942,-518.144159,842.705048
3043.509336,-9400.615463,-962.267725,919.314598
3043.509674,-9030.512492,-1702.473667,1455.581446
3043.510011,-9104.533087,-962.267725,1608.800546
3043.510348,-9326.594869,-888.247130,1149.143247
3043.510686,-11843.295072,-1110.308913,76.609550
3043.511023,-10214.842000,0.000000,-1225.752797
3043.511360,-9474.636058,-740.205942,-689.485948
3043.511697,-9844.739029,0.000000,766.095498
3043.512035,-9474.636058,-1036.288319,76.609550
3043.512372,-9622.677246,-74.020594,153.219100
3043.512709,-9326.594869,-444.123565,-153.219100
3043.513046,-10510.924376,-814.226536,1225.752797
3043.513384,-11177.109724,444.123565,1378.971896
3043.513721,-10066.800811,740.205942,1072.533697
3043.514058,-9992.780217,2368.659014,995.924147
3043.514396,-11103.089130,1924.535449,995.924147
3043.514733,-11251.130318,814.226536,612.876398
3043.515070,-9474.636058,962.267725,383.047749
3043.515407,-9770.718434,1036.288319,306.438199
3043.515745,-9918.759623,1702.473667,-383.047749
3043.516082,-9844.739029,888.247130,-2604.724693
3043.516419,-9918.759623,222.061783,-1685.410096
3043.516757,-9400.615463,0.000000,-2221.676944
3043.517094,-7550.100608,-444.123565,-2451.505594
3043.517431,-9844.739029,-370.102971,-919.314598
3043.517768,-10658.965565,-1110.308913,0.000000
3043.518106,-10066.800811,-1628.453072,-1762.019645
3043.518443,-9400.615463,-1850.514855,-842.705048
3043.518780,-9770.718434,-2368.659014,2374.896044
3043.519118,-10140.821405,-2146.597232,2298.286494
3043.519455,-10510.924376,-2146.597232,1302.362347
3043.519792,-10658.965565,-1628.453072,1072.533697
3043.520129,-11251.130318,-1480.411884,536.266849
3043.520467,-10362.883188,-2146.597232,459.657299
3043.520804,-10584.944971,-1776.494261,536.266849
3043.521141,-9178.553681,-592.164754,1838.629195
3043.521479,-9252.574275,888.247130,1455.581446
3043.521816,-9844.739029,1702.473667,766.095498
3043.522153,-10732.986159,1036.288319,-306.438199
3043.522490,-12139.377449,222.061783,612.876398
3043.522828,-11103.089130,518.144159,1378.971896
3043.523165,-11325.150913,814.226536,2757.943793
3043.523502,-10436.903782,592.164754,2757.943793
3043.523839,-10066.800811,-222.061783,689.485948
3043.524177,-9400.615463,370.102971,-536.266849
3043.524514,-8956.491898,-888.247130,-76.609550
3043.524851,-8808.450710,-518.144159,-76.609550
3043.525189,-8438.347739,1036.288319,0.000000
3043.525526,-10807.006753,740.205942,536.266849
3043.525863,-10732.986159,296.082377,-2221.676944
3043.526200,-8882.471304,0.000000,-1838.629195
3043.526538,-8512.368333,74.020594,1838.629195
3043.526875,-8364.327145,-666.185348,2604.724693
3043.527212,-9622.677246,-370.102971,2757.943793
3043.527550,-11251.130318,0.000000,2681.334243
3043.527887,-11991.336260,-1110.308913,2298.286494
3043.528224,-10955.047942,1258.350101,1302.362347
3043.528561,-10362.883188,2368.659014,536.266849
3043.528899,-9770.718434,1406.391290,-536.266849
3043.529236,-9326.594869,-444.123565,-1991.848295
3043.529573,-9326.594869,-888.247130,0.000000
3043.529911,-9400.615463,148.041188,0.000000
3043.530248,-10214.842000,666.185348,0.000000
3043.530585,-9622.677246,0.000000,-1608.800546
3043.530922,-10732.986159,-296.082377,-1838.629195
3043.531260,-10436.903782,-1184.329507,0.000000
3043.531597,-9548.656652,-1332.370696,-1149.143247
3043.531934,-8882.471304,-1110.308913,-995.924147
3043.532272,-9992.780217,-2738.761985,-689.485948
3043.532609,-10732.986159,-3627.009116,0.000000
3043.532946,-9474.636058,-2294.638420,153.219100
3043.533283,-9696.697840,-2146.597232,1455.581446
3043.533621,-9548.656652,-1480.411884,-153.219100
3043.533958,-9992.780217,-1480.411884,-995.924147
3043.534295,-10140.821405,-1258.350101,153.219100
3043.534632,-9474.636058,-814.226536,1532.190996
3043.534970,-11621.233289,-518.144159,2528.115143
3043.535307,-11769.274478,1850.514855,1149.143247
3043.535644,-10584.944971,370.102971,-1225.752797
3043.535982,-9770.718434,444.123565,-612.876398
3043.536319,-8586.388927,0.000000,842.705048
3043.536656,-9474.636058,74.020594,2068.457845
3043.536993,-9178.553681,3256.906145,459.657299
3043.537331,-11325.150913,2368.659014,-842.705048
3043.537668,-13249.686362,1776.494261,-1838.629195
3043.538005,-11103.089130,148.041188,-2834.553343
3043.538343,-9178.553681,888.247130,-153.219100
3043.538680,-6809.894666,444.123565,459.657299
3043.539017,-8364.327145,-444.123565,-229.828649
3043.539354,-11399.171507,444.123565,-1608.800546
3043.539692,-9548.656652,-1406.391290,-2681.334243
3043.540029,-10214.842000,-2146.597232,153.219100
3043.540366,-10881.027347,-1184.329507,1685.410096
3043.540704,-8882.471304,-518.144159,1455.581446
3043.541041,-8882.471304,-666.185348,1225.752797
3043.541378,-8660.409521,-1924.535449,1838.629195
3043.541715,-9992.780217,-666.185348,2528.115143
3043.542053,-10955.047942,0.000000,2374.896044
3043.542390,-9622.677246,444.123565,2604.724693
3043.542727,-11547.212695,0.000000,1072.533697
3043.543065,-11695.253884,-888.247130,1378.971896
3043.543402,-9326.594869,-2368.659014,612.876398
3043.543739,-6735.874072,-962.267725,2681.334243
3043.544076,-7328.038826,0.000000,2374.896044
3043.544414,-10955.047942,888.247130,306.438199
3043.544751,-12953.603985,518.144159,-306.438199
3043.545088,-12287.418637,74.020594,-1378.971896
3043.545425,-9770.718434,740.205942,-689.485948
3043.545763,-9104.533087,370.102971,0.000000
3043.546100,-10510.924376,0.000000,1072.533697
3043.546437,-10436.903782,-2146.597232,689.485948
3043.546775,-10955.047942,-1850.514855,536.266849
3043.547112,-11251.130318,-666.185348,1685.410096
3043.547449,-11473.192101,-1110.308913,919.314598
3043.547786,-9696.697840,-2072.576638,-766.095498
3043.548124,-9548.656652,-1258.350101,0.000000
3043.548461,-9474.636058,-1258.350101,383.047749
3043.548798,-8068.244768,666.185348,0.000000
3043.549136,-9474.636058,148.041188,229.828649
3043.549473,-10955.047942,1776.494261,-1608.800546
3043.549810,-10214.842000,888.247130,-1762.019645
3043.550147,-11769.274478,1406.391290,-229.828649
3043.550485,-8364.327145,1480.411884,229.828649
3043.550822,-8808.450710,0.000000,-536.266849
3043.551159,-9696.697840,-74.020594,-919.314598
3043.551497,-8882.471304,-1850.514855,-1149.143247
3043.551834,-9030.512492,-444.123565,306.438199
3043.552171,-8068.244768,222.061783,-306.438199
3043.552508,-10584.944971,1480.411884,-306.438199
3043.552846,-11769.274478,2368.659014,-3064.381992
3043.553183,-10955.047942,814.226536,-4596.572988
3043.553520,-11399.171507,0.000000,-2221.676944
3043.553857,-9622.677246,-1184.329507,-995.924147
3043.554195,-10140.821405,-740.205942,-536.266849
3043.554532,-10140.821405,-1332.370696,-1225.752797
3043.554869,-9474.636058,-2368.659014,-536.266849
3043.555207,-10807.006753,-3627.009116,2681.334243
3043.555544,-10955.047942,-1998.556043,4136.915689
3043.555881,-10214.842000,-518.144159,3524.039291
3043.556218,-11399.171507,222.061783,2681.334243
3043.556556,-10510.924376,-370.102971,2681.334243
3043.556893,-11695.253884,-148.041188,2757.943793
3043.557230,-9770.718434,296.082377,3140.991542
3043.557568,-8290.306550,1406.391290,1532.190996
3043.557905,-9770.718434,296.082377,1149.143247
3043.558242,-10584.944971,666.185348,-229.828649
3043.558579,-10288.862594,0.000000,-1072.533697
3043.558917,-8660.409521,148.041188,1072.533697
3043.559254,-8290.306550,-222.061783,842.705048
3043.559591,-9622.677246,0.000000,536.266849
3043.559929,-10066.800811,-518.144159,229.828649
3043.560266,-9474.636058,-814.226536,229.828649
3043.560603,-8438.347739,-444.123565,2145.067394
3043.560940,-11029.068536,-592.164754,2451.505594
3043.561278,-11769.274478,1110.308913,1225.752797
3043.561615,-11177.109724,0.000000,-612.876398
3043.561952,-11843.295072,-888.247130,-919.314598
3043.562290,-8882.471304,-1036.288319,-229.828649
3043.562627,-8068.244768,-1184.329507,995.924147
3043.562964,-8438.347739,-296.082377,1608.800546
3043.563301,-10066.800811,-888.247130,-306.438199
3043.563639,-12287.418637,0.000000,0.000000
3043.563976,-12287.418637,444.123565,0.000000
3043.564313,-10066.800811,1184.329507,459.657299
3043.564650,-11547.212695,888.247130,1149.143247
3043.564988,-10881.027347,148.041188,0.000000
3043.565325,-9844.739029,-888.247130,-919.314598
3043.565662,-8882.471304,-1554.432478,0.000000
3043.565999,-8142.265362,-2442.679609,-766.095498
3043.566337,-9474.636058,-1480.411884,-1608.800546
3043.566674,-8660.409521,-1776.494261,-2374.896044
3043.567011,-9622.677246,-1480.411884,-1762.019645
3043.567348,-11103.089130,-1258.350101,-2221.676944
3043.567686,-8808.450710,-1406.391290,-2221.676944
3043.568023,-8660.409521,-1036.288319,-766.095498
3043.568360,-9696.697840,-1628.453072,536.266849
3043.568697,-11695.253884,-888.247130,1378.971896
3043.569035,-12287.418637,-592.164754,995.924147
3043.569372,-10510.924376,-296.082377,612.876398
3043.569709,-9548.656652,-1036.288319,842.705048
3043.570046,-11473.192101,0.000000,2145.067394
3043.570384,-10955.047942,-1406.391290,1378.971896
3043.570721,-9474.636058,370.102971,2298.286494
3043.571058,-8512.368333,1924.535449,1072.533697
3043.571395,-11103.089130,3182.885551,689.485948
3043.571733,-11029.068536,2072.576638,-995.924147
3043.572070,-10584.944971,1406.391290,-153.219100
3043.572407,-10658.965565,2294.638420,612.876398
3043.572744,-9918.759623,1110.308913,0.000000
3043.573082,-8438.347739,1036.288319,842.705048
3043.573419,-9474.636058,-1110.308913,306.438199
3043.573756,-9770.718434,-1554.432478,383.047749
3043.574093,-8512.368333,74.020594,0.000000
3043.574431,-9252.574275,-1258.350101,842.705048
3043.574768,-8882.471304,-888.247130,-383.047749
3043.575105,-9252.574275,-1184.329507,-689.485948
3043.575442,-10658.965565,-962.267725,306.438199
3043.575780,-9770.718434,-1998.556043,153.219100
3043.576117,-8660.409521,-518.144159,383.047749
3043.576454,-9400.615463,-148.041188,1378.971896
3043.576791,-10881.027347,-1258.350101,1455.581446
3043.577129,-10436.903782,-1554.432478,1149.143247
3043.577466,-10732.986159,0.000000,1532.190996
3043.577803,-10807.006753,-370.102971,3140.991542
3043.578140,-10955.047942,1036.288319,1685.410096
3043.578478,-11325.150913,518.144159,612.876398
3043.578815,-11695.253884,296.082377,-383.047749
3043.579152,-10214.842000,0.000000,229.828649
3043.579489,-9770.718434,74.020594,919.314598
3043.579827,-9622.677246,0.000000,919.314598
3043.580164,-10066.800811,296.082377,0.000000
3043.580501,-11177.109724,-518.144159,-919.314598
3043.580838,-10584.944971,-296.082377,-1072.533697
3043.581176,-10436.903782,-1406.391290,-612.876398
3043.581513,-9918.759623,-888.247130,-995.924147
3043.581850,-7254.018232,-1184.329507,-689.485948
3043.582187,-9548.656652,-2664.741391,229.828649
3043.582525,-9844.739029,-1850.514855,-383.047749
3043.582862,-8808.450710,-1554.432478,0.000000
3043.583199,-10510.924376,-296.082377,612.876398
3043.583536,-9770.718434,148.041188,459.657299
3043.583874,-11103.089130,-962.267725,1149.143247
3043.584211,-9400.615463,962.267725,1685.410096
3043.584548,-9252.574275,444.123565,2451.505594
3043.584885,-11325.150913,2294.638420,1991.848295
3043.585223,-10584.944971,1776.494261,-689.485948
3043.585560,-11399.171507,1184.329507,-1762.019645
3043.585897,-9770.718434,1036.288319,-689.485948
3043.586234,-9696.697840,-370.102971,-153.219100
3043.586572,-10288.862594,296.082377,-76.609550
3043.586909,-8438.347739,592.164754,-1762.019645
3043.587246,-9770.718434,148.041188,-689.485948
3043.587583,-11103.089130,296.082377,-229.828649
3043.587921,-10807.006753,-592.164754,-1072.533697
3043.588258,-9918.759623,-444.123565,-689.485948
3043.588595,-9696.697840,-1850.514855,76.609550
3043.588932,-10140.821405,-1998.556043,76.609550
3043.589270,-10288.862594,-1184.329507,0.000000
3043.589607,-9844.739029,-1628.453072,0.000000
3043.589944,-9474.636058,-740.205942,-689.485948
3043.590281,-10436.903782,-2072.576638,-766.095498
3043.590619,-9992.780217,-2146.597232,0.000000
3043.590956,-7179.997637,-1628.453072,1072.533697
3043.591293,-8660.409521,-444.123565,2451.505594
3043.591630,-11621.233289,1184.329507,2221.676944
3043.591968,-10584.944971,444.123565,919.314598
3043.592305,-10955.047942,222.061783,2528.115143
3043.592642,-10288.862594,962.267725,3983.696590
3043.592979,-10658.965565,1110.308913,4290.134789
3043.593317,-12509.480420,444.123565,3447.429741
3043.593654,-11251.130318,148.041188,1149.143247
3043.593991,-10140.821405,1332.370696,459.657299
3043.594328,-8364.327145,1850.514855,0.000000
3043.594666,-9252.574275,-740.205942,-459.657299
3043.595003,-9400.615463,1036.288319,-1685.410096
3043.595340,-9030.512492,518.144159,-3447.429741
3043.595677,-10436.903782,74.020594,-2145.067394
3043.596015,-9400.615463,296.082377,-842.705048
3043.596352,-10436.903782,-814.226536,1225.752797
3043.596689,-10362.883188,-592.164754,1532.190996
3043.597026,-8808.450710,-2072.576638,1685.410096
3043.597364,-10066.800811,-1258.350101,2834.553343
3043.597701,-9474.636058,-1702.473667,1991.848295
3043.598038,-11695.253884,-2220.617826,1225.752797
3043.598375,-11177.109724,-962.267725,536.266849
3043.598713,-9326.594869,-518.144159,-1072.533697
3043.599050,-8364.327145,-444.123565,153.219100
3043.599387,-8660.409521,-518.144159,0.000000
3043.599724,-9326.594869,-740.205942,-383.047749
3043.600062,-10140.821405,0.000000,-1455.581446
3043.600399,-9770.718434,-888.247130,-1608.800546
3043.600736,-11769.274478,-296.082377,306.438199
3043.601073,-10362.883188,740.205942,1072.533697
3043.601411,-10066.800811,592.164754,-689.485948
3043.601748,-10436.903782,444.123565,-536.266849
3043.602085,-10510.924376,-1776.494261,-536.266849
3043.602422,-11325.150913,-1554.432478,-689.485948
3043.602760,-9844.739029,-1628.453072,-1225.752797
3043.603097,-9474.636058,-1332.370696,-919.314598
3043.603434,-9992.780217,74.020594,-1532.190996
3043.603771,-10362.883188,0.000000,-1532.190996
3043.604109,-10214.842000,-814.226536,-536.266849
3043.604446,-8586.388927,-888.247130,995.924147
3043.604783,-9252.574275,740.205942,2834.553343
3043.605120,-12065.356855,1480.411884,4519.963438
3043.605458,-11251.130318,1702.473667,3830.477490
3043.605795,-10362.883188,1332.370696,2528.115143
3043.606132,-11843.295072,2442.679609,3447.429741
3043.606469,-9992.780217,1628.453072,2374.896044
3043.606807,-10214.842000,1036.288319,2068.457845
3043.607144,-8660.409521,74.020594,1302.362347
3043.607481,-7846.182985,1998.556043,612.876398
3043.607818,-7846.182985,3108.864956,612.876398
3043.608156,-9918.759623,2886.803174,0.000000
3043.608493,-10510.924376,1628.453072,-1608.800546
3043.608830,-10510.924376,814.226536,0.000000
3043.609167,-9326.594869,888.247130,1991.848295
3043.609505,-8290.306550,1110.308913,2068.457845
3043.609842,-9992.780217,0.000000,2221.676944
3043.610179,-10881.027347,-1184.329507,1149.143247
3043.610516,-9770.718434,-2294.638420,2221.676944
3043.610854,-9474.636058,-1110.308913,4979.620737
3043.611191,-9548.656652,1036.288319,3677.258390
3043.611528,-10436.903782,740.205942,1685.410096
3043.611865,-11769.274478,740.205942,612.876398
3043.612203,-10436.903782,222.061783,842.705048
3043.612540,-10288.862594,592.164754,4290.134789
3043.612877,-10436.903782,2072.576638,4673.182538
3043.613214,-10955.047942,2516.700203,2911.162892
3043.613552,-11843.295072,1850.514855,1072.533697
3043.613889,-10584.944971,-518.144159,2374.896044
3043.614226,-9474.636058,74.020594,4979.620737
3043.614563,-10807.006753,1036.288319,5898.935335
3043.614901,-9770.718434,3404.947333,2451.505594
3043.615238,-10436.903782,2146.597232,-229.828649
3043.615575,-11103.089130,1406.391290,306.438199
3043.615912,-9474.636058,1332.370696,842.705048
3043.616250,-7920.203579,1332.370696,1838.629195
3043.616587,-8734.430116,1998.556043,2451.505594
3043.616924,-11029.068536,2664.741391,1532.190996
3043.617261,-11769.274478,2072.576638,-689.485948
3043.617599,-9770.718434,2072.576638,-153.219100
3043.617936,-9104.533087,222.061783,2451.505594
3043.618273,-8512.368333,666.185348,3677.258390
3043.618610,-8290.306550,1998.556043,3064.381992
3043.618948,-9104.533087,2886.803174,3830.477490
3043.619285,-10066.800811,3182.885551,2757.943793
3043.619622,-11843.295072,3330.926739,2681.334243
3043.619959,-12953.603985,3775.050304,3217.601092
3043.620297,-10214.842000,4219.173869,2681.334243
3043.620634,-10214.842000,4145.153275,3217.601092
3043.620971,-10436.903782,3849.070898,3064.381992
3043.621308,-9844.739029,3404.947333,1378.971896
3043.621646,-10436.903782,2072.576638,1302.362347
3043.621983,-10066.800811,1924.535449,383.047749
3043.622320,-9474.636058,1184.329507,536.266849
3043.622657,-9326.594869,1110.308913,2451.505594
3043.622995,-8808.450710,1998.556043,2987.772442
3043.623332,-9844.739029,2072.576638,1455.581446
3043.623669,-11177.109724,2220.617826,1302.362347
3043.624006,-11399.171507,962.267725,229.828649
3043.624344,-10140.821405,222.061783,1838.629195
3043.624681,-9992.780217,-814.226536,2298.286494
3043.625018,-8808.450710,-1702.473667,2451.505594
3043.625355,-8956.491898,-1332.370696,2451.505594
3043.625693,-9178.553681,-222.061783,3064.381992
3043.626030,-9400.615463,296.082377,2604.724693
3043.626367,-9622.677246,1258.350101,3677.258390
3043.626704,-11251.130318,1998.556043,3140.991542
3043.627042,-11621.233289,2072.576638,3294.210641
3043.627379,-11769.274478,2886.803174,3447.429741
3043.627716,-10362.883188,2664.741391,4673.182538
3043.628053,-9622.677246,2664.741391,4673.182538
3043.628391,-10214.842000,3330.926739,3140.991542
3043.628728,-11325.150913,2664.741391,3140.991542
3043.629065,-11251.130318,2368.659014,1685.410096
3043.629402,-10584.944971,1184.329507,306.438199
3043.629740,-9474.636058,1850.514855,1991.848295
3043.630077,-7476.080014,2220.617826,1455.581446
3043.630414,-7624.121203,2590.720797,2451.505594
3043.630751,-10436.903782,3849.070898,919.314598
3043.631089,-9992.780217,3552.988522,153.219100
3043.631426,-11473.192101,2664.741391,919.314598
3043.631763,-10807.006753,1776.494261,2528.115143
3043.632100,-10066.800811,1406.391290,1838.629195
3043.632438,-9474.636058,1036.288319,3370.820191
3043.632775,-8734.430116,0.000000,3907.087040
3043.633112,-7846.182985,518.144159,4443.353888
3043.633449,-9770.718434,1258.350101,4903.011187
3043.633787,-9474.636058,3256.906145,3983.696590
3043.634124,-10732.986159,4071.132681,2528.115143
3043.634461,-11843.295072,3552.988522,1838.629195
3043.634798,-11843.295072,2738.761985,1225.752797
3043.635136,-10732.986159,1702.473667,1838.629195
3043.635473,-8216.285956,1184.329507,919.314598
3043.635810,-8660.409521,814.226536,2451.505594
3043.636147,-9474.636058,148.041188,1762.019645
3043.636485,-9992.780217,222.061783,1762.019645
3043.636822,-9770.718434,1110.308913,1608.800546
3043.637159,-10362.883188,2738.761985,1225.752797
3043.637496,-11547.212695,2294.638420,1685.410096
3043.637834,-12435.459826,1702.473667,76.609550
3043.638171,-10362.883188,148.041188,1532.190996
3043.638508,-10510.924376,-518.144159,2145.067394
3043.638845,-9992.780217,-222.061783,2834.553343
3043.639183,-9474.636058,-888.247130,1532.190996
3043.639520,-10140.821405,-148.041188,2221.676944
3043.639857,-8586.388927,0.000000,2374.896044
3043.640194,-9622.677246,1332.370696,4290.134789
3043.640532,-10214.842000,3182.885551,4366.744339
3043.640869,-9548.656652,3552.988522,2451.505594
3043.641206,-11843.295072,3552.988522,2221.676944
3043.641543,-11103.089130,3256.906145,2528.115143
3043.641881,-10955.047942,2812.782580,2834.553343
3043.642218,-10140.821405,3627.009116,3677.258390
3043.642555,-9400.615463,2442.679609,2451.505594
3043.642892,-9400.615463,2960.823768,2221.676944
3043.643230,-8216.285956,2146.597232,1838.629195
3043.643567,-8808.450710,2590.720797,2451.505594
3043.643904,-8364.327145,3552.988522,1378.971896
3043.644241,-9474.636058,4071.132681,1455.581446
3043.644579,-11917.315666,4737.318029,1608.800546
3043.644916,-11547.212695,4441.235652,76.609550
3043.645253,-11399.171507,2442.679609,-689.485948
3043.645590,-10362.883188,370.102971,1532.190996
3043.645928,-9178.553681,-1110.308913,1685.410096
3043.646265,-9400.615463,-740.205942,2757.943793
3043.646602,-8438.347739,-1406.391290,2451.505594
3043.646939,-8364.327145,-444.123565,3524.039291
3043.647277,-10510.924376,518.144159,3600.648841
3043.647614,-10436.903782,2664.741391,2451.505594
3043.647951,-11029.068536,2886.803174,2757.943793
3043.648288,-11103.089130,2516.700203,3907.087040
3043.648625,-12139.377449,2886.803174,4136.915689
3043.648963,-12361.439231,2738.761985,2911.162892
3043.649300,-10807.006753,666.185348,2681.334243
3043.649637,-9400.615463,-814.226536,3370.820191
3043.649974,-8956.491898,-222.061783,4596.572988
3043.650312,-8290.306550,888.247130,4366.744339
3043.650649,-8438.347739,1554.432478,2451.505594
3043.650986,-9474.636058,1776.494261,1455.581446
3043.651323,-11621.233289,2368.659014,1225.752797
3043.651661,-11177.109724,2516.700203,919.314598
3043.651998,-9770.718434,3256.906145,1302.362347
3043.652335,-9622.677246,2960.823768,2374.896044
3043.652672,-11103.089130,1776.494261,1225.752797
3043.653010,-11695.253884,222.061783,1072.533697
3043.653347,-9696.697840,-148.041188,2374.896044
3043.653684,-7254.018232,148.041188,3907.087040
3043.654021,-8586.388927,1702.473667,4826.401637
3043.654359,-9474.636058,2294.638420,3447.429741
3043.654696,-10658.965565,2664.741391,1225.752797
3043.655033,-10732.986159,3404.947333,995.924147
3043.655370,-10362.883188,3627.009116,2451.505594
3043.655708,-9918.759623,4959.379811,3447.429741
3043.656045,-10584.944971,5107.421000,2374.896044
3043.656382,-11251.130318,4293.194464,2068.457845
3043.656719,-10955.047942,2664.741391,1149.143247
3043.657057,-9400.615463,1406.391290,1608.800546
3043.657394,-8808.450710,1258.350101,1685.410096
3043.657731,-7698.141797,444.123565,1455.581446
3043.658068,-9178.553681,222.061783,1532.190996
3043.658406,-9770.718434,1110.308913,1455.581446
3043.658743,-9400.615463,2516.700203,1378.971896
3043.659080,-10140.821405,3034.844362,1302.362347
3043.659417,-10955.047942,2442.679609,1455.581446
3043.659755,-11843.295072,2146.597232,2145.067394
3043.660092,-11843.295072,1110.308913,1685.410096
3043.660429,-10881.027347,-666.185348,1838.629195
3043.660766,-9770.718434,-1110.308913,3064.381992
3043.661104,-9104.533087,-1554.432478,4366.744339
3043.661441,-8734.430116,-814.226536,3983.696590
3043.661778,-9474.636058,666.185348,3447.429741
3043.662115,-10140.821405,1776.494261,2987.772442
3043.662453,-10732.986159,2886.803174,2451.505594
3043.662790,-11251.130318,3701.029710,2604.724693
3043.663127,-11103.089130,3997.112087,2528.115143
3043.663464,-11399.171507,3849.070898,2451.505594
3043.663802,-10732.986159,2886.803174,2987.772442
3043.664139,-10658.965565,1998.556043,2911.162892
3043.664476,-9622.677246,1554.432478,2145.067394
3043.664813,-8438.347739,518.144159,1762.019645
3043.665151,-8734.430116,1406.391290,1915.238745
3043.665488,-8586.388927,1036.288319,0.000000
3043.665825,-9252.574275,1702.473667,-689.485948
3043.666163,-9474.636058,2294.638420,-766.095498
3043.666500,-9178.553681,1702.473667,-306.438199
3043.666837,-9548.656652,2590.720797,842.705048
3043.667175,-10288.862594,1628.453072,1608.800546
3043.667512,-10436.903782,1628.453072,1685.410096
3043.667849,-9992.780217,0.000000,2451.505594
3043.668186,-10140.821405,74.020594,3217.601092
3043.668524,-9992.780217,-666.185348,3830.477490
3043.668861,-10066.800811,0.000000,4290.134789
3043.669198,-10362.883188,888.247130,4213.525239
3043.669536,-10066.800811,1776.494261,2528.115143
3043.669873,-10066.800811,1924.535449,2451.505594
3043.670210,-10955.047942,3034.844362,1838.629195
3043.670548,-10955.047942,2664.741391,1532.190996
3043.670885,-11177.109724,2516.700203,1378.971896
3043.671222,-10436.903782,1998.556043,1532.190996
3043.671560,-9548.656652,1258.350101,2987.772442
3043.671897,-9770.718434,888.247130,3907.087040
3043.672234,-9548.656652,444.123565,4060.306139
3043.672572,-10362.883188,1332.370696,3447.429741
3043.672909,-10881.027347,1554.432478,2987.772442
3043.673246,-10807.006753,1480.411884,1532.190996
3043.673583,-10658.965565,1110.308913,2145.067394
3043.673921,-9844.739029,1184.329507,2528.115143
3043.674258,-8808.450710,1184.329507,2604.724693
3043.674595,-9178.553681,1258.350101,4519.963438
3043.674933,-8512.368333,2516.700203,4290.134789
3043.675270,-9696.697840,3034.844362,4749.792088
3043.675607,-11103.089130,4071.132681,4290.134789
3043.675945,-11325.150913,4219.173869,3370.820191
3043.676282,-11621.233289,3923.091493,2911.162892
3043.676619,-10140.821405,3701.029710,3907.087040
3043.676957,-9030.512492,3701.029710,4903.011187
3043.677294,-9474.636058,4293.194464,4826.401637
3043.677631,-8956.491898,5847.626942,2757.943793
3043.677968,-10510.924376,4811.338623,1762.019645
3043.678306,-10140.821405,5255.462188,1915.238745
3043.678643,-9770.718434,5995.668130,1302.362347
3043.678980,-11103.089130,6217.729913,1378.971896
3043.679318,-10214.842000,5033.400406,-689.485948
3043.679655,-11029.068536,2886.803174,-2221.676944
3043.679992,-10362.883188,888.247130,-1532.190996
3043.680330,-7402.059420,518.144159,-612.876398
3043.680667,-7402.059420,962.267725,1455.581446
3043.681004,-8364.327145,740.205942,689.485948
3043.681342,-9474.636058,814.226536,306.438199
3043.681679,-11547.212695,1184.329507,2145.067394
3043.682016,-10881.027347,1702.473667,1915.238745
3043.682353,-9770.718434,2146.597232,2987.772442
3043.682691,-10807.006753,1480.411884,4213.525239
3043.683028,-12731.542202,814.226536,3753.867940
3043.683365,-12657.521608,518.144159,2374.896044
3043.683703,-9844.739029,-518.144159,1685.410096
3043.684040,-8142.265362,-370.102971,2834.553343
3043.684377,-9548.656652,-518.144159,2834.553343
3043.684715,-10732.986159,1628.453072,612.876398
3043.685052,-9622.677246,1184.329507,-1072.533697
3043.685389,-9844.739029,1258.350101,1072.533697
3043.685727,-10584.944971,1998.556043,1991.848295
3043.686064,-10214.842000,2368.659014,2451.505594
3043.686401,-10140.821405,2368.659014,4136.915689
3043.686738,-11843.295072,1850.514855,3983.696590
3043.687076,-11917.315666,1110.308913,3370.820191
3043.687413,-11251.130318,1110.308913,2604.724693
3043.687750,-9770.718434,-888.247130,3830.477490
3043.688088,-8438.347739,-296.082377,3830.477490
3043.688425,-9252.574275,0.000000,4290.134789
3043.688762,-9770.718434,1702.473667,2834.553343
3043.689100,-8512.368333,1332.370696,1149.143247
3043.689437,-9474.636058,2294.638420,1455.581446
3043.689774,-10066.800811,2294.638420,2374.896044
3043.690112,-8956.491898,2368.659014,2911.162892
3043.690449,-8808.450710,3478.967927,4826.401637
3043.690786,-9844.739029,3404.947333,4749.792088
3043.691123,-10881.027347,2886.803174,4749.792088
3043.691461,-10955.047942,2294.638420,4903.011187
3043.691798,-9992.780217,3182.885551,4749.792088
3043.692135,-10732.986159,2960.823768,4060.306139
3043.692473,-11177.109724,2590.720797,1378.971896
3043.692810,-9548.656652,1702.473667,-612.876398
3043.693147,-9178.553681,740.205942,-1149.143247
3043.693485,-8586.388927,1184.329507,-842.705048
3043.693822,-9474.636058,740.205942,-229.828649
3043.694159,-8956.491898,2368.659014,-766.095498
3043.694497,-9622.677246,1998.556043,306.438199
3043.694834,-11029.068536,888.247130,0.000000
3043.695171,-10732.986159,1184.329507,1991.848295
3043.695509,-11029.068536,666.185348,2451.505594
3043.695846,-10510.924376,444.123565,1532.190996
3043.696183,-10510.924376,-592.164754,1991.848295
3043.696520,-11843.295072,-1406.391290,2757.943793
3043.696858,-9992.780217,-888.247130,3370.820191
3043.697195,-8512.368333,444.123565,3140.991542
3043.697532,-8956.491898,3478.967927,2834.553343
3043.697870,-9770.718434,2146.597232,2451.505594
3043.698207,-11621.233289,3701.029710,2911.162892
3043.698544,-10881.027347,4663.297435,1838.629195
3043.698882,-11177.109724,4885.359217,1225.752797
3043.699219,-11103.089130,4071.132681,1532.190996
3043.699556,-10732.986159,1776.494261,2451.505594
3043.699894,-10140.821405,2072.576638,3370.820191
3043.700231,-7402.059420,2220.617826,3600.648841
3043.700568,-9030.512492,2368.659014,5286.058936
3043.700905,-9770.718434,3330.926739,3600.648841
3043.701243,-10658.965565,4071.132681,842.705048
3043.701580,-10658.965565,4219.173869,0.000000
3043.701917,-9918.759623,2886.803174,766.095498
3043.702255,-10658.965565,3330.926739,3370.820191
3043.702592,-10436.903782,2368.659014,2604.724693
3043.702929,-8438.347739,2590.720797,3447.429741
3043.703267,-9104.533087,1554.432478,4290.134789
3043.703604,-10881.027347,2146.597232,4519.963438
3043.703941,-10140.821405,2738.761985,2681.334243
3043.704279,-9178.553681,1924.535449,2987.772442
3043.704616,-9474.636058,1332.370696,4519.963438
3043.704953,-9548.656652,2072.576638,3983.696590
3043.705290,-10807.006753,2590.720797,4826.401637
3043.705628,-10658.965565,2294.638420,4519.963438
3043.705965,-10436.903782,3256.906145,2987.772442
3043.706302,-11621.233289,3182.885551,1378.971896
3043.706640,-10807.006753,888.247130,1608.800546
3043.706977,-8512.368333,0.000000,1302.362347
3043.707314,-9252.574275,-296.082377,1225.752797
3043.707652,-9548.656652,888.247130,1378.971896
3043.707989,-9400.615463,962.267725,383.047749
3043.708326,-10362.883188,370.102971,842.705048
3043.708664,-10510.924376,444.123565,-1149.143247
3043.709001,-10584.944971,148.041188,766.095498
3043.709338,-10955.047942,370.102971,1608.800546
3043.709675,-9548.656652,-518.144159,1762.019645
3043.710013,-11621.233289,962.267725,2987.772442
3043.710350,-10214.842000,814.226536,2451.505594
3043.710687,-10584.944971,370.102971,2834.553343
3043.711025,-10807.006753,518.144159,3140.991542
3043.711362,-9474.636058,888.247130,3217.601092
3043.711699,-9400.615463,1554.432478,3447.429741
3043.712037,-9918.759623,1776.494261,3370.820191
3043.712374,-9770.718434,3923.091493,2528.115143
3043.712711,-10436.903782,3330.926739,1455.581446
3043.713049,-11177.109724,2886.803174,2451.505594
3043.713386,-10214.842000,2368.659014,1072.533697
3043.713723,-9400.615463,1406.391290,1608.800546
3043.714061,-8882.471304,2590.720797,2298.286494
3043.714398,-9326.594869,1628.453072,1378.971896
3043.714735,-9474.636058,1776.494261,459.657299
3043.715072,-9918.759623,666.185348,919.314598
3043.715410,-9622.677246,1110.308913,1378.971896
3043.715747,-9696.697840,1850.514855,1838.629195
3043.716084,-10288.862594,1332.370696,919.314598
3043.716422,-11177.109724,592.164754,229.828649
3043.716759,-11621.233289,-222.061783,76.609550
3043.717096,-10214.842000,0.000000,995.924147
3043.717434,-8882.471304,-148.041188,2298.286494
3043.717771,-8586.388927,370.102971,3600.648841
3043.718108,-10732.986159,444.123565,3294.210641
3043.718446,-11769.274478,0.000000,1838.629195
3043.718783,-10732.986159,592.164754,1225.752797
3043.719120,-10066.800811,592.164754,2834.553343
3043.719457,-11251.130318,518.144159,4366.744339
3043.719795,-9696.697840,1776.494261,3064.381992
3043.720132,-8882.471304,1554.432478,1225.752797
3043.720469,-10362.883188,1554.432478,536.266849
3043.720807,-10214.842000,222.061783,-306.438199
3043.721144,-9918.759623,-740.205942,919.314598
3043.721481,-7994.224174,-740.205942,1991.848295
3043.721819,-7994.224174,888.247130,2374.896044
3043.722156,-10732.986159,1776.494261,1149.143247
3043.722493,-10584.944971,1924.535449,-1532.190996
3043.722831,-9622.677246,0.000000,-919.314598
3043.723168,-10436.903782,-814.226536,2298.286494
3043.723505,-10362.883188,962.267725,3677.258390
3043.723842,-12435.459826,1554.432478,2757.943793
3043.724180,-11769.274478,1406.391290,76.609550
3043.724517,-9770.718434,518.144159,-383.047749
3043.724854,-9474.636058,-74.020594,1149.143247
3043.725192,-7476.080014,296.082377,1991.848295
3043.725529,-7846.182985,2220.617826,2451.505594
3043.725866,-10955.047942,3256.906145,76.609550
3043.726204,-12435.459826,2442.679609,-1762.019645
3043.726541,-13101.645173,2072.576638,-1378.971896
3043.726878,-9548.656652,1480.411884,0.000000
3043.727216,-9696.697840,-370.102971,1685.410096
3043.727553,-9474.636058,1110.308913,306.438199
3043.727890,-8290.306550,-1480.411884,-1455.581446
3043.728227,-9030.512492,-1776.494261,0.000000
3043.728565,-8290.306550,-1850.514855,-1302.362347
3043.728902,-9400.615463,-1554.432478,0.000000
3043.729239,-10584.944971,592.164754,-1302.362347
3043.729577,-9696.697840,-444.123565,-3447.429741
3043.729914,-11547.212695,-1258.350101,-3064.381992
3043.730251,-10140.821405,-1480.411884,-3217.601092
3043.730589,-8734.430116,-2368.659014,-1302.362347
3043.730926,-9918.759623,-2812.782580,-536.266849
3043.731263,-9844.739029,-2960.823768,153.219100
3043.731601,-11547.212695,-3404.947333,1072.533697
3043.731938,-10807.006753,-3478.967927,2298.286494
3043.732275,-8956.491898,-1850.514855,1762.019645
3043.732612,-10658.965565,0.000000,1762.019645
3043.732950,-10584.944971,592.164754,1685.410096
3043.733287,-11991.336260,1110.308913,766.095498
3043.733624,-12065.356855,1258.350101,76.609550
3043.733962,-11399.171507,74.020594,229.828649
3043.734299,-11103.089130,-222.061783,1225.752797
3043.734636,-8956.491898,-74.020594,1225.752797
3043.734974,-8734.430116,0.000000,1685.410096
3043.735311,-8882.471304,-296.082377,76.609550
3043.735648,-8734.430116,-518.144159,689.485948
3043.735986,-10362.883188,444.123565,0.000000
3043.736323,-9548.656652,740.205942,-1072.533697
3043.736660,-11029.068536,592.164754,-153.219100
3043.736998,-9918.759623,592.164754,-536.266849
3043.737335,-7994.224174,0.000000,-459.657299
3043.737672,-8290.306550,222.061783,1762.019645
3043.738009,-9400.615463,-888.247130,1455.581446
3043.738347,-10510.924376,-1258.350101,689.485948
3043.738684,-10584.944971,-1480.411884,919.314598
3043.739021,-9400.615463,-2072.576638,2374.896044
3043.739359,-9474.636058,222.061783,2451.505594
3043.739696,-9252.574275,518.144159,1762.019645
3043.740033,-10436.903782,518.144159,1225.752797
3043.740371,-10066.800811,370.102971,153.219100
3043.740708,-10658.965565,222.061783,689.485948
3043.741045,-12065.356855,888.247130,153.219100
3043.741383,-11177.109724,222.061783,153.219100
3043.741720,-11769.274478,-444.123565,459.657299
3043.742057,-10066.800811,-148.041188,-1378.971896
3043.742394,-8512.368333,-1110.308913,-766.095498
3043.742732,-9104.533087,-1850.514855,-459.657299
3043.743069,-8438.347739,-1554.432478,-1685.410096
3043.743406,-10584.944971,-1110.308913,-2221.676944
3043.743744,-10955.047942,-1628.453072,-2221.676944
3043.744081,-10807.006753,-1924.535449,-383.047749
3043.744418,-11325.150913,-1924.535449,689.485948
3043.744756,-9474.636058,-1258.350101,919.314598
3043.745093,-9474.636058,-1554.432478,689.485948
3043.745430,-10066.800811,-1036.288319,689.485948
3043.745768,-9548.656652,-2294.638420,306.438199
3043.746105,-10140.821405,-1776.494261,-153.219100
3043.746442,-8956.491898,-370.102971,306.438199
3043.746779,-9030.512492,740.205942,1455.581446
3043.747117,-9548.656652,1776.494261,1685.410096
3043.747454,-11399.171507,2886.803174,306.438199
3043.747791,-12139.377449,2590.720797,0.000000
3043.748129,-10658.965565,1776.494261,76.609550
3043.748466,-10140.821405,740.205942,229.828649
3043.748803,-9178.553681,2368.659014,766.095498
3043.749141,-8364.327145,148.041188,612.876398
3043.749478,-10140.821405,740.205942,-459.657299
3043.749815,-10955.047942,296.082377,-1608.800546
3043.750153,-9844.739029,740.205942,-2451.505594
3043.750490,-8956.491898,-592.164754,-1762.019645
3043.750827,-9400.615463,-1554.432478,-306.438199
3043.751164,-9400.615463,74.020594,-689.485948
3043.751502,-8586.388927,-592.164754,-383.047749
3043.751839,-11621.233289,-1702.473667,842.705048
3043.752176,-9696.697840,-1998.556043,-766.095498
3043.752514,-10584.944971,-2442.679609,1149.143247
3043.752851,-11029.068536,-2072.576638,2451.505594
3043.753188,-7772.162391,-1776.494261,1378.971896
3043.753526,-9178.553681,-888.247130,612.876398
3043.753863,-10362.883188,-592.164754,919.314598
3043.754200,-11103.089130,-666.185348,1838.629195
3043.754538,-12139.377449,-222.061783,1608.800546
3043.754875,-8438.347739,296.082377,229.828649
3043.755212,-11029.068536,-370.102971,1225.752797
3043.755549,-10510.924376,296.082377,1302.362347
3043.755887,-8734.430116,-740.205942,919.314598
3043.756224,-10732.986159,666.185348,1149.143247
3043.756561,-10732.986159,370.102971,229.828649
3043.756899,-11843.295072,-370.102971,0.000000
3043.757236,-9622.677246,-962.267725,-919.314598
3043.757573,-8956.491898,-1332.370696,153.219100
3043.757911,-10807.006753,-1110.308913,306.438199
3043.758248,-8956.491898,-148.041188,-306.438199
3043.758585,-9400.615463,0.000000,-689.485948
3043.758923,-9844.739029,222.061783,0.000000
3043.759260,-10881.027347,-1332.370696,459.657299
3043.759597,-11917.315666,-1036.288319,1762.019645
3043.759935,-8808.450710,0.000000,1915.238745
3043.760272,-9178.553681,0.000000,1915.238745
3043.760609,-9400.615463,962.267725,2145.067394
3043.760946,-10288.862594,-666.185348,1532.190996
3043.761284,-10288.862594,518.144159,689.485948
3043.761621,-7624.121203,740.205942,-76.609550
3043.761958,-9178.553681,740.205942,-536.266849
3043.762296,-11103.089130,1258.350101,0.000000
3043.762633,-12139.377449,0.000000,-1991.848295
3043.762970,-9918.759623,1480.411884,-2757.943793
3043.763308,-7402.059420,222.061783,-1378.971896
3043.763645,-9326.594869,-518.144159,0.000000
3043.763982,-9918.759623,-962.267725,-2374.896044
3043.764320,-9622.677246,-3182.885551,-1532.190996
3043.764657,-9918.759623,-2146.597232,-383.047749
3043.764994,-10436.903782,-1480.411884,0.000000
3043.765331,-11843.295072,-740.205942,-1685.410096
3043.765669,-9548.656652,-1776.494261,-3140.991542
3043.766006,-10288.862594,-3849.070898,-1838.629195
3043.766343,-10362.883188,-2368.659014,-306.438199
3043.766681,-8068.244768,-1776.494261,0.000000
3043.767018,-10510.924376,-888.247130,459.657299
3043.767355,-11251.130318,0.000000,306.438199
3043.767693,-12361.439231,-1110.308913,0.000000
3043.768030,-11991.336260,-962.267725,1915.238745
3043.768367,-9326.594869,-148.041188,3983.696590
3043.768705,-9474.636058,592.164754,3294.210641
3043.769042,-10436.903782,1110.308913,1149.143247
3043.769380,-11251.130318,222.061783,383.047749
3043.769717,-10955.047942,518.144159,612.876398
3043.770054,-9400.615463,1036.288319,842.705048
3043.770392,-8882.471304,1480.411884,459.657299
3043.770729,-7698.141797,2368.659014,0.000000
3043.771066,-9622.677246,370.102971,76.609550
3043.771404,-11917.315666,740.205942,306.438199
3043.771741,-9400.615463,1258.350101,459.657299
3043.772078,-9844.739029,1036.288319,689.485948
3043.772416,-10362.883188,-222.061783,766.095498
3043.772753,-9474.636058,-1998.556043,1991.848295
3043.773090,-9400.615463,-518.144159,2681.334243
3043.773428,-8290.306550,-666.185348,2911.162892
3043.773765,-9326.594869,1036.288319,1532.190996
3043.774102,-10732.986159,1776.494261,-306.438199
3043.774440,-11621.233289,666.185348,-536.266849
3043.774777,-10584.944971,666.185348,-612.876398
3043.775114,-9326.594869,-296.082377,766.095498
3043.775452,-9622.677246,0.000000,1149.143247
3043.775789,-8438.347739,-592.164754,-153.219100
3043.776127,-8882.471304,-2368.659014,1072.533697
3043.776464,-10807.006753,-2294.638420,2374.896044
3043.776801,-10140.821405,-814.226536,2221.676944
3043.777139,-11399.171507,-370.102971,766.095498
3043.777476,-10140.821405,0.000000,-1608.800546
3043.777813,-9474.636058,-2146.597232,-1838.629195
3043.778151,-10288.862594,-1628.453072,-1149.143247
3043.778488,-9548.656652,-2294.638420,-842.705048
3043.778825,-10436.903782,-1184.329507,-1608.800546
3043.779163,-9104.533087,-1332.370696,-3983.696590
3043.779500,-10140.821405,-2368.659014,-2681.334243
3043.779837,-11769.274478,-3330.926739,-306.438199
3043.780175,-8808.450710,-2146.597232,459.657299
3043.780512,-8956.491898,-814.226536,689.485948
3043.780849,-9918.759623,0.000000,689.485948
3043.781187,-11917.315666,-814.226536,1915.238745
3043.781524,-12509.480420,-888.247130,1455.581446
3043.781862,-9992.780217,148.041188,1608.800546
3043.782199,-10066.800811,1554.432478,1915.238745
3043.782536,-10436.903782,1776.494261,-306.438199
3043.782874,-10584.944971,444.123565,-1455.581446
3043.783211,-9252.574275,2072.576638,-1225.752797
3043.783548,-7846.182985,2442.679609,-536.266849
3043.783886,-9474.636058,2516.700203,-919.314598
3043.784223,-8808.450710,2368.659014,-1378.971896
3043.784560,-9844.739029,-148.041188,0.000000
3043.784898,-9844.739029,1110.308913,1225.752797
3043.785235,-9696.697840,1036.288319,1762.019645
3043.785572,-11029.068536,1406.391290,612.876398
3043.785910,-8660.409521,370.102971,-2145.067394
3043.786247,-9992.780217,-2294.638420,-383.047749
3043.786584,-9548.656652,-2072.576638,766.095498
3043.786922,-7920.203579,-2442.679609,1072.533697
3043.787259,-9474.636058,-1998.556043,766.095498
3043.787596,-8586.388927,-592.164754,-1685.410096
3043.787934,-10510.924376,-1998.556043,0.000000
3043.788271,-11029.068536,-1924.535449,153.219100
3043.788609,-7550.100608,-1480.411884,1991.848295
3043.788946,-10140.821405,-222.061783,3140.991542
3043.789283,-11177.109724,0.000000,1532.190996
3043.789621,-12731.542202,-1924.535449,1608.800546
3043.789958,-13545.768739,-1480.411884,2451.505594
3043.790295,-10584.944971,-1776.494261,3294.210641
3043.790633,-11177.109724,444.123565,2834.553343
3043.790970,-9400.615463,74.020594,536.266849
3043.791307,-9844.739029,-1554.432478,-612.876398
3043.791645,-10807.006753,-2146.597232,306.438199
3043.791982,-9770.718434,-592.164754,459.657299
3043.792319,-10732.986159,1850.514855,536.266849
3043.792657,-10436.903782,2072.576638,-1762.019645
3043.792994,-11621.233289,0.000000,-1838.629195
3043.793331,-10807.006753,-1332.370696,-1149.143247
3043.793669,-8216.285956,-1998.556043,2068.457845
3043.794006,-7994.224174,-962.267725,3294.210641
3043.794343,-9178.553681,-148.041188,1685.410096
3043.794681,-11177.109724,-1480.411884,306.438199
3043.795018,-10955.047942,-592.164754,383.047749
3043.795356,-8586.388927,-296.082377,1378.971896
3043.795693,-8808.450710,1628.453072,1762.019645
3043.796030,-7846.182985,2886.803174,76.609550
3043.796368,-10214.842000,1110.308913,-1532.190996
3043.796705,-10584.944971,1702.473667,-842.705048
3043.797042,-8586.388927,740.205942,612.876398
3043.797380,-11029.068536,1406.391290,1762.019645
3043.797717,-8808.450710,1702.473667,-229.828649
3043.798054,-9696.697840,222.061783,-1072.533697
3043.798392,-10658.965565,0.000000,-995.924147
3043.798729,-9030.512492,-222.061783,-995.924147
3043.799066,-10288.862594,1036.288319,0.000000
3043.799404,-10955.047942,1110.308913,-2528.115143
3043.799741,-11843.295072,-666.185348,-3447.429741
3043.800078,-11399.171507,-370.102971,-3524.039291
3043.800416,-8808.450710,-2368.659014,-995.924147
3043.800753,-9770.718434,-1850.514855,153.219100
3043.801091,-9252.574275,-1480.411884,-1149.143247
3043.801428,-11251.130318,-2072.576638,-153.219100
3043.801765,-11843.295072,-2294.638420,-1072.533697
3043.802103,-9770.718434,-3034.844362,-383.047749
3043.802440,-11843.295072,-1924.535449,2298.286494
3043.802777,-10066.800811,-1776.494261,2068.457845
3043.803115,-9696.697840,-1924.535449,-76.609550
3043.803452,-9992.780217,-444.123565,919.314598
3043.803789,-8882.471304,-1110.308913,1838.629195
3043.804127,-10584.944971,-592.164754,2451.505594
3043.804464,-10362.883188,-444.123565,3677.258390
3043.804801,-10140.821405,222.061783,1915.238745
3043.805139,-10881.027347,74.020594,2068.457845
3043.805476,-10436.903782,444.123565,1762.019645
3043.805813,-9178.553681,1036.288319,995.924147
3043.806151,-8734.430116,1332.370696,306.438199
3043.806488,-9696.697840,592.164754,-76.609550
3043.806825,-10584.944971,1702.473667,-459.657299
3043.807163,-9252.574275,444.123565,76.609550
3043.807500,-9474.636058,148.041188,842.705048
3043.807838,-9474.636058,962.267725,1991.848295
3043.808175,-10362.883188,962.267725,1762.019645
3043.808512,-10658.965565,888.247130,1532.190996
3043.808850,-10807.006753,-962.267725,2451.505594
3043.809187,-10436.903782,-222.061783,2451.505594
3043.809524,-10362.883188,-222.061783,2911.162892
3043.809862,-11399.171507,-1110.308913,2528.115143
3043.810199,-9030.512492,0.000000,459.657299
3043.810536,-8660.409521,0.000000,766.095498
3043.810874,-9770.718434,592.164754,536.266849
3043.811211,-9474.636058,1258.350101,-1225.752797
3043.811548,-11103.089130,-666.185348,-1762.019645
3043.811886,-10510.924376,-592.164754,-2757.943793
3043.812223,-9326.594869,-1628.453072,-919.314598
3043.812560,-9104.533087,-1776.494261,-536.266849
3043.812898,-8142.265362,-1702.473667,153.219100
3043.813235,-10436.903782,-2146.597232,-919.314598
3043.813572,-11399.171507,-1184.329507,-1762.019645
3043.813910,-10881.027347,-2368.659014,-1532.190996
3043.814247,-10807.006753,-1332.370696,-1225.752797
3043.814585,-9400.615463,-814.226536,-766.095498
3043.814922,-10658.965565,-1554.432478,-1455.581446
3043.815259,-10362.883188,-370.102971,-2451.505594
3043.815597,-9844.739029,-1406.391290,-2451.505594
3043.815934,-11399.171507,-1480.411884,-995.924147
3043.816271,-9622.677246,-296.082377,612.876398
3043.816609,-10658.965565,-296.082377,1149.143247
3043.816946,-10362.883188,740.205942,612.876398
3043.817283,-9696.697840,592.164754,689.485948
3043.817621,-11399.171507,962.267725,2451.505594
3043.817958,-10362.883188,2590.720797,2528.115143
3043.818295,-11029.068536,2960.823768,1532.190996
3043.818633,-11399.171507,3627.009116,919.314598
3043.818970,-10362.883188,1480.411884,-306.438199
3043.819307,-9622.677246,2294.638420,-229.828649
3043.819645,-6661.853478,888.247130,459.657299
3043.819982,-8438.347739,0.000000,1991.848295
3043.820319,-8882.471304,666.185348,383.047749
3043.820657,-9252.574275,666.185348,-919.314598
3043.820994,-9252.574275,1332.370696,-1685.410096
3043.821332,-7402.059420,0.000000,-1838.629195
3043.821669,-9326.594869,-222.061783,-536.266849
3043.822006,-9474.636058,-222.061783,-919.314598
3043.822344,-8068.244768,-1776.494261,229.828649
3043.822681,-10288.862594,-1480.411884,1378.971896
3043.823018,-10214.842000,-1776.494261,1455.581446
3043.823356,-11843.295072,-2220.617826,2987.772442
3043.823693,-10436.903782,-1628.453072,2374.896044
3043.824030,-9474.636058,-1036.288319,2221.676944
3043.824368,-12139.377449,-1258.350101,2374.896044
3043.824705,-11917.315666,-2738.761985,1072.533697
3043.825042,-11621.233289,-1184.329507,1762.019645
3043.825380,-10510.924376,444.123565,1532.190996
3043.825717,-10807.006753,-74.020594,1608.800546
3043.826054,-12065.356855,-222.061783,919.314598
3043.826392,-12139.377449,-222.061783,0.000000
3043.826729,-11843.295072,-1332.370696,-612.876398
3043.827067,-9844.739029,-1554.432478,153.219100
3043.827404,-8956.491898,-2072.576638,842.705048
3043.827741,-9992.780217,-1702.473667,0.000000
3043.828079,-8068.244768,-1184.329507,-2068.457845
3043.828416,-10214.842000,-2442.679609,-1225.752797
3043.828753,-10140.821405,-740.205942,-229.828649
3043.829091,-8438.347739,518.144159,-1608.800546
3043.829428,-10510.924376,814.226536,-1532.190996
3043.829765,-8734.430116,-444.123565,-1762.019645
