#time,accel_x,accel_y,accel_z
2797.585113,-9474.636058,-666.185348,-3140.991542
2797.585451,-8512.368333,-1850.514855,-2221.676944
2797.585789,-8734.430116,-2738.761985,-995.924147
2797.586126,-8882.471304,-2886.803174,306.438199
2797.586464,-8882.471304,-2146.597232,-612.876398
2797.586802,-9030.512492,0.000000,-689.485948
2797.587139,-10584.944971,0.000000,-842.705048
2797.587477,-11251.130318,814.226536,-612.876398
2797.587815,-10214.842000,0.000000,-1532.190996
2797.588152,-10140.821405,148.041188,-766.095498
2797.588490,-9696.697840,-296.082377,0.000000
2797.588828,-10288.862594,-1776.494261,766.095498
2797.589166,-10288.862594,-1850.514855,919.314598
2797.589503,-10658.965565,-1036.288319,1225.752797
2797.589841,-9770.718434,296.082377,919.314598
2797.590179,-10807.006753,1332.370696,153.219100
2797.590516,-11177.109724,888.247130,-766.095498
2797.590854,-11843.295072,592.164754,-1072.533697
2797.591192,-10658.965565,888.247130,-1685.410096
2797.591529,-9474.636058,888.247130,-1915.238745
2797.591867,-9770.718434,-888.247130,-2221.676944
2797.592205,-10807.006753,-2368.659014,-1608.800546
2797.592542,-10288.862594,-2812.782580,-2145.067394
2797.592880,-9400.615463,-2220.617826,-1762.019645
2797.593218,-9400.615463,-1998.556043,-1149.143247
2797.593555,-9770.718434,-2368.659014,-1915.238745
2797.593893,-10362.883188,-2516.700203,-2604.724693
2797.594231,-9548.656652,-1924.535449,-1455.581446
2797.594568,-8734.430116,-1110.308913,-76.609550
2797.594906,-8512.368333,-74.020594,-536.266849
2797.595244,-9622.677246,-1184.329507,0.000000
2797.595582,-10436.903782,-740.205942,0.000000
2797.595919,-10140.821405,-1480.411884,1302.362347
2797.596257,-10214.842000,-370.102971,2911.162892
2797.596595,-9992.780217,-148.041188,1915.238745
2797.596932,-10066.800811,-370.102971,306.438199
2797.597270,-10214.842000,-148.041188,153.219100
2797.597608,-9548.656652,-592.164754,0.000000
2797.597945,-9622.677246,518.144159,76.609550
2797.598283,-10510.924376,592.164754,-1378.971896
2797.598621,-11029.068536,1184.329507,-3677.258390
2797.598958,-10955.047942,-962.267725,-3983.696590
2797.599296,-10288.862594,-1628.453072,-2451.505594
2797.599634,-9252.574275,-3701.029710,-383.047749
2797.599971,-9252.574275,-3552.988522,229.828649
2797.600309,-9770.718434,-4293.194464,76.609550
2797.600647,-9844.739029,-4441.235652,306.438199
2797.600985,-9030.512492,-3034.844362,536.266849
2797.601322,-9770.718434,-2960.823768,1225.752797
2797.601660,-10881.027347,-2220.617826,612.876398
2797.601998,-10214.842000,-2220.617826,0.000000
2797.602335,-10436.903782,-2664.741391,919.314598
2797.602673,-9770.718434,-2368.659014,1608.800546
2797.603011,-10658.965565,-2886.803174,2298.286494
2797.603348,-10584.944971,-3108.864956,1608.800546
2797.603686,-9770.718434,-2442.679609,536.266849
2797.604024,-9622.677246,-2590.720797,1302.362347
2797.604361,-9474.636058,-1924.535449,766.095498
2797.604699,-9030.512492,-888.247130,766.095498
2797.605037,-9918.759623,592.164754,689.485948
2797.605374,-10584.944971,1258.350101,459.657299
2797.605712,-11325.150913,1628.453072,689.485948
2797.606050,-11473.192101,1184.329507,1149.143247
2797.606387,-11103.089130,222.061783,383.047749
2797.606725,-10066.800811,-518.144159,229.828649
2797.607063,-9992.780217,-1184.329507,459.657299
2797.607401,-9178.553681,-1258.350101,0.000000
2797.607738,-9030.512492,-1702.473667,-995.924147
2797.608076,-8882.471304,-222.061783,-1225.752797
2797.608413,-9030.512492,222.061783,-1455.581446
2797.608751,-9696.697840,1332.370696,-995.924147
2797.609088,-10214.842000,2294.638420,-306.438199
2797.609425,-10140.821405,2294.638420,842.705048
2797.609763,-10362.883188,2664.741391,1608.800546
2797.610100,-10584.944971,2886.803174,2681.334243
2797.610437,-10362.883188,1702.473667,2145.067394
2797.610775,-9918.759623,370.102971,1532.190996
2797.611112,-9770.718434,222.061783,919.314598
2797.611449,-9548.656652,296.082377,612.876398
2797.611786,-9918.759623,1110.308913,-995.924147
2797.612124,-9400.615463,962.267725,-2911.162892
2797.612461,-9178.553681,1924.535449,-4290.134789
2797.612798,-8734.430116,1702.473667,-3447.429741
2797.613136,-10510.924376,1406.391290,-1991.848295
2797.613473,-9992.780217,592.164754,-995.924147
2797.613810,-10510.924376,666.185348,229.828649
2797.614148,-11251.130318,0.000000,1685.410096
2797.614485,-10955.047942,-814.226536,1072.533697
2797.614822,-11251.130318,-1480.411884,2374.896044
2797.615160,-11325.150913,-1776.494261,1608.800546
2797.615497,-10214.842000,-1480.411884,766.095498
2797.615834,-10732.986159,-222.061783,459.657299
2797.616172,-10436.903782,-222.061783,-1149.143247
2797.616509,-9844.739029,222.061783,-1302.362347
2797.616846,-9474.636058,1036.288319,0.000000
2797.617184,-9622.677246,814.226536,689.485948
2797.617521,-10140.821405,296.082377,1838.629195
2797.617858,-10510.924376,74.020594,2987.772442
2797.618196,-10362.883188,370.102971,3753.867940
2797.618533,-10362.883188,1036.288319,3600.648841
2797.618870,-10436.903782,888.247130,3140.991542
2797.619208,-10066.800811,1184.329507,1915.238745
2797.619545,-9400.615463,1110.308913,536.266849
2797.619882,-9104.533087,592.164754,-689.485948
2797.620220,-8882.471304,74.020594,-1532.190996
2797.620557,-9548.656652,-296.082377,-1915.238745
2797.620894,-8882.471304,-962.267725,-2068.457845
2797.621232,-9178.553681,-1184.329507,-1455.581446
2797.621569,-9252.574275,-1776.494261,-153.219100
2797.621906,-9326.594869,-1480.411884,842.705048
2797.622244,-9770.718434,-2294.638420,689.485948
2797.622581,-9696.697840,-1332.370696,766.095498
2797.622918,-10510.924376,-1110.308913,1762.019645
2797.623256,-10955.047942,-518.144159,1532.190996
2797.623593,-10436.903782,-1258.350101,612.876398
2797.623930,-10658.965565,-1480.411884,612.876398
2797.624267,-10881.027347,-1480.411884,383.047749
2797.624605,-10214.842000,-1702.473667,-536.266849
2797.624942,-10807.006753,-2368.659014,536.266849
2797.625279,-10510.924376,-1702.473667,-383.047749
2797.625617,-10658.965565,-1702.473667,-1838.629195
2797.625954,-10658.965565,-1776.494261,-1532.190996
2797.626291,-9474.636058,-2072.576638,-2298.286494
2797.626629,-9622.677246,-2146.597232,-1225.752797
2797.626966,-9474.636058,-1776.494261,-1072.533697
2797.627303,-9474.636058,-962.267725,-766.095498
2797.627641,-10214.842000,-1406.391290,-383.047749
2797.627978,-10436.903782,-1776.494261,-306.438199
2797.628315,-10140.821405,-2146.597232,-383.047749
2797.628653,-10140.821405,-2368.659014,229.828649
2797.628990,-9918.759623,-2664.741391,1532.190996
2797.629327,-9548.656652,-2294.638420,459.657299
2797.629665,-9696.697840,-2146.597232,0.000000
2797.630002,-9400.615463,-666.185348,-612.876398
2797.630339,-9770.718434,-592.164754,0.000000
2797.630677,-9770.718434,592.164754,1302.362347
2797.631014,-9844.739029,740.205942,1685.410096
2797.631351,-10436.903782,2664.741391,2681.334243
2797.631689,-11103.089130,2960.823768,2987.772442
2797.632026,-11103.089130,3256.906145,3524.039291
2797.632363,-11251.130318,2072.576638,3217.601092
2797.632701,-10436.903782,2812.782580,2451.505594
2797.633038,-10288.862594,1628.453072,2374.896044
2797.633375,-8956.491898,1480.411884,995.924147
2797.633713,-9030.512492,1480.411884,153.219100
2797.634050,-9548.656652,1628.453072,-766.095498
2797.634387,-9918.759623,1110.308913,-1838.629195
2797.634725,-9992.780217,1110.308913,-2374.896044
2797.635062,-9770.718434,444.123565,-2528.115143
2797.635399,-8734.430116,-740.205942,-995.924147
2797.635737,-8808.450710,-962.267725,612.876398
2797.636074,-8882.471304,-1258.350101,1302.362347
2797.636411,-9252.574275,-888.247130,919.314598
2797.636749,-10658.965565,-1184.329507,1302.362347
2797.637086,-11251.130318,-444.123565,689.485948
2797.637423,-10807.006753,-814.226536,1532.190996
2797.637760,-10881.027347,-1036.288319,689.485948
2797.638098,-9770.718434,-1184.329507,-383.047749
2797.638435,-10288.862594,-518.144159,-306.438199
2797.638772,-10362.883188,-370.102971,-459.657299
2797.639110,-9992.780217,-518.144159,-612.876398
2797.639447,-9992.780217,-592.164754,-612.876398
2797.639784,-10362.883188,0.000000,0.000000
2797.640122,-10658.965565,444.123565,536.266849
2797.640459,-10362.883188,444.123565,229.828649
2797.640796,-10214.842000,814.226536,612.876398
2797.641134,-10362.883188,444.123565,229.828649
2797.641471,-11325.150913,592.164754,0.000000
2797.641808,-11103.089130,74.020594,-1378.971896
2797.642146,-9696.697840,-888.247130,-1302.362347
2797.642483,-9326.594869,-962.267725,-1302.362347
2797.642820,-9474.636058,-2072.576638,-612.876398
2797.643158,-9252.574275,-1332.370696,-842.705048
2797.643495,-9326.594869,-1480.411884,-919.314598
2797.643832,-9770.718434,-1480.411884,76.609550
2797.644170,-9326.594869,-1702.473667,229.828649
2797.644507,-9918.759623,-740.205942,1532.190996
2797.644844,-9992.780217,0.000000,2298.286494
2797.645182,-9474.636058,296.082377,2145.067394
2797.645519,-9770.718434,222.061783,2834.553343
2797.645856,-10362.883188,296.082377,1915.238745
2797.646194,-10732.986159,-370.102971,2145.067394
2797.646531,-11103.089130,-888.247130,1608.800546
2797.646868,-9992.780217,-666.185348,689.485948
2797.647206,-10066.800811,-1110.308913,-76.609550
2797.647543,-9918.759623,-1776.494261,-1378.971896
2797.647880,-8956.491898,-1776.494261,-1915.238745
2797.648218,-9178.553681,-1480.411884,-2221.676944
2797.648555,-9844.739029,-1850.514855,-689.485948
2797.648892,-10066.800811,-1480.411884,-766.095498
2797.649230,-10807.006753,-1184.329507,0.000000
2797.649567,-10807.006753,-1110.308913,612.876398
2797.649904,-10732.986159,-1554.432478,459.657299
2797.650241,-11029.068536,-2368.659014,1225.752797
2797.650579,-10955.047942,-2812.782580,1532.190996
2797.650916,-10288.862594,-2886.803174,612.876398
2797.651253,-10140.821405,-2294.638420,459.657299
2797.651591,-10140.821405,-2368.659014,153.219100
2797.651928,-9548.656652,-1110.308913,-459.657299
2797.652265,-9178.553681,-962.267725,-995.924147
2797.652603,-9178.553681,740.205942,0.000000
2797.652940,-9770.718434,444.123565,536.266849
2797.653277,-10066.800811,1406.391290,842.705048
2797.653615,-10214.842000,1480.411884,1378.971896
2797.653952,-10436.903782,1998.556043,2528.115143
2797.654289,-10140.821405,2368.659014,1915.238745
2797.654627,-10436.903782,1776.494261,919.314598
2797.654964,-9474.636058,1332.370696,536.266849
2797.655301,-9252.574275,1332.370696,76.609550
2797.655639,-9400.615463,1184.329507,-306.438199
2797.655976,-9548.656652,1258.350101,-1225.752797
2797.656313,-9548.656652,1036.288319,-1838.629195
2797.656651,-9474.636058,888.247130,-2987.772442
2797.656988,-9030.512492,1406.391290,-2145.067394
2797.657325,-9770.718434,814.226536,153.219100
2797.657663,-9844.739029,148.041188,459.657299
2797.658000,-9548.656652,370.102971,1455.581446
2797.658337,-10584.944971,518.144159,2374.896044
2797.658675,-10955.047942,296.082377,2451.505594
2797.659012,-11325.150913,0.000000,2604.724693
2797.659349,-11029.068536,74.020594,2068.457845
2797.659687,-11029.068536,-444.123565,1302.362347
2797.660024,-9622.677246,148.041188,383.047749
2797.660361,-10066.800811,0.000000,0.000000
2797.660699,-10362.883188,-592.164754,-383.047749
2797.661036,-9696.697840,-296.082377,-1608.800546
2797.661373,-9770.718434,74.020594,-995.924147
2797.661711,-10140.821405,-962.267725,-1072.533697
2797.662048,-9696.697840,-1406.391290,-383.047749
2797.662385,-9696.697840,-1480.411884,306.438199
2797.662722,-9770.718434,-444.123565,842.705048
2797.663060,-10436.903782,-592.164754,536.266849
2797.663397,-11177.109724,-1628.453072,229.828649
2797.663734,-10436.903782,-1184.329507,-536.266849
2797.664072,-10658.965565,-1924.535449,229.828649
2797.664409,-10288.862594,-1776.494261,229.828649
2797.664746,-9474.636058,-2072.576638,-612.876398
2797.665084,-10066.800811,-1480.411884,229.828649
2797.665421,-9622.677246,-1776.494261,-306.438199
2797.665758,-9474.636058,-888.247130,229.828649
2797.666096,-9918.759623,-592.164754,1072.533697
2797.666433,-10214.842000,-296.082377,2068.457845
2797.666770,-9844.739029,1480.411884,2145.067394
2797.667108,-10510.924376,1998.556043,2834.553343
2797.667445,-10362.883188,1998.556043,2834.553343
2797.667782,-10584.944971,814.226536,1532.190996
2797.668120,-10214.842000,1036.288319,1225.752797
2797.668457,-9918.759623,592.164754,995.924147
2797.668794,-9252.574275,-222.061783,306.438199
2797.669132,-9178.553681,222.061783,-459.657299
2797.669469,-9474.636058,-370.102971,-1762.019645
2797.669806,-9548.656652,148.041188,-2681.334243
2797.670144,-9770.718434,0.000000,-2911.162892
2797.670481,-9770.718434,-1258.350101,-3140.991542
2797.670818,-9400.615463,-1702.473667,-1991.848295
2797.671156,-9326.594869,-2072.576638,-383.047749
2797.671493,-9252.574275,-1702.473667,995.924147
2797.671830,-9918.759623,-1554.432478,1149.143247
2797.672168,-11029.068536,-1628.453072,1532.190996
2797.672505,-11547.212695,-1998.556043,1302.362347
2797.672842,-11399.171507,-1702.473667,1149.143247
2797.673180,-11177.109724,-1702.473667,1532.190996
2797.673517,-10584.944971,-1850.514855,689.485948
2797.673854,-10066.800811,-1110.308913,-459.657299
2797.674192,-10140.821405,-518.144159,-229.828649
2797.674529,-10066.800811,-222.061783,-536.266849
2797.674866,-9918.759623,-148.041188,-383.047749
2797.675203,-10584.944971,-444.123565,383.047749
2797.675541,-10362.883188,888.247130,766.095498
2797.675878,-10362.883188,814.226536,1455.581446
2797.676215,-10066.800811,740.205942,1915.238745
2797.676553,-10140.821405,592.164754,1072.533697
2797.676890,-10807.006753,888.247130,919.314598
2797.677227,-10214.842000,592.164754,-383.047749
2797.677565,-9474.636058,0.000000,-766.095498
2797.677902,-9178.553681,0.000000,-459.657299
2797.678239,-9474.636058,0.000000,-383.047749
2797.678577,-9104.533087,518.144159,-536.266849
2797.678914,-9400.615463,0.000000,-1378.971896
2797.679251,-9622.677246,518.144159,-383.047749
2797.679589,-9770.718434,222.061783,842.705048
2797.679926,-9622.677246,1702.473667,2068.457845
2797.680263,-9696.697840,1776.494261,2451.505594
2797.680601,-9622.677246,1924.535449,2374.896044
2797.680938,-9992.780217,2960.823768,2374.896044
2797.681275,-11029.068536,1998.556043,2145.067394
2797.681613,-10881.027347,1924.535449,1455.581446
2797.681950,-10436.903782,666.185348,459.657299
2797.682287,-10658.965565,222.061783,383.047749
2797.682625,-9918.759623,962.267725,-1608.800546
2797.682962,-9474.636058,-296.082377,-2298.286494
2797.683299,-8882.471304,-592.164754,-2221.676944
2797.683637,-8438.347739,-740.205942,-2374.896044
2797.683974,-9474.636058,-962.267725,-383.047749
2797.684311,-9918.759623,-740.205942,-766.095498
2797.684649,-10362.883188,-666.185348,-536.266849
2797.684986,-11177.109724,-888.247130,306.438199
2797.685323,-10807.006753,-1554.432478,612.876398
2797.685661,-10955.047942,-1776.494261,1532.190996
2797.685998,-10807.006753,-2368.659014,1532.190996
2797.686335,-10214.842000,-2442.679609,919.314598
2797.686673,-10140.821405,-3034.844362,153.219100
2797.687010,-10658.965565,-2072.576638,229.828649
2797.687347,-9992.780217,-962.267725,-306.438199
2797.687684,-9918.759623,-740.205942,0.000000
2797.688022,-9696.697840,222.061783,612.876398
2797.688359,-9844.739029,0.000000,1378.971896
2797.688696,-10436.903782,666.185348,1838.629195
2797.689034,-10436.903782,1184.329507,1991.848295
2797.689371,-10510.924376,1258.350101,2451.505594
2797.689708,-10584.944971,1554.432478,2221.676944
2797.690046,-10140.821405,1406.391290,1378.971896
2797.690383,-9622.677246,222.061783,689.485948
2797.690720,-9400.615463,0.000000,76.609550
2797.691058,-9252.574275,0.000000,-459.657299
2797.691395,-9474.636058,370.102971,-1149.143247
2797.691732,-9252.574275,-296.082377,-2528.115143
2797.692070,-9030.512492,-666.185348,-2221.676944
2797.692407,-9178.553681,-148.041188,-1378.971896
2797.692744,-8660.409521,148.041188,-229.828649
2797.693082,-10288.862594,-1184.329507,766.095498
2797.693419,-9474.636058,-888.247130,689.485948
2797.693756,-10066.800811,-592.164754,1991.848295
2797.694094,-10658.965565,-1184.329507,2451.505594
2797.694431,-10658.965565,-370.102971,1685.410096
2797.694768,-10658.965565,-1258.350101,1455.581446
2797.695106,-10955.047942,-740.205942,229.828649
2797.695443,-9696.697840,-666.185348,-306.438199
2797.695780,-10510.924376,-518.144159,-536.266849
2797.696118,-10362.883188,-888.247130,-1762.019645
2797.696455,-10066.800811,-592.164754,-2374.896044
2797.696792,-10066.800811,-666.185348,-1302.362347
2797.697130,-9770.718434,-1258.350101,-1685.410096
2797.697467,-10066.800811,-1184.329507,0.000000
2797.697804,-10140.821405,-1406.391290,0.000000
2797.698142,-10214.842000,-814.226536,306.438199
2797.698479,-10436.903782,-518.144159,-153.219100
2797.698816,-11103.089130,-1406.391290,0.000000
2797.699154,-10436.903782,-1332.370696,-612.876398
2797.699491,-9770.718434,-1924.535449,153.219100
2797.699828,-9622.677246,-962.267725,689.485948
2797.700165,-10214.842000,-1258.350101,0.000000
2797.700503,-9474.636058,-888.247130,0.000000
2797.700840,-9474.636058,-888.247130,-229.828649
2797.701177,-9474.636058,0.000000,536.266849
2797.701515,-9770.718434,740.205942,2298.286494
2797.701852,-10214.842000,1776.494261,2834.553343
2797.702189,-9992.780217,1776.494261,2834.553343
2797.702527,-10214.842000,3404.947333,2374.896044
2797.702864,-10362.883188,3330.926739,3064.381992
2797.703201,-11251.130318,2442.679609,1915.238745
2797.703539,-10066.800811,2294.638420,766.095498
2797.703876,-9844.739029,1850.514855,1149.143247
2797.704213,-9252.574275,888.247130,919.314598
2797.704551,-9400.615463,1184.329507,229.828649
2797.704888,-10140.821405,296.082377,-459.657299
2797.705225,-9474.636058,1406.391290,-2374.896044
2797.705563,-9474.636058,740.205942,-2681.334243
2797.705900,-10066.800811,148.041188,-2068.457845
2797.706237,-9474.636058,-592.164754,-995.924147
2797.706575,-9696.697840,-1332.370696,153.219100
2797.706912,-9252.574275,-518.144159,1072.533697
2797.707249,-9992.780217,-962.267725,1225.752797
2797.707587,-11103.089130,-1036.288319,1762.019645
2797.707924,-11103.089130,-1628.453072,1455.581446
2797.708261,-10881.027347,-1406.391290,1915.238745
2797.708599,-10955.047942,-1110.308913,1072.533697
2797.708936,-10732.986159,-1702.473667,306.438199
2797.709273,-10214.842000,-1036.288319,-306.438199
2797.709611,-9770.718434,-1110.308913,-1378.971896
2797.709948,-9474.636058,-296.082377,-995.924147
2797.710285,-9696.697840,-592.164754,-459.657299
2797.710623,-10510.924376,-148.041188,76.609550
2797.710960,-10066.800811,-592.164754,-76.609550
2797.711297,-10658.965565,740.205942,1149.143247
2797.711635,-10288.862594,370.102971,689.485948
2797.711972,-10807.006753,0.000000,1149.143247
2797.712309,-10436.903782,-814.226536,612.876398
2797.712647,-10066.800811,0.000000,-153.219100
2797.712984,-9992.780217,-1110.308913,-766.095498
2797.713322,-9474.636058,-1184.329507,-919.314598
2797.713659,-9400.615463,-962.267725,-689.485948
2797.713996,-9474.636058,0.000000,-1225.752797
2797.714334,-9178.553681,-518.144159,-995.924147
2797.714671,-9030.512492,-370.102971,-383.047749
2797.715008,-9770.718434,-444.123565,995.924147
2797.715346,-10066.800811,-222.061783,1608.800546
2797.715683,-9918.759623,1036.288319,3140.991542
2797.716020,-9770.718434,592.164754,2298.286494
2797.716358,-10362.883188,1184.329507,2604.724693
2797.716695,-10436.903782,296.082377,2374.896044
2797.717033,-10288.862594,1110.308913,1225.752797
2797.717370,-10362.883188,0.000000,689.485948
2797.717707,-10732.986159,0.000000,0.000000
2797.718045,-10140.821405,-444.123565,-1072.533697
2797.718382,-9400.615463,-888.247130,-1838.629195
2797.718719,-8808.450710,-1110.308913,-2068.457845
2797.719057,-9104.533087,-1850.514855,-2221.676944
2797.719394,-9548.656652,-2072.576638,-383.047749
2797.719731,-9844.739029,-1406.391290,0.000000
2797.720069,-10214.842000,-1036.288319,612.876398
2797.720406,-10658.965565,-1332.370696,306.438199
2797.720744,-11177.109724,-1628.453072,1378.971896
2797.721081,-11177.109724,-2294.638420,1378.971896
2797.721418,-11029.068536,-2146.597232,1149.143247
2797.721756,-10436.903782,-2590.720797,766.095498
2797.722093,-9844.739029,-2738.761985,306.438199
2797.722430,-10436.903782,-1924.535449,459.657299
2797.722768,-10658.965565,-1258.350101,0.000000
2797.723105,-9400.615463,-296.082377,-306.438199
2797.723442,-9622.677246,0.000000,-306.438199
2797.723780,-10288.862594,592.164754,842.705048
2797.724117,-10066.800811,1036.288319,1378.971896
2797.724455,-10288.862594,1480.411884,2298.286494
2797.724792,-10362.883188,1702.473667,1838.629195
2797.725129,-10140.821405,1924.535449,1302.362347
2797.725467,-10214.842000,1554.432478,536.266849
2797.725804,-9770.718434,1480.411884,-383.047749
2797.726141,-9326.594869,518.144159,-153.219100
2797.726479,-9104.533087,296.082377,-919.314598
2797.726816,-9252.574275,666.185348,-1608.800546
2797.727153,-9400.615463,666.185348,-2221.676944
2797.727491,-9400.615463,592.164754,-1762.019645
2797.727828,-8956.491898,0.000000,-1225.752797
2797.728166,-9548.656652,592.164754,229.828649
2797.728503,-9548.656652,222.061783,1302.362347
2797.728840,-9918.759623,962.267725,995.924147
2797.729178,-10362.883188,444.123565,1838.629195
2797.729515,-10955.047942,370.102971,2681.334243
2797.729852,-10732.986159,296.082377,2068.457845
2797.730190,-11103.089130,0.000000,1532.190996
2797.730527,-10658.965565,0.000000,842.705048
2797.730864,-10214.842000,-148.041188,-459.657299
2797.731202,-10362.883188,148.041188,-229.828649
2797.731539,-10436.903782,0.000000,-612.876398
2797.731877,-9992.780217,0.000000,-1378.971896
2797.732214,-9548.656652,-888.247130,-1838.629195
2797.732551,-10140.821405,-444.123565,-1455.581446
2797.732889,-9770.718434,-1184.329507,0.000000
2797.733226,-9992.780217,-962.267725,0.000000
2797.733563,-9844.739029,-888.247130,536.266849
2797.733901,-10510.924376,-1184.329507,229.828649
2797.734238,-10658.965565,-1406.391290,459.657299
2797.734575,-10584.944971,-2072.576638,0.000000
2797.734913,-9770.718434,-2146.597232,536.266849
2797.735250,-9770.718434,-1998.556043,0.000000
2797.735588,-9474.636058,-1628.453072,0.000000
2797.735925,-9770.718434,-1480.411884,-306.438199
2797.736262,-10066.800811,-962.267725,383.047749
2797.736600,-9548.656652,-1258.350101,153.219100
2797.736937,-9918.759623,148.041188,1608.800546
2797.737274,-10362.883188,888.247130,2451.505594
2797.737612,-10288.862594,1110.308913,2374.896044
2797.737949,-9992.780217,2220.617826,2145.067394
2797.738286,-10140.821405,1998.556043,2451.505594
2797.738624,-10658.965565,2072.576638,2145.067394
2797.738961,-10881.027347,1406.391290,1302.362347
2797.739299,-9844.739029,888.247130,459.657299
2797.739636,-9104.533087,-444.123565,536.266849
2797.739973,-9104.533087,222.061783,-689.485948
2797.740311,-9622.677246,0.000000,-842.705048
2797.740648,-9918.759623,-518.144159,-2298.286494
2797.740985,-8734.430116,-370.102971,-3524.039291
2797.741323,-9696.697840,-592.164754,-2528.115143
2797.741660,-9844.739029,-1480.411884,-1072.533697
2797.741997,-8956.491898,-1924.535449,-383.047749
2797.742335,-9252.574275,-2220.617826,995.924147
2797.742672,-9770.718434,-1184.329507,1225.752797
2797.743010,-10584.944971,-1998.556043,1225.752797
2797.743347,-11325.150913,-2664.741391,1915.238745
2797.743684,-10732.986159,-1702.473667,1532.190996
2797.744022,-10955.047942,-2072.576638,1685.410096
2797.744359,-11103.089130,-1406.391290,536.266849
2797.744696,-10066.800811,-1036.288319,-612.876398
2797.745034,-10214.842000,-888.247130,-229.828649
2797.745371,-9474.636058,-814.226536,-1455.581446
2797.745708,-9770.718434,-296.082377,-995.924147
2797.746046,-10362.883188,0.000000,-306.438199
2797.746383,-10362.883188,-296.082377,76.609550
2797.746721,-10140.821405,444.123565,689.485948
2797.747058,-10510.924376,444.123565,919.314598
2797.747395,-11251.130318,296.082377,1608.800546
2797.747733,-10955.047942,-370.102971,689.485948
2797.748070,-10140.821405,-74.020594,229.828649
2797.748407,-9548.656652,-814.226536,0.000000
2797.748745,-9696.697840,-740.205942,-306.438199
2797.749082,-9548.656652,-222.061783,-766.095498
2797.749419,-9104.533087,-592.164754,-1532.190996
2797.749757,-8956.491898,0.000000,-612.876398
2797.750094,-9030.512492,0.000000,-76.609550
2797.750432,-9696.697840,0.000000,689.485948
2797.750769,-9548.656652,814.226536,2068.457845
2797.751106,-9474.636058,1628.453072,2298.286494
2797.751444,-9548.656652,1776.494261,2451.505594
2797.751781,-10066.800811,1628.453072,2757.943793
2797.752118,-10807.006753,1554.432478,2604.724693
2797.752456,-10955.047942,814.226536,1455.581446
2797.752793,-10140.821405,1110.308913,306.438199
2797.753130,-10510.924376,592.164754,-153.219100
2797.753468,-10288.862594,-592.164754,-995.924147
2797.753805,-9178.553681,-518.144159,-2451.505594
2797.754143,-8586.388927,-814.226536,-2451.505594
2797.754480,-9400.615463,-740.205942,-1915.238745
2797.754817,-9474.636058,-962.267725,-1608.800546
2797.755155,-10436.903782,-1110.308913,-306.438199
2797.755492,-10140.821405,-518.144159,-306.438199
2797.755829,-10807.006753,-962.267725,459.657299
2797.756167,-11399.171507,-1628.453072,1685.410096
2797.756504,-11473.192101,-2146.597232,1072.533697
2797.756841,-10881.027347,-2294.638420,1915.238745
2797.757179,-10436.903782,-2664.741391,1072.533697
2797.757516,-9992.780217,-2590.720797,459.657299
2797.757854,-10436.903782,-2294.638420,153.219100
2797.758191,-10066.800811,-1628.453072,-76.609550
2797.758528,-9178.553681,-148.041188,-995.924147
2797.758866,-9400.615463,-592.164754,-612.876398
2797.759203,-10214.842000,444.123565,689.485948
2797.759540,-10066.800811,222.061783,1455.581446
2797.759878,-10362.883188,1332.370696,2145.067394
2797.760215,-10362.883188,888.247130,2374.896044
2797.760552,-10362.883188,1036.288319,2068.457845
2797.760890,-10288.862594,888.247130,1532.190996
2797.761227,-9844.739029,74.020594,919.314598
2797.761565,-9400.615463,222.061783,383.047749
2797.761902,-9474.636058,74.020594,-919.314598
2797.762239,-9548.656652,-74.020594,-1378.971896
2797.762577,-9474.636058,74.020594,-2374.896044
2797.762914,-8956.491898,-296.082377,-2145.067394
2797.763251,-9474.636058,0.000000,-995.924147
2797.763589,-9030.512492,-370.102971,-229.828649
2797.763926,-9770.718434,-148.041188,1149.143247
2797.764263,-9548.656652,74.020594,1838.629195
2797.764601,-10362.883188,222.061783,2221.676944
2797.764938,-11251.130318,-222.061783,3600.648841
2797.765276,-11325.150913,-444.123565,2528.115143
2797.765613,-10881.027347,-296.082377,1455.581446
2797.765950,-10214.842000,-444.123565,1225.752797
2797.766288,-10214.842000,-888.247130,0.000000
2797.766625,-9622.677246,-1036.288319,-1225.752797
2797.766962,-10066.800811,-222.061783,-1915.238745
2797.767300,-9622.677246,0.000000,-2451.505594
2797.767637,-10066.800811,-962.267725,-1991.848295
2797.767974,-9696.697840,-962.267725,-766.095498
2797.768312,-9844.739029,-1480.411884,-919.314598
2797.768649,-10066.800811,-518.144159,536.266849
2797.768987,-10288.862594,-1406.391290,536.266849
2797.769324,-10584.944971,-1332.370696,229.828649
2797.769661,-10955.047942,-2072.576638,689.485948
2797.769999,-10658.965565,-1480.411884,229.828649
2797.770336,-10288.862594,-1998.556043,0.000000
2797.770673,-9844.739029,-2072.576638,-306.438199
2797.771011,-9696.697840,-1628.453072,-689.485948
2797.771348,-9548.656652,-888.247130,-383.047749
2797.771685,-9474.636058,-740.205942,-76.609550
2797.772023,-9400.615463,-444.123565,306.438199
2797.772360,-10436.903782,148.041188,1838.629195
2797.772698,-9696.697840,2146.597232,2604.724693
2797.773035,-11177.109724,1406.391290,3064.381992
2797.773372,-10140.821405,2220.617826,2757.943793
2797.773710,-10436.903782,2368.659014,2604.724693
2797.774047,-11029.068536,1924.535449,2681.334243
2797.774384,-9770.718434,1184.329507,919.314598
2797.774722,-9548.656652,1406.391290,1149.143247
2797.775059,-9474.636058,370.102971,536.266849
2797.775396,-8882.471304,592.164754,-229.828649
2797.775734,-9474.636058,1184.329507,-1455.581446
2797.776071,-9400.615463,518.144159,-2681.334243
2797.776409,-9252.574275,518.144159,-2911.162892
2797.776746,-9918.759623,-370.102971,-1991.848295
2797.777083,-9474.636058,-444.123565,-919.314598
2797.777421,-9548.656652,-740.205942,536.266849
2797.777758,-9844.739029,-1036.288319,1149.143247
2797.778095,-9696.697840,-1258.350101,1608.800546
2797.778433,-10732.986159,-2072.576638,1072.533697
2797.778770,-11251.130318,-1702.473667,2298.286494
2797.779107,-10955.047942,-1258.350101,1378.971896
2797.779445,-10732.986159,-1332.370696,1378.971896
2797.779782,-10658.965565,-1036.288319,306.438199
2797.780120,-9992.780217,-888.247130,-766.095498
2797.780457,-10066.800811,-666.185348,-689.485948
2797.780794,-9474.636058,-962.267725,-766.095498
2797.781132,-9400.615463,-740.205942,-459.657299
2797.781469,-9918.759623,0.000000,153.219100
2797.781806,-10658.965565,444.123565,459.657299
2797.782144,-9770.718434,-148.041188,459.657299
2797.782481,-10288.862594,0.000000,766.095498
2797.782818,-10732.986159,-222.061783,1225.752797
2797.783156,-10955.047942,-518.144159,995.924147
2797.783493,-9770.718434,-1184.329507,-612.876398
2797.783831,-9474.636058,-1406.391290,-229.828649
2797.784168,-9696.697840,-888.247130,-383.047749
2797.784505,-9548.656652,-296.082377,-1225.752797
2797.784843,-9548.656652,-666.185348,-1149.143247
2797.785180,-9400.615463,0.000000,-995.924147
2797.785517,-9326.594869,-370.102971,0.000000
2797.785855,-10066.800811,296.082377,1838.629195
2797.786192,-9992.780217,592.164754,2681.334243
2797.786529,-10066.800811,1110.308913,2834.553343
2797.786867,-10214.842000,1998.556043,3140.991542
2797.787204,-10066.800811,1406.391290,2528.115143
2797.787542,-10807.006753,962.267725,3140.991542
2797.787879,-10510.924376,296.082377,1532.190996
2797.788216,-9992.780217,814.226536,612.876398
2797.788554,-10214.842000,666.185348,-76.609550
2797.788891,-10288.862594,-444.123565,-1608.800546
2797.789228,-8660.409521,0.000000,-3217.601092
2797.789566,-9030.512492,-962.267725,-2834.553343
2797.789903,-9104.533087,-592.164754,-2145.067394
2797.790240,-9030.512492,-1554.432478,-1149.143247
2797.790578,-9622.677246,-666.185348,0.000000
2797.790915,-10362.883188,-1480.411884,76.609550
2797.791253,-10807.006753,-666.185348,1149.143247
2797.791590,-11177.109724,-1258.350101,1991.848295
2797.791927,-11621.233289,-1702.473667,1378.971896
2797.792265,-10732.986159,-2664.741391,919.314598
2797.792602,-10362.883188,-1924.535449,689.485948
2797.792939,-10362.883188,-2146.597232,766.095498
2797.793277,-10066.800811,-1554.432478,-153.219100
2797.793614,-10066.800811,-1332.370696,-689.485948
2797.793951,-9844.739029,-296.082377,-689.485948
2797.794289,-9622.677246,-296.082377,-306.438199
2797.794626,-10288.862594,592.164754,689.485948
2797.794964,-10214.842000,666.185348,1685.410096
2797.795301,-10362.883188,1480.411884,1838.629195
2797.795638,-10214.842000,1628.453072,2374.896044
2797.795976,-10510.924376,1184.329507,1838.629195
2797.796313,-10584.944971,888.247130,1149.143247
2797.796650,-9844.739029,0.000000,689.485948
2797.796988,-9252.574275,740.205942,76.609550
2797.797325,-9252.574275,0.000000,-689.485948
2797.797662,-9474.636058,74.020594,-1225.752797
2797.798000,-8956.491898,0.000000,-2221.676944
2797.798337,-9030.512492,222.061783,-1685.410096
2797.798675,-9178.553681,592.164754,-536.266849
2797.799012,-9400.615463,0.000000,0.000000
2797.799349,-9770.718434,0.000000,1532.190996
2797.799687,-9992.780217,518.144159,2681.334243
2797.800024,-10732.986159,740.205942,2528.115143
2797.800361,-11177.109724,444.123565,2987.772442
2797.800699,-11103.089130,-370.102971,2374.896044
2797.801036,-10584.944971,-296.082377,1532.190996
2797.801373,-10436.903782,-592.164754,1225.752797
2797.801711,-10436.903782,-370.102971,76.609550
2797.802048,-10140.821405,-740.205942,-842.705048
2797.802386,-9474.636058,-222.061783,-1685.410096
2797.802723,-9918.759623,-296.082377,-1915.238745
2797.803060,-9622.677246,-740.205942,-1991.848295
2797.803398,-9696.697840,-962.267725,-1302.362347
2797.803735,-9992.780217,-1480.411884,-459.657299
2797.804072,-9992.780217,-1036.288319,0.000000
2797.804410,-10436.903782,-888.247130,459.657299
2797.804747,-10881.027347,-1554.432478,229.828649
2797.805084,-10584.944971,-2294.638420,383.047749
2797.805422,-10658.965565,-2516.700203,306.438199
2797.805759,-10436.903782,-2072.576638,0.000000
2797.806097,-9696.697840,-2294.638420,-153.219100
2797.806434,-9992.780217,-1850.514855,-689.485948
2797.806771,-9622.677246,-1406.391290,-995.924147
2797.807109,-9622.677246,-666.185348,0.000000
2797.807446,-9548.656652,0.000000,383.047749
2797.807783,-9696.697840,0.000000,1072.533697
2797.808121,-9844.739029,814.226536,1838.629195
2797.808458,-10584.944971,1850.514855,2834.553343
2797.808795,-10510.924376,2812.782580,2451.505594
2797.809133,-11177.109724,2368.659014,2374.896044
2797.809470,-11029.068536,1850.514855,2068.457845
2797.809808,-9992.780217,1554.432478,689.485948
2797.810145,-9474.636058,1258.350101,919.314598
2797.810482,-9178.553681,444.123565,229.828649
2797.810819,-9252.574275,-74.020594,-612.876398
2797.811157,-9474.636058,1036.288319,-1532.190996
2797.811494,-9474.636058,962.267725,-1915.238745
2797.811831,-9622.677246,444.123565,-2528.115143
2797.812168,-8956.491898,-740.205942,-2374.896044
2797.812505,-10140.821405,-370.102971,-766.095498
2797.812843,-9548.656652,-1184.329507,1378.971896
2797.813180,-9400.615463,-666.185348,1608.800546
2797.813517,-9844.739029,-1332.370696,1991.848295
2797.813854,-10584.944971,-1554.432478,2298.286494
2797.814191,-11325.150913,-1258.350101,1915.238745
2797.814529,-10881.027347,-1258.350101,1838.629195
2797.814866,-10436.903782,-1184.329507,919.314598
2797.815203,-10436.903782,-1184.329507,153.219100
2797.815540,-9622.677246,-888.247130,-536.266849
2797.815877,-9622.677246,-296.082377,-1455.581446
2797.816215,-9622.677246,-444.123565,-1378.971896
2797.816552,-9844.739029,-740.205942,-1225.752797
2797.816889,-9696.697840,74.020594,0.000000
2797.817226,-10510.924376,222.061783,919.314598
2797.817563,-10362.883188,222.061783,766.095498
2797.817901,-10584.944971,74.020594,689.485948
2797.818238,-11103.089130,-74.020594,1302.362347
2797.818575,-10807.006753,74.020594,536.266849
2797.818912,-10140.821405,-814.226536,0.000000
2797.819249,-9622.677246,-962.267725,-383.047749
2797.819587,-9548.656652,-1110.308913,-383.047749
2797.819924,-9252.574275,-444.123565,-1378.971896
2797.820261,-9474.636058,0.000000,-1302.362347
2797.820598,-9326.594869,-444.123565,-766.095498
2797.820935,-9474.636058,-296.082377,0.000000
2797.821273,-9918.759623,222.061783,1608.800546
2797.821610,-9992.780217,592.164754,2681.334243
2797.821947,-10140.821405,1036.288319,2451.505594
2797.822284,-10436.903782,1628.453072,3217.601092
2797.822621,-10288.862594,1924.535449,2681.334243
2797.822959,-10066.800811,1036.288319,2221.676944
2797.823296,-10807.006753,814.226536,1608.800546
2797.823633,-9918.759623,1184.329507,0.000000
2797.823970,-10436.903782,0.000000,-306.438199
2797.824307,-10362.883188,370.102971,-1838.629195
2797.824645,-8660.409521,222.061783,-3600.648841
2797.824982,-9178.553681,-814.226536,-2911.162892
2797.825319,-9252.574275,-1110.308913,-2451.505594
2797.825656,-9400.615463,-1184.329507,-1378.971896
2797.825993,-9844.739029,-592.164754,-459.657299
2797.826331,-10510.924376,-814.226536,383.047749
2797.826668,-10881.027347,-1184.329507,383.047749
2797.827005,-11621.233289,-1332.370696,1685.410096
2797.827342,-11325.150913,-1924.535449,1532.190996
2797.827679,-10436.903782,-2442.679609,1149.143247
2797.828017,-10436.903782,-2590.720797,766.095498
2797.828354,-10066.800811,-2516.700203,306.438199
2797.828691,-10214.842000,-1776.494261,-459.657299
2797.829028,-10066.800811,-814.226536,-1225.752797
2797.829365,-9548.656652,-888.247130,-1532.190996
2797.829703,-9548.656652,0.000000,383.047749
2797.830040,-9992.780217,222.061783,689.485948
2797.830377,-9992.780217,296.082377,1378.971896
2797.830714,-10288.862594,888.247130,1762.019645
2797.831051,-10066.800811,1332.370696,2681.334243
2797.831389,-10955.047942,1184.329507,2221.676944
2797.831726,-10362.883188,518.144159,1149.143247
2797.832063,-10288.862594,222.061783,995.924147
2797.832400,-9770.718434,-296.082377,76.609550
2797.832737,-9400.615463,444.123565,-919.314598
2797.833075,-9178.553681,-296.082377,-1838.629195
2797.833412,-9326.594869,-370.102971,-1608.800546
2797.833749,-8808.450710,0.000000,-1532.190996
2797.834086,-9178.553681,74.020594,-536.266849
2797.834423,-9844.739029,296.082377,459.657299
2797.834761,-9474.636058,444.123565,1149.143247
2797.835098,-10510.924376,666.185348,2987.772442
2797.835435,-10214.842000,740.205942,3064.381992
2797.835772,-11251.130318,296.082377,3447.429741
2797.836109,-11325.150913,74.020594,3217.601092
2797.836447,-10436.903782,74.020594,2145.067394
2797.836784,-10510.924376,0.000000,1225.752797
2797.837121,-9844.739029,-370.102971,306.438199
2797.837458,-9622.677246,-518.144159,-536.266849
2797.837795,-9696.697840,-148.041188,-1915.238745
2797.838133,-9770.718434,-444.123565,-2298.286494
2797.838470,-9252.574275,-370.102971,-2604.724693
2797.838807,-10140.821405,-444.123565,-1072.533697
2797.839144,-10214.842000,-518.144159,-229.828649
2797.839481,-9844.739029,-962.267725,0.000000
2797.839819,-10214.842000,-518.144159,0.000000
2797.840156,-10362.883188,-1554.432478,766.095498
2797.840493,-10584.944971,-2146.597232,0.000000
2797.840830,-10955.047942,-2368.659014,229.828649
2797.841167,-10066.800811,-2072.576638,-459.657299
2797.841504,-9992.780217,-1702.473667,-459.657299
2797.841842,-9992.780217,-1406.391290,-1302.362347
2797.842179,-9918.759623,-1110.308913,-612.876398
2797.842516,-8956.491898,-666.185348,-1072.533697
2797.842853,-9178.553681,-148.041188,383.047749
2797.843190,-10584.944971,666.185348,1608.800546
2797.843528,-10288.862594,1332.370696,2068.457845
2797.843865,-10214.842000,2294.638420,2911.162892
2797.844202,-10881.027347,1776.494261,2681.334243
2797.844539,-10584.944971,1924.535449,2221.676944
2797.844876,-10288.862594,814.226536,2374.896044
2797.845214,-10214.842000,1184.329507,1532.190996
2797.845551,-8808.450710,0.000000,383.047749
2797.845888,-9474.636058,740.205942,229.828649
2797.846225,-9548.656652,296.082377,-1225.752797
2797.846562,-9252.574275,222.061783,-2451.505594
2797.846900,-9400.615463,592.164754,-2145.067394
2797.847237,-8956.491898,-296.082377,-2987.772442
2797.847574,-9622.677246,-592.164754,-1532.190996
2797.847911,-10066.800811,-814.226536,76.609550
2797.848248,-9696.697840,-962.267725,1455.581446
2797.848586,-10362.883188,-444.123565,2528.115143
2797.848923,-10658.965565,-1776.494261,2221.676944
2797.849260,-10658.965565,-1850.514855,2145.067394
2797.849597,-11103.089130,-2072.576638,2145.067394
2797.849934,-10658.965565,-888.247130,1685.410096
2797.850272,-10732.986159,-1036.288319,842.705048
2797.850609,-10807.006753,-1110.308913,-383.047749
2797.850946,-9918.759623,-740.205942,-1149.143247
2797.851283,-9918.759623,-518.144159,-1072.533697
2797.851620,-9622.677246,-740.205942,-1072.533697
2797.851958,-10140.821405,-666.185348,-306.438199
2797.852295,-10066.800811,-740.205942,76.609550
2797.852632,-9622.677246,444.123565,0.000000
2797.852969,-10955.047942,-296.082377,1762.019645
2797.853306,-10362.883188,148.041188,1455.581446
2797.853644,-10807.006753,-740.205942,306.438199
2797.853981,-10732.986159,-962.267725,306.438199
2797.854318,-9252.574275,-1184.329507,-612.876398
2797.854655,-9622.677246,-1184.329507,-689.485948
2797.854992,-9844.739029,-1332.370696,-995.924147
2797.855330,-9104.533087,-814.226536,-1838.629195
2797.855667,-9474.636058,148.041188,-1532.190996
2797.856004,-9252.574275,-666.185348,-1455.581446
2797.856341,-9474.636058,222.061783,0.000000
2797.856678,-9918.759623,0.000000,1378.971896
2797.857016,-9474.636058,1110.308913,2604.724693
2797.857353,-9992.780217,1702.473667,2757.943793
2797.857690,-10732.986159,1480.411884,3064.381992
2797.858027,-10362.883188,1184.329507,2451.505594
2797.858364,-9918.759623,962.267725,1991.848295
2797.858702,-10066.800811,1110.308913,1685.410096
2797.859039,-10066.800811,1036.288319,383.047749
2797.859376,-10066.800811,444.123565,-1378.971896
2797.859713,-9622.677246,0.000000,-1685.410096
2797.860050,-8882.471304,370.102971,-3140.991542
2797.860388,-8882.471304,0.000000,-3064.381992
2797.860725,-9252.574275,-1332.370696,-1762.019645
2797.861062,-9326.594869,-962.267725,-842.705048
2797.861399,-9548.656652,-888.247130,306.438199
2797.861736,-10362.883188,-592.164754,1302.362347
2797.862074,-11251.130318,-1480.411884,1762.019645
2797.862411,-11769.274478,-1850.514855,2221.676944
2797.862748,-11325.150913,-1480.411884,2068.457845
2797.863085,-10807.006753,-2294.638420,1455.581446
2797.863422,-9844.739029,-2590.720797,1149.143247
2797.863760,-10066.800811,-2220.617826,689.485948
2797.864097,-10288.862594,-1184.329507,76.609550
2797.864434,-9918.759623,0.000000,-1608.800546
2797.864771,-9992.780217,-296.082377,-842.705048
2797.865108,-10140.821405,518.144159,-612.876398
2797.865446,-9844.739029,0.000000,766.095498
2797.865783,-10584.944971,1258.350101,1991.848295
2797.866120,-10214.842000,1184.329507,1762.019645
2797.866457,-10510.924376,888.247130,2374.896044
2797.866794,-10881.027347,1036.288319,1762.019645
2797.867132,-10288.862594,518.144159,689.485948
2797.867469,-10214.842000,962.267725,383.047749
2797.867806,-9844.739029,-740.205942,-689.485948
2797.868143,-8734.430116,0.000000,-1685.410096
2797.868480,-8882.471304,-444.123565,-3140.991542
2797.868818,-9326.594869,-222.061783,-2068.457845
2797.869155,-8808.450710,-74.020594,-2298.286494
2797.869492,-9622.677246,-222.061783,-153.219100
2797.869829,-9548.656652,-518.144159,459.657299
2797.870166,-9252.574275,222.061783,1072.533697
2797.870504,-10140.821405,518.144159,2528.115143
2797.870841,-10584.944971,-370.102971,3064.381992
2797.871178,-11547.212695,370.102971,2987.772442
2797.871515,-11177.109724,296.082377,2528.115143
2797.871852,-10955.047942,0.000000,1685.410096
2797.872190,-9992.780217,-962.267725,229.828649
2797.872527,-9696.697840,-814.226536,-689.485948
2797.872864,-9474.636058,-592.164754,-919.314598
2797.873201,-9474.636058,0.000000,-2145.067394
2797.873538,-9252.574275,-962.267725,-2528.115143
2797.873876,-9844.739029,-740.205942,-1378.971896
2797.874213,-9770.718434,-1406.391290,-153.219100
2797.874550,-10584.944971,-962.267725,76.609550
2797.874887,-10066.800811,-1036.288319,383.047749
2797.875224,-10510.924376,-1110.308913,842.705048
2797.875562,-11029.068536,-1850.514855,919.314598
2797.875899,-10881.027347,-2072.576638,459.657299
2797.876236,-9992.780217,-2368.659014,0.000000
2797.876573,-10362.883188,-2738.761985,0.000000
2797.876910,-9770.718434,-1702.473667,-689.485948
2797.877248,-9548.656652,-2294.638420,-919.314598
2797.877585,-10066.800811,-740.205942,-229.828649
2797.877922,-9622.677246,-740.205942,-229.828649
2797.878259,-9548.656652,0.000000,1072.533697
2797.878596,-9844.739029,740.205942,2604.724693
2797.878933,-10362.883188,1036.288319,2451.505594
2797.879271,-10955.047942,2294.638420,3217.601092
2797.879608,-11029.068536,1554.432478,3294.210641
2797.879945,-10732.986159,1998.556043,2757.943793
2797.880282,-10658.965565,1554.432478,1378.971896
2797.880619,-9696.697840,962.267725,1072.533697
2797.880957,-8808.450710,148.041188,76.609550
2797.881294,-9326.594869,370.102971,-459.657299
2797.881631,-9400.615463,888.247130,-1608.800546
2797.881968,-9548.656652,740.205942,-2911.162892
2797.882305,-9030.512492,962.267725,-2911.162892
2797.882643,-9326.594869,-592.164754,-1838.629195
2797.882980,-9252.574275,-518.144159,-1149.143247
2797.883317,-9770.718434,-740.205942,383.047749
2797.883654,-10362.883188,-1036.288319,1762.019645
2797.883991,-9992.780217,-1036.288319,1915.238745
2797.884329,-10658.965565,-1554.432478,2528.115143
2797.884666,-10955.047942,-1554.432478,2374.896044
2797.885003,-10362.883188,-1776.494261,1302.362347
2797.885340,-10214.842000,-1258.350101,766.095498
2797.885677,-10658.965565,-962.267725,-306.438199
2797.886015,-10214.842000,-888.247130,-919.314598
2797.886352,-9992.780217,-592.164754,-1149.143247
2797.886689,-9770.718434,-666.185348,-1532.190996
2797.887026,-9252.574275,-370.102971,-842.705048
2797.887363,-9918.759623,-666.185348,153.219100
2797.887701,-10214.842000,-888.247130,536.266849
2797.888038,-10066.800811,-222.061783,689.485948
2797.888375,-10362.883188,-222.061783,612.876398
2797.888712,-10658.965565,222.061783,536.266849
2797.889049,-11399.171507,-296.082377,306.438199
2797.889387,-10510.924376,-296.082377,0.000000
2797.889724,-9696.697840,-1702.473667,-995.924147
2797.890061,-9474.636058,-592.164754,0.000000
2797.890398,-9696.697840,-888.247130,-689.485948
2797.890735,-9548.656652,-962.267725,-1378.971896
2797.891073,-9104.533087,-444.123565,-919.314598
2797.891410,-9474.636058,0.000000,459.657299
2797.891747,-10140.821405,0.000000,995.924147
2797.892084,-9548.656652,0.000000,1838.629195
2797.892421,-9992.780217,1332.370696,2987.772442
2797.892759,-9992.780217,2072.576638,3370.820191
2797.893096,-10436.903782,1480.411884,2681.334243
2797.893433,-10510.924376,1110.308913,2681.334243
2797.893770,-9474.636058,592.164754,1915.238745
2797.894107,-9548.656652,1110.308913,1225.752797
2797.894445,-10436.903782,296.082377,0.000000
2797.894782,-9696.697840,296.082377,-842.705048
2797.895119,-10362.883188,-148.041188,-1915.238745
2797.895456,-8586.388927,-592.164754,-2757.943793
2797.895793,-8956.491898,0.000000,-2451.505594
2797.896131,-9696.697840,-1036.288319,-1532.190996
2797.896468,-9474.636058,-1184.329507,-383.047749
2797.896805,-9474.636058,-1480.411884,-153.219100
2797.897142,-10362.883188,-1184.329507,919.314598
2797.897479,-11325.150913,-1480.411884,1455.581446
2797.897817,-11843.295072,-2072.576638,1149.143247
2797.898154,-10955.047942,-2146.597232,1302.362347
2797.898491,-10362.883188,-2516.700203,919.314598
2797.898828,-10140.821405,-2516.700203,1149.143247
2797.899165,-10658.965565,-1850.514855,229.828649
2797.899503,-10436.903782,-1628.453072,-689.485948
2797.899840,-9770.718434,-888.247130,-1532.190996
2797.900177,-9770.718434,0.000000,-995.924147
2797.900514,-10066.800811,0.000000,-153.219100
2797.900851,-9918.759623,0.000000,229.828649
2797.901189,-9770.718434,962.267725,919.314598
2797.901526,-10510.924376,962.267725,1838.629195
2797.901863,-10510.924376,1184.329507,1302.362347
2797.902200,-10436.903782,0.000000,1225.752797
2797.902537,-10584.944971,518.144159,766.095498
2797.902875,-9844.739029,296.082377,0.000000
2797.903212,-9992.780217,444.123565,-612.876398
2797.903549,-9104.533087,148.041188,-2068.457845
2797.903886,-9030.512492,-592.164754,-2221.676944
2797.904223,-9326.594869,-148.041188,-1838.629195
2797.904561,-8586.388927,148.041188,-1915.238745
2797.904898,-9474.636058,-518.144159,0.000000
2797.905235,-9844.739029,0.000000,1072.533697
2797.905572,-9474.636058,148.041188,1915.238745
2797.905909,-10288.862594,1110.308913,3294.210641
2797.906247,-11103.089130,592.164754,3600.648841
2797.906584,-11177.109724,592.164754,2757.943793
2797.906921,-11325.150913,444.123565,2604.724693
2797.907258,-10732.986159,296.082377,1685.410096
2797.907595,-10436.903782,0.000000,689.485948
2797.907933,-10140.821405,0.000000,-153.219100
2797.908270,-9400.615463,-592.164754,-1608.800546
2797.908607,-9104.533087,-370.102971,-2221.676944
2797.908944,-9252.574275,-740.205942,-2068.457845
2797.909281,-9844.739029,-1184.329507,-1149.143247
2797.909619,-9844.739029,-1036.288319,0.000000
2797.909956,-9992.780217,-518.144159,-306.438199
2797.910293,-10436.903782,-370.102971,536.266849
2797.910630,-10436.903782,-1184.329507,995.924147
2797.910967,-11251.130318,-1850.514855,842.705048
2797.911305,-10807.006753,-2146.597232,995.924147
2797.911642,-10066.800811,-2368.659014,459.657299
2797.911979,-10658.965565,-1850.514855,153.219100
2797.912316,-10066.800811,-2368.659014,-766.095498
2797.912653,-9326.594869,-1258.350101,-1072.533697
2797.912990,-9326.594869,-1036.288319,76.609550
2797.913327,-9474.636058,-370.102971,229.828649
2797.913664,-9474.636058,0.000000,766.095498
2797.914002,-9918.759623,1036.288319,1991.848295
2797.914339,-9918.759623,1628.453072,2528.115143
2797.914676,-10732.986159,2368.659014,2528.115143
2797.915013,-10955.047942,1998.556043,2987.772442
2797.915350,-10658.965565,1924.535449,1685.410096
2797.915687,-10214.842000,1332.370696,919.314598
2797.916024,-9844.739029,962.267725,766.095498
2797.916361,-8882.471304,1110.308913,-383.047749
2797.916698,-9178.553681,518.144159,-1149.143247
2797.917036,-9474.636058,592.164754,-1838.629195
2797.917373,-9252.574275,1110.308913,-2834.553343
2797.917710,-9400.615463,518.144159,-2681.334243
2797.918047,-9622.677246,-518.144159,-1762.019645
2797.918384,-9474.636058,-74.020594,-766.095498
2797.918721,-10140.821405,-592.164754,612.876398
2797.919058,-10140.821405,-370.102971,1991.848295
2797.919395,-9770.718434,-1480.411884,1378.971896
2797.919732,-10436.903782,-1850.514855,2604.724693
2797.920070,-10658.965565,-1480.411884,1762.019645
2797.920407,-10732.986159,-1554.432478,1455.581446
2797.920744,-10732.986159,-1480.411884,766.095498
2797.921081,-10362.883188,-1110.308913,-689.485948
2797.921418,-10436.903782,-740.205942,-612.876398
2797.921755,-10140.821405,-222.061783,-1072.533697
2797.922092,-9918.759623,-1036.288319,-536.266849
2797.922429,-9918.759623,-1036.288319,-536.266849
2797.922766,-9770.718434,-962.267725,229.828649
2797.923104,-10436.903782,-370.102971,1149.143247
2797.923441,-10584.944971,-296.082377,995.924147
2797.923778,-10140.821405,-148.041188,919.314598
2797.924115,-11399.171507,-740.205942,1072.533697
2797.924452,-10658.965565,-518.144159,153.219100
2797.924789,-10362.883188,-1258.350101,0.000000
2797.925126,-10288.862594,-1184.329507,0.000000
2797.925463,-9178.553681,-1554.432478,-612.876398
2797.925800,-9844.739029,-962.267725,-383.047749
2797.926138,-9400.615463,-1184.329507,-1378.971896
2797.926475,-9178.553681,-1036.288319,-919.314598
2797.926812,-9474.636058,-444.123565,536.266849
2797.927149,-9474.636058,0.000000,1225.752797
2797.927486,-9844.739029,1184.329507,2987.772442
2797.927823,-9992.780217,1702.473667,2757.943793
2797.928160,-9992.780217,1776.494261,2757.943793
2797.928497,-10436.903782,1850.514855,2911.162892
2797.928834,-10510.924376,1258.350101,2374.896044
2797.929172,-10066.800811,1184.329507,1838.629195
2797.929509,-9622.677246,592.164754,995.924147
2797.929846,-9400.615463,1036.288319,-306.438199
2797.930183,-9844.739029,0.000000,-1455.581446
2797.930520,-9696.697840,370.102971,-1991.848295
2797.930857,-9474.636058,0.000000,-3140.991542
2797.931194,-9178.553681,-370.102971,-2528.115143
2797.931531,-9474.636058,-962.267725,-1685.410096
2797.931869,-9622.677246,-666.185348,-919.314598
2797.932206,-9918.759623,-1332.370696,229.828649
2797.932543,-10214.842000,-888.247130,536.266849
2797.932880,-11547.212695,-1554.432478,1685.410096
2797.933217,-11917.315666,-1184.329507,1455.581446
2797.933554,-11029.068536,-2516.700203,919.314598
2797.933891,-10955.047942,-2368.659014,1225.752797
2797.934228,-9770.718434,-2220.617826,842.705048
2797.934565,-10140.821405,-1332.370696,0.000000
2797.934903,-10362.883188,-740.205942,-1302.362347
2797.935240,-9548.656652,-370.102971,-2221.676944
2797.935577,-9770.718434,0.000000,-1532.190996
2797.935914,-10436.903782,0.000000,0.000000
2797.936251,-10140.821405,740.205942,842.705048
2797.936588,-10362.883188,370.102971,1149.143247
2797.936925,-9844.739029,1332.370696,1991.848295
2797.937262,-10066.800811,592.164754,1225.752797
2797.937599,-10732.986159,518.144159,1915.238745
2797.937937,-10436.903782,296.082377,689.485948
2797.938274,-9548.656652,222.061783,-612.876398
2797.938611,-9326.594869,592.164754,-1149.143247
2797.938948,-9030.512492,-222.061783,-2298.286494
2797.939285,-9252.574275,222.061783,-1685.410096
2797.939622,-9178.553681,-296.082377,-1378.971896
2797.939959,-8882.471304,296.082377,-1072.533697
2797.940296,-9104.533087,-592.164754,76.609550
2797.940633,-9844.739029,0.000000,1532.190996
2797.940971,-9770.718434,518.144159,2451.505594
2797.941308,-9992.780217,518.144159,3064.381992
2797.941645,-10510.924376,1702.473667,3907.087040
2797.941982,-11399.171507,444.123565,3064.381992
2797.942319,-11251.130318,888.247130,2221.676944
2797.942656,-10584.944971,1184.329507,2068.457845
2797.942993,-10881.027347,0.000000,995.924147
2797.943330,-9992.780217,0.000000,-383.047749
2797.943667,-9474.636058,-148.041188,-1915.238745
2797.944005,-9696.697840,-518.144159,-1302.362347
2797.944342,-8586.388927,-814.226536,-2145.067394
2797.944679,-9178.553681,-1628.453072,-306.438199
2797.945016,-10436.903782,-666.185348,0.000000
2797.945353,-10066.800811,-1184.329507,0.000000
2797.945690,-10881.027347,0.000000,766.095498
2797.946027,-10510.924376,-962.267725,689.485948
2797.946364,-11029.068536,-1702.473667,1455.581446
2797.946702,-10955.047942,-2442.679609,919.314598
2797.947039,-9992.780217,-2590.720797,229.828649
2797.947376,-10066.800811,-2220.617826,76.609550
2797.947713,-10436.903782,-2442.679609,-919.314598
2797.948050,-9326.594869,-1776.494261,-1455.581446
2797.948387,-9178.553681,-1554.432478,-1225.752797
2797.948724,-9548.656652,-148.041188,306.438199
2797.949061,-9844.739029,444.123565,842.705048
2797.949398,-10584.944971,962.267725,2221.676944
2797.949736,-10510.924376,1850.514855,2298.286494
2797.950073,-10658.965565,2368.659014,2987.772442
2797.950410,-11399.171507,2368.659014,2834.553343
2797.950747,-11103.089130,962.267725,2145.067394
2797.951084,-10362.883188,1184.329507,1072.533697
2797.951421,-9178.553681,666.185348,0.000000
2797.951758,-9178.553681,592.164754,-153.219100
2797.952095,-8956.491898,74.020594,-1532.190996
2797.952432,-9326.594869,814.226536,-2681.334243
2797.952770,-9030.512492,888.247130,-2604.724693
2797.953107,-9326.594869,518.144159,-3064.381992
2797.953444,-9548.656652,0.000000,-1685.410096
2797.953781,-9770.718434,-444.123565,-689.485948
2797.954118,-9548.656652,-814.226536,612.876398
2797.954455,-10140.821405,-740.205942,1455.581446
2797.954792,-10362.883188,-1258.350101,2298.286494
2797.955129,-10881.027347,-1480.411884,2374.896044
2797.955466,-10510.924376,-1702.473667,1991.848295
2797.955804,-10807.006753,-962.267725,1378.971896
2797.956141,-10584.944971,-888.247130,153.219100
2797.956478,-10584.944971,-962.267725,0.000000
2797.956815,-9844.739029,-222.061783,-1608.800546
2797.957152,-9770.718434,-592.164754,-1302.362347
2797.957489,-9918.759623,-74.020594,-689.485948
2797.957826,-9992.780217,-1184.329507,-919.314598
2797.958163,-10066.800811,-962.267725,306.438199
2797.958500,-9770.718434,-814.226536,842.705048
2797.958838,-10214.842000,-370.102971,1149.143247
2797.959175,-10881.027347,-370.102971,1302.362347
2797.959512,-11177.109724,-888.247130,766.095498
2797.959849,-10732.986159,-592.164754,0.000000
2797.960186,-10362.883188,-1110.308913,-459.657299
2797.960523,-9696.697840,-1332.370696,0.000000
2797.960860,-9400.615463,-1702.473667,-459.657299
2797.961197,-9474.636058,-1036.288319,-689.485948
2797.961534,-9474.636058,-666.185348,-689.485948
2797.961872,-9548.656652,-962.267725,0.000000
2797.962209,-9918.759623,-148.041188,1072.533697
2797.962546,-10214.842000,-148.041188,2298.286494
2797.962883,-9770.718434,962.267725,2911.162892
2797.963220,-10214.842000,1776.494261,3217.601092
2797.963557,-10584.944971,2072.576638,3370.820191
2797.963894,-10510.924376,1554.432478,2911.162892
2797.964231,-10658.965565,1702.473667,2451.505594
2797.964569,-10140.821405,1184.329507,1532.190996
2797.964906,-9622.677246,740.205942,459.657299
2797.965243,-9474.636058,518.144159,-383.047749
2797.965580,-9400.615463,222.061783,-1225.752797
2797.965917,-9252.574275,370.102971,-2298.286494
2797.966254,-9770.718434,296.082377,-2451.505594
2797.966591,-9104.533087,-592.164754,-2221.676944
2797.966928,-9326.594869,-592.164754,-1838.629195
2797.967265,-10140.821405,-740.205942,-383.047749
2797.967603,-10214.842000,-444.123565,306.438199
2797.967940,-10362.883188,-1184.329507,459.657299
2797.968277,-11325.150913,-1776.494261,1225.752797
2797.968614,-11251.130318,-1776.494261,766.095498
2797.968951,-10658.965565,-2294.638420,995.924147
2797.969288,-10288.862594,-1850.514855,995.924147
2797.969625,-10140.821405,-2516.700203,229.828649
2797.969962,-9548.656652,-888.247130,-536.266849
2797.970299,-9770.718434,-222.061783,-1532.190996
2797.970637,-10066.800811,-74.020594,-1608.800546
2797.970974,-9622.677246,0.000000,-1532.190996
2797.971311,-10510.924376,518.144159,76.609550
2797.971648,-10436.903782,888.247130,536.266849
2797.971985,-10288.862594,444.123565,919.314598
2797.972322,-10362.883188,444.123565,1685.410096
2797.972659,-9770.718434,592.164754,1762.019645
2797.972996,-10214.842000,0.000000,1149.143247
2797.973333,-10436.903782,296.082377,536.266849
2797.973671,-9844.739029,148.041188,-766.095498
2797.974008,-9770.718434,222.061783,-1225.752797
2797.974345,-9474.636058,-74.020594,-1991.848295
2797.974682,-8586.388927,296.082377,-1762.019645
2797.975019,-9178.553681,-296.082377,-1838.629195
2797.975356,-9104.533087,-370.102971,-153.219100
2797.975693,-9252.574275,-296.082377,689.485948
2797.976030,-9770.718434,0.000000,2068.457845
2797.976367,-10066.800811,222.061783,3217.601092
2797.976705,-10362.883188,296.082377,3524.039291
2797.977042,-10510.924376,1554.432478,3217.601092
2797.977379,-11029.068536,814.226536,3370.820191
2797.977716,-11029.068536,1110.308913,1838.629195
2797.978053,-10658.965565,666.185348,1608.800546
2797.978390,-10584.944971,-222.061783,1149.143247
2797.978727,-9622.677246,-222.061783,-919.314598
2797.979064,-9622.677246,-370.102971,-2221.676944
2797.979401,-9400.615463,-888.247130,-1762.019645
2797.979739,-8586.388927,-1850.514855,-1991.848295
2797.980076,-9400.615463,-1036.288319,-459.657299
2797.980413,-10140.821405,-1332.370696,153.219100
2797.980750,-10288.862594,-888.247130,0.000000
2797.981087,-10436.903782,-962.267725,229.828649
2797.981424,-10732.986159,-1406.391290,842.705048
2797.981761,-10955.047942,-1702.473667,689.485948
2797.982098,-10510.924376,-2738.761985,766.095498
2797.982436,-10807.006753,-2442.679609,229.828649
2797.982773,-9844.739029,-2812.782580,-459.657299
2797.983110,-10732.986159,-2590.720797,-689.485948
2797.983447,-9918.759623,-1702.473667,-1608.800546
2797.983784,-9474.636058,-1702.473667,-689.485948
2797.984121,-9770.718434,-370.102971,459.657299
2797.984458,-9622.677246,296.082377,536.266849
2797.984795,-10510.924376,962.267725,1378.971896
2797.985132,-11103.089130,1406.391290,2451.505594
2797.985470,-10658.965565,1628.453072,2374.896044
2797.985807,-11103.089130,2368.659014,2451.505594
2797.986144,-11325.150913,1036.288319,2221.676944
2797.986481,-10066.800811,592.164754,306.438199
2797.986818,-9030.512492,296.082377,536.266849
2797.987155,-8438.347739,148.041188,-306.438199
2797.987492,-9030.512492,444.123565,-1532.190996
2797.987829,-9770.718434,888.247130,-2834.553343
2797.988166,-9030.512492,814.226536,-3140.991542
2797.988504,-9104.533087,370.102971,-2757.943793
2797.988841,-9622.677246,518.144159,-1302.362347
2797.989178,-9844.739029,-518.144159,0.000000
2797.989515,-9844.739029,0.000000,1225.752797
2797.989852,-9844.739029,-666.185348,1532.190996
2797.990189,-10214.842000,-1184.329507,2451.505594
2797.990526,-10658.965565,-1184.329507,2374.896044
2797.990863,-10732.986159,-1554.432478,1991.848295
2797.991200,-10436.903782,-592.164754,1532.190996
2797.991538,-9770.718434,-740.205942,0.000000
2797.991875,-10436.903782,148.041188,-612.876398
2797.992212,-10362.883188,-592.164754,-995.924147
2797.992549,-9622.677246,0.000000,-1225.752797
2797.992886,-9400.615463,-370.102971,-536.266849
2797.993223,-10140.821405,-814.226536,229.828649
2797.993560,-9992.780217,-1406.391290,689.485948
2797.993897,-9844.739029,-962.267725,1378.971896
2797.994234,-10140.821405,-814.226536,1608.800546
2797.994572,-10955.047942,74.020594,1302.362347
2797.994909,-11399.171507,-592.164754,842.705048
2797.995246,-10658.965565,-666.185348,-689.485948
2797.995583,-9696.697840,-1258.350101,-612.876398
2797.995920,-9400.615463,-1258.350101,0.000000
2797.996257,-9548.656652,-814.226536,-306.438199
2797.996594,-9474.636058,-1332.370696,-919.314598
2797.996931,-9548.656652,-962.267725,-766.095498
2797.997268,-9030.512492,-592.164754,-306.438199
2797.997606,-10066.800811,0.000000,1838.629195
2797.997943,-10362.883188,-148.041188,2757.943793
2797.998280,-9770.718434,888.247130,2604.724693
2797.998617,-10140.821405,2294.638420,3370.820191
2797.998954,-10288.862594,2516.700203,2681.334243
2797.999291,-10584.944971,2294.638420,1838.629195
2797.999628,-10658.965565,1258.350101,1532.190996
2797.999965,-9474.636058,1554.432478,689.485948
2798.000303,-9548.656652,592.164754,76.609550
2798.000640,-9622.677246,370.102971,-536.266849
2798.000977,-9178.553681,0.000000,-1378.971896
2798.001314,-9548.656652,148.041188,-1762.019645
2798.001651,-9104.533087,740.205942,-2834.553343
2798.001988,-9696.697840,0.000000,-2374.896044
2798.002325,-10140.821405,-518.144159,-1685.410096
2798.002662,-9474.636058,-222.061783,-689.485948
2798.002999,-10066.800811,-1110.308913,536.266849
2798.003337,-10288.862594,-1036.288319,842.705048
2798.003674,-10732.986159,-1332.370696,995.924147
2798.004011,-11843.295072,-2368.659014,1302.362347
2798.004348,-9992.780217,-2368.659014,459.657299
2798.004685,-10214.842000,-2664.741391,1455.581446
2798.005022,-10881.027347,-2072.576638,1149.143247
2798.005359,-9474.636058,-1258.350101,-459.657299
2798.005696,-10288.862594,-222.061783,-766.095498
2798.006033,-10140.821405,-444.123565,-1455.581446
2798.006371,-9992.780217,-296.082377,-1149.143247
2798.006708,-10584.944971,-296.082377,76.609550
2798.007045,-10362.883188,-148.041188,536.266849
2798.007382,-9992.780217,518.144159,1455.581446
2798.007719,-10214.842000,-148.041188,1225.752797
2798.008056,-9844.739029,-444.123565,1455.581446
2798.008393,-10214.842000,-592.164754,1532.190996
2798.008730,-10214.842000,-222.061783,536.266849
2798.009067,-10066.800811,296.082377,-766.095498
2798.009405,-9844.739029,-666.185348,-1302.362347
2798.009742,-9474.636058,-148.041188,-1915.238745
2798.010079,-8882.471304,-666.185348,-1532.190996
2798.010416,-8734.430116,0.000000,-1072.533697
2798.010753,-9178.553681,-592.164754,-612.876398
2798.011090,-9696.697840,-1184.329507,842.705048
2798.011427,-9548.656652,-296.082377,1991.848295
2798.011764,-10214.842000,444.123565,3370.820191
2798.012101,-10436.903782,370.102971,3677.258390
2798.012439,-10584.944971,1332.370696,3217.601092
2798.012776,-11177.109724,444.123565,3064.381992
2798.013113,-11177.109724,1628.453072,1532.190996
2798.013450,-10584.944971,74.020594,383.047749
2798.013788,-10807.006753,0.000000,306.438199
2798.014125,-9548.656652,-666.185348,-919.314598
2798.014462,-9548.656652,0.000000,-1608.800546
2798.014800,-9400.615463,-962.267725,-1991.848295
2798.015137,-8512.368333,-1480.411884,-2145.067394
2798.015474,-9548.656652,-1406.391290,-612.876398
2798.015811,-10510.924376,-888.247130,153.219100
2798.016149,-10140.821405,0.000000,153.219100
2798.016486,-10658.965565,-666.185348,-76.609550
2798.016823,-10807.006753,-666.185348,689.485948
2798.017161,-10732.986159,-1998.556043,153.219100
2798.017498,-10881.027347,-2146.597232,689.485948
2798.017835,-10214.842000,-2442.679609,76.609550
2798.018172,-9770.718434,-2590.720797,-536.266849
2798.018510,-9992.780217,-1850.514855,-612.876398
2798.018847,-9844.739029,-2072.576638,-919.314598
2798.019184,-9548.656652,-74.020594,229.828649
2798.019522,-9622.677246,-222.061783,459.657299
2798.019859,-9770.718434,888.247130,1149.143247
2798.020196,-9918.759623,1332.370696,1608.800546
2798.020534,-11177.109724,2294.638420,3064.381992
2798.020871,-10955.047942,2146.597232,2451.505594
2798.021208,-10881.027347,1998.556043,2374.896044
2798.021545,-11177.109724,1776.494261,2374.896044
2798.021883,-9918.759623,814.226536,459.657299
2798.022220,-9178.553681,74.020594,0.000000
2798.022557,-8438.347739,666.185348,-842.705048
2798.022895,-9548.656652,666.185348,-919.314598
2798.023232,-9400.615463,888.247130,-2451.505594
2798.023569,-9178.553681,888.247130,-3370.820191
2798.023907,-9548.656652,444.123565,-2298.286494
2798.024244,-9548.656652,148.041188,-1149.143247
2798.024581,-9770.718434,-74.020594,612.876398
2798.024918,-9770.718434,-518.144159,919.314598
2798.025256,-9252.574275,-1258.350101,1378.971896
2798.025593,-10288.862594,-1332.370696,2374.896044
2798.025930,-10288.862594,-1776.494261,2374.896044
2798.026268,-10436.903782,-1184.329507,1838.629195
2798.026605,-10732.986159,-1110.308913,919.314598
2798.026942,-10066.800811,-888.247130,-459.657299
2798.027280,-10066.800811,-296.082377,-919.314598
2798.027617,-10658.965565,-740.205942,-612.876398
2798.027954,-9548.656652,-518.144159,-1532.190996
2798.028291,-9474.636058,-1332.370696,-1378.971896
2798.028629,-10066.800811,-1110.308913,383.047749
2798.028966,-9918.759623,-1036.288319,689.485948
2798.029303,-10288.862594,-1036.288319,995.924147
2798.029641,-10584.944971,-1480.411884,919.314598
2798.029978,-10436.903782,-740.205942,459.657299
2798.030315,-11029.068536,-518.144159,229.828649
2798.030653,-10955.047942,-1332.370696,-153.219100
2798.030990,-9918.759623,-1998.556043,-919.314598
2798.031327,-9548.656652,-1998.556043,-459.657299
2798.031664,-9622.677246,-1184.329507,-229.828649
2798.032002,-9548.656652,-1850.514855,-1072.533697
2798.032339,-9548.656652,-1184.329507,-1149.143247
2798.032676,-9104.533087,-1258.350101,536.266849
2798.033014,-9474.636058,-592.164754,1762.019645
2798.033351,-9918.759623,222.061783,3140.991542
2798.033688,-10140.821405,962.267725,2834.553343
2798.034025,-9992.780217,2072.576638,3370.820191
2798.034363,-10658.965565,2146.597232,2451.505594
2798.034700,-10881.027347,1628.453072,2681.334243
2798.035037,-10214.842000,1110.308913,1608.800546
2798.035375,-9548.656652,1110.308913,1225.752797
2798.035712,-9474.636058,888.247130,536.266849
2798.036049,-9474.636058,296.082377,-995.924147
2798.036387,-9548.656652,148.041188,-995.924147
2798.036724,-9400.615463,148.041188,-1991.848295
2798.037061,-9252.574275,370.102971,-1455.581446
2798.037398,-9326.594869,370.102971,-1915.238745
2798.037736,-9474.636058,0.000000,-1991.848295
2798.038073,-9918.759623,-296.082377,-536.266849
2798.038410,-10066.800811,-666.185348,306.438199
2798.038748,-10584.944971,-1110.308913,1225.752797
2798.039085,-10955.047942,-1258.350101,1455.581446
2798.039422,-11325.150913,-1924.535449,1378.971896
2798.039760,-10807.006753,-2220.617826,1455.581446
2798.040097,-10510.924376,-2146.597232,1225.752797
2798.040434,-10584.944971,-1036.288319,689.485948
2798.040771,-10066.800811,-1110.308913,-919.314598
2798.041109,-10214.842000,0.000000,-1991.848295
2798.041446,-9918.759623,444.123565,-1915.238745
2798.041783,-10288.862594,74.020594,-766.095498
2798.042121,-10658.965565,148.041188,-153.219100
2798.042458,-10288.862594,0.000000,536.266849
2798.042795,-9770.718434,222.061783,766.095498
2798.043133,-9770.718434,222.061783,1225.752797
2798.043470,-10436.903782,0.000000,1608.800546
2798.043807,-10140.821405,-370.102971,995.924147
2798.044144,-9992.780217,0.000000,0.000000
2798.044482,-9918.759623,148.041188,-842.705048
2798.044819,-9770.718434,0.000000,-1915.238745
2798.045156,-9400.615463,-74.020594,-1762.019645
2798.045494,-9326.594869,-592.164754,-1685.410096
2798.045831,-8512.368333,0.000000,-842.705048
2798.046168,-9326.594869,-444.123565,229.828649
2798.046506,-9696.697840,-740.205942,1608.800546
2798.046843,-9474.636058,74.020594,2451.505594
2798.047180,-10140.821405,444.123565,3524.039291
2798.047517,-10362.883188,888.247130,3447.429741
2798.047855,-10807.006753,1258.350101,3524.039291
2798.048192,-10584.944971,1184.329507,2528.115143
2798.048529,-10510.924376,888.247130,1378.971896
2798.048867,-10510.924376,814.226536,689.485948
2798.049204,-10658.965565,888.247130,229.828649
2798.049541,-10436.903782,-1184.329507,-842.705048
2798.049879,-9474.636058,-444.123565,-2298.286494
2798.050216,-8660.409521,-1406.391290,-1838.629195
2798.050553,-9178.553681,-1628.453072,-612.876398
2798.050890,-9104.533087,-2146.597232,-766.095498
2798.051228,-10214.842000,-962.267725,76.609550
2798.051565,-10436.903782,-888.247130,306.438199
2798.051902,-10955.047942,-518.144159,0.000000
2798.052240,-11399.171507,-1406.391290,1149.143247
2798.052577,-10658.965565,-1998.556043,612.876398
2798.052914,-10140.821405,-2812.782580,919.314598
2798.053251,-10140.821405,-2516.700203,153.219100
2798.053589,-9844.739029,-2664.741391,-459.657299
2798.053926,-10214.842000,-2590.720797,-689.485948
2798.054263,-9992.780217,-2294.638420,-1225.752797
2798.054601,-9178.553681,-518.144159,-995.924147
2798.054938,-9844.739029,-666.185348,383.047749
2798.055275,-9844.739029,444.123565,1149.143247
2798.055613,-10066.800811,1628.453072,1532.190996
2798.055950,-11251.130318,2220.617826,2374.896044
2798.056287,-11029.068536,2590.720797,2451.505594
2798.056624,-11399.171507,1332.370696,1915.238745
2798.056962,-10955.047942,1406.391290,1532.190996
2798.057299,-9992.780217,518.144159,995.924147
2798.057636,-8882.471304,666.185348,0.000000
2798.057974,-9030.512492,222.061783,-459.657299
2798.058311,-9474.636058,666.185348,-1762.019645
2798.058648,-9030.512492,962.267725,-3140.991542
2798.058986,-9474.636058,888.247130,-2681.334243
2798.059323,-9474.636058,296.082377,-1685.410096
2798.059660,-9622.677246,-444.123565,-919.314598
2798.059997,-9622.677246,888.247130,306.438199
2798.060335,-9400.615463,-592.164754,1762.019645
2798.060672,-9770.718434,-888.247130,2221.676944
2798.061009,-10214.842000,-1184.329507,2374.896044
2798.061347,-11029.068536,-1036.288319,2911.162892
2798.061684,-10362.883188,-592.164754,1685.410096
2798.062021,-10436.903782,-888.247130,383.047749
2798.062359,-10584.944971,0.000000,76.609550
2798.062696,-9474.636058,-444.123565,-1149.143247
2798.063033,-9992.780217,0.000000,-766.095498
2798.063370,-10066.800811,0.000000,-919.314598
2798.063708,-9548.656652,-740.205942,-766.095498
2798.064045,-10362.883188,-1184.329507,0.000000
2798.064382,-9918.759623,-740.205942,76.609550
2798.064720,-9844.739029,-962.267725,1455.581446
2798.065057,-10807.006753,-592.164754,1378.971896
2798.065394,-10658.965565,-1258.350101,383.047749
2798.065732,-11325.150913,-222.061783,536.266849
2798.066069,-11029.068536,-1332.370696,-383.047749
2798.066406,-9844.739029,-1258.350101,-842.705048
2798.066743,-9622.677246,-2072.576638,-383.047749
2798.067081,-9400.615463,-1702.473667,-1455.581446
2798.067418,-9400.615463,-1184.329507,-1302.362347
2798.067755,-9696.697840,-962.267725,-1149.143247
2798.068093,-9474.636058,-1258.350101,536.266849
2798.068430,-10214.842000,-888.247130,1991.848295
2798.068767,-9918.759623,370.102971,2987.772442
2798.069105,-10214.842000,1406.391290,3140.991542
2798.069442,-9992.780217,1998.556043,2911.162892
2798.069779,-10955.047942,1998.556043,2528.115143
2798.070116,-10658.965565,1776.494261,2528.115143
2798.070454,-9770.718434,1924.535449,1149.143247
2798.070791,-9770.718434,1184.329507,459.657299
2798.071128,-9400.615463,222.061783,0.000000
2798.071466,-9030.512492,0.000000,-612.876398
2798.071803,-9400.615463,814.226536,-1149.143247
2798.072140,-9252.574275,0.000000,-1378.971896
2798.072477,-9400.615463,148.041188,-2681.334243
2798.072815,-9474.636058,0.000000,-1608.800546
2798.073152,-10214.842000,0.000000,-766.095498
2798.073489,-9992.780217,-222.061783,383.047749
2798.073827,-10140.821405,-666.185348,842.705048
2798.074164,-10807.006753,-1184.329507,1532.190996
2798.074501,-10881.027347,-1924.535449,1302.362347
2798.074839,-10807.006753,-2294.638420,1608.800546
2798.075176,-11251.130318,-2368.659014,1302.362347
2798.075513,-10066.800811,-2146.597232,842.705048
2798.075850,-10362.883188,-1184.329507,459.657299
2798.076188,-10140.821405,-296.082377,-689.485948
2798.076525,-9844.739029,-296.082377,-1378.971896
2798.076862,-10066.800811,0.000000,-919.314598
2798.077200,-9918.759623,-666.185348,-1149.143247
2798.077537,-10214.842000,74.020594,0.000000
2798.077874,-10658.965565,0.000000,689.485948
2798.078212,-10066.800811,-148.041188,766.095498
2798.078549,-9770.718434,-296.082377,1149.143247
2798.078886,-9992.780217,-296.082377,1608.800546
2798.079223,-10510.924376,0.000000,766.095498
2798.079561,-10732.986159,-74.020594,0.000000
2798.079898,-9770.718434,444.123565,-1915.238745
2798.080235,-9696.697840,0.000000,-1915.238745
2798.080573,-9474.636058,0.000000,-1838.629195
2798.080910,-9178.553681,296.082377,-1762.019645
2798.081247,-9474.636058,-296.082377,-612.876398
2798.081585,-9474.636058,-222.061783,229.828649
2798.081922,-9548.656652,-296.082377,1225.752797
2798.082259,-10140.821405,0.000000,3140.991542
2798.082596,-9844.739029,592.164754,3217.601092
2798.082934,-10436.903782,1332.370696,3983.696590
2798.083271,-10732.986159,1480.411884,3370.820191
2798.083608,-10658.965565,1998.556043,2145.067394
2798.083946,-10955.047942,888.247130,1608.800546
2798.084283,-9548.656652,962.267725,459.657299
2798.084620,-10362.883188,148.041188,0.000000
2798.084958,-10881.027347,0.000000,-459.657299
2798.085295,-8734.430116,-296.082377,-2451.505594
2798.085632,-8512.368333,-1184.329507,-1608.800546
2798.085969,-9178.553681,-1776.494261,-612.876398
2798.086307,-8956.491898,-1480.411884,76.609550
2798.086644,-9992.780217,-962.267725,459.657299
2798.086981,-9844.739029,-962.267725,306.438199
2798.087319,-10510.924376,-222.061783,766.095498
2798.087656,-11695.253884,-1406.391290,689.485948
2798.087993,-11103.089130,-1702.473667,1302.362347
2798.088330,-10584.944971,-2590.720797,689.485948
2798.088668,-10214.842000,-2812.782580,842.705048
2798.089005,-9696.697840,-2738.761985,0.000000
2798.089342,-9992.780217,-2738.761985,-459.657299
2798.089680,-9918.759623,-1776.494261,-689.485948
2798.090017,-9474.636058,-962.267725,0.000000
2798.090354,-9696.697840,74.020594,842.705048
2798.090692,-9844.739029,814.226536,1072.533697
2798.091029,-10584.944971,1924.535449,1302.362347
2798.091366,-10584.944971,1924.535449,2145.067394
2798.091703,-10955.047942,1998.556043,2451.505594
2798.092041,-11325.150913,1184.329507,2528.115143
2798.092378,-10807.006753,1110.308913,919.314598
2798.092715,-9622.677246,-222.061783,459.657299
2798.093053,-8956.491898,592.164754,-842.705048
2798.093390,-8734.430116,0.000000,-1149.143247
2798.093727,-9400.615463,592.164754,-1915.238745
2798.094065,-8956.491898,1036.288319,-3370.820191
2798.094402,-8956.491898,962.267725,-2604.724693
2798.094739,-9548.656652,888.247130,-1838.629195
2798.095076,-9770.718434,148.041188,-1072.533697
2798.095414,-9400.615463,-148.041188,153.219100
2798.095751,-9992.780217,0.000000,2068.457845
2798.096088,-9474.636058,0.000000,1685.410096
2798.096426,-10436.903782,-1110.308913,2451.505594
2798.096763,-10658.965565,-740.205942,2298.286494
2798.097100,-10066.800811,-592.164754,1072.533697
2798.097438,-10732.986159,74.020594,536.266849
2798.097775,-10584.944971,0.000000,-766.095498
2798.098112,-9844.739029,-148.041188,-1302.362347
2798.098449,-9770.718434,74.020594,-1225.752797
2798.098787,-9474.636058,-666.185348,-1532.190996
2798.099124,-9622.677246,0.000000,-1455.581446
2798.099461,-10436.903782,-1184.329507,-306.438199
2798.099799,-10362.883188,-1110.308913,766.095498
2798.100136,-9622.677246,-1184.329507,1149.143247
2798.100473,-10955.047942,-444.123565,1762.019645
2798.100811,-10807.006753,-1036.288319,842.705048
2798.101148,-11103.089130,-1480.411884,76.609550
2798.101485,-10732.986159,-1184.329507,0.000000
2798.101822,-10362.883188,-1702.473667,-229.828649
2798.102160,-9696.697840,-1554.432478,0.000000
2798.102497,-9622.677246,-1776.494261,-842.705048
2798.102834,-9622.677246,-1406.391290,-306.438199
2798.103172,-9178.553681,-1184.329507,-536.266849
2798.103509,-9252.574275,-592.164754,1149.143247
2798.103846,-10362.883188,-740.205942,2987.772442
2798.104184,-9844.739029,296.082377,3370.820191
2798.104521,-9992.780217,1702.473667,3447.429741
2798.104858,-10214.842000,2072.576638,3294.210641
2798.105195,-10584.944971,2294.638420,2987.772442
2798.105533,-10732.986159,1406.391290,2451.505594
2798.105870,-9844.739029,1332.370696,1762.019645
2798.106207,-9474.636058,1258.350101,919.314598
2798.106545,-9770.718434,222.061783,76.609550
2798.106882,-9400.615463,0.000000,-766.095498
2798.107219,-8808.450710,0.000000,-1225.752797
2798.107556,-9326.594869,0.000000,-1072.533697
2798.107894,-9400.615463,666.185348,-1915.238745
2798.108231,-9844.739029,-370.102971,-1532.190996
2798.108568,-10066.800811,222.061783,-689.485948
2798.108906,-10436.903782,-518.144159,-306.438199
2798.109243,-10732.986159,74.020594,919.314598
2798.109580,-10955.047942,-1554.432478,1608.800546
2798.109918,-10362.883188,-1776.494261,1149.143247
2798.110255,-10658.965565,-2220.617826,1149.143247
2798.110592,-10658.965565,-2368.659014,1762.019645
2798.110929,-10066.800811,-2146.597232,842.705048
2798.111267,-10362.883188,-1258.350101,0.000000
2798.111604,-10510.924376,0.000000,-995.924147
2798.111941,-9918.759623,0.000000,-2145.067394
2798.112279,-9992.780217,-370.102971,-1838.629195
2798.112616,-9992.780217,74.020594,-1225.752797
2798.112953,-10510.924376,-370.102971,-536.266849
2798.113291,-10066.800811,74.020594,76.609550
2798.113628,-10140.821405,-592.164754,229.828649
2798.113965,-9992.780217,-814.226536,995.924147
2798.114302,-9992.780217,-1184.329507,229.828649
2798.114640,-9844.739029,-444.123565,153.219100
2798.114977,-10066.800811,0.000000,-919.314598
2798.115314,-9918.759623,-222.061783,-1991.848295
2798.115652,-9844.739029,-518.144159,-2221.676944
2798.115989,-9326.594869,-370.102971,-1991.848295
2798.116326,-9474.636058,518.144159,-1455.581446
2798.116664,-9400.615463,-666.185348,-995.924147
2798.117001,-9400.615463,-592.164754,536.266849
2798.117338,-9474.636058,-148.041188,2374.896044
2798.117676,-10214.842000,-296.082377,2987.772442
2798.118013,-10066.800811,962.267725,3370.820191
2798.118350,-10436.903782,1184.329507,3524.039291
2798.118688,-10881.027347,1406.391290,3140.991542
2798.119025,-10510.924376,1554.432478,2221.676944
2798.119362,-10140.821405,1332.370696,1991.848295
2798.119700,-9992.780217,1036.288319,612.876398
2798.120037,-10362.883188,518.144159,0.000000
2798.120374,-9992.780217,888.247130,-689.485948
2798.120712,-9474.636058,-962.267725,-1685.410096
2798.121049,-9030.512492,-1184.329507,-1225.752797
2798.121386,-8808.450710,-1850.514855,-612.876398
2798.121724,-9548.656652,-1480.411884,0.000000
2798.122061,-9844.739029,-814.226536,536.266849
2798.122398,-10362.883188,-666.185348,689.485948
2798.122735,-10732.986159,-814.226536,1072.533697
2798.123073,-11325.150913,-1628.453072,1302.362347
2798.123410,-11547.212695,-1332.370696,1608.800546
2798.123747,-10362.883188,-2590.720797,536.266849
2798.124085,-10288.862594,-3108.864956,612.876398
2798.124422,-9844.739029,-2960.823768,612.876398
2798.124759,-9696.697840,-2368.659014,-306.438199
2798.125097,-9696.697840,-1332.370696,-995.924147
2798.125434,-9918.759623,-1184.329507,-612.876398
2798.125771,-9770.718434,296.082377,153.219100
2798.126109,-10066.800811,814.226536,1072.533697
2798.126446,-10584.944971,1924.535449,1991.848295
2798.126783,-10881.027347,1702.473667,2298.286494
2798.127121,-11399.171507,1554.432478,2145.067394
2798.127458,-11251.130318,1480.411884,1915.238745
2798.127795,-10362.883188,444.123565,1378.971896
2798.128133,-9992.780217,370.102971,1225.752797
2798.128470,-9030.512492,-296.082377,383.047749
2798.128807,-8808.450710,444.123565,-1225.752797
2798.129145,-9178.553681,1110.308913,-2681.334243
2798.129482,-9474.636058,814.226536,-3140.991542
2798.129819,-8808.450710,814.226536,-3217.601092
2798.130157,-9400.615463,296.082377,-1915.238745
2798.130494,-10140.821405,370.102971,-153.219100
2798.130831,-9474.636058,296.082377,153.219100
2798.131168,-9696.697840,518.144159,1915.238745
2798.131506,-10214.842000,-888.247130,3217.601092
2798.131843,-10436.903782,-740.205942,2757.943793
2798.132180,-10658.965565,-740.205942,2528.115143
2798.132518,-10732.986159,-222.061783,1455.581446
2798.132855,-10510.924376,-370.102971,306.438199
2798.133192,-10140.821405,222.061783,-689.485948
2798.133530,-9770.718434,74.020594,-1915.238745
2798.133867,-9844.739029,296.082377,-1991.848295
2798.134204,-9474.636058,-666.185348,-2068.457845
2798.134542,-9770.718434,-74.020594,-1149.143247
2798.134879,-10362.883188,-1406.391290,153.219100
2798.135216,-10436.903782,-888.247130,919.314598
2798.135554,-10214.842000,-1258.350101,842.705048
2798.135891,-10658.965565,-1110.308913,1608.800546
2798.136228,-11103.089130,-962.267725,842.705048
2798.136566,-10807.006753,-2146.597232,0.000000
2798.136903,-10362.883188,-1924.535449,0.000000
2798.137240,-10140.821405,-2220.617826,0.000000
2798.137578,-9548.656652,-1776.494261,-919.314598
2798.137915,-9548.656652,-2072.576638,-842.705048
2798.138252,-9548.656652,-1776.494261,-689.485948
2798.138590,-9178.553681,-1628.453072,-536.266849
2798.138927,-9474.636058,-1406.391290,1225.752797
2798.139264,-9992.780217,-296.082377,2451.505594
2798.139601,-10140.821405,-444.123565,3064.381992
2798.139939,-10066.800811,1628.453072,3447.429741
2798.140276,-10436.903782,1924.535449,3447.429741
2798.140613,-10881.027347,1850.514855,2987.772442
2798.140951,-10584.944971,1554.432478,1302.362347
2798.141288,-10362.883188,1332.370696,1378.971896
2798.141625,-9400.615463,962.267725,76.609550
2798.141963,-8956.491898,0.000000,-612.876398
2798.142300,-9252.574275,-370.102971,-459.657299
2798.142637,-8808.450710,296.082377,-1302.362347
2798.142975,-9178.553681,296.082377,-1762.019645
2798.143312,-9548.656652,444.123565,-1762.019645
2798.143649,-9622.677246,518.144159,-1455.581446
2798.143987,-10584.944971,74.020594,229.828649
2798.144324,-10436.903782,-666.185348,306.438199
2798.144661,-10140.821405,-370.102971,1455.581446
2798.144999,-11251.130318,-740.205942,2451.505594
2798.145336,-10658.965565,-2072.576638,1072.533697
2798.145673,-10362.883188,-2368.659014,1072.533697
2798.146011,-10288.862594,-2738.761985,1225.752797
2798.146348,-9992.780217,-1184.329507,306.438199
2798.146685,-10436.903782,-1036.288319,-612.876398
2798.147023,-10362.883188,-444.123565,-1608.800546
2798.147360,-9548.656652,0.000000,-2145.067394
2798.147697,-9918.759623,0.000000,-1302.362347
2798.148034,-9844.739029,-370.102971,-612.876398
2798.148372,-10288.862594,-370.102971,-306.438199
2798.148709,-10214.842000,0.000000,306.438199
2798.149046,-10214.842000,-444.123565,1149.143247
2798.149384,-10140.821405,-444.123565,766.095498
2798.149721,-10436.903782,-1110.308913,459.657299
2798.150058,-9622.677246,-740.205942,0.000000
2798.150396,-9252.574275,-370.102971,-1378.971896
2798.150733,-10066.800811,-518.144159,-1838.629195
2798.151070,-9696.697840,-518.144159,-1915.238745
2798.151408,-9474.636058,-518.144159,-1762.019645
2798.151745,-9178.553681,222.061783,-1378.971896
2798.152082,-9326.594869,-296.082377,-536.266849
2798.152420,-9770.718434,-148.041188,459.657299
2798.152757,-9622.677246,-518.144159,2145.067394
2798.153094,-10288.862594,740.205942,3677.258390
2798.153432,-9918.759623,1110.308913,3140.991542
2798.153769,-10510.924376,1628.453072,2911.162892
2798.154106,-11103.089130,1332.370696,2834.553343
2798.154444,-10584.944971,1776.494261,1762.019645
2798.154781,-9844.739029,1554.432478,1455.581446
2798.155118,-10658.965565,1184.329507,536.266849
2798.155456,-9844.739029,666.185348,-919.314598
2798.155793,-9992.780217,148.041188,-1072.533697
2798.156130,-9474.636058,-592.164754,-2374.896044
2798.156467,-8364.327145,-814.226536,-1532.190996
2798.156805,-9474.636058,-1480.411884,-383.047749
2798.157142,-9548.656652,-1480.411884,0.000000
2798.157479,-9474.636058,-592.164754,306.438199
2798.157817,-10436.903782,-296.082377,842.705048
2798.158154,-10658.965565,-1110.308913,995.924147
2798.158491,-11547.212695,-1184.329507,2068.457845
2798.158829,-11029.068536,-2072.576638,1532.190996
2798.159166,-10362.883188,-1776.494261,459.657299
2798.159503,-10510.924376,-2960.823768,612.876398
2798.159841,-10066.800811,-3034.844362,383.047749
2798.160178,-10066.800811,-2516.700203,0.000000
2798.160515,-9770.718434,-1258.350101,0.000000
2798.160853,-9474.636058,-370.102971,-459.657299
2798.161190,-10140.821405,-370.102971,459.657299
2798.161527,-10140.821405,592.164754,1532.190996
2798.161865,-10214.842000,1702.473667,1762.019645
2798.162202,-11177.109724,1628.453072,2374.896044
2798.162539,-10881.027347,1702.473667,1762.019645
2798.162877,-11399.171507,592.164754,1838.629195
2798.163214,-10140.821405,0.000000,1302.362347
2798.163551,-9030.512492,148.041188,76.609550
2798.163889,-9622.677246,-370.102971,76.609550
2798.164226,-9104.533087,0.000000,-1608.800546
2798.164563,-8660.409521,444.123565,-2757.943793
2798.164900,-9474.636058,592.164754,-2911.162892
2798.165238,-8586.388927,518.144159,-3140.991542
2798.165575,-9622.677246,148.041188,-1532.190996
2798.165912,-10140.821405,0.000000,-306.438199
2798.166250,-9400.615463,592.164754,689.485948
2798.166587,-9844.739029,0.000000,1532.190996
2798.166924,-9992.780217,-888.247130,2834.553343
2798.167262,-10436.903782,-592.164754,2834.553343
2798.167599,-10807.006753,-296.082377,2681.334243
2798.167936,-10584.944971,0.000000,1838.629195
2798.168274,-10436.903782,148.041188,229.828649
2798.168611,-10436.903782,0.000000,-383.047749
2798.168948,-9844.739029,148.041188,-1532.190996
2798.169286,-9326.594869,-296.082377,-2068.457845
2798.169623,-9474.636058,-296.082377,-1762.019645
2798.169960,-9548.656652,-962.267725,-995.924147
2798.170298,-9992.780217,-1036.288319,0.000000
2798.170635,-10288.862594,-1110.308913,459.657299
2798.170972,-10214.842000,-814.226536,1149.143247
2798.171310,-10955.047942,-1258.350101,1302.362347
2798.171647,-10955.047942,-1184.329507,612.876398
2798.171984,-10955.047942,-2146.597232,229.828649
2798.172322,-10955.047942,-1184.329507,-383.047749
2798.172659,-10066.800811,-1850.514855,0.000000
2798.172996,-10510.924376,-2072.576638,-536.266849
2798.173333,-9770.718434,-1850.514855,-1149.143247
2798.173671,-9474.636058,-1554.432478,-995.924147
2798.174008,-9474.636058,-1702.473667,306.438199
2798.174345,-9548.656652,-1554.432478,1378.971896
2798.174683,-9992.780217,-518.144159,3064.381992
2798.175020,-10214.842000,1184.329507,3447.429741
2798.175357,-10140.821405,1480.411884,3140.991542
2798.175695,-11029.068536,1998.556043,3677.258390
2798.176032,-10732.986159,1776.494261,2451.505594
2798.176369,-10510.924376,1554.432478,1838.629195
2798.176707,-10140.821405,1406.391290,1225.752797
2798.177044,-9400.615463,148.041188,-76.609550
2798.177381,-9400.615463,74.020594,0.000000
2798.177719,-8956.491898,296.082377,-1149.143247
2798.178056,-8882.471304,222.061783,-1455.581446
2798.178393,-9178.553681,740.205942,-1915.238745
2798.178731,-9252.574275,0.000000,-1991.848295
2798.179068,-9696.697840,814.226536,-995.924147
2798.179405,-10214.842000,222.061783,0.000000
2798.179743,-10658.965565,444.123565,459.657299
2798.180080,-10362.883188,-370.102971,689.485948
2798.180417,-11177.109724,-222.061783,2068.457845
2798.180755,-10807.006753,-1924.535449,995.924147
2798.181092,-10214.842000,-2294.638420,919.314598
2798.181429,-9992.780217,-1924.535449,842.705048
2798.181766,-10140.821405,-1628.453072,306.438199
2798.182104,-9844.739029,-740.205942,-689.485948
2798.182441,-10140.821405,0.000000,-1991.848295
2798.182778,-9992.780217,0.000000,-995.924147
2798.183116,-9844.739029,0.000000,-1302.362347
2798.183453,-9844.739029,0.000000,-919.314598
2798.183790,-10510.924376,0.000000,0.000000
2798.184128,-10140.821405,-74.020594,383.047749
2798.184465,-10214.842000,-518.144159,536.266849
2798.184802,-10510.924376,-888.247130,1302.362347
2798.185140,-10140.821405,-888.247130,842.705048
2798.185477,-9992.780217,-1184.329507,0.000000
2798.185814,-9844.739029,-666.185348,-1149.143247
2798.186152,-9696.697840,-518.144159,-1991.848295
2798.186489,-9844.739029,-814.226536,-1762.019645
2798.186826,-9548.656652,-296.082377,-1762.019645
2798.187164,-9252.574275,-444.123565,-1455.581446
2798.187501,-9770.718434,-444.123565,-76.609550
2798.187838,-9696.697840,-296.082377,766.095498
2798.188176,-10066.800811,-148.041188,2528.115143
2798.188513,-10288.862594,222.061783,3600.648841
2798.188850,-9918.759623,1110.308913,3370.820191
2798.189188,-10584.944971,1776.494261,3524.039291
2798.189525,-10881.027347,1184.329507,2987.772442
2798.189862,-10140.821405,1258.350101,2145.067394
2798.190200,-9770.718434,962.267725,919.314598
2798.190537,-10214.842000,1110.308913,766.095498
2798.190874,-10066.800811,518.144159,-1072.533697
2798.191211,-9844.739029,74.020594,-1225.752797
2798.191549,-9400.615463,-444.123565,-1838.629195
2798.191886,-8364.327145,-1258.350101,-1608.800546
2798.192223,-9178.553681,-1554.432478,-766.095498
2798.192561,-9474.636058,-1036.288319,229.828649
2798.192898,-9696.697840,-1480.411884,459.657299
2798.193235,-9918.759623,-1036.288319,919.314598
2798.193573,-11103.089130,-888.247130,766.095498
2798.193910,-11547.212695,-1332.370696,1532.190996
2798.194247,-11473.192101,-2220.617826,919.314598
2798.194585,-10436.903782,-2368.659014,689.485948
2798.194922,-9918.759623,-2738.761985,306.438199
2798.195259,-10436.903782,-2812.782580,459.657299
2798.195597,-9918.759623,-2442.679609,0.000000
2798.195934,-9474.636058,-1850.514855,-842.705048
2798.196271,-9548.656652,-296.082377,-306.438199
2798.196609,-10140.821405,-518.144159,0.000000
2798.196946,-9622.677246,1036.288319,842.705048
2798.197283,-10362.883188,1628.453072,1685.410096
2798.197621,-11029.068536,1702.473667,1532.190996
2798.197958,-10955.047942,1554.432478,1302.362347
2798.198295,-11399.171507,296.082377,1149.143247
2798.198633,-10658.965565,0.000000,1225.752797
2798.198970,-9326.594869,0.000000,459.657299
2798.199307,-9030.512492,0.000000,0.000000
2798.199644,-8956.491898,0.000000,-1915.238745
2798.199982,-9104.533087,148.041188,-2604.724693
2798.200319,-9104.533087,592.164754,-2987.772442
2798.200656,-9104.533087,592.164754,-2681.334243
2798.200994,-9548.656652,666.185348,-1608.800546
2798.201331,-9844.739029,148.041188,-306.438199
2798.201668,-9474.636058,296.082377,842.705048
2798.202006,-9474.636058,74.020594,2221.676944
2798.202343,-9992.780217,-444.123565,3370.820191
2798.202680,-10584.944971,-222.061783,3294.210641
2798.203018,-10436.903782,-592.164754,2451.505594
2798.203355,-10881.027347,518.144159,1991.848295
2798.203692,-10510.924376,444.123565,0.000000
2798.204030,-10584.944971,148.041188,-536.266849
2798.204367,-9992.780217,0.000000,-1532.190996
2798.204704,-9326.594869,296.082377,-2068.457845
2798.205042,-9030.512492,370.102971,-1762.019645
2798.205379,-9770.718434,-962.267725,-689.485948
2798.205716,-9844.739029,-592.164754,-229.828649
2798.206054,-10510.924376,-1036.288319,842.705048
2798.206391,-10732.986159,-666.185348,1455.581446
2798.206728,-10584.944971,-888.247130,689.485948
2798.207066,-11103.089130,-1332.370696,612.876398
2798.207403,-10732.986159,-2072.576638,612.876398
2798.207740,-10288.862594,-2072.576638,153.219100
2798.208077,-10288.862594,-1480.411884,0.000000
2798.208415,-10214.842000,-2220.617826,-689.485948
2798.208752,-9474.636058,-1702.473667,-1378.971896
2798.209089,-9622.677246,-1776.494261,-1302.362347
2798.209427,-9474.636058,-1406.391290,0.000000
2798.209764,-9474.636058,-1110.308913,919.314598
2798.210101,-10140.821405,-518.144159,2374.896044
2798.210439,-9992.780217,1036.288319,2987.772442
2798.210776,-9844.739029,1480.411884,2987.772442
2798.211113,-10807.006753,2516.700203,3140.991542
2798.211451,-11547.212695,1628.453072,3294.210641
2798.211788,-10584.944971,1998.556043,1838.629195
2798.212125,-9548.656652,1258.350101,766.095498
2798.212462,-9548.656652,666.185348,0.000000
2798.212800,-8956.491898,0.000000,-766.095498
2798.213137,-9030.512492,0.000000,-1838.629195
2798.213474,-8882.471304,592.164754,-1991.848295
2798.213811,-8956.491898,666.185348,-2298.286494
2798.214149,-9548.656652,74.020594,-1762.019645
2798.214486,-9400.615463,444.123565,-1149.143247
2798.214823,-9992.780217,74.020594,536.266849
2798.215160,-10658.965565,1110.308913,1225.752797
2798.215498,-10436.903782,-370.102971,995.924147
2798.215835,-11251.130318,-1110.308913,1532.190996
2798.216172,-10955.047942,-1998.556043,2374.896044
2798.216509,-10288.862594,-2664.741391,1838.629195
2798.216846,-10140.821405,-1480.411884,1762.019645
2798.217184,-10214.842000,-2368.659014,919.314598
2798.217521,-9918.759623,-518.144159,-919.314598
2798.217858,-10066.800811,-222.061783,-1685.410096
2798.218195,-9844.739029,222.061783,-1608.800546
2798.218533,-9844.739029,74.020594,-1149.143247
2798.218870,-10362.883188,-148.041188,-536.266849
2798.219207,-10214.842000,518.144159,0.000000
2798.219544,-10658.965565,-666.185348,612.876398
2798.219882,-10140.821405,-296.082377,995.924147
2798.220219,-10732.986159,-1776.494261,1302.362347
2798.220556,-10436.903782,-1184.329507,536.266849
2798.220893,-9770.718434,-1036.288319,-995.924147
2798.221230,-9992.780217,-814.226536,-1225.752797
2798.221568,-9696.697840,-1406.391290,-1685.410096
2798.221905,-9474.636058,-592.164754,-2528.115143
2798.222242,-9622.677246,-592.164754,-1455.581446
2798.222579,-9178.553681,444.123565,-1991.848295
2798.222917,-9548.656652,-814.226536,-536.266849
2798.223254,-10066.800811,-444.123565,766.095498
2798.223591,-9770.718434,296.082377,1991.848295
2798.223928,-10510.924376,592.164754,3600.648841
2798.224266,-10436.903782,962.267725,3294.210641
2798.224603,-9992.780217,1036.288319,3140.991542
2798.224940,-10732.986159,1628.453072,2681.334243
2798.225277,-10288.862594,1406.391290,1455.581446
2798.225614,-10140.821405,1554.432478,306.438199
2798.225952,-10214.842000,888.247130,153.219100
2798.226289,-9474.636058,1036.288319,-1072.533697
2798.226626,-9844.739029,296.082377,-2068.457845
2798.226963,-9400.615463,-222.061783,-1685.410096
2798.227301,-8734.430116,-1258.350101,-1991.848295
2798.227638,-9400.615463,-962.267725,-689.485948
2798.227975,-9252.574275,-962.267725,229.828649
2798.228312,-9622.677246,-1332.370696,76.609550
2798.228649,-10214.842000,-962.267725,1302.362347
2798.228987,-11251.130318,-1258.350101,1532.190996
2798.229324,-11325.150913,-814.226536,1455.581446
2798.229661,-11399.171507,-2146.597232,1072.533697
2798.229998,-10510.924376,-1924.535449,536.266849
2798.230336,-9844.739029,-2886.803174,0.000000
2798.230673,-9992.780217,-2738.761985,306.438199
2798.231010,-9844.739029,-1998.556043,76.609550
2798.231347,-9474.636058,-1776.494261,-383.047749
2798.231685,-9770.718434,-518.144159,76.609550
2798.232022,-9844.739029,0.000000,995.924147
2798.232359,-10436.903782,1332.370696,1532.190996
2798.232696,-10584.944971,1406.391290,1685.410096
2798.233033,-11325.150913,1850.514855,1991.848295
2798.233371,-10881.027347,1110.308913,1915.238745
2798.233708,-10584.944971,296.082377,1225.752797
2798.234045,-10362.883188,0.000000,1532.190996
2798.234382,-9548.656652,-370.102971,0.000000
2798.234720,-8956.491898,-148.041188,-536.266849
2798.235057,-9474.636058,444.123565,-1991.848295
2798.235394,-8586.388927,444.123565,-3140.991542
2798.235731,-9252.574275,296.082377,-2911.162892
2798.236069,-9474.636058,74.020594,-2221.676944
2798.236406,-9474.636058,666.185348,-1225.752797
2798.236743,-10214.842000,1110.308913,76.609550
2798.237080,-9474.636058,444.123565,766.095498
2798.237417,-9548.656652,0.000000,2298.286494
2798.237755,-10510.924376,0.000000,3907.087040
2798.238092,-10362.883188,222.061783,2987.772442
2798.238429,-10732.986159,222.061783,1991.848295
2798.238766,-10436.903782,370.102971,1225.752797
2798.239104,-10658.965565,962.267725,0.000000
2798.239441,-10658.965565,518.144159,-919.314598
2798.239778,-9474.636058,222.061783,-2451.505594
2798.240115,-8956.491898,-444.123565,-2451.505594
2798.240453,-8882.471304,518.144159,-2068.457845
2798.240790,-9622.677246,-962.267725,-766.095498
2798.241127,-10214.842000,-814.226536,229.828649
2798.241464,-10510.924376,-1258.350101,842.705048
2798.241801,-10658.965565,-592.164754,1149.143247
2798.242139,-10584.944971,-1406.391290,919.314598
2798.242476,-11177.109724,-1406.391290,153.219100
2798.242813,-10732.986159,-2442.679609,536.266849
2798.243150,-10066.800811,-2220.617826,0.000000
2798.243488,-9696.697840,-1850.514855,-842.705048
2798.243825,-10807.006753,-1998.556043,-689.485948
2798.244162,-9548.656652,-1998.556043,-1532.190996
2798.244499,-9622.677246,-1850.514855,-1072.533697
2798.244837,-9548.656652,-1406.391290,612.876398
2798.245174,-9326.594869,-666.185348,1762.019645
2798.245511,-10658.965565,0.000000,2987.772442
2798.245848,-10807.006753,888.247130,3524.039291
2798.246185,-10066.800811,1924.535449,3370.820191
2798.246523,-11103.089130,2072.576638,3140.991542
2798.246860,-11103.089130,1480.411884,2528.115143
2798.247197,-10214.842000,1406.391290,1225.752797
2798.247534,-9474.636058,1036.288319,689.485948
2798.247872,-8808.450710,518.144159,0.000000
2798.248209,-8808.450710,-296.082377,-766.095498
2798.248546,-9030.512492,0.000000,-1302.362347
2798.248883,-8734.430116,444.123565,-1915.238745
2798.249221,-8586.388927,370.102971,-2068.457845
2798.249558,-9474.636058,518.144159,-1072.533697
2798.249895,-9622.677246,148.041188,306.438199
2798.250232,-10436.903782,518.144159,689.485948
2798.250569,-10362.883188,444.123565,1532.190996
2798.250907,-11177.109724,0.000000,1302.362347
2798.251244,-11399.171507,-1258.350101,1991.848295
2798.251581,-10955.047942,-1998.556043,1378.971896
2798.251918,-10066.800811,-2664.741391,1302.362347
2798.252256,-10140.821405,-1702.473667,612.876398
2798.252593,-10436.903782,-1184.329507,306.438199
2798.252930,-10362.883188,-222.061783,-1378.971896
2798.253267,-9622.677246,-222.061783,-2068.457845
2798.253605,-10140.821405,296.082377,-1532.190996
2798.253942,-10214.842000,74.020594,-612.876398
2798.254279,-10881.027347,0.000000,-766.095498
2798.254616,-9844.739029,-518.144159,0.000000
2798.254953,-10066.800811,-592.164754,76.609550
2798.255291,-10140.821405,-962.267725,842.705048
2798.255628,-10881.027347,-1776.494261,842.705048
2798.255965,-10214.842000,-1258.350101,-229.828649
2798.256302,-9992.780217,-962.267725,-1149.143247
2798.256640,-9844.739029,-888.247130,-1455.581446
2798.256977,-9326.594869,-1258.350101,-2374.896044
2798.257314,-9696.697840,-888.247130,-1685.410096
2798.257651,-9400.615463,-370.102971,-1838.629195
2798.257989,-8956.491898,-222.061783,-1225.752797
2798.258326,-9696.697840,-296.082377,306.438199
2798.258663,-9918.759623,-1258.350101,1532.190996
2798.259000,-10214.842000,296.082377,2987.772442
2798.259337,-10436.903782,962.267725,3830.477490
2798.259675,-10288.862594,1258.350101,3370.820191
2798.260012,-10288.862594,1480.411884,3140.991542
2798.260349,-10510.924376,1332.370696,2374.896044
2798.260686,-10066.800811,1628.453072,1608.800546
2798.261024,-9770.718434,1702.473667,536.266849
2798.261361,-10362.883188,1184.329507,0.000000
2798.261698,-10436.903782,740.205942,-1072.533697
2798.262035,-9178.553681,74.020594,-2068.457845
2798.262372,-9178.553681,-592.164754,-1532.190996
2798.262710,-9104.533087,-1480.411884,-229.828649
2798.263047,-9474.636058,-1184.329507,0.000000
2798.263384,-9400.615463,-888.247130,459.657299
2798.263721,-9992.780217,-740.205942,1225.752797
2798.264059,-10436.903782,-962.267725,1149.143247
2798.264396,-11103.089130,-1628.453072,842.705048
2798.264733,-11029.068536,-1258.350101,766.095498
2798.265070,-10955.047942,-1628.453072,1072.533697
2798.265408,-10362.883188,-2368.659014,229.828649
2798.265745,-9992.780217,-2664.741391,229.828649
2798.266082,-9918.759623,-2738.761985,0.000000
2798.266419,-10066.800811,-1850.514855,-153.219100
2798.266756,-9474.636058,-1110.308913,-842.705048
2798.267094,-9548.656652,-888.247130,76.609550
2798.267431,-10288.862594,0.000000,1072.533697
2798.267768,-9844.739029,1702.473667,1915.238745
2798.268105,-10732.986159,1702.473667,1378.971896
2798.268443,-11473.192101,1998.556043,1915.238745
2798.268780,-11325.150913,814.226536,1378.971896
2798.269117,-10881.027347,296.082377,1225.752797
2798.269454,-10140.821405,0.000000,1149.143247
2798.269792,-9252.574275,-296.082377,0.000000
2798.270129,-9104.533087,-592.164754,-1149.143247
2798.270466,-9030.512492,222.061783,-1762.019645
2798.270803,-9030.512492,296.082377,-3217.601092
2798.271140,-9178.553681,814.226536,-2757.943793
2798.271478,-9548.656652,370.102971,-1455.581446
2798.271815,-9548.656652,666.185348,-689.485948
2798.272152,-9770.718434,666.185348,383.047749
2798.272489,-9548.656652,814.226536,1302.362347
2798.272827,-9622.677246,-518.144159,2451.505594
2798.273164,-10362.883188,-296.082377,3677.258390
2798.273501,-10288.862594,0.000000,2834.553343
2798.273838,-10436.903782,296.082377,2451.505594
2798.274176,-10658.965565,370.102971,842.705048
2798.274513,-10140.821405,222.061783,-919.314598
2798.274850,-9770.718434,74.020594,-1225.752797
2798.275187,-9400.615463,0.000000,-1532.190996
2798.275524,-9030.512492,0.000000,-2451.505594
2798.275862,-9178.553681,-666.185348,-1762.019645
2798.276199,-9844.739029,-1332.370696,76.609550
2798.276536,-9992.780217,-1480.411884,459.657299
2798.276873,-10658.965565,-1036.288319,1072.533697
2798.277211,-10881.027347,-1480.411884,1302.362347
2798.277548,-10881.027347,-1776.494261,612.876398
2798.277885,-11029.068536,-1998.556043,766.095498
2798.278222,-10658.965565,-2368.659014,76.609550
2798.278560,-10362.883188,-2368.659014,-76.609550
2798.278897,-10214.842000,-2072.576638,-612.876398
2798.279234,-10214.842000,-2146.597232,-842.705048
2798.279571,-9622.677246,-2146.597232,-1838.629195
2798.279908,-9770.718434,-2294.638420,-766.095498
2798.280246,-9548.656652,-1554.432478,536.266849
2798.280583,-9548.656652,-1184.329507,2298.286494
2798.280920,-10362.883188,74.020594,3064.381992
2798.281257,-10510.924376,814.226536,3217.601092
2798.281595,-10066.800811,1480.411884,2834.553343
2798.281932,-10807.006753,1702.473667,2911.162892
2798.282269,-11251.130318,1628.453072,2604.724693
2798.282606,-10658.965565,1554.432478,1149.143247
2798.282944,-9400.615463,296.082377,-229.828649
2798.283281,-9104.533087,74.020594,-76.609550
2798.283618,-8586.388927,0.000000,-1225.752797
2798.283955,-8956.491898,0.000000,-1455.581446
2798.284292,-9104.533087,-74.020594,-1915.238745
2798.284630,-8660.409521,222.061783,-1685.410096
2798.284967,-9104.533087,222.061783,-919.314598
2798.285304,-10214.842000,296.082377,153.219100
2798.285641,-10066.800811,1036.288319,919.314598
2798.285979,-11029.068536,296.082377,1225.752797
2798.286316,-10807.006753,0.000000,1838.629195
2798.286653,-11251.130318,-1184.329507,1838.629195
2798.286990,-10807.006753,-1850.514855,2068.457845
2798.287328,-10066.800811,-2442.679609,1455.581446
2798.287665,-9474.636058,-1628.453072,1072.533697
2798.288002,-10288.862594,-962.267725,612.876398
2798.288339,-10066.800811,-296.082377,-1378.971896
2798.288676,-9918.759623,148.041188,-1532.190996
2798.289014,-9992.780217,592.164754,-1378.971896
2798.289351,-10362.883188,370.102971,-689.485948
2798.289688,-10807.006753,666.185348,-229.828649
2798.290025,-10362.883188,74.020594,229.828649
2798.290363,-10066.800811,-370.102971,842.705048
2798.290700,-10288.862594,-1110.308913,1455.581446
2798.291037,-10732.986159,-962.267725,1149.143247
2798.291374,-10658.965565,-1258.350101,76.609550
2798.291712,-9696.697840,-592.164754,-995.924147
2798.292049,-9622.677246,-592.164754,-1302.362347
2798.292386,-9474.636058,-592.164754,-1915.238745
2798.292723,-9252.574275,-592.164754,-2374.896044
2798.293060,-9178.553681,0.000000,-1762.019645
2798.293398,-9326.594869,148.041188,-1378.971896
2798.293735,-9770.718434,370.102971,0.000000
2798.294072,-10807.006753,-74.020594,2221.676944
2798.294409,-10288.862594,592.164754,2528.115143
2798.294747,-10140.821405,888.247130,3753.867940
2798.295084,-10510.924376,1998.556043,3983.696590
2798.295421,-10362.883188,1332.370696,2451.505594
2798.295758,-10732.986159,1998.556043,2374.896044
2798.296095,-10066.800811,1332.370696,995.924147
2798.296433,-9474.636058,1702.473667,0.000000
2798.296770,-10436.903782,1850.514855,-612.876398
2798.297107,-9844.739029,444.123565,-1762.019645
2798.297444,-9474.636058,444.123565,-2145.067394
2798.297782,-9178.553681,-148.041188,-1838.629195
2798.298119,-9252.574275,-962.267725,-1072.533697
2798.298456,-9548.656652,-1184.329507,-459.657299
2798.298793,-9622.677246,-1554.432478,383.047749
2798.299131,-9548.656652,-1110.308913,153.219100
2798.299468,-10288.862594,-1924.535449,1072.533697
2798.299805,-11177.109724,-666.185348,995.924147
2798.300142,-11399.171507,-1776.494261,689.485948
2798.300479,-10732.986159,-2220.617826,1072.533697
2798.300817,-10140.821405,-2812.782580,0.000000
2798.301154,-10436.903782,-2738.761985,306.438199
2798.301491,-10066.800811,-2812.782580,229.828649
2798.301828,-9400.615463,-1924.535449,-612.876398
2798.302166,-9474.636058,-1850.514855,-306.438199
2798.302503,-9622.677246,0.000000,0.000000
2798.302840,-10732.986159,-444.123565,1838.629195
2798.303177,-10807.006753,1184.329507,1991.848295
2798.303515,-10436.903782,1406.391290,1915.238745
2798.303852,-11399.171507,1480.411884,2528.115143
2798.304189,-10955.047942,444.123565,1072.533697
2798.304526,-10362.883188,0.000000,1225.752797
2798.304863,-10214.842000,-444.123565,1302.362347
2798.305201,-9400.615463,0.000000,153.219100
2798.305538,-9474.636058,-74.020594,-1149.143247
2798.305875,-9548.656652,0.000000,-1991.848295
2798.306212,-8734.430116,814.226536,-2681.334243
2798.306550,-9326.594869,370.102971,-2451.505594
2798.306887,-9696.697840,888.247130,-919.314598
2798.307224,-9844.739029,518.144159,-536.266849
2798.307561,-10066.800811,1184.329507,995.924147
2798.307899,-9474.636058,444.123565,1838.629195
2798.308236,-9696.697840,-222.061783,2451.505594
2798.308573,-10288.862594,148.041188,3830.477490
2798.308910,-10288.862594,-74.020594,2604.724693
2798.309247,-10436.903782,1184.329507,1838.629195
2798.309585,-10807.006753,444.123565,306.438199
2798.309922,-10362.883188,814.226536,-1302.362347
2798.310259,-9696.697840,296.082377,-2221.676944
2798.310596,-9696.697840,74.020594,-2221.676944
2798.310934,-8956.491898,0.000000,-2528.115143
2798.311271,-8956.491898,-592.164754,-1991.848295
2798.311608,-9918.759623,-444.123565,-459.657299
2798.311945,-10436.903782,-1628.453072,383.047749
2798.312283,-10584.944971,-592.164754,995.924147
2798.312620,-10881.027347,-888.247130,919.314598
2798.312957,-11473.192101,-1554.432478,612.876398
2798.313294,-10881.027347,-2516.700203,76.609550
2798.313632,-10140.821405,-2220.617826,-153.219100
2798.313969,-10362.883188,-1998.556043,76.609550
2798.314306,-10510.924376,-2072.576638,-1532.190996
2798.314644,-9992.780217,-2294.638420,-1608.800546
2798.314981,-10066.800811,-1554.432478,-2145.067394
2798.315318,-9326.594869,-1776.494261,-689.485948
2798.315656,-9918.759623,-1036.288319,689.485948
2798.315993,-9992.780217,-962.267725,2451.505594
2798.316330,-9992.780217,370.102971,3677.258390
2798.316668,-10362.883188,814.226536,3753.867940
2798.317005,-10658.965565,1258.350101,2987.772442
2798.317342,-11029.068536,1480.411884,2911.162892
2798.317680,-11325.150913,1406.391290,2145.067394
2798.318017,-9622.677246,1702.473667,459.657299
2798.318354,-9030.512492,518.144159,76.609550
2798.318692,-9252.574275,74.020594,-229.828649
2798.319029,-9178.553681,-74.020594,-1685.410096
2798.319366,-8882.471304,148.041188,-1838.629195
2798.319704,-8956.491898,444.123565,-2451.505594
2798.320041,-8808.450710,-296.082377,-1608.800546
2798.320378,-9178.553681,296.082377,0.000000
2798.320715,-9622.677246,148.041188,1072.533697
2798.321053,-9992.780217,1258.350101,1608.800546
2798.321390,-10955.047942,444.123565,1685.410096
2798.321727,-11473.192101,0.000000,2145.067394
2798.322065,-10807.006753,-1554.432478,2145.067394
2798.322402,-10732.986159,-1628.453072,2298.286494
2798.322739,-9918.759623,-2072.576638,1685.410096
2798.323077,-9696.697840,-1480.411884,459.657299
2798.323414,-9696.697840,-888.247130,-459.657299
2798.323751,-10288.862594,74.020594,-842.705048
2798.324089,-9622.677246,370.102971,-1762.019645
2798.324426,-10288.862594,0.000000,-1302.362347
2798.324763,-10732.986159,148.041188,-229.828649
2798.325101,-10436.903782,296.082377,-153.219100
2798.325438,-10214.842000,-222.061783,612.876398
2798.325775,-10362.883188,-370.102971,1072.533697
2798.326113,-10584.944971,-1110.308913,1149.143247
2798.326450,-10955.047942,-1036.288319,612.876398
2798.326787,-10140.821405,-1184.329507,-612.876398
2798.327125,-9844.739029,-1480.411884,-1302.362347
2798.327462,-9696.697840,-1184.329507,-1378.971896
2798.327799,-9474.636058,-1110.308913,-2298.286494
2798.328137,-9326.594869,0.000000,-1762.019645
2798.328474,-9474.636058,0.000000,-1302.362347
2798.328811,-9474.636058,-518.144159,-995.924147
2798.329149,-9992.780217,-444.123565,689.485948
2798.329486,-10362.883188,0.000000,2604.724693
2798.329823,-10362.883188,592.164754,3370.820191
2798.330161,-10362.883188,1110.308913,3600.648841
2798.330498,-10214.842000,1036.288319,3983.696590
2798.330835,-10288.862594,814.226536,2374.896044
2798.331173,-10436.903782,1480.411884,1915.238745
2798.331510,-10214.842000,1480.411884,766.095498
2798.331847,-9622.677246,1332.370696,0.000000
2798.332185,-9622.677246,1258.350101,-919.314598
2798.332522,-9696.697840,444.123565,-1685.410096
2798.332859,-9400.615463,518.144159,-1915.238745
2798.333197,-8956.491898,-962.267725,-1378.971896
2798.333534,-9400.615463,-1184.329507,-536.266849
2798.333871,-9400.615463,-1258.350101,-306.438199
2798.334208,-9548.656652,-1332.370696,459.657299
2798.334546,-9548.656652,-1554.432478,919.314598
2798.334883,-10436.903782,-1332.370696,612.876398
2798.335220,-11103.089130,-1110.308913,1225.752797
2798.335558,-11473.192101,-2146.597232,536.266849
2798.335895,-10436.903782,-2516.700203,153.219100
2798.336232,-9844.739029,-2590.720797,0.000000
2798.336570,-10140.821405,-2886.803174,459.657299
2798.336907,-9992.780217,-2220.617826,229.828649
2798.337244,-9770.718434,-2072.576638,76.609550
2798.337582,-10066.800811,-1258.350101,-229.828649
2798.337919,-9622.677246,-592.164754,536.266849
2798.338256,-10362.883188,0.000000,1991.848295
2798.338594,-10732.986159,962.267725,1532.190996
2798.338931,-10881.027347,1776.494261,1455.581446
2798.339268,-11177.109724,1702.473667,1302.362347
2798.339606,-11399.171507,0.000000,842.705048
2798.339943,-10214.842000,370.102971,689.485948
2798.340280,-9844.739029,-666.185348,689.485948
2798.340618,-9178.553681,-592.164754,0.000000
2798.340955,-8586.388927,-296.082377,-1838.629195
2798.341292,-9326.594869,222.061783,-2145.067394
2798.341630,-9326.594869,74.020594,-2451.505594
2798.341967,-8734.430116,0.000000,-2221.676944
2798.342304,-9696.697840,1036.288319,-766.095498
2798.342642,-10066.800811,666.185348,0.000000
2798.342979,-9548.656652,518.144159,842.705048
2798.343316,-9474.636058,296.082377,1838.629195
2798.343654,-9622.677246,0.000000,2681.334243
2798.343991,-9918.759623,518.144159,3600.648841
2798.344328,-10362.883188,0.000000,2451.505594
2798.344666,-9844.739029,814.226536,1455.581446
2798.345003,-10584.944971,592.164754,76.609550
2798.345340,-10288.862594,888.247130,-612.876398
2798.345678,-9918.759623,814.226536,-1991.848295
2798.346015,-9326.594869,0.000000,-1991.848295
2798.346352,-9104.533087,148.041188,-1991.848295
2798.346690,-9326.594869,-740.205942,-1455.581446
2798.347027,-10066.800811,-370.102971,-229.828649
2798.347364,-10658.965565,-1110.308913,536.266849
2798.347701,-10436.903782,-740.205942,536.266849
2798.348039,-10436.903782,-740.205942,766.095498
2798.348376,-11177.109724,-1480.411884,766.095498
2798.348713,-10881.027347,-2294.638420,153.219100
2798.349051,-10510.924376,-2072.576638,0.000000
2798.349388,-9918.759623,-1924.535449,-306.438199
2798.349725,-10140.821405,-2220.617826,-1532.190996
2798.350063,-9918.759623,-1554.432478,-1225.752797
2798.350400,-9918.759623,-1998.556043,-1455.581446
2798.350737,-9252.574275,-1702.473667,-459.657299
2798.351075,-9474.636058,-888.247130,1149.143247
2798.351412,-10362.883188,-740.205942,2757.943793
2798.351749,-10214.842000,518.144159,3217.601092
2798.352087,-9770.718434,1184.329507,3830.477490
2798.352424,-10584.944971,2442.679609,3294.210641
2798.352761,-10881.027347,1776.494261,2911.162892
2798.353099,-11399.171507,1554.432478,1838.629195
2798.353436,-10066.800811,1924.535449,536.266849
2798.353773,-9104.533087,666.185348,0.000000
2798.354111,-9104.533087,370.102971,0.000000
2798.354448,-8882.471304,0.000000,-1532.190996
2798.354785,-8734.430116,0.000000,-1762.019645
2798.355123,-8660.409521,518.144159,-2221.676944
2798.355460,-8882.471304,-518.144159,-1302.362347
2798.355797,-9474.636058,370.102971,153.219100
2798.356135,-9918.759623,148.041188,1685.410096
2798.356472,-10066.800811,962.267725,1915.238745
2798.356809,-10881.027347,740.205942,2068.457845
2798.357147,-11251.130318,-148.041188,1991.848295
2798.357484,-11029.068536,-1776.494261,1915.238745
2798.357821,-10732.986159,-1924.535449,1608.800546
2798.358159,-9770.718434,-1776.494261,1378.971896
2798.358496,-9992.780217,-1628.453072,689.485948
2798.358833,-9770.718434,-962.267725,-766.095498
2798.359171,-9770.718434,-666.185348,-1838.629195
2798.359508,-9474.636058,222.061783,-1838.629195
2798.359845,-10732.986159,0.000000,-1225.752797
2798.360183,-10955.047942,-222.061783,-995.924147
2798.360520,-10066.800811,0.000000,0.000000
2798.360857,-10436.903782,0.000000,459.657299
2798.361195,-10510.924376,-666.185348,1149.143247
2798.361532,-10732.986159,-1628.453072,612.876398
2798.361869,-10732.986159,-1184.329507,153.219100
2798.362206,-10436.903782,-2072.576638,-306.438199
2798.362544,-9696.697840,-1184.329507,-2145.067394
2798.362881,-9696.697840,-1702.473667,-2221.676944
2798.363218,-9548.656652,-1258.350101,-1838.629195
2798.363556,-9400.615463,-296.082377,-2298.286494
2798.363893,-9474.636058,0.000000,-1455.581446
2798.364230,-9696.697840,-592.164754,-383.047749
2798.364568,-9770.718434,-370.102971,383.047749
2798.364905,-10288.862594,-296.082377,2834.553343
2798.365242,-10807.006753,962.267725,3600.648841
2798.365580,-10584.944971,1110.308913,3677.258390
2798.365917,-10436.903782,1406.391290,3294.210641
2798.366254,-10436.903782,1628.453072,2451.505594
2798.366592,-10362.883188,1702.473667,1455.581446
2798.366929,-10066.800811,1702.473667,536.266849
2798.367266,-9548.656652,1480.411884,-153.219100
2798.367604,-9992.780217,1332.370696,-1072.533697
2798.367941,-9770.718434,962.267725,-1608.800546
2798.368278,-9252.574275,592.164754,-2068.457845
2798.368616,-9252.574275,-592.164754,-1149.143247
2798.368953,-9474.636058,-518.144159,-536.266849
2798.369290,-9326.594869,-888.247130,-306.438199
2798.369628,-10288.862594,-1036.288319,766.095498
2798.369965,-9400.615463,-888.247130,1149.143247
2798.370302,-10362.883188,-1554.432478,995.924147
2798.370640,-10881.027347,-1332.370696,1302.362347
2798.370977,-11177.109724,-1480.411884,919.314598
2798.371314,-10881.027347,-2072.576638,689.485948
2798.371652,-10362.883188,-2590.720797,306.438199
2798.371989,-10436.903782,-2812.782580,459.657299
2798.372326,-10066.800811,-1776.494261,229.828649
2798.372664,-9548.656652,-1332.370696,-229.828649
2798.373001,-9622.677246,-1406.391290,0.000000
2798.373338,-9696.697840,-962.267725,459.657299
2798.373676,-9992.780217,222.061783,1685.410096
2798.374013,-11103.089130,1184.329507,2451.505594
2798.374350,-11029.068536,1554.432478,1225.752797
2798.374688,-11103.089130,962.267725,1608.800546
2798.375025,-11251.130318,370.102971,1532.190996
2798.375362,-9622.677246,-370.102971,766.095498
2798.375699,-9844.739029,-370.102971,919.314598
2798.376037,-9474.636058,-814.226536,-612.876398
2798.376374,-9030.512492,0.000000,-1608.800546
2798.376711,-9548.656652,0.000000,-1915.238745
2798.377049,-8882.471304,0.000000,-2528.115143
2798.377386,-8956.491898,222.061783,-1532.190996
2798.377723,-9474.636058,592.164754,-536.266849
2798.378061,-9770.718434,888.247130,229.828649
2798.378398,-10436.903782,1480.411884,842.705048
2798.378735,-9918.759623,222.061783,2451.505594
2798.379073,-9992.780217,74.020594,2604.724693
2798.379410,-10140.821405,222.061783,3677.258390
2798.379747,-9992.780217,814.226536,2834.553343
2798.380085,-10436.903782,370.102971,1608.800546
2798.380422,-10584.944971,888.247130,76.609550
2798.380759,-10066.800811,888.247130,-1608.800546
2798.381097,-9844.739029,592.164754,-1455.581446
2798.381434,-9400.615463,0.000000,-2374.896044
2798.381771,-8808.450710,0.000000,-2221.676944
2798.382109,-8882.471304,-1332.370696,-1838.629195
2798.382446,-9622.677246,0.000000,-383.047749
2798.382783,-10881.027347,-1776.494261,1149.143247
2798.383121,-10732.986159,-592.164754,76.609550
2798.383458,-10510.924376,-814.226536,306.438199
2798.383795,-11251.130318,-1850.514855,0.000000
2798.384133,-10510.924376,-2664.741391,-306.438199
2798.384470,-10288.862594,-2442.679609,-229.828649
2798.384807,-10214.842000,-2294.638420,-153.219100
2798.385145,-9622.677246,-2072.576638,-1532.190996
2798.385482,-10288.862594,-2072.576638,-1685.410096
2798.385819,-10066.800811,-2294.638420,-1225.752797
2798.386157,-9030.512492,-1702.473667,-612.876398
2798.386494,-9400.615463,-1480.411884,919.314598
2798.386831,-10510.924376,-74.020594,2298.286494
2798.387169,-10214.842000,296.082377,2757.943793
2798.387506,-10732.986159,1184.329507,3217.601092
2798.387843,-10584.944971,1628.453072,3064.381992
2798.388181,-10955.047942,1628.453072,2451.505594
2798.388518,-10881.027347,1628.453072,1838.629195
2798.388855,-9918.759623,962.267725,153.219100
2798.389192,-9030.512492,888.247130,0.000000
2798.389530,-9326.594869,0.000000,-153.219100
2798.389867,-9104.533087,296.082377,-1149.143247
2798.390204,-8808.450710,0.000000,-2145.067394
2798.390542,-8808.450710,222.061783,-995.924147
2798.390879,-8882.471304,0.000000,-995.924147
2798.391216,-9178.553681,814.226536,536.266849
2798.391554,-10140.821405,1184.329507,2221.676944
2798.391891,-10732.986159,740.205942,2145.067394
2798.392228,-11103.089130,592.164754,2221.676944
2798.392566,-11251.130318,370.102971,2298.286494
2798.392903,-11547.212695,-1332.370696,2451.505594
2798.393240,-10214.842000,-1850.514855,1915.238745
2798.393578,-9548.656652,-962.267725,1149.143247
2798.393915,-10214.842000,-962.267725,689.485948
2798.394252,-9844.739029,-740.205942,-1455.581446
2798.394590,-9844.739029,-592.164754,-1532.190996
2798.394927,-9844.739029,888.247130,-1915.238745
2798.395264,-10140.821405,222.061783,-1302.362347
2798.395602,-10807.006753,222.061783,-612.876398
2798.395939,-10066.800811,-148.041188,0.000000
2798.396276,-10214.842000,-296.082377,689.485948
2798.396614,-10658.965565,-962.267725,1455.581446
2798.396951,-10584.944971,-1628.453072,689.485948
2798.397288,-10584.944971,-1332.370696,76.609550
2798.397626,-10288.862594,-2146.597232,-995.924147
2798.397963,-9252.574275,-1258.350101,-1608.800546
2798.398300,-9844.739029,-1628.453072,-1915.238745
2798.398638,-9548.656652,-1110.308913,-1991.848295
2798.398975,-9474.636058,0.000000,-2834.553343
2798.399312,-9474.636058,0.000000,-1378.971896
2798.399650,-9474.636058,-666.185348,-766.095498
2798.399987,-10066.800811,-370.102971,1532.190996
2798.400324,-10658.965565,148.041188,2604.724693
2798.400662,-10510.924376,370.102971,3907.087040
2798.400999,-10584.944971,1406.391290,3753.867940
2798.401336,-10288.862594,1036.288319,3064.381992
2798.401674,-10881.027347,1258.350101,2451.505594
2798.402011,-10214.842000,814.226536,1072.533697
2798.402348,-10066.800811,2072.576638,383.047749
2798.402685,-9918.759623,1406.391290,0.000000
2798.403023,-9326.594869,1036.288319,-2298.286494
2798.403360,-9178.553681,148.041188,-2221.676944
2798.403697,-9104.533087,222.061783,-2068.457845
2798.404035,-9252.574275,-592.164754,-995.924147
2798.404372,-9844.739029,-888.247130,-919.314598
2798.404709,-9400.615463,-1480.411884,0.000000
2798.405047,-10140.821405,-962.267725,842.705048
2798.405384,-9918.759623,-1406.391290,1302.362347
2798.405721,-10510.924376,-1258.350101,1072.533697
2798.406059,-10436.903782,-2220.617826,995.924147
2798.406396,-10658.965565,-2220.617826,842.705048
2798.406733,-10584.944971,-1924.535449,0.000000
2798.407071,-10362.883188,-2738.761985,0.000000
2798.407408,-10510.924376,-2294.638420,76.609550
2798.407745,-9696.697840,-2368.659014,-536.266849
2798.408083,-9548.656652,-1776.494261,0.000000
2798.408420,-9548.656652,-1628.453072,0.000000
2798.408757,-9918.759623,-1036.288319,995.924147
2798.409095,-10362.883188,296.082377,1762.019645
2798.409432,-10807.006753,1110.308913,1915.238745
