#time,accel_x,accel_y,accel_z
2888.274966,-9622.677246,370.102971,-919.314598
2888.275304,-10436.903782,296.082377,-689.485948
2888.275641,-10362.883188,296.082377,-1532.190996
2888.275979,-10362.883188,-370.102971,-842.705048
2888.276317,-9770.718434,-444.123565,-1225.752797
2888.276654,-9474.636058,-2294.638420,-612.876398
2888.276992,-9474.636058,-1406.391290,76.609550
2888.277330,-8734.430116,-2368.659014,-766.095498
2888.277667,-9770.718434,-1924.535449,-612.876398
2888.278005,-10288.862594,-1776.494261,-1225.752797
2888.278342,-10510.924376,-1850.514855,-1532.190996
2888.278680,-10955.047942,-592.164754,-1225.752797
2888.279018,-11473.192101,-2220.617826,-1608.800546
2888.279355,-10436.903782,-2368.659014,-1685.410096
2888.279693,-9844.739029,-3330.926739,-1225.752797
2888.280031,-9770.718434,-3775.050304,0.000000
2888.280368,-9918.759623,-3627.009116,-612.876398
2888.280706,-10732.986159,-3627.009116,-689.485948
2888.281044,-10214.842000,-2812.782580,-383.047749
2888.281381,-11103.089130,-2442.679609,-689.485948
2888.281719,-10658.965565,-592.164754,-766.095498
2888.282057,-11251.130318,-1110.308913,-1302.362347
2888.282394,-10510.924376,-814.226536,-689.485948
2888.282732,-9696.697840,-1110.308913,-2374.896044
2888.283070,-10066.800811,-962.267725,-2221.676944
2888.283407,-9918.759623,-1776.494261,-2834.553343
2888.283745,-9474.636058,-1702.473667,-3447.429741
2888.284083,-9030.512492,-2590.720797,-3140.991542
2888.284420,-7994.224174,-1850.514855,-3447.429741
2888.284758,-9104.533087,-1554.432478,-2681.334243
2888.285096,-9400.615463,-1036.288319,-2757.943793
2888.285433,-9770.718434,-444.123565,-3830.477490
2888.285771,-11251.130318,-444.123565,-3753.867940
2888.286109,-10732.986159,-1776.494261,-5209.449386
2888.286446,-9696.697840,-3034.844362,-4290.134789
2888.286784,-9548.656652,-4959.379811,-3294.210641
2888.287122,-7994.224174,-5033.400406,-2987.772442
2888.287459,-8068.244768,-4441.235652,-2221.676944
2888.287797,-9918.759623,-4071.132681,-2834.553343
2888.288135,-9252.574275,-3182.885551,-2068.457845
2888.288472,-12213.398043,-3478.967927,-3217.601092
2888.288810,-10436.903782,-2590.720797,-1608.800546
2888.289148,-10584.944971,-3108.864956,-2221.676944
2888.289485,-10881.027347,-2738.761985,-153.219100
2888.289823,-9622.677246,-2368.659014,76.609550
2888.290160,-11029.068536,-3182.885551,-383.047749
2888.290498,-11029.068536,-4071.132681,-1302.362347
2888.290836,-9844.739029,-6439.791695,-1838.629195
2888.291173,-9252.574275,-5107.421000,306.438199
2888.291511,-9400.615463,-4219.173869,459.657299
2888.291849,-9770.718434,-1924.535449,-612.876398
2888.292186,-10584.944971,-2664.741391,-3064.381992
2888.292524,-11695.253884,-2590.720797,-2604.724693
2888.292862,-10510.924376,-2960.823768,-1838.629195
2888.293199,-9622.677246,-3256.906145,-1072.533697
2888.293537,-9104.533087,-3182.885551,-1225.752797
2888.293875,-9844.739029,-5107.421000,76.609550
2888.294212,-10214.842000,-4959.379811,153.219100
2888.294550,-9696.697840,-4145.153275,842.705048
2888.294888,-9104.533087,-2442.679609,1225.752797
2888.295225,-9474.636058,-2368.659014,766.095498
2888.295563,-11547.212695,-1332.370696,-306.438199
2888.295901,-11695.253884,740.205942,-612.876398
2888.296238,-9770.718434,1924.535449,-1149.143247
2888.296576,-8216.285956,1110.308913,1455.581446
2888.296914,-10732.986159,1406.391290,2374.896044
2888.297251,-11547.212695,2146.597232,536.266849
2888.297589,-11029.068536,2664.741391,-689.485948
2888.297926,-9474.636058,222.061783,-995.924147
2888.298264,-9474.636058,-740.205942,0.000000
2888.298602,-10510.924376,518.144159,-1072.533697
2888.298939,-9104.533087,1110.308913,-3370.820191
2888.299277,-8290.306550,1184.329507,-2604.724693
2888.299615,-9548.656652,518.144159,-2987.772442
2888.299952,-10436.903782,1036.288319,-4290.134789
2888.300290,-9918.759623,370.102971,-4213.525239
2888.300628,-8512.368333,74.020594,-2298.286494
2888.300965,-9252.574275,-1036.288319,-1608.800546
2888.301303,-9252.574275,-1406.391290,383.047749
2888.301640,-8956.491898,-2590.720797,1455.581446
2888.301978,-10732.986159,-2368.659014,2451.505594
2888.302316,-11547.212695,-370.102971,0.000000
2888.302653,-10658.965565,-592.164754,-995.924147
2888.302991,-10066.800811,-1110.308913,383.047749
2888.303329,-10066.800811,-1850.514855,153.219100
2888.303666,-10288.862594,0.000000,-612.876398
2888.304004,-9622.677246,74.020594,229.828649
2888.304341,-10140.821405,814.226536,459.657299
2888.304679,-11029.068536,444.123565,76.609550
2888.305017,-11621.233289,0.000000,-153.219100
2888.305354,-10881.027347,0.000000,1455.581446
2888.305692,-11103.089130,-518.144159,2145.067394
2888.306030,-10214.842000,0.000000,612.876398
2888.306367,-10807.006753,-666.185348,306.438199
2888.306705,-10362.883188,-444.123565,536.266849
2888.307042,-8438.347739,0.000000,-306.438199
2888.307380,-9474.636058,-1036.288319,-459.657299
2888.307718,-10140.821405,-1998.556043,0.000000
2888.308055,-9400.615463,-1184.329507,-459.657299
2888.308393,-8882.471304,-740.205942,383.047749
2888.308731,-9104.533087,-814.226536,1378.971896
2888.309068,-10066.800811,-666.185348,1302.362347
2888.309406,-10140.821405,-962.267725,1685.410096
2888.309743,-9326.594869,-370.102971,2374.896044
2888.310081,-9474.636058,0.000000,2681.334243
2888.310419,-9252.574275,296.082377,2987.772442
2888.310756,-10066.800811,592.164754,3524.039291
2888.311094,-11177.109724,1480.411884,3447.429741
2888.311432,-11473.192101,1480.411884,1225.752797
2888.311769,-10955.047942,1406.391290,0.000000
2888.312107,-10955.047942,592.164754,-689.485948
2888.312444,-10214.842000,-74.020594,-1685.410096
2888.312782,-9474.636058,-1110.308913,-2834.553343
2888.313120,-9178.553681,-1332.370696,-2145.067394
2888.313457,-8734.430116,-2146.597232,-1991.848295
2888.313795,-8512.368333,-2516.700203,-1685.410096
2888.314133,-9326.594869,-1998.556043,-1838.629195
2888.314470,-9770.718434,-1998.556043,-1072.533697
2888.314808,-10140.821405,-1776.494261,-1072.533697
2888.315145,-10362.883188,-2812.782580,536.266849
2888.315483,-11103.089130,-2146.597232,1455.581446
2888.315821,-10140.821405,-2072.576638,-383.047749
2888.316158,-10066.800811,-2886.803174,-1225.752797
2888.316496,-10214.842000,-3849.070898,153.219100
2888.316834,-10436.903782,-3627.009116,-689.485948
2888.317171,-9622.677246,-2590.720797,-1072.533697
2888.317509,-9992.780217,-1480.411884,0.000000
2888.317846,-10066.800811,0.000000,-459.657299
2888.318184,-10807.006753,296.082377,-612.876398
2888.318522,-11251.130318,1480.411884,1685.410096
2888.318859,-10955.047942,1628.453072,2221.676944
2888.319197,-11251.130318,1406.391290,2374.896044
2888.319535,-10658.965565,74.020594,2298.286494
2888.319872,-10584.944971,296.082377,2374.896044
2888.320210,-10214.842000,888.247130,919.314598
2888.320547,-9178.553681,-74.020594,-306.438199
2888.320885,-9326.594869,74.020594,-536.266849
2888.321223,-9474.636058,222.061783,-1762.019645
2888.321560,-9548.656652,148.041188,-2298.286494
2888.321898,-9178.553681,666.185348,-1225.752797
2888.322236,-9400.615463,740.205942,-459.657299
2888.322573,-9622.677246,814.226536,-766.095498
2888.322911,-9622.677246,814.226536,459.657299
2888.323248,-9622.677246,592.164754,2911.162892
2888.323586,-10140.821405,-74.020594,3217.601092
2888.323924,-9622.677246,-814.226536,3524.039291
2888.324261,-11251.130318,370.102971,4060.306139
2888.324599,-11177.109724,666.185348,1608.800546
2888.324937,-10066.800811,1036.288319,-76.609550
2888.325274,-9696.697840,-296.082377,76.609550
2888.325612,-10140.821405,-148.041188,459.657299
2888.325949,-9844.739029,0.000000,-1225.752797
2888.326287,-9548.656652,0.000000,-1225.752797
2888.326625,-10066.800811,444.123565,-1225.752797
2888.326962,-10658.965565,0.000000,-1302.362347
2888.327300,-10288.862594,-444.123565,-612.876398
2888.327638,-10288.862594,0.000000,153.219100
2888.327975,-10584.944971,-1258.350101,-536.266849
2888.328313,-10362.883188,-1924.535449,0.000000
2888.328650,-10436.903782,-1702.473667,459.657299
2888.328988,-10362.883188,-1554.432478,-306.438199
2888.329326,-10140.821405,-2146.597232,-689.485948
2888.329663,-10362.883188,-2146.597232,-766.095498
2888.330001,-10288.862594,-1998.556043,-689.485948
2888.330339,-9918.759623,-1554.432478,-612.876398
2888.330676,-9770.718434,-1480.411884,536.266849
2888.331014,-10510.924376,-666.185348,1838.629195
2888.331351,-10807.006753,-518.144159,1455.581446
2888.331689,-10584.944971,444.123565,995.924147
2888.332027,-10362.883188,1036.288319,1685.410096
2888.332364,-9622.677246,592.164754,1532.190996
2888.332702,-9474.636058,740.205942,1685.410096
2888.333040,-9918.759623,1776.494261,2834.553343
2888.333377,-10955.047942,1998.556043,2145.067394
2888.333715,-9844.739029,1702.473667,-612.876398
2888.334053,-9696.697840,148.041188,0.000000
2888.334390,-9770.718434,148.041188,0.000000
2888.334728,-9400.615463,-962.267725,-306.438199
2888.335065,-8438.347739,-740.205942,-306.438199
2888.335403,-8956.491898,-74.020594,-689.485948
2888.335741,-8808.450710,-1110.308913,-1532.190996
2888.336078,-9548.656652,-1406.391290,-1685.410096
2888.336416,-9474.636058,-1258.350101,-383.047749
2888.336754,-9844.739029,-1184.329507,306.438199
2888.337091,-9474.636058,-1110.308913,1149.143247
2888.337429,-10658.965565,-1850.514855,1302.362347
2888.337766,-10584.944971,-1332.370696,1685.410096
2888.338104,-10732.986159,-1702.473667,1608.800546
2888.338442,-10584.944971,-1924.535449,1378.971896
2888.338779,-11103.089130,-1924.535449,612.876398
2888.339117,-10140.821405,-2072.576638,-459.657299
2888.339455,-9548.656652,-1628.453072,-229.828649
2888.339792,-9696.697840,-592.164754,459.657299
2888.340130,-10584.944971,-666.185348,-459.657299
2888.340467,-11029.068536,0.000000,-995.924147
2888.340805,-11029.068536,222.061783,-842.705048
2888.341143,-9548.656652,-592.164754,-306.438199
2888.341480,-9252.574275,-814.226536,76.609550
2888.341818,-10140.821405,-1332.370696,995.924147
2888.342156,-10658.965565,-1258.350101,383.047749
2888.342493,-9474.636058,-888.247130,-1302.362347
2888.342831,-9622.677246,-1110.308913,-766.095498
2888.343168,-10140.821405,-1628.453072,-689.485948
2888.343506,-9474.636058,-1924.535449,-1915.238745
2888.343844,-8956.491898,-592.164754,-612.876398
2888.344181,-8956.491898,-370.102971,919.314598
2888.344519,-9474.636058,74.020594,0.000000
2888.344857,-9844.739029,-592.164754,0.000000
2888.345194,-10584.944971,0.000000,2298.286494
2888.345532,-9548.656652,888.247130,2221.676944
2888.345869,-9252.574275,1184.329507,2451.505594
2888.346207,-10362.883188,1332.370696,3064.381992
2888.346545,-10584.944971,1776.494261,2528.115143
2888.346882,-9992.780217,1924.535449,536.266849
2888.347220,-10658.965565,1628.453072,1378.971896
2888.347558,-11325.150913,1184.329507,919.314598
2888.347895,-10881.027347,296.082377,-689.485948
2888.348233,-8956.491898,0.000000,-1225.752797
2888.348570,-8808.450710,0.000000,-689.485948
2888.348908,-9474.636058,-444.123565,-842.705048
2888.349246,-9844.739029,-962.267725,-1532.190996
2888.349583,-10066.800811,-814.226536,-919.314598
2888.349921,-9992.780217,-1184.329507,-229.828649
2888.350259,-10066.800811,-1480.411884,-842.705048
2888.350596,-10214.842000,-1776.494261,1225.752797
2888.350934,-10732.986159,-1480.411884,1532.190996
2888.351271,-10140.821405,-1480.411884,-306.438199
2888.351609,-10214.842000,-1850.514855,-459.657299
2888.351947,-10955.047942,-2220.617826,536.266849
2888.352284,-10362.883188,-2368.659014,229.828649
2888.352622,-9252.574275,-1924.535449,0.000000
2888.352960,-9252.574275,-592.164754,1149.143247
2888.353297,-10362.883188,-370.102971,689.485948
2888.353635,-10436.903782,0.000000,0.000000
2888.353972,-10362.883188,0.000000,612.876398
2888.354310,-10510.924376,592.164754,612.876398
2888.354648,-9844.739029,592.164754,919.314598
2888.354985,-9918.759623,962.267725,1149.143247
2888.355323,-10140.821405,592.164754,842.705048
2888.355661,-9622.677246,1406.391290,-459.657299
2888.355998,-9844.739029,518.144159,-153.219100
2888.356336,-9844.739029,296.082377,-689.485948
2888.356673,-10140.821405,-444.123565,-1149.143247
2888.357011,-9844.739029,0.000000,-1072.533697
2888.357349,-8512.368333,0.000000,-306.438199
2888.357686,-9474.636058,518.144159,0.000000
2888.358024,-10066.800811,0.000000,-612.876398
2888.358362,-9474.636058,296.082377,306.438199
2888.358699,-9622.677246,814.226536,919.314598
2888.359037,-9918.759623,0.000000,1149.143247
2888.359374,-10066.800811,444.123565,2681.334243
2888.359712,-10807.006753,592.164754,2834.553343
2888.360050,-10288.862594,666.185348,1762.019645
2888.360387,-10362.883188,666.185348,1225.752797
2888.360725,-10288.862594,-814.226536,1378.971896
2888.361063,-10140.821405,-740.205942,1072.533697
2888.361400,-9400.615463,-962.267725,0.000000
2888.361738,-9252.574275,444.123565,-536.266849
2888.362075,-10214.842000,-370.102971,-536.266849
2888.362413,-10214.842000,-814.226536,-1455.581446
2888.362751,-9992.780217,-740.205942,-1532.190996
2888.363088,-10288.862594,-592.164754,-689.485948
2888.363426,-9992.780217,-1332.370696,-1532.190996
2888.363764,-9918.759623,-1258.350101,-536.266849
2888.364101,-10436.903782,-2294.638420,0.000000
2888.364439,-10066.800811,-592.164754,-536.266849
2888.364777,-10584.944971,-1850.514855,-153.219100
2888.365114,-10807.006753,-1702.473667,383.047749
2888.365452,-10214.842000,-2220.617826,0.000000
2888.365789,-10140.821405,-1258.350101,612.876398
2888.366127,-9474.636058,-740.205942,689.485948
2888.366465,-9918.759623,-370.102971,919.314598
2888.366802,-10658.965565,-370.102971,536.266849
2888.367140,-10066.800811,666.185348,536.266849
2888.367478,-10066.800811,888.247130,1608.800546
2888.367815,-10066.800811,888.247130,2221.676944
2888.368153,-9918.759623,1332.370696,2068.457845
2888.368490,-10362.883188,1554.432478,1991.848295
2888.368828,-10288.862594,2812.782580,919.314598
2888.369166,-9400.615463,1850.514855,-383.047749
2888.369503,-9992.780217,888.247130,689.485948
2888.369841,-9696.697840,370.102971,-383.047749
2888.370179,-9400.615463,592.164754,-153.219100
2888.370516,-9474.636058,1628.453072,-306.438199
2888.370854,-9326.594869,444.123565,-1072.533697
2888.371191,-9326.594869,666.185348,-2298.286494
2888.371529,-9548.656652,-814.226536,-1991.848295
2888.371867,-9474.636058,-296.082377,-612.876398
2888.372204,-9252.574275,-1036.288319,0.000000
2888.372542,-9474.636058,-740.205942,2374.896044
2888.372880,-9770.718434,-518.144159,1378.971896
2888.373217,-10658.965565,-222.061783,995.924147
2888.373555,-11177.109724,148.041188,383.047749
2888.373892,-10658.965565,-1258.350101,1838.629195
2888.374230,-11251.130318,-1110.308913,1532.190996
2888.374568,-10362.883188,-962.267725,383.047749
2888.374905,-10214.842000,-666.185348,842.705048
2888.375243,-10066.800811,-814.226536,306.438199
2888.375581,-10066.800811,0.000000,-689.485948
2888.375918,-10732.986159,-296.082377,-536.266849
2888.376256,-10066.800811,-592.164754,-1608.800546
2888.376593,-9548.656652,-1480.411884,-766.095498
2888.376931,-9918.759623,-888.247130,-306.438199
2888.377269,-9622.677246,-592.164754,919.314598
2888.377606,-10288.862594,-444.123565,0.000000
2888.377944,-9844.739029,-888.247130,-1072.533697
2888.378282,-9844.739029,-1406.391290,306.438199
2888.378619,-10584.944971,-1776.494261,995.924147
2888.378957,-9474.636058,-1628.453072,76.609550
2888.379294,-9474.636058,-962.267725,689.485948
2888.379632,-9770.718434,-592.164754,612.876398
2888.379970,-9326.594869,0.000000,-919.314598
2888.380307,-10140.821405,0.000000,-306.438199
2888.380645,-10288.862594,296.082377,1532.190996
2888.380983,-9548.656652,740.205942,1225.752797
2888.381320,-9918.759623,814.226536,2298.286494
2888.381658,-10362.883188,2072.576638,2528.115143
2888.381995,-10066.800811,1850.514855,1838.629195
2888.382333,-10140.821405,2220.617826,459.657299
2888.382671,-10066.800811,1184.329507,1225.752797
2888.383008,-10955.047942,1184.329507,1149.143247
2888.383346,-10362.883188,518.144159,0.000000
2888.383684,-9844.739029,1332.370696,-153.219100
2888.384021,-9474.636058,370.102971,-612.876398
2888.384359,-9696.697840,666.185348,-1762.019645
2888.384696,-9696.697840,-740.205942,-1838.629195
2888.385034,-9400.615463,-518.144159,-1762.019645
2888.385372,-8956.491898,-1184.329507,-1378.971896
2888.385709,-10288.862594,-1702.473667,-383.047749
2888.386047,-10436.903782,-1406.391290,919.314598
2888.386385,-10436.903782,-1184.329507,76.609550
2888.386722,-10066.800811,-1258.350101,-229.828649
2888.387060,-9696.697840,-1702.473667,306.438199
2888.387397,-10881.027347,-2294.638420,1685.410096
2888.387735,-10658.965565,-1702.473667,842.705048
2888.388073,-9474.636058,-1332.370696,306.438199
2888.388410,-9992.780217,-740.205942,1225.752797
2888.388748,-9844.739029,0.000000,459.657299
2888.389086,-10436.903782,0.000000,0.000000
2888.389423,-10584.944971,222.061783,1072.533697
2888.389761,-9918.759623,296.082377,306.438199
2888.390098,-10066.800811,592.164754,383.047749
2888.390436,-10510.924376,666.185348,1455.581446
2888.390774,-10288.862594,1184.329507,612.876398
2888.391111,-9770.718434,1480.411884,-689.485948
2888.391449,-9992.780217,518.144159,76.609550
2888.391787,-10362.883188,222.061783,536.266849
2888.392124,-9992.780217,0.000000,-459.657299
2888.392462,-9252.574275,-74.020594,-459.657299
2888.392799,-9030.512492,0.000000,536.266849
2888.393137,-10066.800811,666.185348,383.047749
2888.393475,-10066.800811,-74.020594,-766.095498
2888.393812,-9400.615463,222.061783,229.828649
2888.394150,-9400.615463,666.185348,1072.533697
2888.394488,-9844.739029,296.082377,1225.752797
2888.394825,-10584.944971,888.247130,2221.676944
2888.395163,-10436.903782,222.061783,2145.067394
2888.395500,-10658.965565,1702.473667,1455.581446
2888.395838,-9992.780217,962.267725,842.705048
2888.396176,-10658.965565,592.164754,2068.457845
2888.396513,-10436.903782,-518.144159,1302.362347
2888.396851,-9474.636058,0.000000,536.266849
2888.397189,-9696.697840,1110.308913,842.705048
2888.397526,-10955.047942,666.185348,-306.438199
2888.397864,-10658.965565,0.000000,-1608.800546
2888.398202,-10584.944971,0.000000,-1455.581446
2888.398539,-9770.718434,0.000000,-842.705048
2888.398876,-9400.615463,-888.247130,-1302.362347
2888.399214,-10362.883188,-1998.556043,229.828649
2888.399551,-10288.862594,-2146.597232,0.000000
2888.399889,-9622.677246,-1850.514855,-306.438199
2888.400226,-9844.739029,-1480.411884,0.000000
2888.400563,-10288.862594,-2516.700203,995.924147
2888.400901,-10362.883188,-2146.597232,383.047749
2888.401238,-9474.636058,-1702.473667,0.000000
2888.401576,-9474.636058,-1480.411884,1072.533697
2888.401913,-9918.759623,-222.061783,1378.971896
2888.402250,-10362.883188,-888.247130,612.876398
2888.402588,-10658.965565,0.000000,1455.581446
2888.402925,-9844.739029,666.185348,995.924147
2888.403263,-10066.800811,1258.350101,1378.971896
2888.403600,-10881.027347,592.164754,1378.971896
2888.403937,-10732.986159,962.267725,1532.190996
2888.404275,-10510.924376,1924.535449,76.609550
2888.404612,-9770.718434,1036.288319,0.000000
2888.404950,-10066.800811,148.041188,536.266849
2888.405287,-9770.718434,0.000000,229.828649
2888.405624,-9326.594869,148.041188,-229.828649
2888.405962,-9696.697840,888.247130,459.657299
2888.406299,-10436.903782,-74.020594,-536.266849
2888.406637,-9400.615463,-296.082377,-1608.800546
2888.406974,-9696.697840,-1258.350101,-459.657299
2888.407312,-9622.677246,-1036.288319,766.095498
2888.407649,-8956.491898,-1776.494261,-383.047749
2888.407986,-9548.656652,-1998.556043,766.095498
2888.408324,-10214.842000,-1480.411884,1685.410096
2888.408661,-9696.697840,-666.185348,383.047749
2888.408999,-9252.574275,-296.082377,0.000000
2888.409336,-10584.944971,-1110.308913,995.924147
2888.409673,-11177.109724,-666.185348,229.828649
2888.410011,-10436.903782,-296.082377,-459.657299
2888.410348,-10214.842000,370.102971,689.485948
2888.410686,-10140.821405,-592.164754,766.095498
2888.411023,-10881.027347,74.020594,-153.219100
2888.411360,-10658.965565,74.020594,153.219100
2888.411698,-10214.842000,0.000000,-383.047749
2888.412035,-9992.780217,-296.082377,0.000000
2888.412373,-10362.883188,-962.267725,153.219100
2888.412710,-10807.006753,-296.082377,0.000000
2888.413047,-10214.842000,0.000000,-1072.533697
2888.413385,-9696.697840,-592.164754,-1149.143247
2888.413722,-9548.656652,-814.226536,0.000000
2888.414060,-9992.780217,-2146.597232,459.657299
2888.414397,-9918.759623,-814.226536,153.219100
2888.414735,-9474.636058,-888.247130,1149.143247
2888.415072,-9918.759623,-296.082377,1608.800546
2888.415409,-9622.677246,-444.123565,383.047749
2888.415747,-9548.656652,-444.123565,1378.971896
2888.416084,-9992.780217,444.123565,2068.457845
2888.416422,-9474.636058,444.123565,995.924147
2888.416759,-9548.656652,962.267725,1378.971896
2888.417096,-10140.821405,1776.494261,1838.629195
2888.417434,-10510.924376,1776.494261,766.095498
2888.417771,-10214.842000,2146.597232,306.438199
2888.418109,-9696.697840,1406.391290,919.314598
2888.418446,-10362.883188,1924.535449,612.876398
2888.418783,-10362.883188,1110.308913,-995.924147
2888.419121,-9770.718434,1258.350101,-459.657299
2888.419458,-9844.739029,222.061783,-612.876398
2888.419796,-10510.924376,370.102971,-766.095498
2888.420133,-9992.780217,-148.041188,-1302.362347
2888.420470,-9548.656652,-666.185348,-612.876398
2888.420808,-9400.615463,-1184.329507,-612.876398
2888.421145,-9770.718434,-2220.617826,-383.047749
2888.421483,-10436.903782,-1110.308913,1072.533697
2888.421820,-11103.089130,-962.267725,0.000000
2888.422158,-10214.842000,-1036.288319,-766.095498
2888.422495,-9622.677246,-1998.556043,0.000000
2888.422832,-10436.903782,-1998.556043,536.266849
2888.423170,-9844.739029,-1554.432478,919.314598
2888.423507,-9252.574275,-1480.411884,919.314598
2888.423845,-10288.862594,0.000000,1838.629195
2888.424182,-11103.089130,-296.082377,1149.143247
2888.424519,-10658.965565,74.020594,383.047749
2888.424857,-10510.924376,74.020594,919.314598
2888.425194,-10288.862594,74.020594,1378.971896
2888.425532,-9622.677246,296.082377,153.219100
2888.425869,-10066.800811,518.144159,1455.581446
2888.426206,-10807.006753,444.123565,766.095498
2888.426544,-9844.739029,444.123565,-1072.533697
2888.426881,-10214.842000,222.061783,-995.924147
2888.427219,-10288.862594,0.000000,-1072.533697
2888.427556,-9252.574275,-962.267725,-1455.581446
2888.427893,-9030.512492,-962.267725,0.000000
2888.428231,-8956.491898,-444.123565,919.314598
2888.428568,-9696.697840,-740.205942,1072.533697
2888.428906,-10658.965565,-296.082377,766.095498
2888.429243,-10066.800811,-370.102971,1149.143247
2888.429581,-9844.739029,-962.267725,1149.143247
2888.429918,-9474.636058,-1110.308913,1991.848295
2888.430255,-9696.697840,-296.082377,2221.676944
2888.430593,-10436.903782,-444.123565,1685.410096
2888.430930,-10140.821405,666.185348,459.657299
2888.431268,-9622.677246,0.000000,-536.266849
2888.431605,-10881.027347,-222.061783,306.438199
2888.431942,-9918.759623,0.000000,-612.876398
2888.432280,-9548.656652,-296.082377,-689.485948
2888.432617,-9474.636058,370.102971,-76.609550
2888.432955,-9992.780217,-148.041188,-689.485948
2888.433292,-10807.006753,-444.123565,-383.047749
2888.433629,-10807.006753,-814.226536,-766.095498
2888.433967,-10362.883188,-1036.288319,-1072.533697
2888.434304,-10066.800811,-1184.329507,-1608.800546
2888.434642,-10140.821405,-2146.597232,-766.095498
2888.434979,-10362.883188,-2368.659014,-306.438199
2888.435316,-9918.759623,-2368.659014,-1532.190996
2888.435654,-9252.574275,-1628.453072,-1149.143247
2888.435991,-11029.068536,-2220.617826,459.657299
2888.436329,-10362.883188,-1850.514855,-536.266849
2888.436666,-9252.574275,-1776.494261,0.000000
2888.437004,-9992.780217,-740.205942,1762.019645
2888.437341,-9770.718434,-74.020594,1608.800546
2888.437678,-11547.212695,0.000000,1915.238745
2888.438016,-10807.006753,74.020594,1915.238745
2888.438353,-9696.697840,888.247130,1455.581446
2888.438691,-10288.862594,1406.391290,1991.848295
2888.439028,-10436.903782,74.020594,1378.971896
2888.439365,-10066.800811,1332.370696,919.314598
2888.439703,-9622.677246,1702.473667,-995.924147
2888.440040,-9252.574275,1258.350101,-459.657299
2888.440378,-9992.780217,592.164754,383.047749
2888.440715,-9918.759623,-444.123565,-689.485948
2888.441052,-8956.491898,666.185348,-1072.533697
2888.441390,-8882.471304,518.144159,306.438199
2888.441727,-9326.594869,740.205942,229.828649
2888.442065,-9992.780217,-962.267725,0.000000
2888.442402,-10140.821405,-592.164754,536.266849
2888.442739,-10066.800811,-666.185348,842.705048
2888.443077,-10288.862594,-1036.288319,919.314598
2888.443414,-9844.739029,-1702.473667,1455.581446
2888.443752,-10214.842000,-1776.494261,1302.362347
2888.444089,-9844.739029,-1554.432478,766.095498
2888.444427,-9252.574275,-296.082377,76.609550
2888.444764,-11029.068536,-1850.514855,1762.019645
2888.445101,-10881.027347,-148.041188,383.047749
2888.445439,-9844.739029,-148.041188,-612.876398
2888.445776,-10288.862594,370.102971,1072.533697
2888.446114,-10140.821405,0.000000,229.828649
2888.446451,-10436.903782,0.000000,-612.876398
2888.446788,-10732.986159,222.061783,-76.609550
2888.447126,-10214.842000,0.000000,0.000000
2888.447463,-9918.759623,-962.267725,-689.485948
2888.447801,-10436.903782,-1850.514855,0.000000
2888.448138,-10214.842000,-1258.350101,-153.219100
2888.448475,-9770.718434,-666.185348,-1762.019645
2888.448813,-9326.594869,-740.205942,-1685.410096
2888.449150,-9548.656652,-1850.514855,-1455.581446
2888.449488,-10288.862594,-1998.556043,-1149.143247
2888.449825,-9400.615463,-1332.370696,-919.314598
2888.450162,-9178.553681,-814.226536,459.657299
2888.450500,-9696.697840,0.000000,1378.971896
2888.450837,-10140.821405,-962.267725,842.705048
2888.451175,-10066.800811,296.082377,1838.629195
2888.451512,-10732.986159,666.185348,2374.896044
2888.451850,-10362.883188,370.102971,2374.896044
2888.452187,-10214.842000,740.205942,1915.238745
2888.452524,-10658.965565,1110.308913,2681.334243
2888.452862,-9844.739029,1406.391290,766.095498
2888.453199,-9474.636058,1554.432478,0.000000
2888.453537,-10066.800811,1480.411884,306.438199
2888.453874,-10214.842000,370.102971,-306.438199
2888.454211,-9918.759623,296.082377,-1608.800546
2888.454549,-9252.574275,888.247130,-383.047749
2888.454886,-9918.759623,148.041188,0.000000
2888.455224,-9622.677246,-814.226536,-842.705048
2888.455561,-9400.615463,-666.185348,-536.266849
2888.455898,-9992.780217,-1258.350101,995.924147
2888.456236,-9622.677246,-1776.494261,-383.047749
2888.456573,-9918.759623,-2738.761985,766.095498
2888.456911,-11029.068536,-1850.514855,1378.971896
2888.457248,-10584.944971,-1554.432478,76.609550
2888.457585,-10214.842000,-1554.432478,-612.876398
2888.457923,-9622.677246,-2812.782580,153.219100
2888.458260,-10066.800811,-2738.761985,229.828649
2888.458598,-9844.739029,-2220.617826,306.438199
2888.458935,-9770.718434,-1110.308913,536.266849
2888.459273,-9918.759623,-222.061783,995.924147
2888.459610,-10807.006753,-888.247130,383.047749
2888.459947,-10881.027347,592.164754,612.876398
2888.460285,-10732.986159,222.061783,689.485948
2888.460622,-10288.862594,0.000000,766.095498
2888.460960,-9844.739029,148.041188,229.828649
2888.461297,-10732.986159,148.041188,1532.190996
2888.461634,-10288.862594,296.082377,-383.047749
2888.461972,-9474.636058,0.000000,-1991.848295
2888.462309,-9770.718434,148.041188,-1225.752797
2888.462647,-10140.821405,-444.123565,-1072.533697
2888.462984,-9548.656652,-740.205942,-2451.505594
2888.463321,-8882.471304,-444.123565,-612.876398
2888.463659,-9400.615463,222.061783,383.047749
2888.463996,-9770.718434,-518.144159,536.266849
2888.464334,-10510.924376,222.061783,229.828649
2888.464671,-9844.739029,0.000000,1685.410096
2888.465008,-9548.656652,-370.102971,1455.581446
2888.465346,-9474.636058,-370.102971,2451.505594
2888.465683,-10658.965565,0.000000,3217.601092
2888.466021,-10807.006753,592.164754,2068.457845
2888.466358,-10140.821405,1036.288319,0.000000
2888.466695,-9622.677246,296.082377,76.609550
2888.467033,-10658.965565,0.000000,0.000000
2888.467370,-9474.636058,-370.102971,-1302.362347
2888.467708,-9474.636058,148.041188,-612.876398
2888.468045,-9030.512492,370.102971,0.000000
2888.468383,-10066.800811,74.020594,0.000000
2888.468720,-10584.944971,518.144159,0.000000
2888.469057,-10732.986159,-592.164754,383.047749
2888.469395,-10732.986159,-740.205942,229.828649
2888.469732,-10066.800811,-962.267725,-536.266849
2888.470070,-10584.944971,-2072.576638,689.485948
2888.470407,-10881.027347,-1924.535449,-306.438199
2888.470744,-9622.677246,-2442.679609,-1685.410096
2888.471082,-9326.594869,-2146.597232,-1225.752797
2888.471419,-9770.718434,-2442.679609,76.609550
2888.471757,-10288.862594,-2516.700203,-1072.533697
2888.472094,-9696.697840,-1702.473667,-306.438199
2888.472431,-9178.553681,-592.164754,1149.143247
2888.472769,-9770.718434,-370.102971,2068.457845
2888.473106,-11325.150913,444.123565,2528.115143
2888.473444,-10732.986159,592.164754,2528.115143
2888.473781,-10214.842000,666.185348,2068.457845
2888.474118,-10140.821405,1036.288319,1762.019645
2888.474456,-10807.006753,296.082377,2374.896044
2888.474793,-10510.924376,888.247130,766.095498
2888.475131,-9474.636058,1258.350101,-1302.362347
2888.475468,-9326.594869,1258.350101,-1225.752797
2888.475806,-9696.697840,296.082377,-995.924147
2888.476143,-10066.800811,0.000000,-1915.238745
2888.476480,-9474.636058,148.041188,-1838.629195
2888.476818,-8882.471304,1480.411884,-842.705048
2888.477155,-9696.697840,888.247130,-383.047749
2888.477493,-10732.986159,-370.102971,0.000000
2888.477830,-10140.821405,-518.144159,766.095498
2888.478167,-9844.739029,-592.164754,1225.752797
2888.478505,-9992.780217,-888.247130,1302.362347
2888.478842,-10732.986159,-1184.329507,2068.457845
2888.479180,-10881.027347,-1776.494261,1532.190996
2888.479517,-10214.842000,-888.247130,0.000000
2888.479854,-9474.636058,-518.144159,-153.219100
2888.480192,-10732.986159,-1110.308913,995.924147
2888.480529,-10214.842000,-1554.432478,-229.828649
2888.480867,-9252.574275,-666.185348,-766.095498
2888.481204,-8734.430116,518.144159,536.266849
2888.481541,-10066.800811,-370.102971,842.705048
2888.481879,-10807.006753,-148.041188,536.266849
2888.482216,-10955.047942,-222.061783,612.876398
2888.482554,-10584.944971,-296.082377,229.828649
2888.482891,-9622.677246,-592.164754,0.000000
2888.483229,-10881.027347,-592.164754,1991.848295
2888.483566,-11325.150913,-1184.329507,383.047749
2888.483903,-9770.718434,-370.102971,-2221.676944
2888.484241,-9992.780217,-666.185348,-1685.410096
2888.484578,-10214.842000,-1332.370696,-1072.533697
2888.484916,-10436.903782,-2294.638420,-1302.362347
2888.485253,-9622.677246,-1110.308913,-612.876398
2888.485590,-9178.553681,370.102971,766.095498
2888.485928,-9844.739029,296.082377,1302.362347
2888.486265,-11103.089130,-666.185348,2221.676944
2888.486603,-10955.047942,592.164754,2757.943793
2888.486940,-10288.862594,444.123565,2911.162892
2888.487277,-9918.759623,518.144159,2757.943793
2888.487615,-9696.697840,666.185348,3600.648841
2888.487952,-10140.821405,888.247130,2911.162892
2888.488290,-9474.636058,1776.494261,229.828649
2888.488627,-8956.491898,1628.453072,-919.314598
2888.488964,-9844.739029,592.164754,-306.438199
2888.489302,-9918.759623,0.000000,-1378.971896
2888.489639,-9030.512492,888.247130,-2221.676944
2888.489977,-8882.471304,1110.308913,-689.485948
2888.490314,-9474.636058,444.123565,-1149.143247
2888.490652,-9992.780217,-814.226536,-612.876398
2888.490989,-10288.862594,-444.123565,-153.219100
2888.491326,-10066.800811,-666.185348,383.047749
2888.491664,-10510.924376,-1850.514855,383.047749
2888.492001,-10510.924376,-1480.411884,1762.019645
2888.492339,-11621.233289,-1702.473667,2145.067394
2888.492676,-10807.006753,-814.226536,-995.924147
2888.493013,-9696.697840,-1258.350101,-1532.190996
2888.493351,-10288.862594,-2072.576638,306.438199
2888.493688,-10214.842000,-2368.659014,-459.657299
2888.494026,-9770.718434,-1702.473667,-612.876398
2888.494363,-9770.718434,0.000000,153.219100
2888.494700,-9474.636058,-296.082377,689.485948
2888.495038,-11399.171507,-148.041188,1378.971896
2888.495375,-10658.965565,222.061783,1685.410096
2888.495713,-10214.842000,148.041188,2145.067394
2888.496050,-10140.821405,222.061783,2298.286494
2888.496387,-9696.697840,74.020594,1762.019645
2888.496725,-10510.924376,148.041188,1838.629195
2888.497062,-10362.883188,666.185348,-766.095498
2888.497400,-8882.471304,74.020594,-2451.505594
2888.497737,-9474.636058,-296.082377,-1302.362347
2888.498075,-9548.656652,-1258.350101,-1762.019645
2888.498412,-8364.327145,-740.205942,-2834.553343
2888.498749,-8586.388927,0.000000,-995.924147
2888.499087,-8734.430116,0.000000,229.828649
2888.499424,-9918.759623,0.000000,459.657299
2888.499762,-10658.965565,1036.288319,1302.362347
2888.500099,-10436.903782,518.144159,2298.286494
2888.500436,-10066.800811,0.000000,2374.896044
2888.500774,-10140.821405,0.000000,3524.039291
2888.501111,-11177.109724,666.185348,3830.477490
2888.501449,-11177.109724,1924.535449,1302.362347
2888.501786,-10362.883188,888.247130,-1149.143247
2888.502124,-10510.924376,0.000000,-229.828649
2888.502461,-9770.718434,-592.164754,-689.485948
2888.502798,-9770.718434,0.000000,-1532.190996
2888.503136,-8882.471304,740.205942,-1149.143247
2888.503473,-8882.471304,0.000000,-1072.533697
2888.503811,-9918.759623,592.164754,-1149.143247
2888.504148,-10658.965565,-592.164754,76.609550
2888.504486,-10214.842000,222.061783,689.485948
2888.504823,-10288.862594,-1480.411884,229.828649
2888.505160,-10584.944971,-1406.391290,919.314598
2888.505498,-10881.027347,-1702.473667,536.266849
2888.505835,-10584.944971,-1406.391290,-689.485948
2888.506173,-9474.636058,-2368.659014,-1762.019645
2888.506510,-8882.471304,-2368.659014,-1608.800546
2888.506847,-9918.759623,-2738.761985,-842.705048
2888.507185,-10066.800811,-1850.514855,-1915.238745
2888.507522,-9252.574275,-1480.411884,-383.047749
2888.507860,-9548.656652,-740.205942,689.485948
2888.508197,-10214.842000,74.020594,1532.190996
2888.508535,-11251.130318,296.082377,2374.896044
2888.508872,-11029.068536,888.247130,3600.648841
2888.509209,-10140.821405,592.164754,3140.991542
2888.509547,-10732.986159,1184.329507,3064.381992
2888.509884,-11177.109724,1184.329507,3294.210641
2888.510222,-10584.944971,1184.329507,0.000000
2888.510559,-8956.491898,1332.370696,-766.095498
2888.510897,-8660.409521,1036.288319,-153.219100
2888.511234,-9474.636058,296.082377,-612.876398
2888.511571,-9770.718434,0.000000,-2068.457845
2888.511909,-8808.450710,888.247130,-2145.067394
2888.512246,-8882.471304,740.205942,-1455.581446
2888.512584,-9622.677246,296.082377,-459.657299
2888.512921,-9548.656652,-444.123565,229.828649
2888.513259,-9696.697840,0.000000,1915.238745
2888.513596,-9844.739029,-666.185348,1762.019645
2888.513933,-9696.697840,-666.185348,1991.848295
2888.514271,-10955.047942,-1184.329507,2145.067394
2888.514608,-10510.924376,-444.123565,1915.238745
2888.514946,-10140.821405,-1036.288319,153.219100
2888.515283,-9622.677246,-1332.370696,76.609550
2888.515620,-9548.656652,-592.164754,383.047749
2888.515958,-10658.965565,-1184.329507,-842.705048
2888.516295,-9252.574275,0.000000,-1225.752797
2888.516633,-9400.615463,0.000000,-153.219100
2888.516970,-10955.047942,222.061783,0.000000
2888.517308,-10658.965565,-74.020594,-306.438199
2888.517645,-10807.006753,74.020594,612.876398
2888.517982,-10658.965565,-296.082377,766.095498
2888.518320,-10510.924376,-148.041188,612.876398
2888.518657,-11177.109724,-148.041188,1762.019645
2888.518995,-11177.109724,-592.164754,-76.609550
2888.519332,-10214.842000,-296.082377,-1838.629195
2888.519670,-9770.718434,-962.267725,-1838.629195
2888.520007,-9770.718434,-2072.576638,-766.095498
2888.520344,-9622.677246,-1924.535449,-689.485948
2888.520682,-9252.574275,-1184.329507,-1072.533697
2888.521019,-8882.471304,0.000000,-76.609550
2888.521357,-9770.718434,-592.164754,536.266849
2888.521694,-10436.903782,0.000000,1225.752797
2888.522032,-10214.842000,74.020594,2145.067394
2888.522369,-9844.739029,1110.308913,2911.162892
2888.522706,-9696.697840,1110.308913,2987.772442
2888.523044,-10955.047942,1332.370696,3677.258390
2888.523381,-10362.883188,1554.432478,2834.553343
2888.523719,-9622.677246,1776.494261,536.266849
2888.524056,-9474.636058,1258.350101,459.657299
2888.524394,-10140.821405,1110.308913,-153.219100
2888.524731,-10362.883188,0.000000,-919.314598
2888.525068,-9030.512492,1702.473667,-1762.019645
2888.525406,-8956.491898,888.247130,-1838.629195
2888.525743,-9844.739029,740.205942,-1225.752797
2888.526081,-9992.780217,-74.020594,-1455.581446
2888.526418,-9548.656652,-444.123565,-612.876398
2888.526755,-9474.636058,-962.267725,842.705048
2888.527093,-9622.677246,-1480.411884,689.485948
2888.527430,-10510.924376,-1332.370696,2298.286494
2888.527768,-11843.295072,-1406.391290,1685.410096
2888.528105,-10510.924376,-888.247130,-459.657299
2888.528443,-10140.821405,-1776.494261,-689.485948
2888.528780,-10955.047942,-2294.638420,995.924147
2888.529117,-9918.759623,-2960.823768,-766.095498
2888.529455,-9326.594869,-1850.514855,-995.924147
2888.529792,-8808.450710,-888.247130,0.000000
2888.530130,-9696.697840,-666.185348,0.000000
2888.530467,-10881.027347,0.000000,459.657299
2888.530805,-10658.965565,0.000000,306.438199
2888.531142,-10362.883188,1184.329507,1378.971896
2888.531479,-11103.089130,296.082377,1915.238745
2888.531817,-10658.965565,0.000000,1915.238745
2888.532154,-10288.862594,0.000000,2221.676944
2888.532492,-10140.821405,814.226536,459.657299
2888.532829,-9474.636058,296.082377,-995.924147
2888.533167,-10066.800811,-296.082377,-1225.752797
2888.533504,-10066.800811,-592.164754,-2298.286494
2888.533841,-8956.491898,-592.164754,-2604.724693
2888.534179,-8438.347739,-370.102971,-1072.533697
2888.534516,-8512.368333,148.041188,-229.828649
2888.534854,-10214.842000,-370.102971,0.000000
2888.535191,-9770.718434,370.102971,306.438199
2888.535528,-9696.697840,74.020594,1149.143247
2888.535866,-10436.903782,148.041188,2987.772442
2888.536203,-10214.842000,0.000000,4213.525239
2888.536541,-10658.965565,296.082377,4290.134789
2888.536878,-10584.944971,1998.556043,1838.629195
2888.537216,-10140.821405,962.267725,153.219100
2888.537553,-11103.089130,518.144159,459.657299
2888.537890,-10214.842000,-518.144159,-1149.143247
2888.538228,-9178.553681,222.061783,-1915.238745
2888.538565,-8512.368333,74.020594,-689.485948
2888.538903,-9030.512492,0.000000,-459.657299
2888.539240,-10214.842000,0.000000,-689.485948
2888.539578,-10807.006753,-370.102971,-153.219100
2888.539915,-9992.780217,74.020594,229.828649
2888.540252,-10658.965565,-1184.329507,459.657299
2888.540590,-10658.965565,-1332.370696,1455.581446
2888.540927,-10881.027347,-1480.411884,919.314598
2888.541265,-10732.986159,-1110.308913,0.000000
2888.541602,-10066.800811,-2220.617826,-689.485948
2888.541940,-9770.718434,-2368.659014,-995.924147
2888.542277,-10362.883188,-2294.638420,-1532.190996
2888.542614,-9696.697840,-2368.659014,-1991.848295
2888.542952,-9252.574275,-1776.494261,-689.485948
2888.543289,-9326.594869,-1480.411884,919.314598
2888.543627,-10510.924376,0.000000,536.266849
2888.543964,-10362.883188,222.061783,1072.533697
2888.544302,-10732.986159,1036.288319,1991.848295
2888.544639,-10584.944971,518.144159,3294.210641
2888.544976,-10807.006753,814.226536,2987.772442
2888.545314,-10955.047942,1406.391290,3140.991542
2888.545651,-10658.965565,1998.556043,1378.971896
2888.545989,-9326.594869,1628.453072,-306.438199
2888.546326,-9326.594869,814.226536,-612.876398
2888.546663,-9474.636058,0.000000,-766.095498
2888.547001,-9252.574275,296.082377,-2145.067394
2888.547338,-8364.327145,518.144159,-2451.505594
2888.547676,-8586.388927,740.205942,-1302.362347
2888.548013,-8956.491898,0.000000,-1532.190996
2888.548351,-9844.739029,444.123565,0.000000
2888.548688,-9622.677246,518.144159,153.219100
2888.549025,-9844.739029,-444.123565,1149.143247
2888.549363,-10732.986159,-370.102971,2681.334243
2888.549700,-10881.027347,-1332.370696,3140.991542
2888.550038,-10732.986159,-518.144159,2451.505594
2888.550375,-9844.739029,-518.144159,919.314598
2888.550713,-10362.883188,-814.226536,1072.533697
2888.551050,-11029.068536,-814.226536,536.266849
2888.551387,-10510.924376,-1258.350101,-1149.143247
2888.551725,-9474.636058,-222.061783,-766.095498
2888.552062,-9844.739029,-74.020594,-229.828649
2888.552400,-10214.842000,370.102971,-689.485948
2888.552737,-10436.903782,0.000000,-919.314598
2888.553075,-10362.883188,-148.041188,153.219100
2888.553412,-10066.800811,-1258.350101,995.924147
2888.553749,-10140.821405,-1702.473667,1532.190996
2888.554087,-11177.109724,-740.205942,2374.896044
2888.554424,-11547.212695,-962.267725,612.876398
2888.554762,-10066.800811,-1036.288319,-1378.971896
2888.555099,-9770.718434,-1554.432478,-919.314598
2888.555436,-10362.883188,-2220.617826,-383.047749
2888.555774,-9326.594869,-2368.659014,-1149.143247
2888.556111,-8882.471304,-1184.329507,-1838.629195
2888.556449,-9474.636058,-592.164754,-459.657299
2888.556786,-9696.697840,-592.164754,-459.657299
2888.557124,-10362.883188,0.000000,459.657299
2888.557461,-10658.965565,148.041188,1762.019645
2888.557798,-9548.656652,666.185348,2451.505594
2888.558136,-10140.821405,666.185348,3064.381992
2888.558473,-10955.047942,1406.391290,3907.087040
2888.558811,-10288.862594,1480.411884,2911.162892
2888.559148,-9992.780217,1924.535449,1532.190996
2888.559486,-9992.780217,1924.535449,919.314598
2888.559823,-10436.903782,1628.453072,-76.609550
2888.560160,-10362.883188,1036.288319,-1302.362347
2888.560498,-8882.471304,962.267725,-2068.457845
2888.560835,-9252.574275,814.226536,-1302.362347
2888.561173,-10066.800811,666.185348,-1455.581446
2888.561510,-9918.759623,-740.205942,-1915.238745
2888.561848,-9030.512492,0.000000,-1149.143247
2888.562185,-9104.533087,-1406.391290,-689.485948
2888.562522,-10214.842000,-1998.556043,842.705048
2888.562860,-10362.883188,-1776.494261,1838.629195
2888.563197,-11399.171507,-962.267725,2145.067394
2888.563535,-10658.965565,-888.247130,459.657299
2888.563872,-9844.739029,-1406.391290,-76.609550
2888.564209,-11399.171507,-2220.617826,919.314598
2888.564547,-10214.842000,-2146.597232,-383.047749
2888.564884,-9178.553681,-2368.659014,-153.219100
2888.565222,-8882.471304,-1110.308913,229.828649
2888.565559,-9844.739029,-888.247130,0.000000
2888.565897,-10658.965565,-740.205942,0.000000
2888.566234,-10362.883188,-962.267725,689.485948
2888.566571,-9844.739029,296.082377,689.485948
2888.566909,-11029.068536,-296.082377,1685.410096
2888.567246,-10955.047942,0.000000,2298.286494
2888.567584,-10807.006753,296.082377,1455.581446
2888.567921,-10510.924376,666.185348,0.000000
2888.568259,-10214.842000,222.061783,-153.219100
2888.568596,-10362.883188,-888.247130,-766.095498
2888.568933,-9992.780217,-666.185348,-1991.848295
2888.569271,-9104.533087,-666.185348,-1915.238745
2888.569608,-8882.471304,0.000000,-689.485948
2888.569946,-9474.636058,0.000000,-459.657299
2888.570283,-9992.780217,0.000000,-383.047749
2888.570621,-9252.574275,0.000000,459.657299
2888.570958,-9770.718434,444.123565,1302.362347
2888.571295,-9918.759623,222.061783,2681.334243
2888.571633,-10140.821405,-444.123565,3524.039291
2888.571970,-10214.842000,962.267725,3217.601092
2888.572308,-10288.862594,1110.308913,1762.019645
2888.572645,-9918.759623,1110.308913,766.095498
2888.572983,-10658.965565,814.226536,459.657299
2888.573320,-10807.006753,0.000000,-536.266849
2888.573657,-9104.533087,518.144159,-1838.629195
2888.573995,-8882.471304,518.144159,-1455.581446
2888.574332,-9474.636058,444.123565,-1149.143247
2888.574670,-9474.636058,-148.041188,-1762.019645
2888.575007,-10362.883188,-370.102971,-612.876398
2888.575344,-10362.883188,-444.123565,-306.438199
2888.575682,-10807.006753,-962.267725,229.828649
2888.576019,-11103.089130,-1406.391290,1532.190996
2888.576357,-10807.006753,-1406.391290,842.705048
2888.576694,-9844.739029,-1480.411884,229.828649
2888.577032,-10362.883188,-1776.494261,0.000000
2888.577369,-10510.924376,-2886.803174,0.000000
2888.577706,-10732.986159,-2368.659014,-383.047749
2888.578044,-9770.718434,-2664.741391,-536.266849
2888.578381,-9104.533087,-1184.329507,-459.657299
2888.578719,-9696.697840,-1702.473667,689.485948
2888.579056,-10214.842000,-962.267725,536.266849
2888.579394,-9992.780217,-148.041188,1225.752797
2888.579731,-10362.883188,222.061783,1762.019645
2888.580068,-10140.821405,0.000000,2145.067394
2888.580406,-10658.965565,148.041188,2604.724693
2888.580743,-10881.027347,962.267725,2298.286494
2888.581081,-10140.821405,1332.370696,459.657299
2888.581418,-9400.615463,1480.411884,-383.047749
2888.581756,-9400.615463,222.061783,-306.438199
2888.582093,-9770.718434,0.000000,-459.657299
2888.582430,-9326.594869,370.102971,-1302.362347
2888.582768,-9326.594869,962.267725,-1072.533697
2888.583105,-9252.574275,222.061783,-1225.752797
2888.583443,-9326.594869,-888.247130,-1838.629195
2888.583780,-9696.697840,0.000000,-536.266849
2888.584117,-9622.677246,-814.226536,689.485948
2888.584455,-9844.739029,-814.226536,919.314598
2888.584792,-10066.800811,-1480.411884,1838.629195
2888.585130,-10955.047942,-148.041188,2451.505594
2888.585467,-10362.883188,-296.082377,842.705048
2888.585805,-10362.883188,-370.102971,229.828649
2888.586142,-10066.800811,-1184.329507,1455.581446
2888.586479,-10288.862594,-1184.329507,306.438199
2888.586817,-10214.842000,-962.267725,229.828649
2888.587154,-10214.842000,0.000000,0.000000
2888.587492,-10066.800811,-222.061783,-229.828649
2888.587829,-10955.047942,222.061783,-842.705048
2888.588167,-10362.883188,148.041188,-842.705048
2888.588504,-10288.862594,-740.205942,-612.876398
2888.588841,-9770.718434,-666.185348,-459.657299
2888.589179,-9844.739029,-1332.370696,153.219100
2888.589516,-10658.965565,-444.123565,536.266849
2888.589854,-11251.130318,-444.123565,-306.438199
2888.590191,-9622.677246,-444.123565,-2374.896044
2888.590529,-9844.739029,-1554.432478,-383.047749
2888.590866,-10214.842000,-2146.597232,766.095498
2888.591203,-9474.636058,-1258.350101,-612.876398
2888.591541,-9178.553681,-888.247130,536.266849
2888.591878,-9474.636058,-296.082377,383.047749
2888.592216,-10436.903782,-592.164754,0.000000
2888.592553,-10732.986159,0.000000,459.657299
2888.592891,-9696.697840,74.020594,1608.800546
2888.593228,-9400.615463,222.061783,2374.896044
2888.593565,-9696.697840,1036.288319,2757.943793
2888.593903,-10658.965565,2072.576638,2987.772442
2888.594240,-11325.150913,2072.576638,1838.629195
2888.594578,-9622.677246,2368.659014,306.438199
2888.594915,-10066.800811,1184.329507,1685.410096
2888.595252,-10214.842000,1110.308913,1608.800546
2888.595590,-9400.615463,1702.473667,-612.876398
2888.595927,-10140.821405,1184.329507,76.609550
2888.596265,-9622.677246,1036.288319,-1072.533697
2888.596602,-10140.821405,444.123565,-1915.238745
2888.596940,-10658.965565,-222.061783,-1608.800546
2888.597277,-8586.388927,-1184.329507,-1532.190996
2888.597614,-8956.491898,-1776.494261,-536.266849
2888.597952,-9474.636058,-2146.597232,383.047749
2888.598289,-9918.759623,-1036.288319,1149.143247
2888.598626,-10807.006753,-962.267725,612.876398
2888.598964,-10362.883188,-1554.432478,-689.485948
2888.599301,-9844.739029,-1554.432478,459.657299
2888.599638,-11029.068536,-2146.597232,1455.581446
2888.599975,-9770.718434,-2294.638420,842.705048
2888.600313,-9474.636058,-1332.370696,919.314598
2888.600650,-9770.718434,-888.247130,1149.143247
2888.600987,-10732.986159,-666.185348,-536.266849
2888.601325,-11177.109724,-666.185348,-459.657299
2888.601662,-10436.903782,-444.123565,76.609550
2888.601999,-9992.780217,-296.082377,459.657299
2888.602337,-10140.821405,0.000000,766.095498
2888.602674,-10510.924376,74.020594,1072.533697
2888.603011,-10584.944971,0.000000,76.609550
2888.603349,-10140.821405,0.000000,-612.876398
2888.603686,-10436.903782,296.082377,-459.657299
2888.604023,-10584.944971,-1036.288319,-153.219100
2888.604360,-10140.821405,-666.185348,-1378.971896
2888.604698,-8882.471304,-1554.432478,0.000000
2888.605035,-8956.491898,0.000000,229.828649
2888.605372,-9474.636058,-370.102971,-306.438199
2888.605710,-10362.883188,-666.185348,229.828649
2888.606047,-9474.636058,-518.144159,76.609550
2888.606384,-9178.553681,-370.102971,1072.533697
2888.606722,-9400.615463,-444.123565,2528.115143
2888.607059,-9696.697840,-296.082377,2987.772442
2888.607396,-10214.842000,592.164754,3064.381992
2888.607734,-10066.800811,1184.329507,1378.971896
2888.608071,-9696.697840,1332.370696,919.314598
2888.608408,-11029.068536,0.000000,1225.752797
2888.608745,-11029.068536,74.020594,229.828649
2888.609083,-9622.677246,370.102971,-229.828649
2888.609420,-10066.800811,740.205942,0.000000
2888.609757,-9844.739029,296.082377,-1225.752797
2888.610095,-9844.739029,-296.082377,-1991.848295
2888.610432,-9844.739029,-592.164754,-1225.752797
2888.610769,-10066.800811,-962.267725,-1378.971896
2888.611107,-10214.842000,-592.164754,-842.705048
2888.611444,-11029.068536,-1110.308913,229.828649
2888.611781,-10955.047942,-1480.411884,-76.609550
2888.612119,-9918.759623,-1554.432478,-995.924147
2888.612456,-10140.821405,-1332.370696,-306.438199
2888.612793,-10362.883188,-2368.659014,383.047749
2888.613130,-10214.842000,-2664.741391,-153.219100
2888.613468,-9992.780217,-1998.556043,153.219100
2888.613805,-9622.677246,-1184.329507,919.314598
2888.614142,-10066.800811,-740.205942,842.705048
2888.614480,-9992.780217,74.020594,0.000000
2888.614817,-10140.821405,296.082377,995.924147
2888.615154,-9548.656652,444.123565,689.485948
2888.615492,-9992.780217,1036.288319,1455.581446
2888.615829,-10732.986159,962.267725,2834.553343
2888.616166,-10436.903782,1924.535449,1608.800546
2888.616504,-10214.842000,2072.576638,383.047749
2888.616841,-10288.862594,1628.453072,-76.609550
2888.617178,-9622.677246,296.082377,306.438199
2888.617515,-9918.759623,370.102971,0.000000
2888.617853,-8956.491898,740.205942,-612.876398
2888.618190,-9474.636058,1406.391290,0.000000
2888.618527,-10140.821405,518.144159,-995.924147
2888.618865,-9918.759623,0.000000,-919.314598
2888.619202,-9474.636058,-222.061783,536.266849
2888.619539,-10214.842000,-222.061783,1685.410096
2888.619877,-9400.615463,0.000000,459.657299
2888.620214,-9992.780217,-1258.350101,1532.190996
2888.620551,-10732.986159,-592.164754,2374.896044
2888.620889,-10140.821405,-740.205942,842.705048
2888.621226,-9992.780217,0.000000,1072.533697
2888.621563,-10584.944971,-1258.350101,1838.629195
2888.621900,-9474.636058,-1184.329507,383.047749
2888.622238,-9474.636058,-296.082377,0.000000
2888.622575,-10066.800811,-296.082377,1225.752797
2888.622912,-10140.821405,-296.082377,0.000000
2888.623250,-10732.986159,0.000000,-766.095498
2888.623587,-11103.089130,222.061783,-459.657299
2888.623924,-10140.821405,-592.164754,-689.485948
2888.624262,-10214.842000,-1480.411884,-153.219100
2888.624599,-9844.739029,-1184.329507,459.657299
2888.624936,-10955.047942,-962.267725,0.000000
2888.625274,-10510.924376,-962.267725,-1378.971896
2888.625611,-10214.842000,-1332.370696,-2298.286494
2888.625948,-10140.821405,-2072.576638,0.000000
2888.626285,-10214.842000,-2368.659014,0.000000
2888.626623,-9326.594869,-1628.453072,-306.438199
2888.626960,-9474.636058,-1110.308913,766.095498
2888.627297,-9696.697840,-888.247130,536.266849
2888.627635,-10584.944971,-592.164754,0.000000
2888.627972,-10066.800811,0.000000,766.095498
2888.628309,-10214.842000,296.082377,1991.848295
2888.628647,-10066.800811,74.020594,1302.362347
2888.628984,-9622.677246,592.164754,1915.238745
2888.629321,-9770.718434,1554.432478,2374.896044
2888.629659,-10362.883188,1406.391290,842.705048
2888.629996,-9622.677246,1628.453072,76.609550
2888.630333,-9622.677246,1184.329507,459.657299
2888.630670,-9918.759623,1110.308913,76.609550
2888.631008,-9770.718434,1332.370696,0.000000
2888.631345,-9326.594869,888.247130,383.047749
2888.631682,-9474.636058,1036.288319,229.828649
2888.632020,-10214.842000,740.205942,-1302.362347
2888.632357,-10510.924376,740.205942,-842.705048
2888.632694,-10066.800811,-814.226536,-995.924147
2888.633032,-9548.656652,-1258.350101,-1378.971896
2888.633369,-9030.512492,-1850.514855,153.219100
2888.633706,-9770.718434,-1332.370696,689.485948
2888.634044,-9992.780217,-1036.288319,0.000000
2888.634381,-9844.739029,-1776.494261,0.000000
2888.634718,-10066.800811,-1480.411884,689.485948
2888.635055,-10881.027347,-1850.514855,1149.143247
2888.635393,-10658.965565,-1406.391290,1378.971896
2888.635730,-9844.739029,-1332.370696,1608.800546
2888.636067,-10140.821405,-888.247130,1991.848295
2888.636405,-10584.944971,-814.226536,1149.143247
2888.636742,-10807.006753,-148.041188,1149.143247
2888.637079,-10658.965565,-222.061783,1072.533697
2888.637417,-10658.965565,-666.185348,0.000000
2888.637754,-9844.739029,0.000000,536.266849
2888.638091,-10214.842000,-222.061783,536.266849
2888.638429,-10214.842000,-74.020594,-383.047749
2888.638766,-9474.636058,-296.082377,-995.924147
2888.639103,-9696.697840,0.000000,-612.876398
2888.639440,-10436.903782,-444.123565,-536.266849
2888.639778,-9992.780217,-666.185348,-1378.971896
2888.640115,-9770.718434,-74.020594,0.000000
2888.640452,-9104.533087,-370.102971,229.828649
2888.640790,-9696.697840,296.082377,383.047749
2888.641127,-10362.883188,370.102971,459.657299
2888.641464,-10362.883188,74.020594,1149.143247
2888.641802,-9992.780217,0.000000,306.438199
2888.642139,-9844.739029,370.102971,1532.190996
2888.642476,-10214.842000,1332.370696,2298.286494
2888.642814,-9844.739029,1110.308913,995.924147
2888.643151,-9696.697840,2368.659014,76.609550
2888.643488,-9844.739029,2072.576638,459.657299
2888.643825,-10510.924376,1776.494261,76.609550
2888.644163,-10881.027347,962.267725,76.609550
2888.644500,-9474.636058,1258.350101,229.828649
2888.644837,-9400.615463,1110.308913,1072.533697
2888.645175,-9474.636058,740.205942,153.219100
2888.645512,-9400.615463,148.041188,-306.438199
2888.645849,-9918.759623,-666.185348,229.828649
2888.646187,-10066.800811,-962.267725,-536.266849
2888.646524,-9696.697840,-296.082377,-1149.143247
2888.646861,-10362.883188,-1480.411884,-612.876398
2888.647199,-10288.862594,-1628.453072,-995.924147
2888.647536,-9326.594869,-1924.535449,-2298.286494
2888.647873,-9548.656652,-1850.514855,-612.876398
2888.648210,-10288.862594,-2516.700203,-76.609550
2888.648548,-10288.862594,-2960.823768,-383.047749
2888.648885,-10362.883188,-1850.514855,919.314598
2888.649222,-10658.965565,-1924.535449,2528.115143
2888.649560,-10436.903782,-1406.391290,2145.067394
2888.649897,-11177.109724,-1258.350101,1685.410096
2888.650234,-10436.903782,-592.164754,1915.238745
2888.650572,-10214.842000,-148.041188,1608.800546
2888.650909,-10510.924376,74.020594,1149.143247
2888.651246,-10288.862594,0.000000,1225.752797
2888.651584,-10288.862594,-74.020594,1149.143247
2888.651921,-9622.677246,1702.473667,-612.876398
2888.652258,-9770.718434,444.123565,-995.924147
2888.652595,-10362.883188,740.205942,-995.924147
2888.652933,-9474.636058,-666.185348,-1225.752797
2888.653270,-9474.636058,444.123565,-229.828649
2888.653607,-8734.430116,592.164754,153.219100
2888.653945,-9400.615463,0.000000,0.000000
2888.654282,-10066.800811,-370.102971,306.438199
2888.654619,-9918.759623,148.041188,1072.533697
2888.654957,-10436.903782,-370.102971,1149.143247
2888.655294,-9770.718434,0.000000,383.047749
2888.655631,-9844.739029,-518.144159,1455.581446
2888.655969,-10807.006753,-370.102971,1685.410096
2888.656306,-10066.800811,0.000000,-536.266849
2888.656643,-9178.553681,148.041188,0.000000
2888.656980,-10362.883188,0.000000,766.095498
2888.657318,-10066.800811,0.000000,0.000000
2888.657655,-10140.821405,592.164754,842.705048
2888.657992,-9844.739029,222.061783,1685.410096
2888.658330,-10140.821405,814.226536,689.485948
2888.658667,-10658.965565,518.144159,229.828649
2888.659004,-10584.944971,370.102971,229.828649
2888.659342,-10066.800811,-74.020594,-76.609550
2888.659679,-10436.903782,-592.164754,-689.485948
2888.660016,-9474.636058,-1110.308913,-306.438199
2888.660354,-9770.718434,-1406.391290,-842.705048
2888.660691,-9918.759623,-592.164754,-1532.190996
2888.661028,-9178.553681,-1406.391290,-2757.943793
2888.661365,-9548.656652,-1850.514855,-766.095498
2888.661703,-9844.739029,-2812.782580,-766.095498
2888.662040,-9992.780217,-1554.432478,0.000000
2888.662377,-10066.800811,-814.226536,536.266849
2888.662715,-10288.862594,-962.267725,1149.143247
2888.663052,-10436.903782,-1036.288319,689.485948
2888.663389,-10140.821405,-592.164754,2298.286494
2888.663727,-10732.986159,370.102971,2451.505594
2888.664064,-10584.944971,-444.123565,1991.848295
2888.664401,-10288.862594,666.185348,1685.410096
2888.664739,-10214.842000,888.247130,1991.848295
2888.665076,-10658.965565,1702.473667,919.314598
2888.665413,-9474.636058,1332.370696,76.609550
2888.665750,-9400.615463,1628.453072,383.047749
2888.666088,-9844.739029,1184.329507,153.219100
2888.666425,-9918.759623,1628.453072,-383.047749
2888.666762,-9696.697840,1628.453072,383.047749
2888.667100,-9844.739029,1628.453072,0.000000
2888.667437,-9918.759623,444.123565,-919.314598
2888.667774,-10436.903782,888.247130,0.000000
2888.668112,-9474.636058,-592.164754,-383.047749
2888.668449,-9400.615463,-1480.411884,-459.657299
2888.668786,-9474.636058,-1406.391290,612.876398
2888.669124,-9770.718434,-1480.411884,766.095498
2888.669461,-10066.800811,-1036.288319,-536.266849
2888.669798,-9622.677246,-1554.432478,-1149.143247
2888.670135,-9104.533087,-1332.370696,-229.828649
2888.670473,-10288.862594,-1998.556043,306.438199
2888.670810,-10658.965565,-1184.329507,1302.362347
2888.671147,-9992.780217,-518.144159,1149.143247
2888.671485,-10214.842000,-222.061783,1532.190996
2888.671822,-10288.862594,-222.061783,842.705048
2888.672159,-10955.047942,-1184.329507,1762.019645
2888.672497,-11251.130318,-444.123565,1608.800546
2888.672834,-9844.739029,-1110.308913,76.609550
2888.673171,-9770.718434,-370.102971,612.876398
2888.673509,-10362.883188,-666.185348,0.000000
2888.673846,-10436.903782,0.000000,-919.314598
2888.674183,-9844.739029,-1258.350101,-1532.190996
2888.674520,-9326.594869,0.000000,-1532.190996
2888.674858,-10140.821405,-1184.329507,-1072.533697
2888.675195,-10140.821405,-1480.411884,-1455.581446
2888.675532,-9400.615463,-370.102971,-306.438199
2888.675870,-9548.656652,-592.164754,536.266849
2888.676207,-9474.636058,-370.102971,76.609550
2888.676544,-10140.821405,-370.102971,1225.752797
2888.676882,-10584.944971,-518.144159,1608.800546
2888.677219,-9474.636058,-148.041188,842.705048
2888.677556,-10066.800811,222.061783,2145.067394
2888.677894,-10214.842000,592.164754,2911.162892
2888.678231,-10214.842000,1184.329507,1225.752797
2888.678568,-9992.780217,888.247130,306.438199
2888.678905,-9030.512492,1332.370696,0.000000
2888.679243,-9622.677246,518.144159,459.657299
2888.679580,-10288.862594,592.164754,383.047749
2888.679917,-9400.615463,962.267725,-306.438199
2888.680255,-9548.656652,1850.514855,-383.047749
2888.680592,-9548.656652,888.247130,-612.876398
2888.680929,-10066.800811,370.102971,-612.876398
2888.681267,-9992.780217,-148.041188,306.438199
2888.681604,-9992.780217,-370.102971,-229.828649
2888.681941,-10066.800811,-222.061783,0.000000
2888.682279,-10658.965565,-888.247130,612.876398
2888.682616,-10658.965565,-1036.288319,0.000000
2888.682953,-10214.842000,-1406.391290,-1608.800546
2888.683290,-9992.780217,-1406.391290,-229.828649
2888.683628,-10658.965565,-2146.597232,-766.095498
2888.683965,-10066.800811,-3108.864956,-689.485948
2888.684302,-9474.636058,-1554.432478,-153.219100
2888.684640,-9548.656652,-1480.411884,1608.800546
2888.684977,-9696.697840,-296.082377,1225.752797
2888.685314,-10584.944971,-888.247130,1149.143247
2888.685652,-11325.150913,-222.061783,2528.115143
2888.685989,-9992.780217,0.000000,1685.410096
2888.686326,-9992.780217,370.102971,1838.629195
2888.686664,-11029.068536,148.041188,2528.115143
2888.687001,-10658.965565,592.164754,842.705048
2888.687338,-10066.800811,1110.308913,-1378.971896
2888.687675,-9252.574275,444.123565,-1532.190996
2888.688013,-9474.636058,-592.164754,0.000000
2888.688350,-9474.636058,-666.185348,-1685.410096
2888.688687,-9474.636058,592.164754,-766.095498
2888.689025,-9030.512492,1110.308913,-689.485948
2888.689362,-10140.821405,518.144159,-919.314598
2888.689699,-10214.842000,0.000000,-229.828649
2888.690037,-10066.800811,0.000000,1225.752797
2888.690374,-9992.780217,0.000000,1762.019645
2888.690711,-9474.636058,-666.185348,536.266849
2888.691049,-10436.903782,-592.164754,2374.896044
2888.691386,-11251.130318,-592.164754,2145.067394
2888.691723,-10140.821405,-444.123565,-689.485948
2888.692060,-9474.636058,222.061783,0.000000
2888.692398,-10214.842000,-518.144159,76.609550
2888.692735,-9918.759623,-1554.432478,-919.314598
2888.693072,-8734.430116,-444.123565,-306.438199
2888.693410,-9400.615463,148.041188,1225.752797
2888.693747,-9918.759623,296.082377,842.705048
2888.694084,-10584.944971,0.000000,306.438199
2888.694422,-10881.027347,444.123565,612.876398
2888.694759,-10584.944971,-222.061783,919.314598
2888.695096,-10362.883188,-814.226536,76.609550
2888.695434,-10288.862594,-1480.411884,919.314598
2888.695771,-11177.109724,-1702.473667,153.219100
2888.696108,-9918.759623,-888.247130,-2604.724693
2888.696445,-9474.636058,-1998.556043,-2681.334243
2888.696783,-9474.636058,-2516.700203,-1991.848295
2888.697120,-9622.677246,-3256.906145,-1532.190996
2888.697457,-9252.574275,-1776.494261,-383.047749
2888.697795,-9326.594869,-74.020594,76.609550
2888.698132,-10214.842000,-370.102971,229.828649
2888.698469,-10881.027347,-962.267725,612.876398
2888.698807,-10807.006753,-740.205942,2528.115143
2888.699144,-10510.924376,222.061783,3140.991542
2888.699481,-10658.965565,-148.041188,2374.896044
2888.699819,-10066.800811,296.082377,2757.943793
2888.700156,-10881.027347,148.041188,2451.505594
2888.700493,-10066.800811,1110.308913,306.438199
2888.700831,-9252.574275,1480.411884,-1072.533697
2888.701168,-9696.697840,888.247130,-919.314598
2888.701506,-9770.718434,148.041188,-1378.971896
2888.701843,-9030.512492,888.247130,-1991.848295
2888.702180,-8882.471304,1998.556043,-612.876398
2888.702518,-9474.636058,666.185348,-383.047749
2888.702855,-9844.739029,0.000000,-766.095498
2888.703192,-9918.759623,-222.061783,842.705048
2888.703530,-10362.883188,-962.267725,1302.362347
2888.703867,-9474.636058,-1406.391290,766.095498
2888.704204,-9548.656652,-2146.597232,1762.019645
2888.704542,-10436.903782,-740.205942,2068.457845
2888.704879,-10436.903782,-1110.308913,-229.828649
2888.705216,-9918.759623,-1110.308913,-1302.362347
2888.705554,-9400.615463,-888.247130,-842.705048
2888.705891,-10584.944971,-2294.638420,-459.657299
2888.706228,-10362.883188,-740.205942,-383.047749
2888.706566,-9400.615463,222.061783,306.438199
2888.706903,-9696.697840,444.123565,842.705048
2888.707241,-10584.944971,0.000000,1072.533697
2888.707578,-11621.233289,74.020594,2068.457845
2888.707915,-11547.212695,148.041188,1991.848295
2888.708253,-11103.089130,0.000000,1991.848295
2888.708590,-10584.944971,0.000000,2068.457845
2888.708927,-11029.068536,-518.144159,1608.800546
2888.709265,-10214.842000,296.082377,-842.705048
2888.709602,-8956.491898,0.000000,-2451.505594
2888.709939,-8808.450710,-222.061783,-1915.238745
2888.710277,-9474.636058,-1332.370696,-2221.676944
2888.710614,-9548.656652,-1554.432478,-2145.067394
2888.710951,-8808.450710,0.000000,-1072.533697
2888.711289,-8882.471304,-222.061783,-536.266849
2888.711626,-9696.697840,0.000000,306.438199
2888.711964,-10658.965565,0.000000,1762.019645
2888.712301,-10436.903782,-222.061783,2374.896044
2888.712638,-9474.636058,-518.144159,2374.896044
2888.712976,-9992.780217,0.000000,3677.258390
2888.713313,-10510.924376,148.041188,3753.867940
2888.713650,-10288.862594,814.226536,1072.533697
2888.713988,-9474.636058,1332.370696,-536.266849
2888.714325,-10066.800811,814.226536,0.000000
2888.714662,-10584.944971,518.144159,-536.266849
2888.715000,-10584.944971,592.164754,-612.876398
2888.715337,-9770.718434,962.267725,-689.485948
2888.715674,-9030.512492,740.205942,-995.924147
2888.716012,-9770.718434,518.144159,-383.047749
2888.716349,-10436.903782,-296.082377,842.705048
2888.716687,-10288.862594,-888.247130,1762.019645
2888.717024,-9992.780217,-1480.411884,612.876398
2888.717361,-10510.924376,-888.247130,1072.533697
2888.717699,-11325.150913,-1480.411884,1302.362347
2888.718036,-11103.089130,-1332.370696,-459.657299
2888.718373,-9400.615463,-1924.535449,-2451.505594
2888.718711,-9474.636058,-2220.617826,-1302.362347
2888.719048,-9548.656652,-3256.906145,-995.924147
2888.719385,-9178.553681,-3330.926739,-1762.019645
2888.719723,-9178.553681,-1998.556043,-536.266849
2888.720060,-9474.636058,-1554.432478,76.609550
2888.720397,-9992.780217,-592.164754,229.828649
2888.720735,-10955.047942,-444.123565,1378.971896
2888.721072,-11251.130318,296.082377,2298.286494
2888.721409,-10510.924376,74.020594,2374.896044
2888.721747,-10658.965565,296.082377,2834.553343
2888.722084,-11177.109724,74.020594,3677.258390
2888.722422,-11473.192101,518.144159,1149.143247
2888.722759,-9622.677246,1406.391290,-1378.971896
2888.723096,-9770.718434,814.226536,-1149.143247
2888.723434,-9918.759623,0.000000,-1302.362347
2888.723771,-9622.677246,74.020594,-2374.896044
2888.724108,-9326.594869,1036.288319,-1915.238745
2888.724446,-8512.368333,1628.453072,-1685.410096
2888.724783,-9474.636058,592.164754,-1378.971896
2888.725120,-10288.862594,444.123565,0.000000
2888.725458,-9326.594869,-296.082377,842.705048
2888.725795,-9178.553681,0.000000,2374.896044
2888.726132,-10066.800811,-148.041188,2757.943793
2888.726470,-10732.986159,-370.102971,2834.553343
2888.726807,-11177.109724,-814.226536,1915.238745
2888.727145,-10066.800811,-1036.288319,0.000000
2888.727482,-9104.533087,-740.205942,0.000000
2888.727819,-10214.842000,-1184.329507,153.219100
2888.728157,-9770.718434,-1258.350101,-1225.752797
2888.728494,-8882.471304,-666.185348,-1149.143247
2888.728831,-9178.553681,222.061783,0.000000
2888.729169,-10288.862594,518.144159,-536.266849
2888.729506,-11399.171507,370.102971,76.609550
2888.729843,-11251.130318,148.041188,1149.143247
2888.730181,-10584.944971,148.041188,842.705048
2888.730518,-10732.986159,0.000000,1762.019645
2888.730855,-11399.171507,-1036.288319,2068.457845
2888.731193,-11251.130318,-888.247130,459.657299
2888.731530,-10288.862594,-814.226536,-1915.238745
2888.731868,-9622.677246,-1110.308913,-2068.457845
2888.732205,-10066.800811,-2368.659014,-1685.410096
2888.732542,-9622.677246,-2664.741391,-1455.581446
2888.732880,-8956.491898,-962.267725,-1455.581446
2888.733217,-9030.512492,-74.020594,-383.047749
2888.733554,-9474.636058,-370.102971,-383.047749
2888.733892,-10362.883188,-666.185348,842.705048
2888.734229,-10436.903782,-444.123565,2451.505594
2888.734566,-9844.739029,1406.391290,2681.334243
2888.734904,-10807.006753,370.102971,3294.210641
2888.735241,-10288.862594,592.164754,3677.258390
2888.735578,-10066.800811,962.267725,2221.676944
2888.735916,-9770.718434,962.267725,1532.190996
2888.736253,-8882.471304,1110.308913,0.000000
2888.736590,-9844.739029,962.267725,-306.438199
2888.736928,-10066.800811,814.226536,-1225.752797
2888.737265,-8438.347739,1110.308913,-2451.505594
2888.737603,-8956.491898,2368.659014,-1149.143247
2888.737940,-9548.656652,592.164754,-1378.971896
2888.738277,-10288.862594,814.226536,-1149.143247
2888.738615,-10436.903782,0.000000,0.000000
2888.738952,-10140.821405,-1036.288319,383.047749
2888.739289,-9696.697840,-888.247130,2068.457845
2888.739627,-10658.965565,-1480.411884,2528.115143
2888.739964,-11843.295072,-1110.308913,1608.800546
2888.740301,-10732.986159,-1184.329507,-995.924147
2888.740639,-10066.800811,-1554.432478,-1072.533697
2888.740976,-9770.718434,-2146.597232,-919.314598
2888.741313,-9918.759623,-2294.638420,-1072.533697
2888.741651,-9622.677246,-1258.350101,-1225.752797
2888.741988,-9030.512492,-370.102971,-1225.752797
2888.742326,-9548.656652,-1036.288319,-459.657299
2888.742663,-10288.862594,-1332.370696,612.876398
2888.743000,-10288.862594,-962.267725,1762.019645
2888.743338,-9992.780217,-444.123565,1991.848295
2888.743675,-10955.047942,0.000000,2451.505594
2888.744012,-10288.862594,-1184.329507,2528.115143
2888.744350,-10881.027347,-296.082377,1762.019645
2888.744687,-9622.677246,-370.102971,-536.266849
2888.745024,-9992.780217,0.000000,-1378.971896
2888.745362,-9548.656652,-1480.411884,-1225.752797
2888.745699,-9992.780217,-1110.308913,-2451.505594
2888.746036,-9474.636058,-666.185348,-2221.676944
2888.746374,-9030.512492,0.000000,-1762.019645
2888.746711,-9548.656652,-370.102971,-383.047749
2888.747049,-10066.800811,0.000000,0.000000
2888.747386,-9918.759623,-592.164754,1225.752797
2888.747723,-10658.965565,148.041188,2374.896044
2888.748061,-9844.739029,296.082377,2451.505594
2888.748398,-10510.924376,0.000000,3677.258390
2888.748735,-11029.068536,814.226536,3907.087040
2888.749073,-10140.821405,1110.308913,1608.800546
2888.749410,-9252.574275,1406.391290,919.314598
2888.749747,-9844.739029,296.082377,1149.143247
2888.750085,-10066.800811,814.226536,-76.609550
2888.750422,-10066.800811,814.226536,-1149.143247
2888.750759,-9474.636058,962.267725,-1072.533697
2888.751097,-9400.615463,740.205942,-1532.190996
2888.751434,-9770.718434,74.020594,-383.047749
2888.751771,-9622.677246,222.061783,153.219100
2888.752109,-9844.739029,-592.164754,1302.362347
2888.752446,-10584.944971,-148.041188,995.924147
2888.752784,-10881.027347,-740.205942,1225.752797
2888.753121,-11769.274478,-1036.288319,1302.362347
2888.753458,-10658.965565,-1036.288319,229.828649
2888.753796,-9992.780217,-1110.308913,-919.314598
2888.754133,-9548.656652,-2220.617826,-689.485948
2888.754470,-9474.636058,-2368.659014,-1838.629195
2888.754808,-9474.636058,-2664.741391,-1378.971896
2888.755145,-9474.636058,-1258.350101,-766.095498
2888.755482,-9252.574275,-888.247130,-229.828649
2888.755820,-10955.047942,-74.020594,153.219100
2888.756157,-10881.027347,74.020594,1149.143247
2888.756494,-10584.944971,296.082377,2451.505594
2888.756832,-10362.883188,222.061783,2681.334243
2888.757169,-10140.821405,814.226536,3677.258390
2888.757507,-11325.150913,740.205942,3907.087040
2888.757844,-11399.171507,1184.329507,995.924147
2888.758181,-9918.759623,1628.453072,-766.095498
2888.758519,-9622.677246,74.020594,-919.314598
2888.758856,-9548.656652,148.041188,-1532.190996
2888.759193,-9252.574275,-518.144159,-2604.724693
2888.759531,-8734.430116,518.144159,-2221.676944
2888.759868,-8290.306550,370.102971,-2145.067394
2888.760205,-9548.656652,296.082377,-1378.971896
2888.760543,-10436.903782,0.000000,153.219100
2888.760880,-9770.718434,-592.164754,1149.143247
2888.761217,-9770.718434,0.000000,1838.629195
2888.761555,-9770.718434,-518.144159,2451.505594
2888.761892,-10214.842000,-666.185348,3140.991542
2888.762230,-10436.903782,-888.247130,1915.238745
2888.762567,-10214.842000,-518.144159,536.266849
2888.762904,-10288.862594,-518.144159,306.438199
2888.763242,-10214.842000,-962.267725,-306.438199
2888.763579,-9696.697840,-1036.288319,-1225.752797
2888.763916,-8660.409521,-370.102971,-1455.581446
2888.764254,-8956.491898,74.020594,-919.314598
2888.764591,-10436.903782,0.000000,-383.047749
2888.764928,-10807.006753,0.000000,0.000000
2888.765266,-11029.068536,222.061783,919.314598
2888.765603,-10436.903782,0.000000,919.314598
2888.765940,-10732.986159,-740.205942,1532.190996
2888.766278,-11399.171507,-1110.308913,2451.505594
2888.766615,-11103.089130,-1110.308913,536.266849
2888.766952,-9844.739029,-370.102971,-1149.143247
2888.767290,-10066.800811,-1406.391290,-1149.143247
2888.767627,-10436.903782,-2368.659014,-1762.019645
2888.767965,-9548.656652,-2664.741391,-1991.848295
2888.768302,-8808.450710,-1554.432478,-1455.581446
2888.768639,-8438.347739,-740.205942,-536.266849
2888.768977,-9770.718434,-518.144159,-612.876398
2888.769314,-10584.944971,-666.185348,919.314598
2888.769651,-10362.883188,-148.041188,2298.286494
2888.769989,-9844.739029,1036.288319,2987.772442
2888.770326,-10732.986159,888.247130,4443.353888
2888.770663,-10955.047942,1036.288319,4366.744339
2888.771001,-11251.130318,1332.370696,2757.943793
2888.771338,-9400.615463,2294.638420,1455.581446
2888.771675,-9030.512492,1628.453072,306.438199
2888.772013,-9696.697840,666.185348,0.000000
2888.772350,-10066.800811,1258.350101,-1608.800546
2888.772688,-8438.347739,1554.432478,-2374.896044
2888.773025,-8660.409521,1628.453072,-2221.676944
2888.773362,-9696.697840,888.247130,-1608.800546
2888.773700,-10362.883188,666.185348,-1685.410096
2888.774037,-9770.718434,222.061783,-995.924147
2888.774374,-10436.903782,0.000000,229.828649
2888.774712,-9770.718434,-1554.432478,1762.019645
2888.775049,-10362.883188,-1480.411884,2681.334243
2888.775386,-10881.027347,-962.267725,2604.724693
2888.775724,-10584.944971,-888.247130,76.609550
2888.776061,-9918.759623,-1184.329507,-306.438199
2888.776398,-11029.068536,-2146.597232,-612.876398
2888.776736,-9844.739029,-2442.679609,-1302.362347
2888.777073,-9252.574275,-1184.329507,-919.314598
2888.777411,-9400.615463,-740.205942,-459.657299
2888.777748,-9844.739029,-666.185348,-459.657299
2888.778085,-10658.965565,-962.267725,383.047749
2888.778423,-10584.944971,-888.247130,1225.752797
2888.778760,-10288.862594,-444.123565,1532.190996
2888.779097,-10881.027347,-592.164754,2451.505594
2888.779435,-10732.986159,-518.144159,2834.553343
2888.779772,-10807.006753,-222.061783,1915.238745
2888.780109,-10436.903782,222.061783,229.828649
2888.780447,-10362.883188,148.041188,-842.705048
2888.780784,-10436.903782,-962.267725,-1149.143247
2888.781121,-9992.780217,-888.247130,-2528.115143
2888.781459,-9400.615463,-444.123565,-2145.067394
2888.781796,-8734.430116,0.000000,-1762.019645
2888.782133,-9326.594869,-370.102971,-1149.143247
2888.782471,-10066.800811,-740.205942,0.000000
2888.782808,-9770.718434,0.000000,766.095498
2888.783146,-9918.759623,296.082377,1838.629195
2888.783483,-9918.759623,0.000000,3140.991542
2888.783820,-10214.842000,74.020594,4443.353888
2888.784158,-11029.068536,1110.308913,4290.134789
2888.784495,-10362.883188,1924.535449,1915.238745
2888.784832,-9548.656652,962.267725,1378.971896
2888.785170,-10362.883188,444.123565,995.924147
2888.785507,-9770.718434,814.226536,-1302.362347
2888.785844,-9770.718434,592.164754,-1532.190996
2888.786182,-8956.491898,962.267725,-1532.190996
2888.786519,-8364.327145,222.061783,-2528.115143
2888.786856,-10066.800811,444.123565,-1608.800546
2888.787194,-9622.677246,74.020594,-536.266849
2888.787531,-9918.759623,-814.226536,-842.705048
2888.787869,-10436.903782,-740.205942,0.000000
2888.788206,-10436.903782,-1110.308913,1378.971896
2888.788543,-11029.068536,-1332.370696,1378.971896
2888.788881,-10955.047942,-1924.535449,0.000000
2888.789218,-10510.924376,-1776.494261,-306.438199
2888.789555,-10658.965565,-2738.761985,-76.609550
2888.789893,-10584.944971,-2738.761985,-842.705048
2888.790230,-9474.636058,-2664.741391,-1532.190996
2888.790567,-9474.636058,-1924.535449,-383.047749
2888.790905,-9770.718434,-1406.391290,-306.438199
2888.791242,-10214.842000,-888.247130,-229.828649
2888.791579,-10214.842000,-518.144159,1072.533697
2888.791917,-10510.924376,-148.041188,1838.629195
2888.792254,-10584.944971,-444.123565,2221.676944
2888.792592,-10362.883188,0.000000,3830.477490
2888.792929,-11325.150913,740.205942,3677.258390
2888.793266,-11325.150913,1110.308913,1455.581446
2888.793604,-9844.739029,962.267725,-229.828649
2888.793941,-9696.697840,962.267725,-76.609550
2888.794278,-9770.718434,0.000000,-919.314598
2888.794616,-9178.553681,1036.288319,-2145.067394
2888.794953,-9104.533087,1184.329507,-1455.581446
2888.795290,-9030.512492,666.185348,-1915.238745
2888.795628,-9474.636058,222.061783,-2834.553343
2888.795965,-10214.842000,0.000000,-76.609550
2888.796302,-10066.800811,0.000000,1072.533697
2888.796640,-9400.615463,222.061783,1685.410096
2888.796977,-10732.986159,-370.102971,3524.039291
2888.797314,-11251.130318,518.144159,3140.991542
2888.797652,-10807.006753,-296.082377,1915.238745
2888.797989,-9992.780217,0.000000,1149.143247
2888.798327,-9622.677246,74.020594,995.924147
2888.798664,-10436.903782,-518.144159,536.266849
2888.799001,-9474.636058,-296.082377,-1149.143247
2888.799339,-8882.471304,222.061783,-689.485948
2888.799676,-9400.615463,222.061783,-766.095498
2888.800014,-10066.800811,-592.164754,-1225.752797
2888.800351,-10288.862594,0.000000,-919.314598
2888.800688,-10584.944971,-222.061783,0.000000
2888.801026,-10214.842000,-518.144159,76.609550
2888.801363,-9770.718434,-814.226536,536.266849
2888.801700,-11325.150913,-814.226536,1608.800546
2888.802038,-10584.944971,-1184.329507,0.000000
2888.802375,-9918.759623,-1184.329507,-1302.362347
2888.802713,-10584.944971,-1258.350101,-459.657299
2888.803050,-10510.924376,-2442.679609,-689.485948
2888.803387,-9918.759623,-1998.556043,-1072.533697
2888.803725,-9326.594869,-814.226536,-383.047749
2888.804062,-9696.697840,-444.123565,0.000000
2888.804399,-10140.821405,-814.226536,-383.047749
2888.804737,-10510.924376,-1258.350101,766.095498
2888.805074,-10510.924376,-814.226536,2068.457845
2888.805411,-9770.718434,-222.061783,2451.505594
2888.805749,-10214.842000,666.185348,3830.477490
2888.806086,-10658.965565,1258.350101,3983.696590
2888.806423,-9770.718434,1406.391290,1838.629195
2888.806761,-9918.759623,1406.391290,1302.362347
2888.807098,-10288.862594,1184.329507,995.924147
2888.807435,-9770.718434,74.020594,-153.219100
2888.807773,-9844.739029,1184.329507,-842.705048
2888.808110,-8586.388927,1406.391290,-995.924147
2888.808448,-8512.368333,888.247130,-1685.410096
2888.808785,-9622.677246,222.061783,-1685.410096
2888.809122,-9622.677246,0.000000,-1838.629195
2888.809460,-9844.739029,-444.123565,-842.705048
2888.809797,-10066.800811,-444.123565,-612.876398
2888.810134,-10066.800811,-1480.411884,0.000000
2888.810472,-10732.986159,-1036.288319,1838.629195
2888.810809,-10214.842000,-1332.370696,995.924147
2888.811146,-9696.697840,-962.267725,0.000000
2888.811484,-10362.883188,-1702.473667,612.876398
2888.811821,-11251.130318,-1998.556043,536.266849
2888.812158,-10881.027347,-2072.576638,-153.219100
2888.812496,-9770.718434,-1184.329507,229.828649
2888.812833,-9696.697840,-592.164754,229.828649
2888.813171,-10362.883188,-814.226536,0.000000
2888.813508,-9992.780217,-1110.308913,76.609550
2888.813845,-9992.780217,-888.247130,919.314598
2888.814183,-10288.862594,-888.247130,1302.362347
2888.814520,-10362.883188,74.020594,1302.362347
2888.814857,-11843.295072,-888.247130,2145.067394
2888.815195,-10140.821405,0.000000,459.657299
2888.815532,-9252.574275,148.041188,-995.924147
2888.815869,-10214.842000,-814.226536,76.609550
2888.816207,-9844.739029,-1702.473667,-1149.143247
2888.816544,-9474.636058,-962.267725,-1532.190996
2888.816881,-9622.677246,-592.164754,-995.924147
2888.817219,-8734.430116,0.000000,-919.314598
2888.817556,-10214.842000,-370.102971,-612.876398
2888.817894,-10066.800811,-666.185348,-842.705048
2888.818231,-9770.718434,666.185348,1149.143247
2888.818568,-9992.780217,0.000000,1608.800546
2888.818906,-10214.842000,0.000000,2451.505594
2888.819243,-10436.903782,444.123565,4060.306139
2888.819580,-11251.130318,1554.432478,3217.601092
2888.819918,-10436.903782,2368.659014,1838.629195
2888.820255,-9844.739029,1998.556043,1149.143247
2888.820592,-10066.800811,1110.308913,1532.190996
2888.820930,-9844.739029,1628.453072,0.000000
2888.821267,-9548.656652,1998.556043,-459.657299
2888.821604,-10140.821405,1628.453072,-612.876398
2888.821942,-9770.718434,888.247130,-2451.505594
2888.822279,-9770.718434,296.082377,-2145.067394
2888.822617,-8808.450710,-370.102971,-612.876398
2888.822954,-9030.512492,-962.267725,-76.609550
2888.823291,-9548.656652,-1258.350101,0.000000
2888.823629,-10584.944971,-592.164754,689.485948
2888.823966,-10955.047942,-1036.288319,0.000000
2888.824303,-10510.924376,-1110.308913,-995.924147
2888.824641,-10732.986159,-962.267725,-536.266849
2888.824978,-10955.047942,-2442.679609,76.609550
2888.825315,-10140.821405,-2516.700203,-383.047749
2888.825653,-9770.718434,-1776.494261,-536.266849
2888.825990,-10214.842000,-1628.453072,536.266849
2888.826327,-10510.924376,-1702.473667,-459.657299
2888.826665,-11177.109724,-1406.391290,0.000000
2888.827002,-10510.924376,-296.082377,995.924147
2888.827339,-10066.800811,-1036.288319,1225.752797
2888.827677,-10214.842000,-666.185348,2834.553343
2888.828014,-10066.800811,-444.123565,3447.429741
2888.828352,-11325.150913,814.226536,3294.210641
2888.828689,-11695.253884,1258.350101,612.876398
2888.829026,-10362.883188,518.144159,76.609550
2888.829364,-10436.903782,0.000000,383.047749
2888.829701,-9696.697840,-666.185348,-995.924147
2888.830038,-8068.244768,444.123565,-1149.143247
2888.830376,-8068.244768,370.102971,-1225.752797
2888.830713,-9178.553681,74.020594,-1915.238745
2888.831050,-9770.718434,0.000000,-1915.238745
2888.831388,-9770.718434,148.041188,-383.047749
2888.831725,-9474.636058,-222.061783,153.219100
2888.832062,-9252.574275,-370.102971,612.876398
2888.832400,-9844.739029,444.123565,2681.334243
2888.832737,-10436.903782,-370.102971,1455.581446
2888.833075,-10288.862594,0.000000,995.924147
2888.833412,-10288.862594,-592.164754,1455.581446
2888.833749,-10658.965565,-370.102971,1915.238745
2888.834087,-10362.883188,-740.205942,306.438199
2888.834424,-10066.800811,148.041188,-306.438199
2888.834761,-9400.615463,148.041188,0.000000
2888.835099,-10214.842000,444.123565,-536.266849
2888.835436,-10658.965565,0.000000,-766.095498
2888.835773,-10881.027347,962.267725,-536.266849
2888.836111,-10510.924376,-444.123565,-842.705048
2888.836448,-9918.759623,-592.164754,-766.095498
2888.836785,-9696.697840,-888.247130,842.705048
2888.837123,-10955.047942,-592.164754,612.876398
2888.837460,-10584.944971,-962.267725,-1455.581446
2888.837798,-9992.780217,-1406.391290,-1302.362347
2888.838135,-10214.842000,-2294.638420,153.219100
2888.838472,-10510.924376,-3034.844362,0.000000
2888.838810,-9474.636058,-1480.411884,-459.657299
2888.839147,-9030.512492,-1924.535449,0.000000
2888.839484,-9474.636058,-1036.288319,612.876398
2888.839822,-9696.697840,-1406.391290,-383.047749
2888.840159,-10658.965565,-1184.329507,842.705048
2888.840496,-10436.903782,-740.205942,1762.019645
2888.840834,-10066.800811,0.000000,1225.752797
2888.841171,-10436.903782,962.267725,2911.162892
2888.841508,-10584.944971,518.144159,2987.772442
2888.841846,-9918.759623,1036.288319,1608.800546
2888.842183,-9474.636058,1036.288319,919.314598
2888.842520,-10436.903782,1258.350101,1915.238745
2888.842858,-10066.800811,1184.329507,306.438199
2888.843195,-10140.821405,1702.473667,-229.828649
2888.843533,-9178.553681,1628.453072,-76.609550
2888.843870,-9326.594869,1628.453072,-689.485948
2888.844207,-9992.780217,1628.453072,-842.705048
2888.844545,-9918.759623,666.185348,-766.095498
2888.844882,-9400.615463,148.041188,-306.438199
2888.845219,-9844.739029,-814.226536,-536.266849
2888.845557,-10140.821405,-1110.308913,612.876398
2888.845894,-10436.903782,-1258.350101,1762.019645
2888.846231,-10362.883188,-962.267725,842.705048
2888.846569,-9770.718434,-1036.288319,383.047749
2888.846906,-9992.780217,-1702.473667,842.705048
2888.847243,-10807.006753,-2220.617826,1149.143247
2888.847581,-10436.903782,-1480.411884,306.438199
2888.847918,-9918.759623,-962.267725,1225.752797
2888.848256,-9992.780217,-592.164754,766.095498
2888.848593,-10066.800811,-740.205942,-689.485948
2888.848930,-9992.780217,-740.205942,0.000000
2888.849268,-9992.780217,-1110.308913,153.219100
2888.849605,-9474.636058,-740.205942,0.000000
2888.849942,-10214.842000,0.000000,689.485948
2888.850280,-10955.047942,-962.267725,1302.362347
2888.850617,-9622.677246,0.000000,-306.438199
2888.850954,-9992.780217,0.000000,-766.095498
2888.851292,-10066.800811,74.020594,0.000000
2888.851629,-10140.821405,-1924.535449,-1455.581446
2888.851966,-9548.656652,-518.144159,-2221.676944
2888.852304,-9252.574275,-370.102971,-842.705048
2888.852641,-9770.718434,-518.144159,-153.219100
2888.852979,-10362.883188,0.000000,-995.924147
2888.853316,-10510.924376,-518.144159,0.000000
2888.853653,-10214.842000,222.061783,919.314598
2888.853991,-9696.697840,-444.123565,306.438199
2888.854328,-10732.986159,296.082377,2145.067394
2888.854665,-10510.924376,222.061783,2834.553343
2888.855003,-10066.800811,518.144159,2145.067394
2888.855340,-9918.759623,1406.391290,1532.190996
2888.855677,-9548.656652,888.247130,1225.752797
2888.856015,-9474.636058,518.144159,1455.581446
2888.856352,-9844.739029,888.247130,76.609550
2888.856689,-9178.553681,1554.432478,0.000000
2888.857027,-9918.759623,1776.494261,0.000000
2888.857364,-9474.636058,222.061783,-1378.971896
2888.857702,-9474.636058,0.000000,-1149.143247
2888.858039,-9252.574275,-518.144159,-306.438199
2888.858376,-9104.533087,-666.185348,-383.047749
2888.858714,-9326.594869,-666.185348,-536.266849
2888.859051,-10436.903782,-1184.329507,229.828649
2888.859388,-10584.944971,-962.267725,-612.876398
2888.859726,-10362.883188,-666.185348,-995.924147
2888.860063,-10584.944971,-592.164754,76.609550
2888.860400,-10881.027347,-1850.514855,-612.876398
2888.860738,-10584.944971,-1850.514855,-689.485948
2888.861075,-9770.718434,-1332.370696,-153.219100
2888.861412,-10066.800811,-1258.350101,1378.971896
2888.861750,-10510.924376,-1480.411884,0.000000
2888.862087,-10436.903782,-1110.308913,1072.533697
2888.862424,-11029.068536,0.000000,2145.067394
2888.862762,-10436.903782,-592.164754,1455.581446
2888.863099,-10140.821405,0.000000,1991.848295
2888.863437,-10732.986159,0.000000,3064.381992
2888.863774,-10362.883188,814.226536,1762.019645
2888.864111,-9918.759623,1036.288319,459.657299
2888.864449,-9548.656652,1036.288319,76.609550
2888.864786,-9622.677246,0.000000,-153.219100
2888.865123,-10214.842000,0.000000,-919.314598
2888.865461,-8882.471304,888.247130,-1225.752797
2888.865798,-9030.512492,518.144159,-306.438199
2888.866135,-9474.636058,0.000000,-689.485948
2888.866473,-8956.491898,0.000000,-766.095498
2888.866810,-9918.759623,0.000000,689.485948
2888.867147,-9918.759623,0.000000,306.438199
2888.867485,-9400.615463,-518.144159,383.047749
2888.867822,-10288.862594,74.020594,2298.286494
2888.868160,-10288.862594,148.041188,1302.362347
2888.868497,-10584.944971,444.123565,153.219100
2888.868834,-10584.944971,148.041188,383.047749
2888.869172,-10510.924376,-296.082377,0.000000
2888.869509,-10214.842000,-148.041188,229.828649
2888.869846,-9400.615463,0.000000,0.000000
2888.870184,-9400.615463,74.020594,766.095498
2888.870521,-10140.821405,0.000000,766.095498
2888.870858,-10807.006753,148.041188,689.485948
2888.871196,-10436.903782,370.102971,153.219100
2888.871533,-10510.924376,-666.185348,229.828649
2888.871870,-9844.739029,-592.164754,-612.876398
2888.872208,-9992.780217,-1258.350101,-536.266849
2888.872545,-10436.903782,-888.247130,76.609550
2888.872883,-9474.636058,-1184.329507,-2374.896044
2888.873220,-8956.491898,-1702.473667,-1838.629195
2888.873557,-9474.636058,-2146.597232,-1455.581446
2888.873895,-10436.903782,-2516.700203,-1378.971896
2888.874232,-9548.656652,-2368.659014,-766.095498
2888.874569,-8956.491898,-1406.391290,383.047749
2888.874907,-9696.697840,-1258.350101,1302.362347
2888.875244,-10510.924376,-1110.308913,1302.362347
2888.875581,-10584.944971,-518.144159,2068.457845
2888.875919,-11325.150913,-814.226536,2604.724693
2888.876256,-10807.006753,-370.102971,1762.019645
2888.876593,-10066.800811,740.205942,2451.505594
2888.876931,-11103.089130,370.102971,2451.505594
2888.877268,-9622.677246,1184.329507,76.609550
2888.877605,-9474.636058,1406.391290,76.609550
2888.877943,-9992.780217,1184.329507,766.095498
2888.878280,-10140.821405,1110.308913,0.000000
2888.878618,-10066.800811,814.226536,-536.266849
2888.878955,-9030.512492,1480.411884,229.828649
2888.879292,-9030.512492,1258.350101,76.609550
2888.879630,-10658.965565,962.267725,459.657299
2888.879967,-10288.862594,222.061783,0.000000
2888.880304,-9548.656652,0.000000,-536.266849
2888.880642,-9474.636058,-592.164754,0.000000
2888.880979,-9548.656652,-1258.350101,536.266849
2888.881316,-10066.800811,-1184.329507,842.705048
2888.881654,-9696.697840,-1554.432478,-1532.190996
2888.881991,-8586.388927,-592.164754,-1532.190996
2888.882328,-9548.656652,-1776.494261,-766.095498
2888.882666,-10510.924376,-2072.576638,0.000000
2888.883003,-9992.780217,-1628.453072,76.609550
2888.883341,-9770.718434,-592.164754,1302.362347
2888.883678,-10436.903782,0.000000,1455.581446
2888.884015,-11029.068536,-814.226536,612.876398
2888.884353,-10955.047942,0.000000,1378.971896
2888.884690,-10288.862594,-740.205942,1455.581446
2888.885027,-10881.027347,-444.123565,612.876398
2888.885365,-10807.006753,-518.144159,306.438199
2888.885702,-11177.109724,-814.226536,536.266849
2888.886039,-9992.780217,0.000000,-1072.533697
2888.886377,-9178.553681,-370.102971,-2068.457845
2888.886714,-10066.800811,-148.041188,-766.095498
2888.887051,-10362.883188,-888.247130,-1608.800546
2888.887389,-9474.636058,-1036.288319,-1532.190996
2888.887726,-9844.739029,-296.082377,-229.828649
2888.888064,-9474.636058,-444.123565,536.266849
2888.888401,-10436.903782,0.000000,842.705048
2888.888738,-10658.965565,-370.102971,1455.581446
2888.889076,-9474.636058,-370.102971,1072.533697
2888.889413,-9548.656652,-592.164754,1455.581446
2888.889750,-10288.862594,-444.123565,2374.896044
2888.890088,-9992.780217,148.041188,2834.553343
2888.890425,-9622.677246,592.164754,1225.752797
2888.890762,-9326.594869,1924.535449,229.828649
2888.891100,-9474.636058,1628.453072,536.266849
2888.891437,-10436.903782,1702.473667,1378.971896
2888.891774,-10066.800811,592.164754,-383.047749
2888.892112,-9474.636058,1702.473667,842.705048
2888.892449,-9474.636058,1628.453072,842.705048
2888.892787,-10807.006753,740.205942,153.219100
2888.893124,-10732.986159,0.000000,689.485948
2888.893461,-10066.800811,-444.123565,229.828649
2888.893799,-9770.718434,-518.144159,-229.828649
2888.894136,-9844.739029,-888.247130,-536.266849
2888.894473,-10584.944971,-1036.288319,229.828649
2888.894811,-10584.944971,-888.247130,-1455.581446
2888.895148,-9548.656652,-1184.329507,-2604.724693
2888.895485,-10362.883188,-962.267725,-536.266849
2888.895823,-11103.089130,-2368.659014,-1149.143247
2888.896160,-10066.800811,-2442.679609,-1072.533697
2888.896497,-9474.636058,-1702.473667,76.609550
2888.896835,-10214.842000,-1554.432478,1762.019645
2888.897172,-10658.965565,-814.226536,1072.533697
2888.897509,-11547.212695,-1036.288319,1608.800546
2888.897847,-10140.821405,-370.102971,1532.190996
2888.898184,-9770.718434,-740.205942,1302.362347
2888.898522,-9696.697840,-222.061783,1915.238745
2888.898859,-9696.697840,-148.041188,1762.019645
2888.899196,-10658.965565,666.185348,1072.533697
2888.899534,-10066.800811,1406.391290,-1225.752797
2888.899871,-9844.739029,518.144159,-1225.752797
2888.900208,-10140.821405,0.000000,-383.047749
2888.900546,-9770.718434,-1258.350101,-612.876398
2888.900883,-8734.430116,222.061783,-76.609550
2888.901220,-9178.553681,666.185348,153.219100
2888.901558,-10214.842000,0.000000,76.609550
2888.901895,-10066.800811,0.000000,-383.047749
2888.902232,-10436.903782,-222.061783,306.438199
2888.902569,-10066.800811,0.000000,1149.143247
2888.902907,-8956.491898,-814.226536,766.095498
2888.903244,-10362.883188,148.041188,1991.848295
2888.903581,-10807.006753,-296.082377,1378.971896
2888.903918,-9992.780217,296.082377,-612.876398
2888.904256,-10066.800811,-148.041188,229.828649
2888.904593,-10436.903782,-518.144159,76.609550
2888.904930,-10288.862594,-888.247130,0.000000
2888.905267,-9474.636058,0.000000,76.609550
2888.905605,-9252.574275,296.082377,1378.971896
2888.905942,-10288.862594,-518.144159,842.705048
2888.906279,-10584.944971,0.000000,383.047749
2888.906616,-10362.883188,740.205942,306.438199
2888.906954,-10436.903782,0.000000,-306.438199
2888.907291,-9770.718434,-666.185348,0.000000
2888.907628,-10510.924376,-962.267725,842.705048
2888.907965,-10658.965565,-592.164754,-383.047749
2888.908303,-9992.780217,-370.102971,-1991.848295
2888.908640,-9770.718434,-1406.391290,-2451.505594
2888.908977,-10066.800811,-2442.679609,-1685.410096
2888.909315,-10066.800811,-2590.720797,-689.485948
2888.909652,-9474.636058,-1480.411884,-842.705048
2888.909989,-9252.574275,-962.267725,0.000000
2888.910326,-10140.821405,-814.226536,229.828649
2888.910664,-10510.924376,-444.123565,612.876398
2888.911001,-10955.047942,222.061783,2145.067394
2888.911338,-10881.027347,0.000000,2451.505594
2888.911675,-10214.842000,222.061783,1991.848295
2888.912013,-10436.903782,1036.288319,2757.943793
2888.912350,-10881.027347,962.267725,2451.505594
2888.912687,-10066.800811,1110.308913,459.657299
2888.913024,-8882.471304,814.226536,0.000000
2888.913362,-9474.636058,740.205942,612.876398
2888.913699,-9548.656652,1036.288319,-383.047749
2888.914036,-8956.491898,962.267725,-612.876398
2888.914373,-9326.594869,2220.617826,-383.047749
2888.914711,-9400.615463,1406.391290,-612.876398
2888.915048,-10362.883188,1850.514855,0.000000
2888.915385,-10436.903782,592.164754,0.000000
2888.915722,-9400.615463,296.082377,536.266849
2888.916060,-9622.677246,-518.144159,612.876398
2888.916397,-10362.883188,-1406.391290,1685.410096
2888.916734,-10881.027347,-1258.350101,2145.067394
2888.917072,-11029.068536,-1110.308913,-842.705048
2888.917409,-9104.533087,-888.247130,-1915.238745
2888.917746,-9622.677246,-1924.535449,-1072.533697
2888.918083,-9770.718434,-2516.700203,-459.657299
2888.918421,-9548.656652,-1554.432478,0.000000
2888.918758,-9770.718434,222.061783,612.876398
2888.919095,-10584.944971,370.102971,229.828649
2888.919432,-11251.130318,74.020594,459.657299
2888.919770,-11399.171507,0.000000,1225.752797
2888.920107,-10732.986159,-444.123565,2145.067394
2888.920444,-10584.944971,-370.102971,1225.752797
2888.920781,-10510.924376,-518.144159,1762.019645
2888.921119,-11325.150913,-962.267725,1149.143247
2888.921456,-9844.739029,-592.164754,-1532.190996
2888.921793,-9178.553681,-740.205942,-2374.896044
2888.922130,-9770.718434,-888.247130,-1915.238745
2888.922468,-9474.636058,-1776.494261,-2987.772442
2888.922805,-9030.512492,-962.267725,-2451.505594
2888.923142,-9030.512492,-666.185348,-842.705048
2888.923479,-9030.512492,-1110.308913,-229.828649
2888.923817,-10362.883188,148.041188,842.705048
2888.924154,-10807.006753,-592.164754,2298.286494
2888.924491,-10362.883188,0.000000,2145.067394
2888.924828,-9548.656652,-962.267725,2221.676944
2888.925166,-10362.883188,-222.061783,3983.696590
2888.925503,-10436.903782,0.000000,3447.429741
2888.925840,-9992.780217,296.082377,1225.752797
2888.926178,-9474.636058,1406.391290,0.000000
2888.926515,-9326.594869,814.226536,-229.828649
2888.926852,-9474.636058,814.226536,-919.314598
2888.927189,-9400.615463,666.185348,-1378.971896
2888.927527,-8882.471304,1850.514855,-689.485948
2888.927864,-9474.636058,1628.453072,-459.657299
2888.928201,-10288.862594,296.082377,0.000000
2888.928538,-9844.739029,-222.061783,612.876398
2888.928876,-9622.677246,-1110.308913,1532.190996
2888.929213,-9548.656652,-962.267725,1302.362347
2888.929550,-10288.862594,-1258.350101,1915.238745
2888.929887,-11251.130318,-1406.391290,1608.800546
2888.930225,-10881.027347,-1332.370696,-1225.752797
2888.930562,-9992.780217,-1184.329507,-2145.067394
2888.930899,-10140.821405,-1554.432478,-1455.581446
2888.931236,-10066.800811,-2368.659014,-1991.848295
2888.931574,-9548.656652,-2368.659014,-1838.629195
2888.931911,-8660.409521,-962.267725,-919.314598
2888.932248,-9844.739029,-888.247130,0.000000
2888.932585,-11325.150913,0.000000,459.657299
2888.932923,-11695.253884,-222.061783,1685.410096
2888.933260,-11325.150913,0.000000,3447.429741
2888.933597,-10807.006753,74.020594,3064.381992
2888.933934,-10288.862594,296.082377,3370.820191
2888.934272,-11399.171507,0.000000,3677.258390
2888.934609,-10362.883188,1406.391290,153.219100
2888.934946,-9474.636058,1184.329507,-1608.800546
2888.935284,-9104.533087,296.082377,-1838.629195
2888.935621,-8660.409521,0.000000,-2604.724693
2888.935958,-8808.450710,-518.144159,-2451.505594
2888.936295,-8068.244768,1036.288319,-2145.067394
2888.936633,-8142.265362,592.164754,-1685.410096
2888.936970,-10288.862594,0.000000,-536.266849
2888.937307,-9770.718434,-740.205942,306.438199
2888.937644,-9696.697840,-148.041188,2757.943793
2888.937982,-9992.780217,-370.102971,3217.601092
2888.938319,-10066.800811,-444.123565,3140.991542
2888.938656,-10807.006753,-296.082377,3524.039291
2888.938993,-11251.130318,-444.123565,842.705048
2888.939331,-9548.656652,592.164754,-306.438199
2888.939668,-9918.759623,-222.061783,-459.657299
2888.940005,-10436.903782,-962.267725,-1072.533697
2888.940342,-9696.697840,-296.082377,-2068.457845
2888.940680,-9252.574275,222.061783,-995.924147
2888.941017,-9622.677246,740.205942,0.000000
2888.941354,-10584.944971,-592.164754,459.657299
2888.941691,-10955.047942,222.061783,1685.410096
2888.942029,-11029.068536,-74.020594,2987.772442
2888.942366,-11103.089130,74.020594,2528.115143
2888.942703,-10881.027347,-888.247130,2374.896044
2888.943040,-11473.192101,-1184.329507,2374.896044
2888.943378,-10658.965565,-740.205942,0.000000
2888.943715,-9548.656652,-592.164754,-2604.724693
2888.944052,-9326.594869,-2072.576638,-2681.334243
2888.944390,-9252.574275,-2664.741391,-3370.820191
2888.944727,-8956.491898,-3182.885551,-3064.381992
2888.945064,-8586.388927,-1036.288319,-2298.286494
2888.945401,-8364.327145,-1332.370696,-1225.752797
2888.945739,-10066.800811,-1184.329507,459.657299
2888.946076,-10362.883188,-814.226536,1532.190996
2888.946413,-10658.965565,-370.102971,3677.258390
2888.946750,-10807.006753,-296.082377,4826.401637
2888.947088,-11029.068536,0.000000,4366.744339
2888.947425,-10807.006753,814.226536,4903.011187
2888.947762,-11325.150913,1036.288319,2911.162892
2888.948099,-9326.594869,1406.391290,-229.828649
2888.948437,-9252.574275,370.102971,-919.314598
2888.948774,-9770.718434,888.247130,-1302.362347
2888.949111,-8660.409521,888.247130,-3294.210641
2888.949448,-8956.491898,2072.576638,-2528.115143
2888.949786,-8956.491898,1850.514855,-2068.457845
2888.950123,-9548.656652,1110.308913,-1685.410096
2888.950460,-10881.027347,1776.494261,0.000000
2888.950797,-10510.924376,-222.061783,536.266849
2888.951135,-9844.739029,-370.102971,1225.752797
2888.951472,-10510.924376,-1036.288319,2374.896044
2888.951809,-10955.047942,-962.267725,2987.772442
2888.952146,-10807.006753,-888.247130,919.314598
2888.952484,-10214.842000,-888.247130,-1302.362347
2888.952821,-9400.615463,-1776.494261,-1915.238745
2888.953158,-9474.636058,-2368.659014,-1685.410096
2888.953496,-8882.471304,-2294.638420,-1838.629195
2888.953833,-8882.471304,-888.247130,-995.924147
2888.954170,-9178.553681,-962.267725,383.047749
2888.954507,-9696.697840,0.000000,0.000000
2888.954845,-11325.150913,-518.144159,1838.629195
2888.955182,-11103.089130,-444.123565,2374.896044
2888.955519,-10658.965565,-518.144159,2451.505594
2888.955856,-10955.047942,-518.144159,3447.429741
2888.956194,-10955.047942,-74.020594,3064.381992
2888.956531,-11325.150913,-666.185348,1762.019645
2888.956868,-10362.883188,-370.102971,-1149.143247
2888.957205,-9104.533087,-666.185348,-1608.800546
2888.957543,-9844.739029,-888.247130,-1149.143247
2888.957880,-9696.697840,-814.226536,-2528.115143
2888.958217,-9178.553681,-370.102971,-2451.505594
2888.958554,-9474.636058,0.000000,-1072.533697
2888.958892,-9844.739029,-740.205942,-689.485948
2888.959229,-10732.986159,148.041188,766.095498
2888.959566,-10955.047942,0.000000,2834.553343
2888.959903,-9844.739029,296.082377,2681.334243
2888.960241,-9770.718434,-592.164754,3064.381992
2888.960578,-10732.986159,592.164754,4979.620737
2888.960915,-10807.006753,222.061783,2757.943793
2888.961252,-10214.842000,814.226536,1225.752797
2888.961590,-9474.636058,1184.329507,306.438199
2888.961927,-8586.388927,962.267725,-229.828649
2888.962264,-9326.594869,666.185348,-1225.752797
2888.962602,-8660.409521,740.205942,-1991.848295
2888.962939,-8290.306550,1702.473667,-1685.410096
2888.963276,-9252.574275,1258.350101,-1378.971896
2888.963613,-10807.006753,1184.329507,-919.314598
2888.963951,-9474.636058,0.000000,0.000000
2888.964288,-9548.656652,-592.164754,383.047749
2888.964625,-9474.636058,-518.144159,919.314598
2888.964962,-10732.986159,-666.185348,1072.533697
2888.965300,-11103.089130,-814.226536,995.924147
2888.965637,-11029.068536,-1258.350101,-1225.752797
2888.965974,-9770.718434,-1258.350101,-1685.410096
2888.966311,-10436.903782,-1850.514855,-1991.848295
2888.966649,-10436.903782,-2664.741391,-2145.067394
2888.966986,-9474.636058,-2072.576638,-2757.943793
2888.967323,-9030.512492,-1850.514855,-1532.190996
2888.967660,-10288.862594,-1480.411884,-612.876398
2888.967998,-10584.944971,-1480.411884,153.219100
2888.968335,-11399.171507,-1406.391290,2145.067394
2888.968672,-11251.130318,-666.185348,1991.848295
2888.969009,-10732.986159,-296.082377,2604.724693
2888.969347,-10584.944971,370.102971,4443.353888
2888.969684,-10881.027347,-666.185348,3447.429741
2888.970021,-10362.883188,148.041188,1302.362347
2888.970358,-9918.759623,592.164754,0.000000
2888.970696,-9548.656652,-296.082377,-76.609550
2888.971033,-9252.574275,-592.164754,-1685.410096
2888.971370,-8586.388927,-518.144159,-1762.019645
2888.971708,-7772.162391,296.082377,-1455.581446
2888.972045,-8808.450710,222.061783,-995.924147
2888.972382,-10066.800811,148.041188,-919.314598
2888.972719,-9992.780217,-444.123565,306.438199
2888.973057,-9474.636058,222.061783,1608.800546
2888.973394,-9992.780217,444.123565,2298.286494
2888.973731,-10140.821405,0.000000,3370.820191
2888.974068,-11399.171507,222.061783,3907.087040
2888.974406,-11325.150913,222.061783,2374.896044
2888.974743,-9844.739029,888.247130,766.095498
2888.975080,-10658.965565,0.000000,766.095498
2888.975417,-11177.109724,-370.102971,0.000000
2888.975755,-9474.636058,222.061783,-1915.238745
2888.976092,-9104.533087,1036.288319,-842.705048
2888.976429,-9474.636058,740.205942,-766.095498
2888.976766,-9844.739029,0.000000,-1455.581446
2888.977104,-10066.800811,222.061783,-459.657299
2888.977441,-10436.903782,0.000000,1225.752797
2888.977778,-10214.842000,0.000000,1455.581446
2888.978115,-10807.006753,-592.164754,1532.190996
2888.978453,-10658.965565,-962.267725,2145.067394
2888.978790,-10214.842000,-592.164754,-153.219100
2888.979127,-9770.718434,-962.267725,-1915.238745
2888.979464,-9918.759623,-2072.576638,-1838.629195
2888.979802,-9474.636058,-3256.906145,-2221.676944
2888.980139,-9400.615463,-2664.741391,-2834.553343
2888.980476,-8364.327145,-1776.494261,-2221.676944
2888.980814,-9326.594869,-1480.411884,-1302.362347
2888.981151,-10066.800811,-814.226536,-995.924147
2888.981488,-10066.800811,-1036.288319,842.705048
2888.981825,-10510.924376,-148.041188,2298.286494
2888.982163,-10955.047942,-518.144159,3294.210641
2888.982500,-11177.109724,74.020594,4443.353888
2888.982837,-11547.212695,888.247130,4596.572988
2888.983174,-11695.253884,1406.391290,3217.601092
2888.983512,-10658.965565,1258.350101,1532.190996
2888.983849,-10214.842000,888.247130,1072.533697
2888.984186,-10362.883188,0.000000,153.219100
2888.984523,-9030.512492,666.185348,-1532.190996
2888.984861,-8438.347739,888.247130,-1762.019645
2888.985198,-8290.306550,962.267725,-842.705048
2888.985535,-9252.574275,888.247130,-1838.629195
2888.985872,-9548.656652,1554.432478,-536.266849
2888.986210,-10140.821405,518.144159,0.000000
2888.986547,-9474.636058,444.123565,0.000000
2888.986884,-10140.821405,-814.226536,1685.410096
2888.987221,-10732.986159,-666.185348,2681.334243
2888.987559,-10214.842000,-666.185348,995.924147
2888.987896,-10140.821405,-888.247130,0.000000
2888.988233,-9622.677246,-1110.308913,-306.438199
2888.988570,-9770.718434,-2516.700203,-1072.533697
2888.988908,-9474.636058,-1554.432478,-1149.143247
2888.989245,-9030.512492,-888.247130,-995.924147
2888.989582,-9844.739029,-296.082377,-536.266849
2888.989920,-10584.944971,-148.041188,-459.657299
2888.990257,-10807.006753,0.000000,0.000000
2888.990594,-10807.006753,0.000000,1378.971896
2888.990931,-11029.068536,0.000000,1915.238745
2888.991269,-10955.047942,-148.041188,2145.067394
2888.991606,-11251.130318,-666.185348,2451.505594
2888.991943,-11029.068536,0.000000,1608.800546
2888.992280,-10362.883188,-888.247130,-229.828649
2888.992618,-9918.759623,-1184.329507,-689.485948
2888.992955,-9474.636058,-1332.370696,-1762.019645
2888.993292,-9400.615463,-1110.308913,-2834.553343
2888.993629,-8660.409521,-814.226536,-3217.601092
2888.993967,-8364.327145,-1332.370696,-1915.238745
2888.994304,-9622.677246,-1184.329507,-1072.533697
2888.994641,-9770.718434,-296.082377,-689.485948
2888.994978,-10732.986159,-370.102971,1149.143247
2888.995316,-9918.759623,-666.185348,1302.362347
2888.995653,-9992.780217,-962.267725,3524.039291
2888.995990,-11029.068536,-444.123565,5822.325785
2888.996327,-10732.986159,444.123565,4290.134789
2888.996665,-10436.903782,666.185348,2604.724693
2888.997002,-10436.903782,1036.288319,2451.505594
2888.997339,-9696.697840,148.041188,766.095498
2888.997677,-9918.759623,1110.308913,-536.266849
2888.998014,-9030.512492,1036.288319,-1072.533697
2888.998351,-8808.450710,1776.494261,-1915.238745
2888.998688,-9770.718434,1258.350101,-2298.286494
2888.999026,-10066.800811,1184.329507,-1838.629195
2888.999363,-9548.656652,740.205942,-383.047749
2888.999700,-9992.780217,-370.102971,76.609550
2889.000037,-9548.656652,-666.185348,995.924147
2889.000375,-10362.883188,-370.102971,1762.019645
2889.000712,-11029.068536,-740.205942,1762.019645
2889.001049,-10658.965565,-1184.329507,-383.047749
2889.001386,-10436.903782,-1258.350101,153.219100
2889.001724,-10881.027347,-1776.494261,-153.219100
2889.002061,-10362.883188,-2294.638420,-1532.190996
2889.002398,-9104.533087,-1480.411884,-1838.629195
2889.002736,-8808.450710,-1850.514855,-1149.143247
2889.003073,-9548.656652,-1480.411884,-995.924147
2889.003410,-9622.677246,-888.247130,-612.876398
2889.003747,-10362.883188,-148.041188,76.609550
2889.004085,-10732.986159,-666.185348,1838.629195
2889.004422,-10510.924376,0.000000,2451.505594
2889.004759,-11029.068536,74.020594,4213.525239
2889.005096,-11769.274478,444.123565,3753.867940
2889.005434,-10510.924376,74.020594,1225.752797
2889.005771,-9918.759623,666.185348,919.314598
2889.006108,-9844.739029,0.000000,0.000000
2889.006445,-9622.677246,0.000000,-1762.019645
2889.006783,-9400.615463,-222.061783,-1838.629195
2889.007120,-8956.491898,1110.308913,-2221.676944
2889.007457,-8882.471304,222.061783,-2987.772442
2889.007795,-9770.718434,444.123565,-2145.067394
2889.008132,-9326.594869,0.000000,-1225.752797
2889.008469,-9622.677246,-666.185348,536.266849
2889.008806,-9918.759623,0.000000,2451.505594
2889.009144,-10362.883188,-370.102971,3140.991542
2889.009481,-10807.006753,0.000000,3677.258390
2889.009818,-11029.068536,-148.041188,2374.896044
2889.010155,-10140.821405,814.226536,1762.019645
2889.010493,-10658.965565,-222.061783,1378.971896
2889.010830,-10288.862594,-888.247130,0.000000
2889.011167,-9030.512492,74.020594,-919.314598
2889.011504,-9400.615463,296.082377,-383.047749
2889.011842,-9400.615463,962.267725,-1455.581446
2889.012179,-9844.739029,0.000000,-2221.676944
2889.012516,-10140.821405,518.144159,-76.609550
2889.012854,-9844.739029,0.000000,0.000000
2889.013191,-10510.924376,222.061783,995.924147
2889.013528,-10732.986159,-370.102971,1532.190996
2889.013865,-11325.150913,-1184.329507,2068.457845
2889.014203,-11103.089130,-1184.329507,383.047749
2889.014540,-10288.862594,-518.144159,-766.095498
2889.014877,-10584.944971,-2442.679609,-459.657299
2889.015214,-9992.780217,-2664.741391,-1838.629195
2889.015552,-9400.615463,-2368.659014,-1762.019645
2889.015889,-9474.636058,-1110.308913,-1302.362347
2889.016226,-9252.574275,-1776.494261,-1532.190996
2889.016564,-10288.862594,-1184.329507,-1378.971896
2889.016901,-10510.924376,-1184.329507,76.609550
2889.017238,-9622.677246,-740.205942,1455.581446
2889.017575,-10584.944971,-370.102971,2681.334243
2889.017913,-10436.903782,0.000000,4060.306139
2889.018250,-11177.109724,1184.329507,4213.525239
2889.018587,-11769.274478,740.205942,2987.772442
2889.018924,-10214.842000,1850.514855,1378.971896
2889.019262,-9918.759623,962.267725,1455.581446
2889.019599,-9844.739029,296.082377,0.000000
2889.019936,-8660.409521,518.144159,-919.314598
2889.020273,-8734.430116,1480.411884,-995.924147
2889.020611,-8956.491898,1628.453072,-1378.971896
2889.020948,-9474.636058,962.267725,-2374.896044
2889.021285,-9548.656652,888.247130,-1302.362347
2889.021623,-9252.574275,666.185348,-995.924147
2889.021960,-9918.759623,0.000000,-76.609550
2889.022297,-9770.718434,-592.164754,1072.533697
2889.022634,-10436.903782,-370.102971,2068.457845
2889.022972,-10510.924376,-222.061783,1455.581446
2889.023309,-10362.883188,-740.205942,842.705048
2889.023646,-10584.944971,-1258.350101,919.314598
2889.023983,-10288.862594,-1998.556043,383.047749
2889.024321,-9252.574275,-1036.288319,153.219100
2889.024658,-9548.656652,-888.247130,1149.143247
2889.024995,-10066.800811,-74.020594,229.828649
2889.025333,-10658.965565,0.000000,-229.828649
2889.025670,-11029.068536,-370.102971,153.219100
2889.026007,-10214.842000,-444.123565,919.314598
2889.026344,-10140.821405,-666.185348,919.314598
2889.026682,-10362.883188,-1110.308913,2145.067394
2889.027019,-10066.800811,-370.102971,1838.629195
2889.027356,-10732.986159,-222.061783,919.314598
2889.027693,-10436.903782,74.020594,0.000000
2889.028031,-10658.965565,-814.226536,0.000000
2889.028368,-10658.965565,-1480.411884,-536.266849
2889.028705,-9474.636058,-1332.370696,-1838.629195
2889.029042,-9104.533087,-518.144159,-1302.362347
2889.029380,-9548.656652,-518.144159,-766.095498
2889.029717,-9696.697840,-666.185348,-1685.410096
2889.030054,-9992.780217,222.061783,-995.924147
2889.030392,-10066.800811,-444.123565,459.657299
2889.030729,-9400.615463,-518.144159,536.266849
2889.031066,-9918.759623,-518.144159,1762.019645
2889.031403,-10214.842000,0.000000,3447.429741
2889.031741,-10214.842000,962.267725,2068.457845
2889.032078,-9918.759623,1036.288319,1532.190996
2889.032415,-9770.718434,1036.288319,1762.019645
2889.032752,-9474.636058,74.020594,689.485948
2889.033090,-9622.677246,1036.288319,153.219100
2889.033427,-9622.677246,1332.370696,76.609550
2889.033764,-9548.656652,1554.432478,-1149.143247
2889.034102,-9696.697840,592.164754,-2298.286494
2889.034439,-9696.697840,740.205942,-2145.067394
2889.034776,-9252.574275,-296.082377,-1455.581446
2889.035113,-9104.533087,-1628.453072,-766.095498
2889.035451,-9474.636058,-1332.370696,0.000000
2889.035788,-10214.842000,-814.226536,1302.362347
2889.036125,-10732.986159,-888.247130,153.219100
2889.036462,-10955.047942,-1258.350101,-766.095498
2889.036800,-10436.903782,-1702.473667,459.657299
2889.037137,-10955.047942,-2368.659014,689.485948
2889.037474,-10436.903782,-2516.700203,-536.266849
2889.037811,-9770.718434,-1776.494261,153.219100
2889.038149,-10362.883188,-1850.514855,1149.143247
2889.038486,-10510.924376,-2368.659014,229.828649
2889.038823,-10288.862594,-1110.308913,842.705048
2889.039161,-10732.986159,-1480.411884,1762.019645
2889.039498,-10288.862594,-1258.350101,995.924147
2889.039835,-10288.862594,-370.102971,2298.286494
2889.040172,-10214.842000,296.082377,3753.867940
2889.040510,-10584.944971,740.205942,2604.724693
2889.040847,-10807.006753,888.247130,919.314598
2889.041184,-10584.944971,666.185348,766.095498
2889.041521,-10214.842000,0.000000,1072.533697
2889.041859,-8956.491898,370.102971,-383.047749
2889.042196,-9178.553681,518.144159,-383.047749
2889.042533,-9548.656652,592.164754,0.000000
2889.042871,-9474.636058,814.226536,-2451.505594
2889.043208,-9252.574275,518.144159,-2145.067394
2889.043545,-9178.553681,74.020594,-383.047749
2889.043882,-8882.471304,0.000000,0.000000
2889.044220,-9696.697840,222.061783,766.095498
2889.044557,-9770.718434,1332.370696,1225.752797
2889.044894,-10584.944971,1406.391290,1149.143247
2889.045231,-10732.986159,148.041188,995.924147
2889.045569,-9770.718434,888.247130,689.485948
2889.045906,-10288.862594,-296.082377,1762.019645
2889.046243,-10510.924376,-222.061783,383.047749
2889.046580,-9030.512492,296.082377,-306.438199
2889.046918,-9622.677246,666.185348,76.609550
2889.047255,-9992.780217,444.123565,-766.095498
2889.047592,-10140.821405,296.082377,-1991.848295
2889.047930,-10140.821405,0.000000,-1225.752797
2889.048267,-9770.718434,-370.102971,-1072.533697
2889.048604,-9474.636058,-370.102971,-612.876398
2889.048941,-10288.862594,-222.061783,383.047749
2889.049279,-10955.047942,-592.164754,306.438199
2889.049616,-10584.944971,-1184.329507,-919.314598
2889.049953,-10436.903782,-1480.411884,-689.485948
2889.050290,-10066.800811,-2294.638420,-76.609550
2889.050628,-9918.759623,-2886.803174,0.000000
2889.050965,-9548.656652,-2368.659014,76.609550
2889.051302,-9474.636058,-1776.494261,0.000000
2889.051639,-9918.759623,-1628.453072,-153.219100
2889.051977,-10584.944971,-962.267725,-766.095498
2889.052314,-9844.739029,-1480.411884,76.609550
2889.052651,-9918.759623,-1110.308913,1838.629195
2889.052989,-10214.842000,-296.082377,1685.410096
2889.053326,-10436.903782,444.123565,3294.210641
2889.053663,-10881.027347,592.164754,2604.724693
2889.054000,-10436.903782,1332.370696,1991.848295
2889.054338,-10584.944971,1406.391290,1838.629195
2889.054675,-10362.883188,814.226536,2068.457845
2889.055012,-10362.883188,888.247130,1149.143247
2889.055349,-9474.636058,1036.288319,229.828649
2889.055687,-8882.471304,1110.308913,-76.609550
2889.056024,-9770.718434,1776.494261,-536.266849
2889.056361,-10066.800811,888.247130,-1608.800546
2889.056699,-9400.615463,296.082377,-1149.143247
2889.057036,-9622.677246,0.000000,-383.047749
2889.057373,-9104.533087,0.000000,-1378.971896
2889.057710,-9770.718434,-592.164754,229.828649
2889.058048,-10658.965565,-1036.288319,1685.410096
2889.058385,-9770.718434,-814.226536,76.609550
2889.058722,-10362.883188,-592.164754,383.047749
2889.059059,-10214.842000,-1480.411884,1072.533697
2889.059397,-9696.697840,-2146.597232,229.828649
2889.059734,-9844.739029,-1406.391290,383.047749
2889.060071,-9474.636058,-962.267725,306.438199
2889.060408,-10288.862594,-740.205942,0.000000
2889.060746,-10732.986159,-666.185348,-1225.752797
2889.061083,-10066.800811,-592.164754,-919.314598
2889.061420,-9770.718434,-740.205942,0.000000
2889.061758,-10066.800811,-444.123565,-306.438199
2889.062095,-10658.965565,-518.144159,536.266849
2889.062432,-10955.047942,0.000000,766.095498
2889.062769,-10881.027347,-148.041188,-229.828649
2889.063107,-10658.965565,-370.102971,0.000000
2889.063444,-10510.924376,-1110.308913,919.314598
2889.063781,-10362.883188,-1406.391290,0.000000
2889.064118,-10066.800811,-1332.370696,76.609550
2889.064456,-9696.697840,0.000000,-536.266849
2889.064793,-9770.718434,-814.226536,-612.876398
2889.065130,-9770.718434,-962.267725,-1455.581446
2889.065468,-9548.656652,0.000000,-689.485948
2889.065805,-10214.842000,-444.123565,536.266849
2889.066142,-9030.512492,0.000000,0.000000
2889.066479,-9178.553681,-296.082377,1532.190996
2889.066817,-10362.883188,0.000000,3524.039291
2889.067154,-9918.759623,1184.329507,2451.505594
2889.067491,-10140.821405,592.164754,2145.067394
2889.067828,-10362.883188,888.247130,2834.553343
2889.068166,-9548.656652,814.226536,2451.505594
2889.068503,-9622.677246,1258.350101,1302.362347
2889.068840,-9622.677246,1628.453072,1225.752797
2889.069177,-9474.636058,1776.494261,-229.828649
2889.069515,-9844.739029,1036.288319,-1378.971896
2889.069852,-9918.759623,888.247130,-995.924147
2889.070189,-9400.615463,444.123565,-229.828649
2889.070527,-9992.780217,148.041188,-536.266849
2889.070864,-9548.656652,-296.082377,-689.485948
2889.071201,-10066.800811,-370.102971,76.609550
2889.071538,-10732.986159,-592.164754,0.000000
2889.071876,-10436.903782,-1480.411884,-536.266849
2889.072213,-10732.986159,-1554.432478,153.219100
2889.072550,-10955.047942,-1850.514855,-229.828649
2889.072887,-10214.842000,-1332.370696,0.000000
2889.073225,-9770.718434,-1332.370696,0.000000
2889.073562,-9844.739029,-1480.411884,153.219100
2889.073899,-10066.800811,-2146.597232,-383.047749
2889.074237,-10214.842000,-666.185348,0.000000
2889.074574,-9992.780217,-740.205942,842.705048
2889.074911,-10658.965565,-1258.350101,229.828649
2889.075248,-9548.656652,-1036.288319,842.705048
2889.075586,-9992.780217,0.000000,2221.676944
2889.075923,-10732.986159,-74.020594,1532.190996
2889.076260,-9844.739029,0.000000,0.000000
2889.076597,-10066.800811,0.000000,1149.143247
2889.076935,-10066.800811,-74.020594,536.266849
2889.077272,-9696.697840,0.000000,-612.876398
2889.077609,-9918.759623,370.102971,0.000000
2889.077946,-9474.636058,370.102971,-995.924147
2889.078284,-9918.759623,74.020594,-1225.752797
2889.078621,-10214.842000,592.164754,-689.485948
2889.078958,-9622.677246,-222.061783,-153.219100
2889.079296,-10140.821405,-518.144159,459.657299
2889.079633,-9400.615463,0.000000,459.657299
2889.079970,-9622.677246,148.041188,1762.019645
2889.080307,-10658.965565,148.041188,1838.629195
2889.080645,-10658.965565,-222.061783,1302.362347
2889.080982,-10214.842000,1036.288319,1608.800546
2889.081319,-10881.027347,370.102971,1685.410096
2889.081656,-10436.903782,0.000000,842.705048
2889.081994,-9178.553681,518.144159,306.438199
2889.082331,-9474.636058,444.123565,766.095498
2889.082668,-9252.574275,74.020594,76.609550
2889.083006,-9326.594869,0.000000,-689.485948
2889.083343,-9918.759623,74.020594,612.876398
2889.083680,-10288.862594,-592.164754,76.609550
2889.084017,-9622.677246,-296.082377,-459.657299
2889.084355,-10362.883188,0.000000,0.000000
2889.084692,-11029.068536,-666.185348,536.266849
2889.085029,-10214.842000,-1110.308913,-1685.410096
2889.085366,-9992.780217,-1258.350101,-1532.190996
2889.085704,-10658.965565,-2294.638420,-766.095498
2889.086041,-10362.883188,-2368.659014,-1378.971896
2889.086378,-9918.759623,-1924.535449,-1149.143247
2889.086715,-9696.697840,-1480.411884,0.000000
2889.087053,-10066.800811,-1406.391290,0.000000
2889.087390,-10214.842000,-1332.370696,0.000000
2889.087727,-10732.986159,-814.226536,1455.581446
2889.088065,-10807.006753,-1184.329507,1762.019645
2889.088402,-10436.903782,-740.205942,1991.848295
2889.088739,-10732.986159,222.061783,2834.553343
2889.089076,-10214.842000,0.000000,2528.115143
2889.089414,-9992.780217,370.102971,1991.848295
2889.089751,-9400.615463,1258.350101,842.705048
2889.090088,-9696.697840,1036.288319,919.314598
2889.090425,-9992.780217,1184.329507,229.828649
2889.090763,-9252.574275,740.205942,-919.314598
2889.091100,-8956.491898,1998.556043,0.000000
2889.091437,-9400.615463,1628.453072,-153.219100
2889.091774,-9770.718434,1110.308913,-459.657299
2889.092112,-9474.636058,962.267725,0.000000
2889.092449,-9622.677246,592.164754,459.657299
2889.092786,-9252.574275,-370.102971,-612.876398
2889.093124,-10362.883188,-444.123565,842.705048
2889.093461,-10658.965565,-296.082377,1455.581446
2889.093798,-10140.821405,-814.226536,-459.657299
2889.094135,-10140.821405,-592.164754,-459.657299
2889.094473,-9400.615463,-222.061783,-306.438199
2889.094810,-9622.677246,-1480.411884,-459.657299
2889.095147,-9252.574275,-1110.308913,0.000000
2889.095484,-9918.759623,74.020594,689.485948
2889.095822,-10658.965565,148.041188,842.705048
2889.096159,-11103.089130,0.000000,0.000000
2889.096496,-10658.965565,-814.226536,1149.143247
2889.096834,-10436.903782,-814.226536,1072.533697
2889.097171,-9992.780217,-888.247130,995.924147
2889.097508,-10214.842000,-962.267725,1532.190996
2889.097845,-10436.903782,-962.267725,612.876398
2889.098183,-10510.924376,-740.205942,-612.876398
2889.098520,-9992.780217,-592.164754,-1455.581446
2889.098857,-9844.739029,-740.205942,-995.924147
2889.099194,-9622.677246,-1480.411884,-1532.190996
2889.099532,-9326.594869,-1480.411884,-1685.410096
2889.099869,-9326.594869,-888.247130,-306.438199
2889.100206,-9696.697840,-1036.288319,76.609550
2889.100543,-10214.842000,-1110.308913,-383.047749
2889.100881,-10881.027347,-592.164754,536.266849
2889.101218,-10584.944971,-666.185348,1455.581446
2889.101555,-9770.718434,-444.123565,842.705048
2889.101892,-9844.739029,-518.144159,1762.019645
2889.102230,-10362.883188,-592.164754,2451.505594
2889.102567,-9918.759623,0.000000,1455.581446
