#time,accel_x,accel_y,accel_z
2727.840724,-10807.006753,2220.617826,153.219100
2727.841061,-9992.780217,2294.638420,76.609550
2727.841399,-9622.677246,1702.473667,612.876398
2727.841736,-9992.780217,2368.659014,919.314598
2727.842073,-9992.780217,962.267725,-229.828649
2727.842411,-9474.636058,-814.226536,306.438199
2727.842748,-8660.409521,-444.123565,459.657299
2727.843085,-7698.141797,0.000000,995.924147
2727.843423,-9918.759623,74.020594,2451.505594
2727.843760,-10436.903782,148.041188,536.266849
2727.844097,-9918.759623,0.000000,229.828649
2727.844435,-11029.068536,1036.288319,1991.848295
2727.844772,-10732.986159,1628.453072,1072.533697
2727.845110,-10807.006753,740.205942,0.000000
2727.845447,-10436.903782,-370.102971,-612.876398
2727.845784,-8734.430116,-370.102971,-229.828649
2727.846122,-9992.780217,-814.226536,1072.533697
2727.846459,-10066.800811,0.000000,536.266849
2727.846796,-10288.862594,-666.185348,-1532.190996
2727.847134,-11399.171507,-518.144159,-1302.362347
2727.847471,-10288.862594,-592.164754,-1378.971896
2727.847808,-9696.697840,-962.267725,-229.828649
2727.848146,-9622.677246,-1332.370696,229.828649
2727.848483,-10066.800811,-1258.350101,76.609550
2727.848821,-10955.047942,-1184.329507,-306.438199
2727.849158,-9770.718434,-1258.350101,76.609550
2727.849495,-9400.615463,-2072.576638,766.095498
2727.849833,-9770.718434,-1850.514855,2451.505594
2727.850170,-10362.883188,-1628.453072,2374.896044
2727.850507,-10658.965565,-592.164754,2528.115143
2727.850845,-9844.739029,148.041188,2068.457845
2727.851182,-9696.697840,1036.288319,2298.286494
2727.851519,-10732.986159,962.267725,1608.800546
2727.851857,-9400.615463,1406.391290,995.924147
2727.852194,-9622.677246,1702.473667,689.485948
2727.852531,-9474.636058,1850.514855,1455.581446
2727.852869,-8956.491898,1480.411884,0.000000
2727.853206,-10140.821405,1406.391290,842.705048
2727.853544,-10362.883188,2220.617826,459.657299
2727.853881,-9178.553681,1258.350101,229.828649
2727.854218,-9696.697840,1036.288319,689.485948
2727.854556,-9548.656652,1332.370696,0.000000
2727.854893,-9770.718434,1184.329507,-995.924147
2727.855230,-9918.759623,296.082377,-1149.143247
2727.855568,-10436.903782,-592.164754,-1149.143247
2727.855905,-9770.718434,-592.164754,-459.657299
2727.856242,-9548.656652,-1406.391290,-306.438199
2727.856580,-9548.656652,-1776.494261,459.657299
2727.856917,-9918.759623,-1776.494261,459.657299
2727.857255,-10807.006753,-1702.473667,995.924147
2727.857592,-10362.883188,-1036.288319,1072.533697
2727.857929,-10955.047942,-1258.350101,1838.629195
2727.858267,-10510.924376,-592.164754,1302.362347
2727.858604,-9622.677246,0.000000,306.438199
2727.858941,-10658.965565,222.061783,1072.533697
2727.859279,-10510.924376,0.000000,153.219100
2727.859616,-10658.965565,0.000000,-383.047749
2727.859953,-10140.821405,518.144159,153.219100
2727.860291,-10362.883188,666.185348,459.657299
2727.860628,-9622.677246,-518.144159,-536.266849
2727.860966,-9770.718434,0.000000,0.000000
2727.861303,-9696.697840,-148.041188,842.705048
2727.861640,-9918.759623,592.164754,0.000000
2727.861978,-9992.780217,370.102971,-612.876398
2727.862315,-10214.842000,296.082377,0.000000
2727.862652,-10288.862594,-148.041188,-612.876398
2727.862990,-9548.656652,0.000000,-612.876398
2727.863327,-9992.780217,-592.164754,612.876398
2727.863664,-9326.594869,-222.061783,459.657299
2727.864002,-9030.512492,-740.205942,459.657299
2727.864339,-9548.656652,0.000000,1838.629195
2727.864677,-9696.697840,0.000000,1991.848295
2727.865014,-9992.780217,222.061783,1532.190996
2727.865351,-9844.739029,814.226536,1532.190996
2727.865689,-9622.677246,1332.370696,1608.800546
2727.866026,-10362.883188,1924.535449,1532.190996
2727.866363,-9992.780217,1184.329507,459.657299
2727.866701,-9844.739029,814.226536,383.047749
2727.867038,-9918.759623,592.164754,0.000000
2727.867375,-9844.739029,0.000000,-536.266849
2727.867713,-9548.656652,0.000000,306.438199
2727.868050,-9696.697840,-740.205942,229.828649
2727.868387,-9252.574275,-1036.288319,-1149.143247
2727.868725,-9918.759623,-1332.370696,-1225.752797
2727.869062,-11029.068536,-592.164754,0.000000
2727.869400,-10214.842000,-1850.514855,-1455.581446
2727.869737,-10140.821405,-1554.432478,-842.705048
2727.870074,-10436.903782,-2072.576638,0.000000
2727.870412,-10288.862594,-1258.350101,-76.609550
2727.870749,-9992.780217,-3108.864956,306.438199
2727.871086,-9992.780217,-2220.617826,612.876398
2727.871424,-10436.903782,-2220.617826,995.924147
2727.871761,-10658.965565,-1332.370696,536.266849
2727.872098,-10584.944971,-1036.288319,919.314598
2727.872436,-10732.986159,-444.123565,919.314598
2727.872773,-10214.842000,-296.082377,689.485948
2727.873111,-9992.780217,740.205942,1149.143247
2727.873448,-10066.800811,296.082377,1378.971896
2727.873785,-9844.739029,592.164754,766.095498
2727.874123,-10066.800811,814.226536,536.266849
2727.874460,-10362.883188,1480.411884,842.705048
2727.874797,-10140.821405,1406.391290,0.000000
2727.875135,-9844.739029,518.144159,0.000000
2727.875472,-9474.636058,1036.288319,-76.609550
2727.875809,-9326.594869,814.226536,-383.047749
2727.876147,-9474.636058,888.247130,-536.266849
2727.876484,-9474.636058,444.123565,-919.314598
2727.876822,-9622.677246,74.020594,-229.828649
2727.877159,-9548.656652,0.000000,-306.438199
2727.877496,-9474.636058,74.020594,383.047749
2727.877834,-10140.821405,-148.041188,1149.143247
2727.878171,-10066.800811,-666.185348,766.095498
2727.878508,-9918.759623,-518.144159,612.876398
2727.878846,-10436.903782,-444.123565,1838.629195
2727.879183,-10881.027347,-444.123565,919.314598
2727.879520,-10362.883188,-296.082377,459.657299
2727.879858,-9992.780217,0.000000,536.266849
2727.880195,-10066.800811,0.000000,229.828649
2727.880533,-9918.759623,-444.123565,153.219100
2727.880870,-10214.842000,0.000000,536.266849
2727.881207,-10881.027347,-296.082377,536.266849
2727.881545,-10214.842000,0.000000,-153.219100
2727.881882,-10584.944971,-592.164754,76.609550
2727.882219,-10288.862594,-1036.288319,306.438199
2727.882557,-9992.780217,-1702.473667,-459.657299
2727.882894,-9622.677246,-1184.329507,-919.314598
2727.883231,-9992.780217,-1110.308913,-919.314598
2727.883569,-9918.759623,-1406.391290,-1532.190996
2727.883906,-9770.718434,-1924.535449,-612.876398
2727.884243,-9844.739029,-1258.350101,-536.266849
2727.884581,-9918.759623,-1258.350101,76.609550
2727.884918,-9992.780217,-740.205942,0.000000
2727.885256,-9474.636058,-962.267725,612.876398
2727.885593,-10584.944971,-518.144159,1915.238745
2727.885930,-10214.842000,-592.164754,2374.896044
2727.886268,-9992.780217,0.000000,2068.457845
2727.886605,-10584.944971,592.164754,1838.629195
2727.886942,-10288.862594,1036.288319,1455.581446
2727.887280,-9844.739029,1554.432478,995.924147
2727.887617,-10066.800811,1554.432478,995.924147
2727.887954,-10214.842000,1332.370696,995.924147
2727.888292,-9622.677246,1184.329507,-229.828649
2727.888629,-9474.636058,1776.494261,153.219100
2727.888967,-9696.697840,1036.288319,229.828649
2727.889304,-9252.574275,74.020594,-612.876398
2727.889641,-9400.615463,444.123565,-536.266849
2727.889979,-9844.739029,370.102971,229.828649
2727.890316,-10140.821405,444.123565,-689.485948
2727.890653,-9178.553681,-1184.329507,-1915.238745
2727.890991,-10066.800811,-1036.288319,-1302.362347
2727.891328,-9992.780217,-2368.659014,-383.047749
2727.891665,-9844.739029,-1702.473667,-612.876398
2727.892003,-9918.759623,-2146.597232,536.266849
2727.892340,-10066.800811,-2220.617826,0.000000
2727.892678,-10436.903782,-2072.576638,76.609550
2727.893015,-10881.027347,-1924.535449,459.657299
2727.893352,-10658.965565,-1258.350101,1455.581446
2727.893690,-11177.109724,-1184.329507,919.314598
2727.894027,-10658.965565,-1184.329507,1149.143247
2727.894364,-10658.965565,-148.041188,1149.143247
2727.894702,-10955.047942,-370.102971,995.924147
2727.895039,-10510.924376,-1110.308913,-229.828649
2727.895376,-10066.800811,-370.102971,76.609550
2727.895714,-10658.965565,-222.061783,536.266849
2727.896051,-9992.780217,-740.205942,-842.705048
2727.896389,-9770.718434,-370.102971,0.000000
2727.896726,-10066.800811,-592.164754,0.000000
2727.897063,-9474.636058,-296.082377,-383.047749
2727.897401,-9770.718434,-222.061783,-383.047749
2727.897738,-9844.739029,-74.020594,-76.609550
2727.898075,-9696.697840,-1110.308913,-153.219100
2727.898413,-9104.533087,-962.267725,-76.609550
2727.898750,-9474.636058,-74.020594,612.876398
2727.899087,-9696.697840,-740.205942,536.266849
2727.899425,-9326.594869,-592.164754,0.000000
2727.899762,-9770.718434,222.061783,1302.362347
2727.900099,-10140.821405,-444.123565,1532.190996
2727.900437,-9548.656652,740.205942,1072.533697
2727.900774,-10066.800811,444.123565,1378.971896
2727.901112,-9770.718434,1036.288319,689.485948
2727.901449,-9622.677246,1184.329507,842.705048
2727.901786,-10214.842000,1184.329507,1225.752797
2727.902124,-10140.821405,1258.350101,76.609550
2727.902461,-10288.862594,0.000000,0.000000
2727.902798,-10436.903782,0.000000,-306.438199
2727.903136,-9844.739029,0.000000,-612.876398
2727.903473,-9844.739029,-1036.288319,-76.609550
2727.903810,-9770.718434,-1628.453072,-1072.533697
2727.904148,-9178.553681,-1850.514855,-689.485948
2727.904485,-10288.862594,-1258.350101,-1072.533697
2727.904823,-10140.821405,-2220.617826,-1378.971896
2727.905160,-10140.821405,-2294.638420,-229.828649
2727.905497,-10510.924376,-2590.720797,0.000000
2727.905835,-10066.800811,-2220.617826,153.219100
2727.906172,-9992.780217,-2368.659014,0.000000
2727.906509,-10362.883188,-2220.617826,383.047749
2727.906847,-10140.821405,-2368.659014,76.609550
2727.907184,-10584.944971,-1776.494261,459.657299
2727.907521,-10436.903782,-888.247130,1608.800546
2727.907859,-10658.965565,-1110.308913,689.485948
2727.908196,-10140.821405,-666.185348,1455.581446
2727.908534,-9696.697840,0.000000,1225.752797
2727.908871,-10732.986159,444.123565,1302.362347
2727.909208,-10288.862594,518.144159,229.828649
2727.909546,-10140.821405,592.164754,76.609550
2727.909883,-9918.759623,888.247130,766.095498
2727.910220,-9696.697840,444.123565,0.000000
2727.910558,-9548.656652,1184.329507,0.000000
2727.910895,-9548.656652,666.185348,0.000000
2727.911232,-9400.615463,740.205942,-995.924147
2727.911570,-9844.739029,518.144159,-766.095498
2727.911907,-9696.697840,-296.082377,-459.657299
2727.912245,-9030.512492,-814.226536,-306.438199
2727.912582,-9252.574275,-888.247130,229.828649
2727.912919,-9992.780217,-444.123565,995.924147
2727.913257,-9696.697840,-666.185348,76.609550
2727.913594,-10066.800811,-888.247130,0.000000
2727.913931,-9548.656652,-888.247130,0.000000
2727.914269,-10584.944971,-888.247130,995.924147
2727.914606,-10510.924376,-592.164754,995.924147
2727.914943,-9696.697840,-592.164754,0.000000
2727.915281,-10214.842000,0.000000,1072.533697
2727.915618,-10584.944971,-518.144159,229.828649
2727.915955,-10584.944971,-296.082377,76.609550
2727.916293,-10658.965565,-518.144159,536.266849
2727.916630,-10510.924376,-1184.329507,1149.143247
2727.916968,-10066.800811,-740.205942,-153.219100
2727.917305,-10510.924376,-1332.370696,-76.609550
2727.917642,-10362.883188,-1332.370696,-306.438199
2727.917980,-9474.636058,-1480.411884,-689.485948
2727.918317,-10066.800811,-592.164754,-842.705048
2727.918654,-10214.842000,-1110.308913,-766.095498
2727.918992,-10510.924376,-1628.453072,-1302.362347
2727.919329,-9992.780217,-1332.370696,-995.924147
2727.919666,-10362.883188,-2294.638420,153.219100
2727.920004,-10140.821405,-1776.494261,766.095498
2727.920341,-9622.677246,-1480.411884,383.047749
2727.920679,-9548.656652,-1480.411884,919.314598
2727.921016,-9918.759623,-1184.329507,1302.362347
2727.921353,-9992.780217,-814.226536,2145.067394
2727.921691,-10807.006753,370.102971,2451.505594
2727.922028,-9770.718434,1036.288319,1455.581446
2727.922365,-10140.821405,1036.288319,612.876398
2727.922703,-9918.759623,1628.453072,1072.533697
2727.923040,-10140.821405,1554.432478,1608.800546
2727.923377,-10066.800811,1332.370696,1378.971896
2727.923715,-9474.636058,1184.329507,0.000000
2727.924052,-8882.471304,1110.308913,0.000000
2727.924390,-9696.697840,1184.329507,766.095498
2727.924727,-9474.636058,666.185348,-383.047749
2727.925064,-9474.636058,0.000000,-306.438199
2727.925402,-10214.842000,518.144159,383.047749
2727.925739,-9474.636058,444.123565,-1532.190996
2727.926076,-9844.739029,-740.205942,-1685.410096
2727.926414,-10362.883188,-814.226536,-842.705048
2727.926751,-9844.739029,-2294.638420,-919.314598
2727.927088,-9622.677246,-1702.473667,0.000000
2727.927426,-9548.656652,-2368.659014,306.438199
2727.927763,-10362.883188,-2220.617826,76.609550
2727.928101,-10510.924376,-2664.741391,153.219100
2727.928438,-10436.903782,-1850.514855,919.314598
2727.928775,-10955.047942,-1258.350101,1455.581446
2727.929113,-10658.965565,-814.226536,689.485948
2727.929450,-10658.965565,-518.144159,383.047749
2727.929787,-10510.924376,-592.164754,766.095498
2727.930125,-10881.027347,-740.205942,229.828649
2727.930462,-10362.883188,-740.205942,153.219100
2727.930800,-10140.821405,-962.267725,229.828649
2727.931137,-9474.636058,296.082377,0.000000
2727.931474,-10362.883188,-518.144159,0.000000
2727.931812,-9474.636058,0.000000,76.609550
2727.932149,-10140.821405,-518.144159,-612.876398
2727.932486,-10362.883188,-148.041188,0.000000
2727.932824,-9252.574275,0.000000,-689.485948
2727.933161,-9770.718434,0.000000,0.000000
2727.933498,-9918.759623,-888.247130,0.000000
2727.933836,-9030.512492,-666.185348,153.219100
2727.934173,-9992.780217,0.000000,1149.143247
2727.934511,-9918.759623,-518.144159,229.828649
2727.934848,-9622.677246,370.102971,536.266849
2727.935185,-10066.800811,-296.082377,1532.190996
2727.935523,-9992.780217,518.144159,1532.190996
2727.935860,-9548.656652,888.247130,1455.581446
2727.936197,-10658.965565,666.185348,1915.238745
2727.936535,-10214.842000,1554.432478,1149.143247
2727.936872,-9844.739029,1258.350101,229.828649
2727.937209,-10214.842000,962.267725,1225.752797
2727.937547,-10288.862594,1332.370696,383.047749
2727.937884,-10214.842000,148.041188,0.000000
2727.938222,-10288.862594,222.061783,536.266849
2727.938559,-9992.780217,0.000000,0.000000
2727.938896,-9770.718434,-444.123565,-1225.752797
2727.939234,-9548.656652,-1184.329507,-1225.752797
2727.939571,-9992.780217,-1258.350101,-1455.581446
2727.939908,-9622.677246,-1258.350101,-1072.533697
2727.940246,-9770.718434,-1850.514855,-1149.143247
2727.940583,-9622.677246,-2738.761985,-536.266849
2727.940921,-10214.842000,-2368.659014,0.000000
2727.941258,-10658.965565,-1850.514855,306.438199
2727.941595,-10732.986159,-2368.659014,383.047749
2727.941933,-10362.883188,-2220.617826,612.876398
2727.942270,-10066.800811,-1850.514855,0.000000
2727.942607,-10288.862594,-1628.453072,612.876398
2727.942945,-10436.903782,-592.164754,1072.533697
2727.943282,-11103.089130,-888.247130,1302.362347
2727.943619,-9696.697840,0.000000,689.485948
2727.943957,-9622.677246,0.000000,1072.533697
2727.944294,-10584.944971,888.247130,1302.362347
2727.944632,-9844.739029,1110.308913,459.657299
2727.944969,-10362.883188,1036.288319,1302.362347
2727.945306,-10510.924376,962.267725,842.705048
2727.945644,-9548.656652,1036.288319,-306.438199
2727.945981,-9770.718434,1184.329507,0.000000
2727.946318,-9548.656652,518.144159,-612.876398
2727.946656,-9178.553681,592.164754,-612.876398
2727.946993,-9104.533087,1110.308913,-1149.143247
2727.947330,-9548.656652,444.123565,-536.266849
2727.947668,-9622.677246,0.000000,-459.657299
2727.948005,-9844.739029,-370.102971,229.828649
2727.948343,-9696.697840,-370.102971,536.266849
2727.948680,-9474.636058,-370.102971,1149.143247
2727.949017,-9918.759623,296.082377,1072.533697
2727.949355,-9844.739029,-740.205942,842.705048
2727.949692,-9844.739029,-222.061783,919.314598
2727.950029,-10214.842000,0.000000,766.095498
2727.950367,-10658.965565,222.061783,536.266849
2727.950704,-10288.862594,0.000000,612.876398
2727.951042,-9918.759623,518.144159,0.000000
2727.951379,-10584.944971,-370.102971,229.828649
2727.951716,-10214.842000,0.000000,383.047749
2727.952054,-10288.862594,-1110.308913,0.000000
2727.952391,-10288.862594,-370.102971,0.000000
2727.952728,-10140.821405,-1184.329507,229.828649
2727.953066,-10362.883188,-370.102971,229.828649
2727.953403,-10140.821405,-1110.308913,-1072.533697
2727.953740,-9770.718434,-1258.350101,-766.095498
2727.954078,-9992.780217,-1332.370696,-76.609550
2727.954415,-9918.759623,-1554.432478,-842.705048
2727.954753,-10140.821405,-1258.350101,-536.266849
2727.955090,-10140.821405,-2368.659014,0.000000
2727.955427,-9844.739029,-1036.288319,-229.828649
2727.955765,-9770.718434,-1110.308913,229.828649
2727.956102,-10066.800811,-592.164754,842.705048
2727.956439,-9770.718434,-888.247130,995.924147
2727.956777,-10214.842000,-296.082377,1915.238745
2727.957114,-10288.862594,814.226536,2757.943793
2727.957451,-10214.842000,962.267725,1838.629195
2727.957789,-10362.883188,1924.535449,1225.752797
2727.958126,-9918.759623,1554.432478,1149.143247
2727.958464,-10140.821405,2220.617826,1378.971896
2727.958801,-9918.759623,1702.473667,459.657299
2727.959138,-9548.656652,1998.556043,306.438199
2727.959476,-9622.677246,1406.391290,306.438199
2727.959813,-9548.656652,1110.308913,306.438199
2727.960150,-9474.636058,1258.350101,-306.438199
2727.960488,-9474.636058,666.185348,0.000000
2727.960825,-9992.780217,962.267725,0.000000
2727.961163,-9696.697840,666.185348,-1302.362347
2727.961500,-9992.780217,0.000000,-1225.752797
2727.961837,-9992.780217,-740.205942,-306.438199
2727.962175,-9844.739029,-1480.411884,0.000000
2727.962512,-9326.594869,-1776.494261,-76.609550
2727.962849,-9844.739029,-1480.411884,229.828649
2727.963187,-10214.842000,-1554.432478,0.000000
2727.963524,-10140.821405,-1850.514855,0.000000
2727.963861,-10584.944971,-1776.494261,1532.190996
2727.964199,-10510.924376,-888.247130,1072.533697
2727.964536,-10881.027347,-592.164754,919.314598
2727.964874,-10732.986159,-592.164754,1149.143247
2727.965211,-10584.944971,-666.185348,612.876398
2727.965548,-10584.944971,-222.061783,459.657299
2727.965886,-10214.842000,-222.061783,459.657299
2727.966223,-10584.944971,-370.102971,76.609550
2727.966560,-10140.821405,-222.061783,0.000000
2727.966898,-9770.718434,-370.102971,-306.438199
2727.967235,-9696.697840,148.041188,-536.266849
2727.967572,-9992.780217,0.000000,-612.876398
2727.967910,-9844.739029,0.000000,-536.266849
2727.968247,-9622.677246,-222.061783,-1072.533697
2727.968585,-9696.697840,74.020594,-383.047749
2727.968922,-9622.677246,-444.123565,-459.657299
2727.969259,-9474.636058,-814.226536,229.828649
2727.969597,-9696.697840,-148.041188,536.266849
2727.969934,-9770.718434,370.102971,842.705048
2727.970271,-9992.780217,296.082377,612.876398
2727.970609,-9622.677246,0.000000,1378.971896
2727.970946,-10066.800811,518.144159,1378.971896
2727.971283,-9548.656652,814.226536,1455.581446
2727.971621,-10066.800811,1480.411884,1302.362347
2727.971958,-9770.718434,1036.288319,1302.362347
2727.972296,-9696.697840,1554.432478,612.876398
2727.972633,-10214.842000,1850.514855,1225.752797
2727.972970,-10510.924376,1258.350101,459.657299
2727.973308,-10140.821405,1110.308913,0.000000
2727.973645,-10658.965565,444.123565,536.266849
2727.973982,-9770.718434,0.000000,-383.047749
2727.974320,-9030.512492,0.000000,-1225.752797
2727.974657,-9770.718434,-666.185348,-995.924147
2727.974995,-10362.883188,-1258.350101,-919.314598
2727.975332,-9770.718434,-1184.329507,-689.485948
2727.975669,-9844.739029,-1406.391290,-842.705048
2727.976007,-10140.821405,-2072.576638,-229.828649
2727.976344,-10510.924376,-2146.597232,76.609550
2727.976681,-10510.924376,-1850.514855,76.609550
2727.977019,-10362.883188,-1850.514855,536.266849
2727.977356,-10510.924376,-1850.514855,689.485948
2727.977693,-10436.903782,-1628.453072,229.828649
2727.978031,-10436.903782,-1850.514855,919.314598
2727.978368,-10362.883188,-1036.288319,1455.581446
2727.978706,-10584.944971,-518.144159,1608.800546
2727.979043,-9918.759623,-370.102971,1149.143247
2727.979380,-10214.842000,518.144159,1072.533697
2727.979718,-10362.883188,1184.329507,612.876398
2727.980055,-10288.862594,1184.329507,689.485948
2727.980392,-10140.821405,1110.308913,459.657299
2727.980730,-9622.677246,444.123565,612.876398
2727.981067,-9474.636058,1776.494261,153.219100
2727.981404,-9326.594869,1702.473667,-306.438199
2727.981742,-10214.842000,1406.391290,383.047749
2727.982079,-9474.636058,1184.329507,-766.095498
2727.982417,-9400.615463,962.267725,-306.438199
2727.982754,-9474.636058,518.144159,0.000000
2727.983091,-8956.491898,444.123565,-229.828649
2727.983429,-9622.677246,-370.102971,842.705048
2727.983766,-10288.862594,-148.041188,229.828649
2727.984103,-9178.553681,0.000000,0.000000
2727.984441,-9548.656652,0.000000,153.219100
2727.984778,-10140.821405,-740.205942,1532.190996
2727.985116,-9918.759623,-370.102971,1225.752797
2727.985453,-10066.800811,740.205942,919.314598
2727.985790,-9844.739029,888.247130,1149.143247
2727.986128,-10881.027347,444.123565,1149.143247
2727.986465,-10658.965565,296.082377,459.657299
2727.986802,-10362.883188,0.000000,0.000000
2727.987140,-10140.821405,-296.082377,1072.533697
2727.987477,-10214.842000,-814.226536,689.485948
2727.987814,-9548.656652,-1110.308913,0.000000
2727.988152,-9844.739029,-1110.308913,153.219100
2727.988489,-9696.697840,-666.185348,-919.314598
2727.988827,-9918.759623,-962.267725,-919.314598
2727.989164,-9622.677246,-666.185348,-459.657299
2727.989501,-10140.821405,-962.267725,-919.314598
2727.989839,-10362.883188,-1184.329507,-995.924147
2727.990176,-9622.677246,-1776.494261,-919.314598
2727.990513,-10140.821405,-1480.411884,383.047749
2727.990851,-10140.821405,-2146.597232,306.438199
2727.991188,-9326.594869,-962.267725,383.047749
2727.991525,-9696.697840,-1332.370696,689.485948
2727.991863,-10510.924376,-888.247130,1991.848295
2727.992200,-9992.780217,0.000000,1532.190996
2727.992538,-9992.780217,1110.308913,2374.896044
2727.992875,-10510.924376,1480.411884,1225.752797
2727.993212,-9844.739029,1850.514855,612.876398
2727.993550,-10510.924376,1850.514855,1685.410096
2727.993887,-10066.800811,1850.514855,1378.971896
2727.994224,-9548.656652,1702.473667,766.095498
2727.994562,-9844.739029,1776.494261,306.438199
2727.994899,-9400.615463,1554.432478,153.219100
2727.995237,-8956.491898,814.226536,306.438199
2727.995574,-9400.615463,814.226536,153.219100
2727.995911,-9252.574275,962.267725,229.828649
2727.996249,-10066.800811,740.205942,76.609550
2727.996586,-10066.800811,222.061783,-1072.533697
2727.996923,-9400.615463,296.082377,-1608.800546
2727.997261,-10584.944971,-740.205942,-919.314598
2727.997598,-9992.780217,-888.247130,76.609550
2727.997935,-9622.677246,-2146.597232,0.000000
2727.998273,-9992.780217,-1924.535449,612.876398
2727.998610,-9844.739029,-2146.597232,383.047749
2727.998948,-10362.883188,-2072.576638,612.876398
2727.999285,-10732.986159,-1406.391290,1455.581446
2727.999622,-10436.903782,-1332.370696,1072.533697
2727.999960,-10881.027347,-222.061783,766.095498
2728.000297,-10881.027347,0.000000,306.438199
2728.000634,-10955.047942,-518.144159,842.705048
2728.000972,-10584.944971,-296.082377,0.000000
2728.001309,-9992.780217,-740.205942,306.438199
2728.001646,-10584.944971,-592.164754,612.876398
2728.001984,-9844.739029,-888.247130,-306.438199
2728.002321,-10066.800811,-444.123565,-153.219100
2728.002659,-10436.903782,-148.041188,-229.828649
2728.002996,-9770.718434,-518.144159,-1225.752797
2728.003333,-9696.697840,-592.164754,-842.705048
2728.003671,-9696.697840,0.000000,-383.047749
2728.004008,-9474.636058,-518.144159,-459.657299
2728.004345,-9696.697840,-148.041188,229.828649
2728.004683,-9474.636058,-518.144159,229.828649
2728.005020,-9622.677246,-370.102971,689.485948
2728.005358,-9992.780217,0.000000,1149.143247
2728.005695,-9178.553681,0.000000,1149.143247
2728.006032,-10140.821405,0.000000,2374.896044
2728.006370,-9992.780217,222.061783,1762.019645
2728.006707,-9770.718434,666.185348,1225.752797
2728.007044,-10362.883188,2072.576638,1455.581446
2728.007382,-10066.800811,962.267725,612.876398
2728.007719,-9918.759623,1776.494261,459.657299
2728.008056,-9844.739029,1332.370696,842.705048
2728.008394,-9622.677246,1406.391290,0.000000
2728.008731,-10140.821405,666.185348,0.000000
2728.009069,-10214.842000,296.082377,536.266849
2728.009406,-9992.780217,0.000000,0.000000
2728.009743,-9844.739029,-296.082377,-612.876398
2728.010081,-9696.697840,-740.205942,-1225.752797
2728.010418,-10436.903782,-1184.329507,-1455.581446
2728.010755,-9844.739029,-1924.535449,-1302.362347
2728.011093,-8808.450710,-1554.432478,-1532.190996
2728.011430,-10288.862594,-2516.700203,459.657299
2728.011767,-9844.739029,-2072.576638,-306.438199
2728.012105,-10362.883188,-1998.556043,0.000000
2728.012442,-10732.986159,-2146.597232,919.314598
2728.012780,-10066.800811,-2442.679609,153.219100
2728.013117,-10510.924376,-1554.432478,612.876398
2728.013454,-10510.924376,-1850.514855,1149.143247
2728.013792,-10510.924376,-1184.329507,1302.362347
2728.014129,-10510.924376,-592.164754,919.314598
2728.014466,-10214.842000,-296.082377,459.657299
2728.014804,-10066.800811,518.144159,1149.143247
2728.015141,-10510.924376,296.082377,842.705048
2728.015478,-10140.821405,1036.288319,536.266849
2728.015816,-10066.800811,962.267725,919.314598
2728.016153,-10807.006753,888.247130,306.438199
2728.016491,-9622.677246,962.267725,-383.047749
2728.016828,-9474.636058,518.144159,-536.266849
2728.017165,-10066.800811,888.247130,76.609550
2728.017503,-9400.615463,740.205942,-1378.971896
2728.017840,-8882.471304,666.185348,-689.485948
2728.018177,-9326.594869,0.000000,-383.047749
2728.018515,-9104.533087,0.000000,-612.876398
2728.018852,-9548.656652,-444.123565,76.609550
2728.019190,-9400.615463,-518.144159,995.924147
2728.019527,-9252.574275,-296.082377,842.705048
2728.019864,-9622.677246,-222.061783,1149.143247
2728.020202,-10362.883188,74.020594,1991.848295
2728.020539,-10140.821405,-518.144159,1149.143247
2728.020876,-10066.800811,0.000000,689.485948
2728.021214,-10214.842000,592.164754,919.314598
2728.021551,-10658.965565,-74.020594,995.924147
2728.021888,-10214.842000,-592.164754,-306.438199
2728.022226,-9918.759623,0.000000,76.609550
2728.022563,-10436.903782,-148.041188,766.095498
2728.022900,-10140.821405,-518.144159,-459.657299
2728.023238,-10362.883188,-1258.350101,0.000000
2728.023575,-10214.842000,-592.164754,153.219100
2728.023912,-10362.883188,-1628.453072,-306.438199
2728.024250,-10955.047942,-888.247130,-306.438199
2728.024587,-9696.697840,-1628.453072,-919.314598
2728.024924,-10288.862594,-1702.473667,-689.485948
2728.025262,-10214.842000,-2220.617826,-689.485948
2728.025599,-9770.718434,-2146.597232,-689.485948
2728.025936,-10288.862594,-1332.370696,0.000000
2728.026274,-10584.944971,-2220.617826,-459.657299
2728.026611,-9474.636058,-1258.350101,76.609550
2728.026948,-9992.780217,-1110.308913,459.657299
2728.027286,-10140.821405,-888.247130,1838.629195
2728.027623,-10362.883188,-296.082377,1532.190996
2728.027960,-10288.862594,222.061783,2451.505594
2728.028298,-10214.842000,962.267725,1685.410096
2728.028635,-9844.739029,1258.350101,995.924147
2728.028972,-10288.862594,1776.494261,1762.019645
2728.029310,-10214.842000,1184.329507,1072.533697
2728.029647,-9622.677246,1924.535449,306.438199
2728.029984,-9326.594869,1850.514855,306.438199
2728.030322,-10140.821405,1628.453072,76.609550
2728.030659,-9178.553681,740.205942,-1149.143247
2728.030996,-9252.574275,1036.288319,-689.485948
2728.031334,-9622.677246,296.082377,612.876398
2728.031671,-9844.739029,222.061783,-766.095498
2728.032008,-9770.718434,148.041188,-766.095498
2728.032346,-9474.636058,0.000000,-383.047749
2728.032683,-10510.924376,-666.185348,0.000000
2728.033020,-10288.862594,-962.267725,-76.609550
2728.033358,-9844.739029,-1554.432478,229.828649
2728.033695,-9992.780217,-1554.432478,153.219100
2728.034032,-9770.718434,-1998.556043,-459.657299
2728.034370,-10584.944971,-1480.411884,153.219100
2728.034707,-10362.883188,-1776.494261,1302.362347
2728.035044,-10584.944971,-1850.514855,919.314598
2728.035382,-10362.883188,-74.020594,842.705048
2728.035719,-10881.027347,-444.123565,1302.362347
2728.036056,-10955.047942,-814.226536,919.314598
2728.036394,-10214.842000,-962.267725,153.219100
2728.036731,-10436.903782,-592.164754,536.266849
2728.037068,-10510.924376,-592.164754,612.876398
2728.037406,-10362.883188,-888.247130,-766.095498
2728.037743,-10214.842000,-444.123565,-306.438199
2728.038080,-10362.883188,-1258.350101,-612.876398
2728.038418,-9844.739029,-740.205942,-995.924147
2728.038755,-9844.739029,-740.205942,-1149.143247
2728.039092,-9696.697840,-666.185348,-536.266849
2728.039430,-9474.636058,-962.267725,-612.876398
2728.039767,-9696.697840,-592.164754,76.609550
2728.040105,-10066.800811,-518.144159,612.876398
2728.040442,-9992.780217,-888.247130,766.095498
2728.040779,-9844.739029,0.000000,1072.533697
2728.041117,-9548.656652,0.000000,1225.752797
2728.041454,-9992.780217,222.061783,1455.581446
2728.041791,-9844.739029,74.020594,1762.019645
2728.042129,-9918.759623,518.144159,1532.190996
2728.042466,-9844.739029,592.164754,1838.629195
2728.042803,-9918.759623,1110.308913,689.485948
2728.043141,-10066.800811,1554.432478,459.657299
2728.043478,-9770.718434,1184.329507,995.924147
2728.043815,-9696.697840,1406.391290,229.828649
2728.044153,-9696.697840,1184.329507,-76.609550
2728.044490,-10214.842000,518.144159,459.657299
2728.044827,-10214.842000,-296.082377,76.609550
2728.045165,-9770.718434,-888.247130,-1378.971896
2728.045502,-9622.677246,-592.164754,-995.924147
2728.045839,-10288.862594,-1332.370696,-842.705048
2728.046177,-9844.739029,-1628.453072,-1455.581446
2728.046514,-9696.697840,-2220.617826,-612.876398
2728.046851,-10140.821405,-2368.659014,0.000000
2728.047189,-10288.862594,-1998.556043,-612.876398
2728.047526,-10955.047942,-2072.576638,76.609550
2728.047863,-10955.047942,-1480.411884,919.314598
2728.048201,-10732.986159,-2738.761985,229.828649
2728.048538,-10288.862594,-1480.411884,612.876398
2728.048875,-10436.903782,-1850.514855,919.314598
2728.049213,-10584.944971,-1258.350101,1302.362347
2728.049550,-10436.903782,-592.164754,689.485948
2728.049887,-10362.883188,0.000000,1225.752797
2728.050225,-10584.944971,222.061783,1149.143247
2728.050562,-9992.780217,-296.082377,0.000000
2728.050899,-10214.842000,666.185348,306.438199
2728.051237,-9844.739029,148.041188,919.314598
2728.051574,-10066.800811,148.041188,459.657299
2728.051911,-9326.594869,740.205942,0.000000
2728.052249,-9252.574275,1036.288319,0.000000
2728.052586,-10140.821405,1110.308913,306.438199
2728.052923,-10658.965565,148.041188,-1149.143247
2728.053261,-9178.553681,148.041188,-766.095498
2728.053598,-9400.615463,0.000000,0.000000
2728.053935,-9030.512492,-666.185348,306.438199
2728.054273,-9474.636058,74.020594,383.047749
2728.054610,-9992.780217,0.000000,229.828649
2728.054947,-9548.656652,-518.144159,-76.609550
2728.055285,-9474.636058,-74.020594,536.266849
2728.055622,-10362.883188,0.000000,1762.019645
2728.055959,-10288.862594,0.000000,1225.752797
2728.056297,-9770.718434,222.061783,1072.533697
2728.056634,-10214.842000,962.267725,1532.190996
2728.056971,-11103.089130,296.082377,1072.533697
2728.057309,-11177.109724,0.000000,306.438199
2728.057646,-10362.883188,-74.020594,229.828649
2728.057983,-9770.718434,-888.247130,919.314598
2728.058321,-9918.759623,-814.226536,-229.828649
2728.058658,-10140.821405,-1110.308913,-153.219100
2728.058995,-10362.883188,-1480.411884,0.000000
2728.059333,-9918.759623,-1406.391290,-995.924147
2728.059670,-10288.862594,-592.164754,-842.705048
2728.060007,-10436.903782,-1110.308913,-459.657299
2728.060345,-10436.903782,-1554.432478,-1225.752797
2728.060682,-9844.739029,-2072.576638,-842.705048
2728.061019,-10140.821405,-1924.535449,-153.219100
2728.061357,-10066.800811,-2294.638420,612.876398
2728.061694,-10732.986159,-2220.617826,153.219100
2728.062031,-9548.656652,-1628.453072,229.828649
2728.062369,-9844.739029,-1628.453072,842.705048
2728.062706,-10510.924376,-666.185348,1762.019645
2728.063043,-10066.800811,74.020594,1685.410096
2728.063381,-9992.780217,592.164754,1762.019645
2728.063718,-10510.924376,1480.411884,1149.143247
2728.064055,-9696.697840,1332.370696,919.314598
2728.064393,-10584.944971,1776.494261,2145.067394
2728.064730,-10436.903782,666.185348,1455.581446
2728.065067,-9326.594869,1702.473667,0.000000
2728.065405,-9252.574275,1554.432478,612.876398
2728.065742,-9474.636058,1258.350101,536.266849
2728.066079,-9252.574275,518.144159,-383.047749
2728.066417,-9474.636058,1184.329507,0.000000
2728.066754,-9696.697840,740.205942,-383.047749
2728.067091,-9696.697840,592.164754,-306.438199
2728.067429,-9696.697840,222.061783,-995.924147
2728.067766,-9178.553681,-592.164754,-842.705048
2728.068103,-10140.821405,-518.144159,-536.266849
2728.068441,-9918.759623,-814.226536,0.000000
2728.068778,-10140.821405,-1702.473667,153.219100
2728.069115,-9844.739029,-1480.411884,536.266849
2728.069453,-9696.697840,-2146.597232,0.000000
2728.069790,-10584.944971,-1184.329507,842.705048
2728.070127,-10214.842000,-1554.432478,1225.752797
2728.070465,-10362.883188,-666.185348,536.266849
2728.070802,-10732.986159,-962.267725,842.705048
2728.071139,-10362.883188,0.000000,766.095498
2728.071477,-11029.068536,-888.247130,383.047749
2728.071814,-10881.027347,-888.247130,842.705048
2728.072151,-10140.821405,-814.226536,306.438199
2728.072489,-9474.636058,-666.185348,306.438199
2728.072826,-9918.759623,-740.205942,-383.047749
2728.073163,-9770.718434,-296.082377,-229.828649
2728.073501,-10584.944971,-1036.288319,-459.657299
2728.073838,-10214.842000,74.020594,-1149.143247
2728.074175,-9770.718434,-592.164754,-1149.143247
2728.074513,-9696.697840,-666.185348,-459.657299
2728.074850,-9178.553681,-962.267725,-612.876398
2728.075187,-9252.574275,-1036.288319,-76.609550
2728.075525,-9696.697840,-814.226536,1455.581446
2728.075862,-9992.780217,-518.144159,689.485948
2728.076199,-9992.780217,0.000000,1225.752797
2728.076537,-10214.842000,74.020594,1762.019645
2728.076874,-9770.718434,518.144159,1378.971896
2728.077211,-9622.677246,592.164754,1378.971896
2728.077549,-9992.780217,1258.350101,1608.800546
2728.077886,-9696.697840,1406.391290,995.924147
2728.078223,-10288.862594,1406.391290,689.485948
2728.078561,-9770.718434,1702.473667,1149.143247
2728.078898,-10066.800811,1036.288319,766.095498
2728.079235,-9474.636058,1628.453072,76.609550
2728.079573,-9696.697840,1110.308913,153.219100
2728.079910,-9992.780217,740.205942,766.095498
2728.080247,-10140.821405,148.041188,-306.438199
2728.080585,-9400.615463,-148.041188,-1532.190996
2728.080922,-10066.800811,-370.102971,-1302.362347
2728.081259,-9844.739029,-666.185348,-1532.190996
2728.081597,-10214.842000,-1776.494261,-1378.971896
2728.081934,-9178.553681,-2516.700203,-689.485948
2728.082271,-9252.574275,-2368.659014,0.000000
2728.082609,-10584.944971,-2072.576638,229.828649
2728.082946,-10436.903782,-2220.617826,0.000000
2728.083283,-10881.027347,-2220.617826,842.705048
2728.083621,-10807.006753,-2294.638420,995.924147
2728.083958,-10214.842000,-1628.453072,842.705048
2728.084295,-10955.047942,-888.247130,1378.971896
2728.084633,-10584.944971,-1258.350101,919.314598
2728.084970,-10584.944971,-296.082377,383.047749
2728.085308,-10658.965565,-222.061783,1149.143247
2728.085645,-10214.842000,74.020594,612.876398
2728.085982,-9918.759623,0.000000,842.705048
2728.086320,-10288.862594,518.144159,689.485948
2728.086657,-10140.821405,740.205942,919.314598
2728.086994,-10066.800811,888.247130,76.609550
2728.087332,-9622.677246,518.144159,-229.828649
2728.087669,-9770.718434,888.247130,459.657299
2728.088006,-10214.842000,518.144159,0.000000
2728.088344,-9548.656652,1258.350101,-842.705048
2728.088681,-9178.553681,0.000000,-612.876398
2728.089018,-9400.615463,0.000000,-383.047749
2728.089356,-9400.615463,-222.061783,-689.485948
2728.089693,-9252.574275,0.000000,689.485948
2728.090030,-9844.739029,-370.102971,612.876398
2728.090368,-9474.636058,-296.082377,689.485948
2728.090705,-9548.656652,-148.041188,919.314598
2728.091042,-9918.759623,592.164754,1225.752797
2728.091380,-10658.965565,0.000000,1378.971896
2728.091717,-9918.759623,1110.308913,459.657299
2728.092054,-10066.800811,592.164754,919.314598
2728.092392,-11029.068536,296.082377,1149.143247
2728.092729,-10214.842000,296.082377,153.219100
2728.093066,-10288.862594,-370.102971,383.047749
2728.093404,-10510.924376,-148.041188,229.828649
2728.093741,-9548.656652,-518.144159,-766.095498
2728.094078,-9844.739029,-888.247130,-383.047749
2728.094416,-10214.842000,-1036.288319,0.000000
2728.094753,-10288.862594,-1036.288319,-919.314598
2728.095090,-10362.883188,-1036.288319,-919.314598
2728.095428,-10510.924376,-962.267725,-536.266849
2728.095765,-10140.821405,-1776.494261,-1072.533697
2728.096102,-10214.842000,-1998.556043,-383.047749
2728.096440,-9770.718434,-2220.617826,306.438199
2728.096777,-10436.903782,-1924.535449,383.047749
2728.097114,-10288.862594,-1480.411884,383.047749
2728.097452,-10510.924376,-1628.453072,153.219100
2728.097789,-9918.759623,-888.247130,689.485948
2728.098126,-10510.924376,-518.144159,1072.533697
2728.098464,-9474.636058,74.020594,1532.190996
2728.098801,-9918.759623,296.082377,1838.629195
2728.099138,-10066.800811,962.267725,1991.848295
2728.099476,-9622.677246,1406.391290,1149.143247
2728.099813,-10288.862594,1924.535449,2068.457845
2728.100150,-10732.986159,1998.556043,1455.581446
2728.100488,-9770.718434,1776.494261,229.828649
2728.100825,-9622.677246,1628.453072,459.657299
2728.101162,-9104.533087,1776.494261,229.828649
2728.101500,-9474.636058,666.185348,0.000000
2728.101837,-9104.533087,518.144159,-459.657299
2728.102174,-9326.594869,1184.329507,-383.047749
2728.102512,-9770.718434,1332.370696,0.000000
2728.102849,-9548.656652,222.061783,-1149.143247
2728.103186,-9622.677246,-74.020594,0.000000
2728.103524,-10066.800811,0.000000,-383.047749
2728.103861,-9918.759623,-666.185348,306.438199
2728.104198,-10362.883188,-888.247130,689.485948
2728.104536,-9918.759623,-1406.391290,76.609550
2728.104873,-9992.780217,-1184.329507,0.000000
2728.105210,-10584.944971,-1184.329507,1225.752797
2728.105548,-10214.842000,-1258.350101,689.485948
2728.105885,-10584.944971,-962.267725,689.485948
2728.106222,-10881.027347,-1184.329507,1072.533697
2728.106560,-10214.842000,-370.102971,919.314598
2728.106897,-10955.047942,-296.082377,153.219100
2728.107234,-10955.047942,-222.061783,383.047749
2728.107572,-10288.862594,-444.123565,153.219100
2728.107909,-10288.862594,-518.144159,153.219100
2728.108246,-10066.800811,-888.247130,-383.047749
2728.108584,-9548.656652,-962.267725,-383.047749
2728.108921,-10214.842000,-592.164754,-612.876398
2728.109258,-9844.739029,-1184.329507,-842.705048
2728.109596,-9696.697840,-444.123565,-842.705048
2728.109933,-9844.739029,-592.164754,-612.876398
2728.110270,-9918.759623,-666.185348,-306.438199
2728.110608,-9326.594869,-1036.288319,-306.438199
2728.110945,-9844.739029,0.000000,919.314598
2728.111282,-10140.821405,-592.164754,919.314598
2728.111620,-10066.800811,0.000000,536.266849
2728.111957,-9992.780217,0.000000,1991.848295
2728.112294,-10288.862594,592.164754,1149.143247
2728.112632,-10066.800811,1036.288319,1991.848295
2728.112969,-10066.800811,888.247130,1455.581446
2728.113306,-9622.677246,814.226536,1532.190996
2728.113644,-9770.718434,1776.494261,459.657299
2728.113981,-9770.718434,1702.473667,919.314598
2728.114318,-10066.800811,2072.576638,995.924147
2728.114656,-9770.718434,1480.411884,76.609550
2728.114993,-9548.656652,1036.288319,153.219100
2728.115330,-9918.759623,1110.308913,306.438199
2728.115668,-10288.862594,74.020594,0.000000
2728.116005,-10066.800811,148.041188,-383.047749
2728.116342,-9696.697840,-888.247130,-1455.581446
2728.116680,-9918.759623,-740.205942,-1378.971896
2728.117017,-9696.697840,-1776.494261,-1532.190996
2728.117354,-9474.636058,-2664.741391,-459.657299
2728.117692,-9992.780217,-2072.576638,306.438199
2728.118029,-10140.821405,-2220.617826,76.609550
2728.118366,-10510.924376,-1628.453072,0.000000
2728.118704,-10584.944971,-2072.576638,229.828649
2728.119041,-10658.965565,-1924.535449,459.657299
2728.119378,-10288.862594,-1776.494261,919.314598
2728.119716,-10658.965565,-962.267725,1455.581446
2728.120053,-10732.986159,-1406.391290,1072.533697
2728.120390,-10362.883188,-592.164754,842.705048
2728.120728,-10214.842000,222.061783,995.924147
2728.121065,-11177.109724,444.123565,995.924147
2728.121402,-10288.862594,444.123565,-229.828649
2728.121740,-9770.718434,-74.020594,229.828649
2728.122077,-10140.821405,518.144159,842.705048
2728.122414,-9326.594869,518.144159,0.000000
2728.122752,-9252.574275,1258.350101,76.609550
2728.123089,-9770.718434,888.247130,459.657299
2728.123427,-10066.800811,962.267725,0.000000
2728.123764,-9992.780217,888.247130,0.000000
2728.124101,-9622.677246,370.102971,-306.438199
2728.124439,-9400.615463,296.082377,0.000000
2728.124776,-9400.615463,-518.144159,229.828649
2728.125113,-9770.718434,74.020594,306.438199
2728.125451,-9548.656652,0.000000,153.219100
2728.125788,-9326.594869,0.000000,0.000000
2728.126125,-9770.718434,-370.102971,842.705048
2728.126463,-9992.780217,-296.082377,1532.190996
2728.126800,-9992.780217,962.267725,1532.190996
2728.127137,-9474.636058,1332.370696,153.219100
2728.127475,-10214.842000,888.247130,1532.190996
2728.127812,-11177.109724,1258.350101,1302.362347
2728.128150,-10807.006753,0.000000,383.047749
2728.128487,-9992.780217,222.061783,306.438199
2728.128824,-9992.780217,-740.205942,229.828649
2728.129162,-9992.780217,-962.267725,0.000000
2728.129499,-9474.636058,-1110.308913,-1072.533697
2728.129836,-10140.821405,-888.247130,0.000000
2728.130174,-9918.759623,-1110.308913,-919.314598
2728.130511,-9992.780217,-1184.329507,-1302.362347
2728.130848,-10732.986159,-962.267725,-306.438199
2728.131186,-10732.986159,-962.267725,-1225.752797
2728.131523,-10362.883188,-1998.556043,-459.657299
2728.131860,-10066.800811,-2220.617826,842.705048
2728.132198,-10140.821405,-1924.535449,536.266849
2728.132535,-10584.944971,-1702.473667,612.876398
2728.132873,-10436.903782,-2072.576638,0.000000
2728.133210,-9548.656652,-1480.411884,689.485948
2728.133547,-10436.903782,-1036.288319,1149.143247
2728.133885,-10214.842000,148.041188,1915.238745
2728.134222,-9844.739029,592.164754,1149.143247
2728.134559,-9844.739029,962.267725,919.314598
2728.134897,-10288.862594,1628.453072,1072.533697
2728.135234,-10288.862594,1554.432478,1685.410096
2728.135571,-10658.965565,1776.494261,1225.752797
2728.135909,-9622.677246,1332.370696,383.047749
2728.136246,-9548.656652,1554.432478,766.095498
2728.136583,-9474.636058,1332.370696,306.438199
2728.136921,-9252.574275,1036.288319,-383.047749
2728.137258,-9326.594869,740.205942,0.000000
2728.137596,-9400.615463,1184.329507,-612.876398
2728.137933,-9400.615463,740.205942,-842.705048
2728.138270,-9474.636058,0.000000,-1378.971896
2728.138608,-9474.636058,74.020594,0.000000
2728.138945,-9622.677246,-888.247130,-459.657299
2728.139282,-9992.780217,-962.267725,0.000000
2728.139620,-10066.800811,-592.164754,689.485948
2728.139957,-10362.883188,-1628.453072,459.657299
2728.140294,-9992.780217,-1776.494261,0.000000
2728.140632,-9844.739029,-2146.597232,919.314598
2728.140969,-10658.965565,-814.226536,612.876398
2728.141306,-10214.842000,-1036.288319,383.047749
2728.141644,-11029.068536,-740.205942,995.924147
2728.141981,-10362.883188,-222.061783,459.657299
2728.142319,-10881.027347,-148.041188,536.266849
2728.142656,-11399.171507,-592.164754,842.705048
2728.142993,-10362.883188,-962.267725,0.000000
2728.143331,-10066.800811,-962.267725,383.047749
2728.143668,-10362.883188,-666.185348,0.000000
2728.144005,-9770.718434,-962.267725,0.000000
2728.144343,-10584.944971,-666.185348,-536.266849
2728.144680,-10214.842000,-1036.288319,-1149.143247
2728.145017,-9548.656652,-592.164754,-1532.190996
2728.145355,-9844.739029,-1110.308913,-1072.533697
2728.145692,-9400.615463,-1110.308913,-536.266849
2728.146029,-9326.594869,-1184.329507,0.000000
2728.146367,-9992.780217,-814.226536,766.095498
2728.146704,-10066.800811,-666.185348,1149.143247
2728.147041,-9844.739029,-148.041188,1149.143247
2728.147379,-10288.862594,74.020594,1838.629195
2728.147716,-9918.759623,0.000000,1225.752797
2728.148054,-9918.759623,1258.350101,1838.629195
2728.148391,-10140.821405,1258.350101,1608.800546
2728.148728,-9992.780217,1406.391290,1225.752797
2728.149066,-9548.656652,1554.432478,229.828649
2728.149403,-9992.780217,1406.391290,306.438199
2728.149740,-10288.862594,2146.597232,383.047749
2728.150078,-9844.739029,1110.308913,-306.438199
2728.150415,-9770.718434,1406.391290,536.266849
2728.150752,-9844.739029,148.041188,306.438199
2728.151090,-9918.759623,666.185348,-306.438199
2728.151427,-9844.739029,-370.102971,-995.924147
2728.151764,-10214.842000,-666.185348,-1072.533697
2728.152102,-9844.739029,-888.247130,-1915.238745
2728.152439,-10066.800811,-1702.473667,-1532.190996
2728.152777,-9696.697840,-2220.617826,0.000000
2728.153114,-9474.636058,-2294.638420,-229.828649
2728.153451,-10066.800811,-2738.761985,0.000000
2728.153789,-10362.883188,-1554.432478,0.000000
2728.154126,-10881.027347,-2516.700203,919.314598
2728.154463,-10807.006753,-2368.659014,1072.533697
2728.154801,-9918.759623,-1850.514855,842.705048
2728.155138,-10288.862594,-1332.370696,1225.752797
2728.155475,-10807.006753,-888.247130,689.485948
2728.155813,-10214.842000,-888.247130,76.609550
2728.156150,-10732.986159,-444.123565,1072.533697
2728.156487,-10881.027347,-518.144159,383.047749
2728.156825,-9696.697840,148.041188,153.219100
2728.157162,-10066.800811,444.123565,306.438199
2728.157500,-10362.883188,814.226536,766.095498
2728.157837,-9474.636058,666.185348,-612.876398
2728.158174,-10066.800811,0.000000,229.828649
2728.158512,-9844.739029,592.164754,0.000000
2728.158849,-9474.636058,0.000000,-842.705048
2728.159186,-9474.636058,1036.288319,-536.266849
2728.159524,-9252.574275,0.000000,-383.047749
2728.159861,-9770.718434,74.020594,0.000000
2728.160198,-9104.533087,-370.102971,0.000000
2728.160536,-9622.677246,0.000000,689.485948
2728.160873,-9696.697840,-296.082377,459.657299
2728.161210,-9770.718434,888.247130,153.219100
2728.161548,-9918.759623,-296.082377,1532.190996
2728.161885,-9622.677246,-296.082377,1608.800546
2728.162223,-9548.656652,814.226536,1532.190996
2728.162560,-10436.903782,740.205942,1762.019645
2728.162897,-10362.883188,222.061783,766.095498
2728.163235,-10362.883188,296.082377,153.219100
2728.163572,-10436.903782,148.041188,306.438199
2728.163909,-10362.883188,0.000000,459.657299
2728.164247,-10214.842000,-370.102971,76.609550
2728.164584,-9770.718434,-592.164754,-842.705048
2728.164921,-9474.636058,-888.247130,-536.266849
2728.165259,-10732.986159,-1184.329507,76.609550
2728.165596,-10214.842000,-1184.329507,-919.314598
2728.165933,-10288.862594,-1480.411884,-919.314598
2728.166271,-10510.924376,-1332.370696,-383.047749
2728.166608,-9474.636058,-1850.514855,-1072.533697
2728.166946,-10140.821405,-2072.576638,0.000000
2728.167283,-9844.739029,-2738.761985,229.828649
2728.167620,-10436.903782,-2072.576638,0.000000
2728.167958,-10362.883188,-1480.411884,536.266849
2728.168295,-10140.821405,-1332.370696,306.438199
2728.168632,-10066.800811,-1702.473667,229.828649
2728.168970,-10066.800811,-962.267725,1149.143247
2728.169307,-10214.842000,0.000000,2374.896044
2728.169644,-10066.800811,444.123565,1915.238745
2728.169982,-9992.780217,592.164754,1225.752797
2728.170319,-10066.800811,1036.288319,1455.581446
2728.170656,-10140.821405,1184.329507,1685.410096
2728.170994,-10288.862594,2072.576638,1149.143247
2728.171331,-10510.924376,1110.308913,229.828649
2728.171669,-9474.636058,1998.556043,0.000000
2728.172006,-9474.636058,1702.473667,-842.705048
2728.172343,-9474.636058,1184.329507,-229.828649
2728.172681,-9252.574275,666.185348,-689.485948
2728.173018,-9474.636058,444.123565,-383.047749
2728.173355,-9844.739029,296.082377,-919.314598
2728.173693,-9474.636058,0.000000,-459.657299
2728.174030,-9992.780217,-148.041188,76.609550
2728.174367,-9548.656652,-444.123565,-612.876398
2728.174705,-10140.821405,-370.102971,0.000000
2728.175042,-10807.006753,-962.267725,842.705048
2728.175379,-10288.862594,-1184.329507,0.000000
2728.175717,-10140.821405,-1258.350101,229.828649
2728.176054,-10288.862594,-1776.494261,842.705048
2728.176392,-9918.759623,-1480.411884,995.924147
2728.176729,-10436.903782,-962.267725,459.657299
2728.177066,-10881.027347,-962.267725,1072.533697
2728.177404,-10436.903782,-888.247130,306.438199
2728.177741,-10807.006753,-592.164754,383.047749
2728.178078,-10955.047942,-518.144159,1072.533697
2728.178416,-10510.924376,-740.205942,0.000000
2728.178753,-10362.883188,-1036.288319,0.000000
2728.179090,-10066.800811,-962.267725,306.438199
2728.179428,-9770.718434,-1184.329507,-383.047749
2728.179765,-10214.842000,-888.247130,-766.095498
2728.180102,-10362.883188,-1406.391290,-1149.143247
2728.180440,-9844.739029,-962.267725,-1072.533697
2728.180777,-9696.697840,-1406.391290,-1149.143247
2728.181115,-9548.656652,-666.185348,-689.485948
2728.181452,-9548.656652,-1406.391290,153.219100
2728.181789,-9770.718434,-888.247130,612.876398
2728.182127,-9918.759623,-148.041188,612.876398
2728.182464,-10658.965565,0.000000,1762.019645
2728.182801,-9992.780217,0.000000,1455.581446
2728.183139,-10288.862594,222.061783,1072.533697
2728.183476,-9770.718434,1036.288319,1915.238745
2728.183813,-9696.697840,962.267725,1532.190996
2728.184151,-10140.821405,888.247130,1149.143247
2728.184488,-9474.636058,1406.391290,919.314598
2728.184825,-9992.780217,1480.411884,919.314598
2728.185163,-10436.903782,1850.514855,689.485948
2728.185500,-9548.656652,1036.288319,-229.828649
2728.185838,-9696.697840,962.267725,306.438199
2728.186175,-9548.656652,370.102971,0.000000
2728.186512,-9696.697840,0.000000,-383.047749
2728.186850,-9696.697840,-296.082377,-842.705048
2728.187187,-9992.780217,-888.247130,-1225.752797
2728.187524,-9918.759623,-1258.350101,-1608.800546
2728.187862,-9622.677246,-1406.391290,-1532.190996
2728.188199,-9622.677246,-2368.659014,0.000000
2728.188536,-9400.615463,-2442.679609,-536.266849
2728.188874,-10140.821405,-2146.597232,0.000000
2728.189211,-10881.027347,-1924.535449,919.314598
2728.189548,-10807.006753,-1924.535449,153.219100
2728.189886,-10807.006753,-1850.514855,919.314598
2728.190223,-10955.047942,-2146.597232,1225.752797
2728.190560,-10140.821405,-1628.453072,1302.362347
2728.190898,-10807.006753,-888.247130,842.705048
2728.191235,-10362.883188,-814.226536,536.266849
2728.191573,-11251.130318,-444.123565,689.485948
2728.191910,-10955.047942,-370.102971,689.485948
2728.192247,-9844.739029,666.185348,-919.314598
2728.192585,-9844.739029,-518.144159,153.219100
2728.192922,-10288.862594,74.020594,229.828649
2728.193259,-9030.512492,518.144159,229.828649
2728.193597,-9474.636058,1110.308913,612.876398
2728.193934,-10140.821405,888.247130,536.266849
2728.194271,-10214.842000,592.164754,-842.705048
2728.194609,-10140.821405,814.226536,-612.876398
2728.194946,-9474.636058,0.000000,0.000000
2728.195283,-9326.594869,74.020594,459.657299
2728.195621,-9400.615463,-962.267725,0.000000
2728.195958,-9992.780217,74.020594,995.924147
2728.196296,-9474.636058,222.061783,-536.266849
2728.196633,-9400.615463,74.020594,459.657299
2728.196970,-10066.800811,-444.123565,1455.581446
2728.197308,-9548.656652,0.000000,1532.190996
2728.197645,-9770.718434,1554.432478,1302.362347
2728.197982,-9992.780217,1406.391290,1149.143247
2728.198320,-10732.986159,814.226536,1455.581446
2728.198657,-10881.027347,444.123565,995.924147
2728.198994,-10510.924376,0.000000,306.438199
2728.199332,-10140.821405,0.000000,995.924147
2728.199669,-10214.842000,-222.061783,-383.047749
2728.200006,-9400.615463,-1184.329507,-1072.533697
2728.200344,-9474.636058,-1332.370696,-995.924147
2728.200681,-9326.594869,-1110.308913,-689.485948
2728.201019,-9844.739029,-1036.288319,-842.705048
2728.201356,-10436.903782,-888.247130,-689.485948
2728.201693,-11029.068536,-1036.288319,-842.705048
2728.202031,-10955.047942,-1776.494261,-842.705048
2728.202368,-10066.800811,-2220.617826,-306.438199
2728.202705,-10362.883188,-2146.597232,1149.143247
2728.203043,-10214.842000,-2516.700203,306.438199
2728.203380,-9844.739029,-1924.535449,229.828649
2728.203717,-10510.924376,-1702.473667,612.876398
2728.204055,-10140.821405,-1332.370696,76.609550
2728.204392,-10288.862594,-1036.288319,995.924147
2728.204729,-10066.800811,222.061783,2221.676944
2728.205067,-10140.821405,1036.288319,1149.143247
2728.205404,-10510.924376,1406.391290,1302.362347
2728.205742,-10584.944971,962.267725,1762.019645
2728.206079,-10066.800811,888.247130,1302.362347
2728.206416,-10214.842000,1924.535449,1072.533697
2728.206754,-9918.759623,1702.473667,612.876398
2728.207091,-9548.656652,1776.494261,306.438199
2728.207428,-9326.594869,666.185348,-689.485948
2728.207766,-9400.615463,1850.514855,-306.438199
2728.208103,-9474.636058,814.226536,-383.047749
2728.208440,-9548.656652,518.144159,-1225.752797
2728.208778,-9474.636058,222.061783,-919.314598
2728.209115,-9474.636058,0.000000,-229.828649
2728.209452,-9400.615463,-74.020594,-689.485948
2728.209790,-9844.739029,-740.205942,76.609550
2728.210127,-10214.842000,-962.267725,536.266849
2728.210465,-9992.780217,-814.226536,1072.533697
2728.210802,-10658.965565,-1332.370696,612.876398
2728.211139,-9844.739029,-666.185348,459.657299
2728.211477,-10658.965565,-1554.432478,842.705048
2728.211814,-10584.944971,-1110.308913,459.657299
2728.212151,-9992.780217,-296.082377,76.609550
2728.212489,-11029.068536,-888.247130,1225.752797
2728.212826,-10732.986159,-666.185348,612.876398
2728.213163,-10140.821405,-666.185348,0.000000
2728.213501,-10881.027347,-814.226536,919.314598
2728.213838,-10510.924376,-888.247130,306.438199
2728.214175,-10288.862594,-888.247130,76.609550
2728.214513,-10140.821405,-592.164754,0.000000
2728.214850,-10066.800811,-962.267725,76.609550
2728.215188,-10584.944971,-740.205942,-842.705048
2728.215525,-10584.944971,-1110.308913,-1302.362347
2728.215862,-9474.636058,-740.205942,-689.485948
2728.216200,-9548.656652,-1702.473667,-919.314598
2728.216537,-9548.656652,-1110.308913,0.000000
2728.216874,-9474.636058,-1110.308913,-536.266849
2728.217212,-9622.677246,-666.185348,689.485948
2728.217549,-10214.842000,-148.041188,842.705048
2728.217886,-9696.697840,0.000000,1225.752797
2728.218224,-10362.883188,0.000000,1608.800546
2728.218561,-9696.697840,888.247130,1762.019645
2728.218898,-9770.718434,814.226536,1532.190996
2728.219236,-9918.759623,1406.391290,1991.848295
2728.219573,-10066.800811,1628.453072,766.095498
2728.219911,-9770.718434,1406.391290,612.876398
2728.220248,-10214.842000,1332.370696,612.876398
2728.220585,-10066.800811,1480.411884,919.314598
2728.220923,-9844.739029,1628.453072,0.000000
2728.221260,-9474.636058,1628.453072,229.828649
2728.221597,-10140.821405,444.123565,306.438199
2728.221935,-9770.718434,518.144159,-536.266849
2728.222272,-9844.739029,148.041188,-1072.533697
2728.222609,-10510.924376,-518.144159,-995.924147
2728.222947,-9770.718434,-1258.350101,-2145.067394
2728.223284,-9326.594869,-1924.535449,-612.876398
2728.223621,-10066.800811,-2146.597232,0.000000
2728.223959,-9474.636058,-2516.700203,0.000000
2728.224296,-10510.924376,-2220.617826,0.000000
2728.224634,-10436.903782,-2146.597232,153.219100
2728.224971,-10510.924376,-1628.453072,153.219100
2728.225308,-10732.986159,-1406.391290,1072.533697
2728.225646,-10584.944971,-1850.514855,536.266849
2728.225983,-10288.862594,-1110.308913,1455.581446
2728.226320,-10658.965565,-518.144159,689.485948
2728.226658,-10510.924376,-444.123565,1302.362347
2728.226995,-10955.047942,-444.123565,1225.752797
2728.227333,-10881.027347,-518.144159,612.876398
2728.227670,-9770.718434,222.061783,76.609550
2728.228007,-10288.862594,518.144159,766.095498
2728.228345,-10066.800811,518.144159,0.000000
2728.228682,-9104.533087,0.000000,-306.438199
2728.229019,-9548.656652,296.082377,306.438199
2728.229357,-10140.821405,592.164754,0.000000
2728.229694,-9844.739029,518.144159,-1149.143247
2728.230032,-9474.636058,444.123565,-995.924147
2728.230369,-9548.656652,518.144159,0.000000
2728.230706,-9104.533087,-592.164754,-766.095498
2728.231044,-9326.594869,-74.020594,0.000000
2728.231381,-9548.656652,-444.123565,1149.143247
2728.231719,-9622.677246,0.000000,919.314598
2728.232056,-9622.677246,74.020594,0.000000
2728.232393,-10066.800811,148.041188,1685.410096
2728.232731,-9992.780217,74.020594,1762.019645
2728.233068,-9400.615463,1036.288319,766.095498
2728.233405,-10288.862594,1110.308913,1378.971896
2728.233743,-10214.842000,1258.350101,1072.533697
2728.234080,-10510.924376,444.123565,459.657299
2728.234418,-10436.903782,74.020594,919.314598
2728.234755,-10140.821405,74.020594,536.266849
2728.235092,-10510.924376,-222.061783,0.000000
2728.235430,-9844.739029,-518.144159,-612.876398
2728.235767,-9252.574275,-1110.308913,-383.047749
2728.236104,-10288.862594,-962.267725,-383.047749
2728.236442,-10214.842000,-1110.308913,-766.095498
2728.236779,-10288.862594,-1258.350101,-842.705048
2728.237117,-10436.903782,-1332.370696,-766.095498
2728.237454,-10066.800811,-2294.638420,-1072.533697
2728.237791,-10214.842000,-2146.597232,0.000000
2728.238129,-10510.924376,-2220.617826,689.485948
2728.238466,-10214.842000,-1850.514855,0.000000
2728.238803,-10288.862594,-1998.556043,306.438199
2728.239141,-10362.883188,-1406.391290,612.876398
2728.239478,-9918.759623,-1776.494261,229.828649
2728.239816,-10214.842000,-814.226536,1225.752797
2728.240153,-10140.821405,0.000000,1915.238745
2728.240490,-9918.759623,888.247130,1149.143247
2728.240828,-10436.903782,814.226536,1072.533697
2728.241165,-10066.800811,1332.370696,1608.800546
2728.241502,-10955.047942,1036.288319,1838.629195
2728.241840,-9622.677246,1702.473667,689.485948
2728.242177,-10140.821405,2072.576638,306.438199
2728.242515,-9696.697840,1998.556043,229.828649
2728.242852,-9252.574275,814.226536,-689.485948
2728.243189,-8660.409521,888.247130,0.000000
2728.243527,-9474.636058,1480.411884,76.609550
2728.243864,-9400.615463,666.185348,-689.485948
2728.244201,-9622.677246,666.185348,-919.314598
2728.244539,-9252.574275,0.000000,-229.828649
2728.244876,-9474.636058,0.000000,153.219100
2728.245214,-9548.656652,-814.226536,459.657299
2728.245551,-9992.780217,-444.123565,612.876398
2728.245888,-10288.862594,-962.267725,1302.362347
2728.246226,-10510.924376,-962.267725,306.438199
2728.246563,-9696.697840,-1110.308913,306.438199
2728.246900,-10436.903782,-1332.370696,919.314598
2728.247238,-10140.821405,-1110.308913,689.485948
2728.247575,-10140.821405,-444.123565,536.266849
2728.247913,-10584.944971,-296.082377,689.485948
2728.248250,-10732.986159,-814.226536,536.266849
2728.248587,-10658.965565,-592.164754,459.657299
2728.248925,-10658.965565,-444.123565,919.314598
2728.249262,-10807.006753,-370.102971,536.266849
2728.249599,-10140.821405,-888.247130,-306.438199
2728.249937,-9474.636058,-1036.288319,76.609550
2728.250274,-9844.739029,-1036.288319,-306.438199
2728.250612,-10214.842000,-1110.308913,-1378.971896
2728.250949,-10362.883188,-962.267725,-1302.362347
2728.251286,-10288.862594,-888.247130,-1072.533697
2728.251624,-9474.636058,-1332.370696,-1378.971896
2728.251961,-9474.636058,-1258.350101,-612.876398
2728.252298,-9622.677246,-888.247130,536.266849
2728.252636,-9844.739029,-666.185348,766.095498
2728.252973,-10140.821405,-518.144159,995.924147
2728.253311,-10362.883188,0.000000,1455.581446
2728.253648,-10140.821405,74.020594,1685.410096
2728.253985,-10140.821405,74.020594,1915.238745
2728.254323,-9474.636058,1184.329507,1685.410096
2728.254660,-9918.759623,1258.350101,1762.019645
2728.254997,-9770.718434,1776.494261,1455.581446
2728.255335,-9770.718434,1480.411884,689.485948
2728.255672,-9918.759623,1850.514855,1149.143247
2728.256010,-9770.718434,1480.411884,306.438199
2728.256347,-9400.615463,1184.329507,0.000000
2728.256684,-9770.718434,1258.350101,383.047749
2728.257022,-9844.739029,222.061783,536.266849
2728.257359,-9770.718434,444.123565,-536.266849
2728.257696,-10288.862594,222.061783,-536.266849
2728.258034,-10140.821405,-518.144159,-919.314598
2728.258371,-9918.759623,-1258.350101,-1915.238745
2728.258709,-9770.718434,-1776.494261,-689.485948
2728.259046,-9548.656652,-1850.514855,76.609550
2728.259383,-9474.636058,-2442.679609,-459.657299
2728.259721,-10510.924376,-1702.473667,-76.609550
2728.260058,-10881.027347,-2146.597232,1072.533697
2728.260396,-10584.944971,-1628.453072,229.828649
2728.260733,-10658.965565,-2146.597232,1149.143247
2728.261070,-10955.047942,-1480.411884,1762.019645
2728.261408,-10584.944971,-1702.473667,1302.362347
2728.261745,-10510.924376,-592.164754,306.438199
2728.262082,-10436.903782,-370.102971,919.314598
2728.262420,-11177.109724,-296.082377,689.485948
2728.262757,-10658.965565,-444.123565,-76.609550
2728.263095,-9844.739029,0.000000,-306.438199
2728.263432,-9548.656652,0.000000,383.047749
2728.263769,-9918.759623,0.000000,459.657299
2728.264107,-8956.491898,222.061783,0.000000
2728.264444,-9548.656652,666.185348,229.828649
2728.264781,-10214.842000,888.247130,536.266849
2728.265119,-10362.883188,148.041188,-995.924147
2728.265456,-9770.718434,592.164754,-383.047749
2728.265794,-9474.636058,0.000000,153.219100
2728.266131,-9104.533087,-148.041188,-459.657299
2728.266468,-9252.574275,-296.082377,459.657299
2728.266806,-9696.697840,0.000000,459.657299
2728.267143,-9326.594869,0.000000,-76.609550
2728.267480,-9474.636058,-444.123565,536.266849
2728.267818,-9622.677246,222.061783,1072.533697
2728.268155,-10288.862594,222.061783,1762.019645
2728.268493,-9400.615463,1332.370696,1149.143247
2728.268830,-10140.821405,1628.453072,1991.848295
2728.269167,-11029.068536,1110.308913,1378.971896
2728.269505,-11029.068536,888.247130,76.609550
2728.269842,-10807.006753,296.082377,1149.143247
2728.270179,-10066.800811,-370.102971,689.485948
2728.270517,-9770.718434,-518.144159,-612.876398
2728.270854,-9992.780217,-1258.350101,-536.266849
2728.271192,-9326.594869,-740.205942,-919.314598
2728.271529,-9622.677246,-1480.411884,-995.924147
2728.271866,-10436.903782,-1110.308913,-689.485948
2728.272204,-9992.780217,-222.061783,-919.314598
2728.272541,-10955.047942,-1406.391290,-919.314598
2728.272878,-10066.800811,-1998.556043,-842.705048
2728.273216,-9474.636058,-2294.638420,229.828649
2728.273553,-10658.965565,-2146.597232,1225.752797
2728.273891,-10066.800811,-2590.720797,153.219100
2728.274228,-10140.821405,-1924.535449,383.047749
2728.274565,-10140.821405,-1628.453072,536.266849
2728.274903,-10362.883188,-1110.308913,153.219100
2728.275240,-10510.924376,-740.205942,842.705048
2728.275577,-9770.718434,0.000000,1378.971896
2728.275915,-9696.697840,740.205942,1225.752797
2728.276252,-10214.842000,1184.329507,1149.143247
2728.276590,-10510.924376,1554.432478,1915.238745
2728.276927,-10807.006753,1110.308913,1685.410096
2728.277264,-10066.800811,1776.494261,1072.533697
2728.277602,-9992.780217,1850.514855,689.485948
2728.277939,-9474.636058,1184.329507,-153.219100
2728.278276,-9252.574275,592.164754,-306.438199
2728.278614,-8956.491898,1406.391290,612.876398
2728.278951,-9474.636058,962.267725,-842.705048
2728.279289,-9474.636058,740.205942,-995.924147
2728.279626,-9400.615463,296.082377,-1149.143247
2728.279963,-9400.615463,-444.123565,-612.876398
2728.280301,-9474.636058,-148.041188,-153.219100
2728.280638,-9770.718434,-518.144159,612.876398
2728.280975,-10362.883188,-888.247130,842.705048
2728.281313,-10066.800811,-1184.329507,536.266849
2728.281650,-10362.883188,-1036.288319,919.314598
2728.281988,-10362.883188,-1332.370696,995.924147
2728.282325,-10436.903782,-1184.329507,459.657299
2728.282662,-10584.944971,-444.123565,383.047749
2728.283000,-10510.924376,-444.123565,459.657299
2728.283337,-10214.842000,0.000000,383.047749
2728.283674,-11029.068536,-444.123565,229.828649
2728.284012,-10362.883188,-518.144159,536.266849
2728.284349,-10658.965565,-370.102971,995.924147
2728.284687,-10955.047942,-518.144159,536.266849
2728.285024,-9992.780217,-1184.329507,-459.657299
2728.285361,-10140.821405,-666.185348,842.705048
2728.285699,-10066.800811,-1776.494261,0.000000
2728.286036,-9992.780217,-444.123565,-1149.143247
2728.286373,-10584.944971,-814.226536,-842.705048
2728.286711,-9992.780217,-1776.494261,-1225.752797
2728.287048,-9474.636058,-1110.308913,-1302.362347
2728.287386,-9400.615463,-1702.473667,-459.657299
2728.287723,-9696.697840,-740.205942,383.047749
2728.288060,-9992.780217,-1184.329507,842.705048
2728.288398,-10140.821405,-666.185348,1072.533697
2728.288735,-9844.739029,-592.164754,1608.800546
2728.289073,-9992.780217,0.000000,1838.629195
2728.289410,-10066.800811,666.185348,1762.019645
2728.289747,-10140.821405,592.164754,1915.238745
2728.290085,-9992.780217,1480.411884,1838.629195
2728.290422,-9548.656652,1850.514855,612.876398
2728.290759,-10066.800811,1332.370696,1072.533697
2728.291097,-9918.759623,1850.514855,459.657299
2728.291434,-9770.718434,1110.308913,153.219100
2728.291772,-9622.677246,1776.494261,76.609550
2728.292109,-9252.574275,888.247130,0.000000
2728.292446,-9548.656652,74.020594,153.219100
2728.292784,-9770.718434,148.041188,-536.266849
2728.293121,-9770.718434,0.000000,-459.657299
2728.293458,-10362.883188,-148.041188,-995.924147
2728.293796,-9770.718434,-1036.288319,-1685.410096
2728.294133,-9252.574275,-1998.556043,-919.314598
2728.294471,-9844.739029,-2072.576638,229.828649
2728.294808,-9622.677246,-2146.597232,-76.609550
2728.295145,-10214.842000,-2368.659014,0.000000
2728.295483,-10881.027347,-2368.659014,459.657299
2728.295820,-10362.883188,-2072.576638,0.000000
2728.296157,-10658.965565,-1998.556043,536.266849
2728.296495,-10732.986159,-1258.350101,1532.190996
2728.296832,-10214.842000,-1702.473667,689.485948
2728.297170,-10436.903782,-444.123565,689.485948
2728.297507,-10362.883188,-222.061783,842.705048
2728.297844,-10732.986159,0.000000,536.266849
2728.298182,-10807.006753,-740.205942,766.095498
2728.298519,-10140.821405,0.000000,766.095498
2728.298856,-10288.862594,444.123565,306.438199
2728.299194,-9770.718434,518.144159,0.000000
2728.299531,-9548.656652,0.000000,-306.438199
2728.299869,-9696.697840,0.000000,306.438199
2728.300206,-9992.780217,370.102971,-229.828649
2728.300543,-9622.677246,370.102971,-1072.533697
2728.300881,-9992.780217,444.123565,-766.095498
2728.301218,-9326.594869,0.000000,-689.485948
2728.301555,-9770.718434,-518.144159,-306.438199
2728.301893,-8660.409521,0.000000,229.828649
2728.302230,-9474.636058,0.000000,842.705048
2728.302568,-9622.677246,-222.061783,842.705048
2728.302905,-9252.574275,-296.082377,766.095498
2728.303242,-9844.739029,222.061783,2068.457845
2728.303580,-10140.821405,814.226536,1455.581446
2728.303917,-9474.636058,74.020594,919.314598
2728.304254,-10214.842000,1036.288319,1838.629195
2728.304592,-10140.821405,962.267725,919.314598
2728.304929,-10584.944971,1184.329507,306.438199
2728.305267,-10584.944971,518.144159,919.314598
2728.305604,-10140.821405,148.041188,153.219100
2728.305941,-10214.842000,444.123565,76.609550
2728.306279,-9548.656652,-518.144159,-536.266849
2728.306616,-9400.615463,-1332.370696,-612.876398
2728.306953,-10214.842000,-1332.370696,-766.095498
2728.307291,-10436.903782,-1332.370696,0.000000
2728.307628,-10066.800811,-740.205942,-766.095498
2728.307966,-10658.965565,-1850.514855,-1149.143247
2728.308303,-10288.862594,-2294.638420,-612.876398
2728.308640,-9474.636058,-2812.782580,76.609550
2728.308978,-10362.883188,-2072.576638,689.485948
2728.309315,-10288.862594,-2146.597232,76.609550
2728.309652,-9918.759623,-2220.617826,-459.657299
2728.309990,-10288.862594,-1702.473667,612.876398
2728.310327,-10584.944971,-962.267725,995.924147
2728.310665,-10584.944971,-962.267725,1608.800546
2728.311002,-10436.903782,-222.061783,1532.190996
2728.311339,-9622.677246,148.041188,1915.238745
2728.311677,-10214.842000,962.267725,1302.362347
2728.312014,-10288.862594,1184.329507,1685.410096
2728.312351,-10732.986159,1110.308913,1685.410096
2728.312689,-10066.800811,1702.473667,689.485948
2728.313026,-9622.677246,1998.556043,229.828649
2728.313364,-10140.821405,1554.432478,-76.609550
2728.313701,-9474.636058,1110.308913,-766.095498
2728.314038,-9178.553681,888.247130,-306.438199
2728.314376,-9622.677246,888.247130,-153.219100
2728.314713,-9400.615463,962.267725,-1072.533697
2728.315050,-9474.636058,0.000000,-459.657299
2728.315388,-9548.656652,-370.102971,536.266849
2728.315725,-9474.636058,-518.144159,76.609550
2728.316063,-9696.697840,0.000000,612.876398
2728.316400,-10214.842000,-518.144159,306.438199
2728.316737,-10510.924376,-592.164754,0.000000
2728.317075,-10436.903782,-518.144159,459.657299
2728.317412,-10066.800811,-1258.350101,383.047749
2728.317750,-10436.903782,-592.164754,995.924147
2728.318087,-10214.842000,-1480.411884,689.485948
2728.318424,-10066.800811,-1036.288319,0.000000
2728.318762,-9918.759623,-666.185348,536.266849
2728.319099,-10807.006753,-518.144159,766.095498
2728.319436,-10732.986159,-1036.288319,229.828649
2728.319774,-10955.047942,-592.164754,383.047749
2728.320111,-10658.965565,-296.082377,459.657299
2728.320449,-10436.903782,-518.144159,-153.219100
2728.320786,-9918.759623,-1850.514855,229.828649
2728.321123,-9844.739029,-1332.370696,-536.266849
2728.321461,-10214.842000,-1036.288319,-383.047749
2728.321798,-10214.842000,-888.247130,-1072.533697
2728.322135,-10658.965565,-1258.350101,-1532.190996
2728.322473,-9844.739029,-1258.350101,-1225.752797
2728.322810,-9252.574275,-2072.576638,-536.266849
2728.323148,-9918.759623,-814.226536,766.095498
2728.323485,-9770.718434,-740.205942,766.095498
2728.323822,-10584.944971,-296.082377,1149.143247
2728.324160,-10436.903782,-370.102971,1378.971896
2728.324497,-10140.821405,0.000000,1225.752797
2728.324834,-10288.862594,1184.329507,1838.629195
2728.325172,-10066.800811,370.102971,1608.800546
2728.325509,-9696.697840,1258.350101,1608.800546
2728.325847,-9474.636058,1702.473667,689.485948
2728.326184,-9770.718434,1850.514855,766.095498
2728.326521,-10066.800811,1776.494261,383.047749
2728.326859,-9770.718434,1776.494261,-306.438199
2728.327196,-9400.615463,1702.473667,76.609550
2728.327533,-9548.656652,962.267725,-229.828649
2728.327871,-9770.718434,814.226536,153.219100
2728.328208,-10066.800811,0.000000,0.000000
2728.328546,-9992.780217,148.041188,0.000000
2728.328883,-9770.718434,0.000000,-1072.533697
2728.329220,-9844.739029,-888.247130,-1532.190996
2728.329558,-9992.780217,-1924.535449,-612.876398
2728.329895,-9696.697840,-2368.659014,0.000000
2728.330232,-9770.718434,-1850.514855,-536.266849
2728.330570,-9252.574275,-2146.597232,0.000000
2728.330907,-10658.965565,-1998.556043,383.047749
2728.331245,-10955.047942,-1776.494261,459.657299
2728.331582,-10658.965565,-1628.453072,995.924147
2728.331919,-10955.047942,-1258.350101,1532.190996
2728.332257,-10362.883188,-1332.370696,766.095498
2728.332594,-10436.903782,-814.226536,766.095498
2728.332931,-10658.965565,-444.123565,919.314598
2728.333269,-11103.089130,222.061783,459.657299
2728.333606,-10436.903782,-296.082377,-383.047749
2728.333944,-10288.862594,-888.247130,0.000000
2728.334281,-9770.718434,74.020594,76.609550
2728.334618,-9252.574275,-74.020594,76.609550
2728.334956,-9474.636058,370.102971,459.657299
2728.335293,-9474.636058,0.000000,306.438199
2728.335630,-10584.944971,444.123565,0.000000
2728.335968,-10510.924376,666.185348,-306.438199
2728.336305,-10066.800811,148.041188,-612.876398
2728.336643,-9474.636058,-148.041188,459.657299
2728.336980,-9252.574275,-1110.308913,76.609550
2728.337317,-9474.636058,148.041188,612.876398
2728.337655,-9696.697840,222.061783,-306.438199
2728.337992,-9474.636058,-148.041188,0.000000
2728.338329,-9548.656652,-444.123565,0.000000
2728.338667,-9548.656652,444.123565,1838.629195
2728.339004,-9844.739029,1036.288319,1302.362347
2728.339342,-9474.636058,962.267725,1378.971896
2728.339679,-10288.862594,1924.535449,1991.848295
2728.340016,-10732.986159,962.267725,1532.190996
2728.340354,-10658.965565,1110.308913,766.095498
2728.340691,-10140.821405,296.082377,1072.533697
2728.341028,-10732.986159,0.000000,536.266849
2728.341366,-9770.718434,-518.144159,-153.219100
2728.341703,-9622.677246,-444.123565,-689.485948
2728.342041,-9252.574275,-1036.288319,-995.924147
2728.342378,-9548.656652,-1184.329507,-1072.533697
2728.342715,-10436.903782,-1110.308913,-383.047749
2728.343053,-10732.986159,-222.061783,-1225.752797
2728.343390,-10584.944971,-1702.473667,-1149.143247
2728.343727,-10584.944971,-1998.556043,-459.657299
2728.344065,-10066.800811,-2590.720797,229.828649
2728.344402,-10584.944971,-2294.638420,995.924147
2728.344740,-10288.862594,-2368.659014,842.705048
2728.345077,-9918.759623,-2368.659014,76.609550
2728.345414,-10584.944971,-1480.411884,536.266849
2728.345752,-10436.903782,-1480.411884,766.095498
2728.346089,-10288.862594,0.000000,1378.971896
2728.346426,-10584.944971,0.000000,995.924147
2728.346764,-9696.697840,814.226536,1149.143247
2728.347101,-9770.718434,814.226536,842.705048
2728.347439,-10436.903782,814.226536,1838.629195
2728.347776,-10584.944971,962.267725,1302.362347
2728.348113,-9770.718434,814.226536,919.314598
2728.348451,-9622.677246,1924.535449,689.485948
2728.348788,-9844.739029,814.226536,229.828649
2728.349125,-10066.800811,1258.350101,0.000000
2728.349463,-9104.533087,444.123565,-612.876398
2728.349800,-9474.636058,1258.350101,-153.219100
2728.350138,-8956.491898,592.164754,-1532.190996
2728.350475,-9252.574275,148.041188,-1149.143247
2728.350812,-9770.718434,-888.247130,0.000000
2728.351150,-8956.491898,74.020594,76.609550
2728.351487,-9474.636058,-370.102971,766.095498
2728.351824,-10288.862594,-296.082377,842.705048
2728.352162,-9992.780217,-592.164754,229.828649
2728.352499,-10362.883188,-888.247130,842.705048
2728.352837,-10066.800811,-962.267725,766.095498
2728.353174,-10214.842000,-444.123565,536.266849
2728.353511,-10362.883188,-592.164754,612.876398
2728.353849,-9992.780217,-666.185348,0.000000
2728.354186,-9918.759623,-370.102971,-383.047749
2728.354523,-10584.944971,-666.185348,153.219100
2728.354861,-10436.903782,-296.082377,76.609550
2728.355198,-10807.006753,-888.247130,536.266849
2728.355536,-10658.965565,0.000000,995.924147
2728.355873,-10066.800811,-666.185348,0.000000
2728.356210,-10214.842000,-1036.288319,153.219100
2728.356548,-10140.821405,-1110.308913,-842.705048
2728.356885,-9918.759623,-1406.391290,-1762.019645
2728.357222,-10140.821405,-814.226536,-689.485948
2728.357560,-9918.759623,-1924.535449,-1225.752797
2728.357897,-9400.615463,-1480.411884,-689.485948
2728.358235,-9548.656652,-2220.617826,0.000000
2728.358572,-9770.718434,-740.205942,459.657299
2728.358909,-9622.677246,-888.247130,0.000000
2728.359247,-9770.718434,-222.061783,1532.190996
2728.359584,-10066.800811,-444.123565,1991.848295
2728.359921,-9770.718434,0.000000,1455.581446
2728.360259,-10140.821405,888.247130,1762.019645
2728.360596,-10510.924376,888.247130,2145.067394
2728.360934,-10288.862594,1332.370696,1149.143247
2728.361271,-9400.615463,1702.473667,842.705048
2728.361608,-10140.821405,1850.514855,1378.971896
2728.361946,-9696.697840,1184.329507,766.095498
2728.362283,-9474.636058,1406.391290,-306.438199
2728.362620,-9548.656652,1406.391290,766.095498
2728.362958,-9696.697840,1258.350101,-153.219100
2728.363295,-9252.574275,666.185348,0.000000
2728.363633,-10066.800811,0.000000,-383.047749
2728.363970,-9622.677246,74.020594,-766.095498
2728.364307,-9992.780217,74.020594,-1532.190996
2728.364645,-9918.759623,-1258.350101,-1532.190996
2728.364982,-9622.677246,-1702.473667,-459.657299
2728.365320,-10066.800811,-2072.576638,383.047749
2728.365657,-9474.636058,-1850.514855,0.000000
2728.365994,-9622.677246,-1702.473667,689.485948
2728.366332,-10807.006753,-2294.638420,459.657299
2728.366669,-10362.883188,-2072.576638,0.000000
2728.367006,-10658.965565,-1924.535449,919.314598
2728.367344,-10658.965565,-1184.329507,1608.800546
2728.367681,-10510.924376,-1036.288319,306.438199
2728.368019,-10658.965565,-740.205942,689.485948
2728.368356,-10510.924376,-518.144159,459.657299
2728.368693,-10510.924376,-74.020594,612.876398
2728.369031,-10658.965565,0.000000,383.047749
2728.369368,-10288.862594,-592.164754,612.876398
2728.369705,-10066.800811,0.000000,0.000000
2728.370043,-9400.615463,74.020594,-612.876398
2728.370380,-9696.697840,592.164754,153.219100
2728.370718,-9770.718434,-222.061783,229.828649
2728.371055,-9548.656652,296.082377,-919.314598
2728.371392,-9400.615463,148.041188,-229.828649
2728.371730,-9992.780217,296.082377,0.000000
2728.372067,-9400.615463,0.000000,-383.047749
2728.372404,-10066.800811,-666.185348,229.828649
2728.372742,-9326.594869,0.000000,766.095498
2728.373079,-9178.553681,0.000000,612.876398
2728.373417,-9696.697840,-74.020594,919.314598
2728.373754,-9400.615463,148.041188,842.705048
2728.374091,-10066.800811,74.020594,1608.800546
2728.374429,-10214.842000,1036.288319,1302.362347
2728.374766,-9844.739029,1184.329507,1149.143247
2728.375103,-10584.944971,1184.329507,1455.581446
2728.375441,-10214.842000,1110.308913,1149.143247
2728.375778,-10066.800811,962.267725,842.705048
2728.376116,-10584.944971,740.205942,1302.362347
2728.376453,-10140.821405,-370.102971,306.438199
2728.376790,-10140.821405,0.000000,0.000000
2728.377128,-9474.636058,-592.164754,-459.657299
2728.377465,-9770.718434,-814.226536,-1225.752797
2728.377802,-9844.739029,-1036.288319,-1378.971896
2728.378140,-10140.821405,-1184.329507,-383.047749
2728.378477,-9918.759623,-1184.329507,-612.876398
2728.378815,-10362.883188,-1924.535449,-1072.533697
2728.379152,-10288.862594,-1924.535449,-76.609550
2728.379489,-10362.883188,-2516.700203,229.828649
2728.379827,-10362.883188,-2146.597232,306.438199
2728.380164,-9992.780217,-1850.514855,0.000000
2728.380501,-10140.821405,-2220.617826,536.266849
2728.380839,-10436.903782,-1702.473667,0.000000
2728.381176,-10140.821405,-1406.391290,995.924147
2728.381514,-10807.006753,0.000000,1608.800546
2728.381851,-10362.883188,-370.102971,1225.752797
2728.382188,-9770.718434,592.164754,1302.362347
2728.382526,-9918.759623,666.185348,1608.800546
2728.382863,-10288.862594,962.267725,1991.848295
2728.383200,-10510.924376,1184.329507,1225.752797
2728.383538,-9992.780217,1332.370696,612.876398
2728.383875,-9548.656652,1924.535449,689.485948
2728.384213,-9844.739029,1332.370696,-153.219100
2728.384550,-9326.594869,1332.370696,-459.657299
2728.384887,-9400.615463,1036.288319,-229.828649
2728.385225,-9474.636058,518.144159,-689.485948
2728.385562,-8882.471304,814.226536,-1225.752797
2728.385899,-9400.615463,222.061783,-306.438199
2728.386237,-9622.677246,0.000000,0.000000
2728.386574,-9548.656652,-296.082377,0.000000
2728.386912,-9622.677246,0.000000,1455.581446
2728.387249,-10140.821405,-592.164754,995.924147
2728.387586,-10214.842000,0.000000,459.657299
2728.387924,-10510.924376,-74.020594,612.876398
2728.388261,-10436.903782,-1480.411884,995.924147
2728.388598,-9770.718434,-370.102971,76.609550
2728.388936,-10214.842000,-518.144159,153.219100
2728.389273,-10140.821405,-592.164754,689.485948
2728.389611,-9918.759623,-666.185348,76.609550
2728.389948,-10510.924376,0.000000,536.266849
2728.390285,-10807.006753,-148.041188,306.438199
2728.390623,-10510.924376,-962.267725,229.828649
2728.390960,-10658.965565,-518.144159,153.219100
2728.391297,-10214.842000,-888.247130,306.438199
2728.391635,-10510.924376,-1110.308913,76.609550
2728.391972,-9844.739029,-1406.391290,-689.485948
2728.392310,-9844.739029,-1628.453072,-1072.533697
2728.392647,-10140.821405,-1184.329507,-766.095498
2728.392984,-10362.883188,-1702.473667,-1302.362347
2728.393322,-9474.636058,-1258.350101,-1225.752797
2728.393659,-9770.718434,-1628.453072,-153.219100
2728.393996,-9548.656652,-1406.391290,153.219100
2728.394334,-9844.739029,-296.082377,0.000000
2728.394671,-9918.759623,-444.123565,842.705048
2728.395009,-10584.944971,-370.102971,1762.019645
2728.395346,-9918.759623,0.000000,1455.581446
2728.395683,-10066.800811,740.205942,1915.238745
2728.396021,-10510.924376,888.247130,2451.505594
2728.396358,-10066.800811,1480.411884,1378.971896
2728.396695,-9474.636058,1258.350101,689.485948
2728.397033,-9918.759623,1998.556043,1149.143247
2728.397370,-9548.656652,1554.432478,842.705048
2728.397708,-9844.739029,2220.617826,0.000000
2728.398045,-9474.636058,1332.370696,76.609550
2728.398382,-9252.574275,518.144159,-383.047749
2728.398720,-9326.594869,888.247130,0.000000
2728.399057,-9918.759623,0.000000,536.266849
2728.399394,-10214.842000,148.041188,-459.657299
2728.399732,-9622.677246,-370.102971,-1302.362347
2728.400069,-10140.821405,-1184.329507,-1225.752797
2728.400407,-9992.780217,-1406.391290,-306.438199
2728.400744,-9474.636058,-2664.741391,-383.047749
2728.401081,-9770.718434,-1702.473667,0.000000
2728.401419,-9770.718434,-1998.556043,0.000000
2728.401756,-10732.986159,-2294.638420,766.095498
2728.402093,-10807.006753,-1850.514855,0.000000
2728.402431,-10584.944971,-1998.556043,1072.533697
2728.402768,-11103.089130,-1036.288319,1762.019645
2728.403106,-10658.965565,-666.185348,766.095498
2728.403443,-10732.986159,-888.247130,919.314598
2728.403780,-10807.006753,-444.123565,689.485948
2728.404118,-10362.883188,-444.123565,-459.657299
2728.404455,-10362.883188,0.000000,0.000000
2728.404792,-10510.924376,-666.185348,76.609550
2728.405130,-9474.636058,-370.102971,-459.657299
2728.405467,-9474.636058,74.020594,-306.438199
2728.405805,-9474.636058,814.226536,229.828649
2728.406142,-10214.842000,0.000000,306.438199
2728.406479,-10436.903782,148.041188,0.000000
2728.406817,-9992.780217,444.123565,0.000000
2728.407154,-9770.718434,0.000000,0.000000
2728.407491,-9548.656652,0.000000,0.000000
2728.407829,-9622.677246,-888.247130,153.219100
2728.408166,-9696.697840,0.000000,459.657299
2728.408504,-9474.636058,74.020594,0.000000
2728.408841,-9548.656652,74.020594,306.438199
2728.409178,-9548.656652,0.000000,919.314598
2728.409516,-9918.759623,296.082377,1072.533697
2728.409853,-9844.739029,1480.411884,1149.143247
2728.410190,-9770.718434,1554.432478,1455.581446
2728.410528,-10658.965565,1924.535449,1532.190996
2728.410865,-11029.068536,666.185348,1225.752797
2728.411203,-10436.903782,1406.391290,919.314598
2728.411540,-10288.862594,222.061783,842.705048
2728.411877,-10214.842000,-370.102971,536.266849
2728.412215,-9548.656652,-740.205942,-153.219100
2728.412552,-9474.636058,-592.164754,-383.047749
2728.412889,-9326.594869,-888.247130,-1072.533697
2728.413227,-9548.656652,-962.267725,-1532.190996
2728.413564,-10288.862594,-1332.370696,-459.657299
2728.413902,-10436.903782,-888.247130,-766.095498
2728.414239,-10066.800811,-1628.453072,-1302.362347
2728.414576,-10214.842000,-2146.597232,-306.438199
2728.414914,-10288.862594,-2294.638420,612.876398
2728.415251,-10066.800811,-2812.782580,306.438199
2728.415588,-10140.821405,-2442.679609,612.876398
2728.415926,-10288.862594,-2442.679609,766.095498
2728.416263,-10658.965565,-2072.576638,536.266849
2728.416601,-10436.903782,-1480.411884,1149.143247
2728.416938,-10140.821405,-74.020594,842.705048
2728.417275,-10436.903782,148.041188,919.314598
2728.417613,-10288.862594,1184.329507,1149.143247
2728.417950,-9770.718434,370.102971,1149.143247
2728.418287,-10732.986159,740.205942,1608.800546
2728.418625,-10066.800811,1258.350101,919.314598
2728.418962,-9992.780217,1110.308913,842.705048
2728.419300,-9474.636058,1258.350101,766.095498
2728.419637,-9252.574275,814.226536,-153.219100
2728.419974,-9104.533087,814.226536,-459.657299
2728.420312,-9548.656652,1184.329507,-459.657299
2728.420649,-9252.574275,444.123565,-1149.143247
2728.420987,-9030.512492,666.185348,-1072.533697
2728.421324,-9178.553681,0.000000,-766.095498
2728.421661,-9918.759623,0.000000,0.000000
2728.421999,-9622.677246,-296.082377,0.000000
2728.422336,-9622.677246,-222.061783,842.705048
2728.422673,-10510.924376,-740.205942,1608.800546
2728.423011,-9992.780217,-666.185348,229.828649
2728.423348,-10362.883188,-444.123565,1378.971896
2728.423686,-10732.986159,-962.267725,1302.362347
2728.424023,-9844.739029,-370.102971,306.438199
2728.424360,-10658.965565,0.000000,612.876398
2728.424698,-10214.842000,-370.102971,459.657299
2728.425035,-9992.780217,-592.164754,153.219100
2728.425372,-10436.903782,-444.123565,383.047749
2728.425710,-10436.903782,-148.041188,383.047749
2728.426047,-10510.924376,-1036.288319,383.047749
2728.426384,-10436.903782,-888.247130,229.828649
2728.426722,-9918.759623,-1184.329507,842.705048
2728.427059,-10362.883188,-1110.308913,76.609550
2728.427396,-10288.862594,-1406.391290,-689.485948
2728.427734,-10066.800811,-1480.411884,-842.705048
2728.428071,-9992.780217,-1406.391290,-842.705048
2728.428408,-9696.697840,-1406.391290,-995.924147
2728.428746,-10066.800811,-1480.411884,-842.705048
2728.429083,-9548.656652,-1406.391290,0.000000
2728.429421,-9622.677246,-1332.370696,229.828649
2728.429758,-9622.677246,-888.247130,536.266849
2728.430095,-10214.842000,-518.144159,1455.581446
2728.430433,-10362.883188,-296.082377,2298.286494
2728.430770,-10140.821405,-370.102971,1608.800546
2728.431107,-9770.718434,1628.453072,1762.019645
2728.431445,-10955.047942,888.247130,2374.896044
2728.431782,-9992.780217,1702.473667,919.314598
2728.432119,-9400.615463,1258.350101,689.485948
2728.432457,-10140.821405,1184.329507,1455.581446
2728.432794,-9770.718434,1332.370696,229.828649
2728.433131,-9844.739029,1480.411884,0.000000
2728.433469,-9992.780217,1554.432478,76.609550
2728.433806,-9178.553681,740.205942,-766.095498
2728.434143,-9918.759623,1036.288319,-306.438199
2728.434481,-10214.842000,222.061783,76.609550
2728.434818,-10066.800811,296.082377,-766.095498
2728.435155,-9844.739029,-740.205942,-1685.410096
2728.435493,-9992.780217,-888.247130,-1455.581446
2728.435830,-9918.759623,-1628.453072,-383.047749
2728.436167,-9992.780217,-2294.638420,0.000000
2728.436505,-9474.636058,-2220.617826,0.000000
2728.436842,-9992.780217,-2146.597232,76.609550
2728.437179,-11177.109724,-1776.494261,536.266849
2728.437517,-10658.965565,-1850.514855,229.828649
2728.437854,-10955.047942,-1258.350101,1072.533697
2728.438191,-10732.986159,-1184.329507,1378.971896
2728.438529,-10362.883188,-666.185348,459.657299
2728.438866,-10881.027347,-592.164754,689.485948
2728.439203,-10658.965565,-666.185348,842.705048
2728.439541,-10140.821405,-666.185348,-459.657299
2728.439878,-10140.821405,0.000000,383.047749
2728.440215,-11177.109724,0.000000,842.705048
2728.440553,-10214.842000,-444.123565,-383.047749
2728.440890,-9622.677246,-296.082377,-536.266849
2728.441227,-9548.656652,296.082377,76.609550
2728.441565,-9992.780217,-370.102971,229.828649
2728.441902,-9622.677246,-74.020594,-612.876398
2728.442239,-9474.636058,296.082377,-306.438199
2728.442577,-9770.718434,0.000000,0.000000
2728.442914,-9770.718434,0.000000,-842.705048
2728.443251,-9622.677246,-740.205942,306.438199
2728.443589,-9696.697840,0.000000,612.876398
2728.443926,-9030.512492,-296.082377,612.876398
2728.444263,-9474.636058,296.082377,1378.971896
2728.444601,-9770.718434,0.000000,1762.019645
2728.444938,-9844.739029,444.123565,1532.190996
2728.445276,-10214.842000,740.205942,1149.143247
2728.445613,-9548.656652,1184.329507,1455.581446
2728.445950,-10214.842000,1628.453072,1532.190996
2728.446288,-10066.800811,666.185348,689.485948
2728.446625,-9992.780217,1480.411884,919.314598
2728.446962,-10584.944971,814.226536,383.047749
2728.447300,-10510.924376,74.020594,-383.047749
2728.447637,-10140.821405,74.020594,-536.266849
2728.447974,-9696.697840,-592.164754,229.828649
2728.448312,-9622.677246,-1258.350101,-919.314598
2728.448649,-9844.739029,-1036.288319,-919.314598
2728.448986,-10510.924376,-962.267725,0.000000
2728.449324,-10214.842000,-1776.494261,-842.705048
2728.449661,-9770.718434,-1776.494261,-1225.752797
2728.449998,-10362.883188,-1776.494261,0.000000
2728.450336,-10807.006753,-1850.514855,153.219100
2728.450673,-9770.718434,-2664.741391,-229.828649
2728.451010,-10362.883188,-1554.432478,383.047749
2728.451348,-10436.903782,-1850.514855,766.095498
2728.451685,-10510.924376,-1480.411884,76.609550
2728.452022,-10362.883188,-1554.432478,842.705048
2728.452360,-10362.883188,-444.123565,1072.533697
2728.452697,-10288.862594,0.000000,1532.190996
2728.453034,-10066.800811,296.082377,1225.752797
2728.453372,-9770.718434,962.267725,1455.581446
2728.453709,-10510.924376,1332.370696,1302.362347
2728.454046,-9992.780217,1184.329507,612.876398
2728.454384,-10066.800811,1924.535449,536.266849
2728.454721,-10066.800811,1406.391290,383.047749
2728.455058,-9622.677246,814.226536,-76.609550
2728.455396,-9326.594869,1628.453072,-383.047749
2728.455733,-9474.636058,1036.288319,-536.266849
2728.456070,-9400.615463,444.123565,-306.438199
2728.456408,-9252.574275,222.061783,-1149.143247
2728.456745,-9474.636058,222.061783,-459.657299
2728.457082,-9548.656652,0.000000,229.828649
2728.457420,-9622.677246,-444.123565,306.438199
2728.457757,-9992.780217,-222.061783,1072.533697
2728.458094,-10362.883188,-296.082377,842.705048
2728.458432,-10066.800811,-370.102971,0.000000
2728.458769,-10510.924376,-370.102971,1149.143247
2728.459106,-10658.965565,-962.267725,919.314598
2728.459444,-10140.821405,-962.267725,459.657299
2728.459781,-10214.842000,-222.061783,306.438199
2728.460118,-10214.842000,-592.164754,689.485948
2728.460456,-10066.800811,-814.226536,0.000000
2728.460793,-10288.862594,-296.082377,76.609550
2728.461130,-10436.903782,0.000000,612.876398
2728.461468,-10584.944971,-370.102971,0.000000
2728.461805,-10732.986159,-592.164754,383.047749
2728.462143,-10510.924376,-888.247130,306.438199
2728.462480,-10288.862594,-1332.370696,0.000000
2728.462817,-9770.718434,-1332.370696,-766.095498
2728.463155,-10066.800811,-1998.556043,-1225.752797
2728.463492,-9918.759623,-1480.411884,-995.924147
2728.463829,-9696.697840,-2146.597232,-995.924147
2728.464167,-9696.697840,-1406.391290,-1149.143247
2728.464504,-9696.697840,-1554.432478,306.438199
2728.464841,-9770.718434,-1110.308913,0.000000
2728.465179,-9770.718434,-666.185348,153.219100
2728.465516,-10436.903782,-74.020594,1838.629195
2728.465853,-10584.944971,-444.123565,2145.067394
2728.466191,-10066.800811,-222.061783,1302.362347
2728.466528,-10288.862594,666.185348,1838.629195
2728.466865,-10140.821405,814.226536,2221.676944
2728.467203,-9992.780217,1850.514855,995.924147
2728.467540,-9548.656652,1332.370696,1072.533697
2728.467877,-9622.677246,1998.556043,919.314598
2728.468215,-9770.718434,1184.329507,76.609550
2728.468552,-9548.656652,2220.617826,153.219100
2728.468889,-9622.677246,1258.350101,-229.828649
2728.469227,-9252.574275,296.082377,-306.438199
2728.469564,-9252.574275,666.185348,-306.438199
2728.469901,-10066.800811,370.102971,842.705048
2728.470239,-10214.842000,-222.061783,-536.266849
2728.470576,-9400.615463,-1036.288319,-1762.019645
2728.470913,-10066.800811,-1258.350101,-766.095498
2728.471251,-9622.677246,-1480.411884,76.609550
2728.471588,-10066.800811,-1850.514855,-536.266849
2728.471925,-9548.656652,-2146.597232,0.000000
2728.472263,-9696.697840,-1480.411884,0.000000
2728.472600,-10510.924376,-1702.473667,536.266849
2728.472937,-10881.027347,-1406.391290,0.000000
2728.473275,-10510.924376,-1628.453072,1532.190996
2728.473612,-10955.047942,-1258.350101,1455.581446
2728.473949,-10362.883188,-888.247130,612.876398
2728.474287,-10881.027347,0.000000,1149.143247
2728.474624,-11029.068536,-592.164754,766.095498
2728.474961,-10288.862594,-814.226536,-536.266849
2728.475299,-10066.800811,-148.041188,0.000000
2728.475636,-10140.821405,-666.185348,306.438199
2728.475973,-9548.656652,0.000000,0.000000
2728.476311,-9474.636058,0.000000,229.828649
2728.476648,-9474.636058,518.144159,459.657299
2728.476985,-10140.821405,222.061783,-229.828649
2728.477323,-10584.944971,0.000000,0.000000
2728.477660,-9770.718434,222.061783,-153.219100
2728.477998,-9030.512492,-444.123565,76.609550
2728.478335,-9474.636058,-222.061783,153.219100
2728.478672,-9696.697840,-148.041188,995.924147
2728.479010,-9770.718434,-148.041188,0.000000
2728.479347,-9030.512492,-296.082377,-766.095498
2728.479684,-9622.677246,0.000000,383.047749
2728.480022,-9992.780217,0.000000,1991.848295
2728.480359,-9844.739029,1036.288319,1149.143247
2728.480696,-9400.615463,1184.329507,1149.143247
2728.481034,-9992.780217,2220.617826,1455.581446
2728.481371,-10436.903782,1554.432478,1685.410096
2728.481708,-11103.089130,1036.288319,1225.752797
2728.482046,-9918.759623,666.185348,1072.533697
2728.482383,-10288.862594,444.123565,919.314598
2728.482720,-10362.883188,0.000000,536.266849
2728.483058,-9770.718434,-518.144159,-536.266849
2728.483395,-9104.533087,-592.164754,-383.047749
2728.483732,-9326.594869,-1036.288319,-1838.629195
2728.484070,-9548.656652,-592.164754,-842.705048
2728.484407,-10955.047942,-666.185348,-229.828649
2728.484744,-10510.924376,-1332.370696,-1608.800546
2728.485082,-10140.821405,-1998.556043,-1378.971896
2728.485419,-10658.965565,-1702.473667,383.047749
2728.485756,-10436.903782,-2442.679609,536.266849
2728.486094,-10214.842000,-2516.700203,766.095498
2728.486431,-10214.842000,-2220.617826,919.314598
2728.486768,-10288.862594,-1776.494261,536.266849
2728.487106,-10732.986159,-1406.391290,383.047749
2728.487443,-10807.006753,-1332.370696,689.485948
2728.487780,-10362.883188,0.000000,612.876398
2728.488118,-10214.842000,148.041188,1225.752797
2728.488455,-9992.780217,888.247130,1225.752797
2728.488792,-10066.800811,444.123565,1302.362347
2728.489130,-10362.883188,592.164754,1532.190996
2728.489467,-9918.759623,1036.288319,842.705048
2728.489804,-9844.739029,1184.329507,919.314598
2728.490142,-9844.739029,1110.308913,76.609550
2728.490479,-9474.636058,1184.329507,0.000000
2728.490816,-9548.656652,592.164754,229.828649
2728.491154,-9326.594869,1480.411884,-766.095498
2728.491491,-9548.656652,1036.288319,-995.924147
2728.491828,-9474.636058,148.041188,-995.924147
2728.492166,-9104.533087,222.061783,-842.705048
2728.492503,-9622.677246,-296.082377,536.266849
2728.492840,-9474.636058,0.000000,919.314598
2728.493178,-9548.656652,-222.061783,1072.533697
2728.493515,-10658.965565,-592.164754,689.485948
2728.493853,-9770.718434,0.000000,612.876398
2728.494190,-10584.944971,-370.102971,1149.143247
2728.494527,-10584.944971,-740.205942,919.314598
2728.494865,-10066.800811,-222.061783,76.609550
2728.495202,-10436.903782,-296.082377,766.095498
2728.495539,-10436.903782,-370.102971,0.000000
2728.495877,-10140.821405,-518.144159,0.000000
2728.496214,-10732.986159,-962.267725,306.438199
2728.496551,-10140.821405,-222.061783,306.438199
2728.496889,-10436.903782,-592.164754,0.000000
2728.497226,-10436.903782,-592.164754,0.000000
2728.497563,-10288.862594,-1036.288319,536.266849
2728.497901,-10214.842000,-962.267725,0.000000
2728.498238,-10288.862594,-1702.473667,-459.657299
2728.498575,-9844.739029,-1110.308913,-1072.533697
2728.498913,-10140.821405,-1628.453072,-1072.533697
2728.499250,-9548.656652,-1628.453072,-689.485948
2728.499587,-9400.615463,-1998.556043,-995.924147
2728.499925,-9548.656652,-1258.350101,459.657299
2728.500262,-9844.739029,-1332.370696,0.000000
2728.500599,-9622.677246,-1110.308913,383.047749
2728.500937,-10436.903782,-592.164754,1225.752797
2728.501274,-9992.780217,0.000000,2068.457845
2728.501611,-10214.842000,0.000000,1762.019645
2728.501949,-9844.739029,592.164754,1532.190996
2728.502286,-10288.862594,962.267725,1608.800546
2728.502623,-9844.739029,1776.494261,1532.190996
2728.502961,-9918.759623,1036.288319,842.705048
2728.503298,-9622.677246,1406.391290,1149.143247
2728.503635,-9474.636058,1850.514855,76.609550
2728.503973,-9474.636058,1776.494261,0.000000
2728.504310,-10362.883188,1554.432478,0.000000
2728.504647,-9326.594869,814.226536,-459.657299
2728.504985,-9474.636058,518.144159,-612.876398
2728.505322,-9696.697840,370.102971,0.000000
2728.505659,-10066.800811,222.061783,-1149.143247
2728.505997,-9844.739029,-518.144159,-1532.190996
2728.506334,-9918.759623,-1702.473667,-919.314598
2728.506671,-9770.718434,-1998.556043,0.000000
2728.507009,-9918.759623,-1850.514855,76.609550
2728.507346,-9844.739029,-2294.638420,153.219100
2728.507683,-9844.739029,-2146.597232,-383.047749
2728.508021,-10584.944971,-1776.494261,76.609550
2728.508358,-10584.944971,-1702.473667,536.266849
2728.508695,-10881.027347,-1480.411884,1532.190996
2728.509033,-10658.965565,-1258.350101,766.095498
2728.509370,-9992.780217,-592.164754,459.657299
2728.509708,-10510.924376,-740.205942,1149.143247
2728.510045,-10658.965565,-666.185348,842.705048
2728.510382,-10436.903782,-592.164754,229.828649
2728.510720,-10288.862594,0.000000,76.609550
2728.511057,-10807.006753,0.000000,536.266849
2728.511394,-10066.800811,0.000000,-459.657299
2728.511732,-9548.656652,-740.205942,-459.657299
2728.512069,-9548.656652,-148.041188,-153.219100
2728.512406,-9696.697840,0.000000,-153.219100
2728.512744,-9844.739029,296.082377,-459.657299
2728.513081,-9770.718434,0.000000,0.000000
2728.513418,-9622.677246,-370.102971,-459.657299
2728.513756,-9474.636058,-148.041188,-383.047749
2728.514093,-9696.697840,-592.164754,612.876398
2728.514430,-9474.636058,-518.144159,306.438199
2728.514768,-9104.533087,0.000000,612.876398
2728.515105,-9770.718434,296.082377,1225.752797
2728.515442,-10214.842000,296.082377,1532.190996
2728.515780,-10362.883188,1036.288319,1302.362347
2728.516117,-10066.800811,888.247130,1532.190996
2728.516454,-9622.677246,1332.370696,1915.238745
2728.516792,-10288.862594,1554.432478,1455.581446
2728.517129,-10288.862594,1110.308913,1072.533697
2728.517466,-10510.924376,740.205942,1762.019645
2728.517804,-10362.883188,666.185348,229.828649
2728.518141,-10436.903782,-74.020594,0.000000
2728.518478,-9918.759623,0.000000,-766.095498
2728.518816,-9326.594869,-962.267725,-689.485948
2728.519153,-9696.697840,-1184.329507,-995.924147
2728.519490,-9400.615463,-1258.350101,-1072.533697
2728.519828,-10510.924376,-962.267725,-76.609550
2728.520165,-10510.924376,-1998.556043,-1225.752797
2728.520502,-9918.759623,-1776.494261,-919.314598
2728.520840,-10362.883188,-2368.659014,0.000000
2728.521177,-10584.944971,-1850.514855,229.828649
2728.521514,-10436.903782,-2812.782580,229.828649
2728.521852,-10066.800811,-1924.535449,766.095498
2728.522189,-10288.862594,-1776.494261,0.000000
2728.522526,-10436.903782,-1184.329507,612.876398
2728.522864,-10584.944971,-1406.391290,995.924147
2728.523201,-10362.883188,-444.123565,919.314598
2728.523538,-9844.739029,0.000000,1149.143247
2728.523876,-9992.780217,888.247130,1378.971896
2728.524213,-9918.759623,962.267725,1762.019645
2728.524550,-10288.862594,962.267725,1762.019645
2728.524888,-10584.944971,1332.370696,1378.971896
2728.525225,-9918.759623,1406.391290,842.705048
2728.525562,-10214.842000,1702.473667,0.000000
2728.525899,-9400.615463,666.185348,-306.438199
2728.526237,-9252.574275,1184.329507,-383.047749
2728.526574,-8956.491898,1110.308913,-383.047749
2728.526911,-9474.636058,666.185348,-919.314598
2728.527249,-9474.636058,222.061783,-766.095498
2728.527586,-9622.677246,0.000000,-306.438199
2728.527923,-9548.656652,-296.082377,-306.438199
2728.528260,-9326.594869,-592.164754,306.438199
2728.528598,-9770.718434,74.020594,1685.410096
2728.528935,-10436.903782,-666.185348,919.314598
2728.529272,-9844.739029,-444.123565,842.705048
2728.529609,-10140.821405,-592.164754,536.266849
2728.529947,-10732.986159,-444.123565,1149.143247
2728.530284,-10362.883188,-592.164754,76.609550
2728.530621,-9696.697840,-740.205942,306.438199
2728.530959,-10362.883188,0.000000,306.438199
2728.531296,-9770.718434,-148.041188,0.000000
2728.531633,-10658.965565,-814.226536,0.000000
2728.531970,-11029.068536,-370.102971,306.438199
2728.532308,-10362.883188,-444.123565,0.000000
2728.532645,-10955.047942,-148.041188,536.266849
2728.532982,-10140.821405,-1332.370696,0.000000
2728.533319,-9844.739029,-1776.494261,-153.219100
2728.533657,-10140.821405,-814.226536,-383.047749
2728.533994,-10066.800811,-1406.391290,-1225.752797
2728.534331,-10362.883188,-1554.432478,-1149.143247
2728.534669,-9992.780217,-2146.597232,-1149.143247
2728.535006,-9474.636058,-1480.411884,-995.924147
2728.535343,-9474.636058,-1184.329507,229.828649
2728.535680,-9770.718434,-1110.308913,0.000000
2728.536018,-9548.656652,-962.267725,689.485948
2728.536355,-10510.924376,-444.123565,1762.019645
2728.536692,-10214.842000,0.000000,1302.362347
2728.537030,-10066.800811,370.102971,1762.019645
2728.537367,-10584.944971,518.144159,2298.286494
2728.537704,-10140.821405,666.185348,1532.190996
2728.538041,-9696.697840,1628.453072,1072.533697
2728.538379,-9918.759623,1628.453072,995.924147
2728.538716,-9992.780217,1554.432478,919.314598
2728.539053,-9252.574275,1480.411884,0.000000
2728.539390,-9696.697840,2220.617826,0.000000
2728.539728,-9918.759623,1628.453072,76.609550
2728.540065,-9030.512492,0.000000,-612.876398
2728.540402,-9400.615463,888.247130,-306.438199
2728.540740,-9474.636058,74.020594,459.657299
2728.541077,-10214.842000,370.102971,-842.705048
2728.541414,-9548.656652,-962.267725,-1455.581446
2728.541751,-10510.924376,-1184.329507,-306.438199
2728.542089,-10140.821405,-1776.494261,-766.095498
2728.542426,-9992.780217,-1776.494261,-76.609550
2728.542763,-10214.842000,-1924.535449,383.047749
2728.543100,-10066.800811,-1850.514855,-76.609550
2728.543438,-10214.842000,-2146.597232,229.828649
2728.543775,-10732.986159,-1258.350101,459.657299
2728.544112,-10510.924376,-1480.411884,1072.533697
2728.544450,-10955.047942,-1036.288319,612.876398
2728.544787,-10214.842000,-740.205942,536.266849
2728.545124,-10955.047942,-518.144159,1149.143247
2728.545461,-10955.047942,-888.247130,689.485948
2728.545799,-10288.862594,-740.205942,-536.266849
2728.546136,-10066.800811,-370.102971,0.000000
2728.546473,-10436.903782,-666.185348,536.266849
2728.546811,-9474.636058,0.000000,-536.266849
2728.547148,-9252.574275,0.000000,0.000000
2728.547485,-9918.759623,0.000000,459.657299
2728.547822,-9844.739029,0.000000,-383.047749
2728.548160,-10362.883188,444.123565,0.000000
2728.548497,-9548.656652,296.082377,0.000000
2728.548834,-9474.636058,-666.185348,0.000000
2728.549171,-9918.759623,-444.123565,153.219100
2728.549509,-9844.739029,-444.123565,536.266849
2728.549846,-9992.780217,74.020594,0.000000
2728.550183,-9252.574275,-666.185348,0.000000
2728.550521,-9622.677246,0.000000,459.657299
2728.550858,-9918.759623,-148.041188,1378.971896
2728.551195,-9622.677246,1776.494261,766.095498
2728.551532,-9844.739029,888.247130,1915.238745
2728.551870,-10288.862594,1480.411884,1532.190996
2728.552207,-10436.903782,1998.556043,1149.143247
2728.552544,-10584.944971,888.247130,1455.581446
2728.552882,-9918.759623,666.185348,766.095498
2728.553219,-10066.800811,296.082377,306.438199
2728.553556,-10214.842000,-74.020594,229.828649
2728.553893,-9474.636058,-666.185348,-306.438199
2728.554231,-9400.615463,-592.164754,-229.828649
2728.554568,-9252.574275,-1184.329507,-1455.581446
2728.554905,-9548.656652,-814.226536,-689.485948
2728.555242,-10881.027347,-666.185348,-689.485948
2728.555580,-10214.842000,-1480.411884,-1608.800546
2728.555917,-9696.697840,-1702.473667,-383.047749
2728.556254,-10436.903782,-2368.659014,612.876398
2728.556592,-10362.883188,-2664.741391,689.485948
2728.556929,-10510.924376,-2294.638420,842.705048
2728.557266,-9992.780217,-2516.700203,995.924147
2728.557603,-10214.842000,-2072.576638,153.219100
2728.557941,-10436.903782,-1628.453072,0.000000
2728.558278,-10510.924376,-370.102971,995.924147
2728.558615,-10436.903782,-740.205942,919.314598
2728.558952,-9918.759623,370.102971,919.314598
2728.559290,-9918.759623,1036.288319,1225.752797
2728.559627,-10658.965565,888.247130,1762.019645
2728.559964,-10362.883188,666.185348,1225.752797
2728.560302,-10066.800811,1110.308913,1072.533697
2728.560639,-9844.739029,1332.370696,995.924147
2728.560976,-9992.780217,1702.473667,76.609550
2728.561313,-9992.780217,370.102971,0.000000
2728.561651,-9326.594869,1332.370696,-76.609550
2728.561988,-9474.636058,888.247130,-1378.971896
2728.562325,-9474.636058,962.267725,-995.924147
2728.562663,-9252.574275,296.082377,-1225.752797
2728.563000,-9400.615463,0.000000,-153.219100
2728.563337,-9622.677246,-444.123565,0.000000
2728.563674,-9326.594869,0.000000,612.876398
2728.564012,-9474.636058,-370.102971,919.314598
2728.564349,-10214.842000,-888.247130,766.095498
2728.564686,-9844.739029,-222.061783,1072.533697
2728.565023,-10510.924376,-444.123565,1302.362347
2728.565361,-10658.965565,0.000000,459.657299
2728.565698,-10288.862594,-518.144159,306.438199
2728.566035,-10214.842000,-222.061783,383.047749
2728.566373,-10436.903782,-222.061783,0.000000
2728.566710,-10066.800811,-148.041188,-383.047749
2728.567047,-10658.965565,-592.164754,766.095498
2728.567384,-10214.842000,-888.247130,229.828649
2728.567722,-10584.944971,-370.102971,0.000000
2728.568059,-10436.903782,-296.082377,842.705048
2728.568396,-10214.842000,-1184.329507,-229.828649
2728.568733,-9696.697840,-1776.494261,-306.438199
2728.569071,-10140.821405,-1480.411884,-229.828649
2728.569408,-9696.697840,-1406.391290,-995.924147
2728.569745,-10140.821405,-1628.453072,-1685.410096
2728.570083,-10288.862594,-1628.453072,-766.095498
2728.570420,-9696.697840,-1628.453072,-536.266849
2728.570757,-9252.574275,-1554.432478,-229.828649
2728.571094,-9622.677246,-1036.288319,153.219100
2728.571432,-10066.800811,-1036.288319,1378.971896
2728.571769,-10362.883188,-740.205942,1608.800546
2728.572106,-9844.739029,0.000000,1378.971896
2728.572444,-10436.903782,444.123565,2374.896044
2728.572781,-10140.821405,962.267725,1915.238745
2728.573118,-10362.883188,1406.391290,1455.581446
2728.573455,-9548.656652,1628.453072,1072.533697
2728.573793,-9992.780217,1554.432478,1149.143247
2728.574130,-10436.903782,1480.411884,383.047749
2728.574467,-9400.615463,1258.350101,-306.438199
2728.574804,-9474.636058,1776.494261,306.438199
2728.575142,-9844.739029,1110.308913,0.000000
2728.575479,-9400.615463,1036.288319,-306.438199
2728.575816,-9696.697840,666.185348,306.438199
2728.576154,-9770.718434,74.020594,0.000000
2728.576491,-10214.842000,592.164754,-1225.752797
2728.576828,-9548.656652,-814.226536,-1302.362347
2728.577165,-10066.800811,-1406.391290,-612.876398
2728.577503,-10140.821405,-1924.535449,0.000000
2728.577840,-9918.759623,-1258.350101,459.657299
2728.578177,-10214.842000,-2146.597232,536.266849
2728.578515,-10066.800811,-2220.617826,-612.876398
2728.578852,-10362.883188,-1850.514855,-459.657299
2728.579189,-10732.986159,-2072.576638,1608.800546
2728.579526,-10288.862594,-1258.350101,995.924147
2728.579864,-10955.047942,-666.185348,995.924147
2728.580201,-10658.965565,-518.144159,612.876398
2728.580538,-10288.862594,-592.164754,459.657299
2728.580875,-10658.965565,-592.164754,842.705048
2728.581213,-10214.842000,0.000000,153.219100
2728.581550,-10436.903782,-518.144159,229.828649
2728.581887,-10436.903782,-444.123565,689.485948
2728.582225,-9474.636058,222.061783,-1072.533697
2728.582562,-9844.739029,-666.185348,0.000000
2728.582899,-10066.800811,-666.185348,0.000000
2728.583236,-9104.533087,0.000000,-689.485948
2728.583574,-9622.677246,148.041188,-76.609550
2728.583911,-10140.821405,0.000000,-459.657299
2728.584248,-9770.718434,-444.123565,-306.438199
2728.584585,-9622.677246,-518.144159,76.609550
2728.584923,-9770.718434,-222.061783,612.876398
2728.585260,-9696.697840,0.000000,383.047749
2728.585597,-9474.636058,-370.102971,536.266849
2728.585935,-9696.697840,74.020594,1532.190996
2728.586272,-10140.821405,74.020594,1532.190996
2728.586609,-10066.800811,1332.370696,1532.190996
2728.586946,-10214.842000,1036.288319,1532.190996
2728.587284,-9918.759623,888.247130,1608.800546
2728.587621,-9696.697840,1850.514855,1072.533697
2728.587958,-10066.800811,1332.370696,766.095498
2728.588296,-10436.903782,888.247130,842.705048
2728.588633,-10436.903782,740.205942,0.000000
2728.588970,-10066.800811,0.000000,0.000000
2728.589307,-9770.718434,-518.144159,0.000000
2728.589645,-9474.636058,-518.144159,-842.705048
2728.589982,-9770.718434,-1110.308913,-842.705048
2728.590319,-9844.739029,-1406.391290,-1149.143247
2728.590656,-10362.883188,-962.267725,-383.047749
2728.590994,-10584.944971,-1554.432478,-995.924147
2728.591331,-9770.718434,-1850.514855,-612.876398
2728.591668,-10288.862594,-2294.638420,0.000000
2728.592006,-10436.903782,-2146.597232,229.828649
2728.592343,-10214.842000,-2146.597232,153.219100
2728.592680,-10362.883188,-1776.494261,995.924147
2728.593017,-10881.027347,-2146.597232,536.266849
2728.593355,-10066.800811,-1480.411884,306.438199
2728.593692,-10510.924376,-814.226536,1455.581446
2728.594029,-10436.903782,-370.102971,1149.143247
2728.594367,-10140.821405,0.000000,1149.143247
2728.594704,-10066.800811,370.102971,1838.629195
2728.595041,-10066.800811,666.185348,1149.143247
2728.595378,-10288.862594,1184.329507,1149.143247
2728.595716,-10140.821405,888.247130,766.095498
2728.596053,-9844.739029,1480.411884,612.876398
2728.596390,-9918.759623,1628.453072,76.609550
2728.596727,-9770.718434,1184.329507,0.000000
2728.597065,-9474.636058,888.247130,-306.438199
2728.597402,-9252.574275,148.041188,-612.876398
2728.597739,-9400.615463,962.267725,-689.485948
2728.598077,-9178.553681,0.000000,-919.314598
2728.598414,-9474.636058,-370.102971,-536.266849
2728.598751,-9178.553681,-518.144159,0.000000
2728.599088,-9696.697840,0.000000,995.924147
2728.599426,-9992.780217,74.020594,612.876398
2728.599763,-10510.924376,-518.144159,689.485948
2728.600100,-10140.821405,-444.123565,1072.533697
2728.600437,-10288.862594,0.000000,919.314598
2728.600775,-10436.903782,-888.247130,1378.971896
2728.601112,-10140.821405,74.020594,383.047749
2728.601449,-10140.821405,-518.144159,689.485948
2728.601787,-10436.903782,-148.041188,153.219100
2728.602124,-9770.718434,74.020594,0.000000
2728.602461,-10955.047942,-518.144159,536.266849
2728.602798,-10510.924376,-592.164754,0.000000
2728.603136,-10066.800811,-592.164754,-383.047749
2728.603473,-10584.944971,-888.247130,383.047749
2728.603810,-10436.903782,-1110.308913,153.219100
2728.604148,-9844.739029,-1776.494261,-612.876398
2728.604485,-10140.821405,-1850.514855,-766.095498
2728.604822,-9992.780217,-1184.329507,-1072.533697
2728.605159,-10362.883188,-1850.514855,-1455.581446
2728.605497,-10214.842000,-1998.556043,-995.924147
2728.605834,-9474.636058,-1554.432478,-612.876398
2728.606171,-9992.780217,-1554.432478,229.828649
2728.606508,-9770.718434,-592.164754,153.219100
2728.606846,-9918.759623,-1036.288319,459.657299
2728.607183,-10584.944971,-370.102971,2374.896044
2728.607520,-10066.800811,-370.102971,1608.800546
2728.607858,-9992.780217,518.144159,1991.848295
2728.608195,-10510.924376,666.185348,1991.848295
2728.608532,-10066.800811,1110.308913,1378.971896
2728.608869,-9918.759623,1406.391290,1225.752797
2728.609207,-9992.780217,1554.432478,1532.190996
2728.609544,-9770.718434,1850.514855,76.609550
2728.609881,-9474.636058,1480.411884,153.219100
2728.610218,-9548.656652,1628.453072,76.609550
2728.610556,-9326.594869,888.247130,0.000000
2728.610893,-9400.615463,666.185348,-229.828649
2728.611230,-9474.636058,1036.288319,0.000000
2728.611568,-10436.903782,0.000000,76.609550
2728.611905,-9474.636058,0.000000,-766.095498
2728.612242,-10066.800811,-370.102971,-919.314598
2728.612579,-10214.842000,-1406.391290,0.000000
2728.612917,-9770.718434,-1850.514855,-689.485948
2728.613254,-9548.656652,-1628.453072,153.219100
2728.613591,-9992.780217,-1702.473667,306.438199
2728.613929,-9918.759623,-1924.535449,-76.609550
2728.614266,-10510.924376,-1776.494261,76.609550
2728.614603,-10140.821405,-1776.494261,689.485948
2728.614940,-10658.965565,-1184.329507,995.924147
2728.615278,-10881.027347,-814.226536,1149.143247
2728.615615,-10658.965565,-740.205942,612.876398
2728.615952,-10658.965565,-74.020594,1225.752797
2728.616289,-10584.944971,-592.164754,0.000000
2728.616627,-10288.862594,-592.164754,-153.219100
2728.616964,-10140.821405,-740.205942,-153.219100
2728.617301,-9992.780217,-666.185348,76.609550
2728.617639,-8956.491898,296.082377,-459.657299
2728.617976,-9474.636058,0.000000,76.609550
2728.618313,-10436.903782,222.061783,0.000000
2728.618650,-9696.697840,-296.082377,-612.876398
2728.618988,-10140.821405,370.102971,-229.828649
2728.619325,-9770.718434,-296.082377,229.828649
2728.619662,-9474.636058,-444.123565,-153.219100
2728.620000,-9622.677246,-666.185348,229.828649
2728.620337,-9992.780217,0.000000,689.485948
2728.620674,-9400.615463,-148.041188,-306.438199
2728.621011,-9474.636058,74.020594,0.000000
2728.621349,-10066.800811,222.061783,1532.190996
2728.621686,-10140.821405,370.102971,1225.752797
2728.622023,-9474.636058,1480.411884,1225.752797
2728.622360,-9770.718434,1554.432478,1685.410096
2728.622698,-10881.027347,1554.432478,1378.971896
2728.623035,-10066.800811,1332.370696,919.314598
2728.623372,-10214.842000,962.267725,1532.190996
2728.623710,-10214.842000,666.185348,1378.971896
2728.624047,-9696.697840,0.000000,0.000000
2728.624384,-9992.780217,0.000000,0.000000
2728.624721,-9252.574275,-444.123565,-459.657299
2728.625058,-9178.553681,-444.123565,-995.924147
2728.625395,-10140.821405,-666.185348,-1378.971896
2728.625732,-9992.780217,-888.247130,-689.485948
2728.626070,-10584.944971,-962.267725,-612.876398
2728.626407,-10140.821405,-1554.432478,-1378.971896
2728.626744,-10214.842000,-2368.659014,0.000000
2728.627082,-10881.027347,-2368.659014,995.924147
2728.627419,-10140.821405,-2960.823768,536.266849
2728.627756,-10066.800811,-1850.514855,459.657299
2728.628094,-10214.842000,-1702.473667,1225.752797
2728.628431,-10362.883188,-1850.514855,306.438199
2728.628768,-10362.883188,-1332.370696,76.609550
2728.629106,-10732.986159,0.000000,1762.019645
2728.629443,-10510.924376,-518.144159,1149.143247
2728.629780,-10288.862594,518.144159,612.876398
2728.630118,-9992.780217,518.144159,1685.410096
2728.630455,-10140.821405,592.164754,1225.752797
2728.630792,-10362.883188,518.144159,919.314598
2728.631129,-9918.759623,1332.370696,919.314598
2728.631467,-9918.759623,888.247130,919.314598
2728.631804,-9326.594869,1258.350101,-612.876398
2728.632141,-9548.656652,1258.350101,-612.876398
2728.632479,-9548.656652,1184.329507,153.219100
2728.632816,-9400.615463,296.082377,-1225.752797
2728.633153,-9030.512492,666.185348,-1149.143247
2728.633491,-9474.636058,222.061783,-995.924147
2728.633828,-9474.636058,0.000000,0.000000
2728.634165,-9474.636058,-814.226536,-153.219100
2728.634503,-9326.594869,-148.041188,1072.533697
2728.634840,-9844.739029,0.000000,1072.533697
2728.635177,-10362.883188,-814.226536,536.266849
2728.635515,-10584.944971,0.000000,919.314598
2728.635852,-10436.903782,-296.082377,1455.581446
2728.636189,-10955.047942,0.000000,612.876398
2728.636527,-10288.862594,0.000000,153.219100
2728.636864,-10214.842000,-444.123565,229.828649
2728.637201,-9918.759623,-444.123565,153.219100
2728.637539,-10214.842000,-592.164754,0.000000
2728.637876,-10807.006753,-296.082377,995.924147
2728.638213,-10214.842000,-592.164754,0.000000
2728.638551,-10436.903782,-518.144159,-76.609550
2728.638888,-10436.903782,-444.123565,383.047749
2728.639225,-10436.903782,-740.205942,76.609550
2728.639563,-10362.883188,-1036.288319,-766.095498
2728.639900,-9844.739029,-1554.432478,-689.485948
2728.640237,-10140.821405,-1184.329507,-1072.533697
2728.640575,-9844.739029,-1776.494261,-1455.581446
2728.640912,-10214.842000,-2072.576638,-612.876398
2728.641249,-10140.821405,-1776.494261,-76.609550
2728.641587,-9992.780217,-1628.453072,229.828649
2728.641924,-9770.718434,-592.164754,383.047749
2728.642261,-9770.718434,-740.205942,919.314598
2728.642599,-10362.883188,-518.144159,1378.971896
2728.642936,-10066.800811,0.000000,1455.581446
2728.643273,-10066.800811,666.185348,1838.629195
2728.643611,-10584.944971,1258.350101,1991.848295
2728.643948,-10436.903782,1110.308913,1072.533697
2728.644285,-9696.697840,1628.453072,919.314598
2728.644623,-9770.718434,1554.432478,1302.362347
2728.644960,-9918.759623,1628.453072,612.876398
2728.645297,-9474.636058,1258.350101,0.000000
2728.645635,-9844.739029,1850.514855,459.657299
2728.645972,-9622.677246,1406.391290,-459.657299
2728.646309,-9178.553681,962.267725,-689.485948
2728.646647,-9622.677246,814.226536,0.000000
2728.646984,-9844.739029,-222.061783,-229.828649
2728.647321,-9622.677246,222.061783,-1225.752797
2728.647659,-9696.697840,-666.185348,-1532.190996
2728.647996,-10140.821405,-1480.411884,0.000000
2728.648333,-9844.739029,-1998.556043,-229.828649
2728.648670,-9178.553681,-1850.514855,76.609550
2728.649008,-9918.759623,-1406.391290,536.266849
2728.649345,-9844.739029,-2294.638420,-306.438199
2728.649682,-10658.965565,-1480.411884,306.438199
2728.650020,-10807.006753,-1924.535449,1532.190996
2728.650357,-10732.986159,-740.205942,612.876398
2728.650694,-10584.944971,-740.205942,689.485948
2728.651032,-10807.006753,-592.164754,612.876398
2728.651369,-9992.780217,-1110.308913,612.876398
2728.651706,-10436.903782,-444.123565,612.876398
2728.652044,-10658.965565,-370.102971,689.485948
2728.652381,-10584.944971,-222.061783,0.000000
2728.652718,-10807.006753,-370.102971,0.000000
2728.653056,-9400.615463,0.000000,-1149.143247
2728.653393,-9474.636058,-592.164754,306.438199
2728.653730,-9992.780217,0.000000,0.000000
2728.654068,-9252.574275,-222.061783,-536.266849
2728.654405,-9844.739029,370.102971,0.000000
2728.654742,-10214.842000,-296.082377,-76.609550
2728.655080,-9622.677246,-740.205942,-536.266849
2728.655417,-9992.780217,0.000000,612.876398
2728.655754,-9992.780217,-814.226536,842.705048
2728.656092,-9326.594869,222.061783,536.266849
2728.656429,-9326.594869,0.000000,536.266849
2728.656766,-9992.780217,74.020594,1532.190996
2728.657104,-9992.780217,148.041188,842.705048
2728.657441,-10066.800811,1036.288319,1225.752797
2728.657778,-10436.903782,1776.494261,1532.190996
2728.658116,-9918.759623,592.164754,1378.971896
2728.658453,-9548.656652,1702.473667,995.924147
2728.658790,-9844.739029,444.123565,1225.752797
2728.659128,-10288.862594,962.267725,536.266849
2728.659465,-9770.718434,148.041188,-766.095498
2728.659802,-10362.883188,370.102971,459.657299
2728.660140,-10214.842000,-222.061783,-229.828649
2728.660477,-9178.553681,-222.061783,-1455.581446
2728.660814,-9918.759623,-1406.391290,-1532.190996
2728.661152,-9622.677246,-740.205942,-842.705048
2728.661489,-9918.759623,-1924.535449,-612.876398
2728.661826,-10140.821405,-1628.453072,-1072.533697
2728.662164,-9992.780217,-1480.411884,-76.609550
2728.662501,-11029.068536,-2368.659014,306.438199
2728.662838,-10214.842000,-2294.638420,0.000000
2728.663176,-9770.718434,-1850.514855,612.876398
2728.663513,-10584.944971,-1924.535449,1149.143247
2728.663850,-10140.821405,-2146.597232,153.219100
2728.664188,-10214.842000,-1554.432478,0.000000
2728.664525,-10732.986159,-740.205942,1685.410096
2728.664862,-10140.821405,0.000000,612.876398
2728.665200,-10436.903782,-370.102971,1072.533697
2728.665537,-10288.862594,888.247130,1838.629195
2728.665874,-9992.780217,592.164754,1225.752797
2728.666211,-10584.944971,1110.308913,1455.581446
2728.666549,-10436.903782,1110.308913,995.924147
2728.666886,-9918.759623,962.267725,306.438199
2728.667223,-9844.739029,1850.514855,0.000000
2728.667561,-9474.636058,1406.391290,0.000000
2728.667898,-9474.636058,1332.370696,-612.876398
2728.668235,-9326.594869,0.000000,-1225.752797
2728.668573,-9104.533087,888.247130,-995.924147
2728.668910,-9326.594869,74.020594,-919.314598
2728.669247,-9696.697840,0.000000,-229.828649
2728.669585,-9622.677246,-296.082377,76.609550
2728.669922,-9474.636058,-296.082377,1072.533697
2728.670259,-10214.842000,74.020594,919.314598
2728.670597,-10066.800811,-962.267725,842.705048
2728.670934,-10362.883188,0.000000,919.314598
2728.671271,-10288.862594,-666.185348,995.924147
2728.671609,-10732.986159,-222.061783,766.095498
2728.671946,-10436.903782,0.000000,383.047749
2728.672283,-10140.821405,0.000000,229.828649
2728.672621,-10066.800811,-666.185348,0.000000
2728.672958,-9770.718434,-222.061783,-459.657299
2728.673295,-10436.903782,-444.123565,459.657299
2728.673633,-10658.965565,-592.164754,0.000000
2728.673970,-10140.821405,-814.226536,0.000000
