#time,accel_x,accel_y,accel_z
3341.684618,-9474.636058,-518.144159,689.485948
3341.684956,-9696.697840,-962.267725,1762.019645
3341.685294,-9992.780217,370.102971,1455.581446
3341.685631,-10066.800811,148.041188,919.314598
3341.685969,-11547.212695,74.020594,1455.581446
3341.686307,-10362.883188,592.164754,1149.143247
3341.686645,-9918.759623,888.247130,306.438199
3341.686983,-10140.821405,1184.329507,229.828649
3341.687321,-10436.903782,-518.144159,153.219100
3341.687658,-10807.006753,148.041188,0.000000
3341.687996,-10140.821405,-444.123565,-306.438199
3341.688334,-9474.636058,74.020594,-306.438199
3341.688672,-9844.739029,-1184.329507,76.609550
3341.689010,-10658.965565,-1924.535449,-306.438199
3341.689347,-10066.800811,-1554.432478,-76.609550
3341.689685,-9104.533087,-2368.659014,229.828649
3341.690023,-9474.636058,-1924.535449,1072.533697
3341.690361,-10362.883188,-2738.761985,1072.533697
3341.690699,-10658.965565,-2590.720797,1608.800546
3341.691036,-10658.965565,-2220.617826,1532.190996
3341.691374,-9548.656652,-2220.617826,1685.410096
3341.691712,-9474.636058,-2146.597232,2298.286494
3341.692050,-10288.862594,-1776.494261,2221.676944
3341.692388,-10362.883188,-2146.597232,2298.286494
3341.692726,-10362.883188,-1480.411884,2757.943793
3341.693063,-9548.656652,-444.123565,4749.792088
3341.693401,-10214.842000,-592.164754,5132.839837
3341.693739,-10584.944971,-296.082377,4749.792088
3341.694077,-11547.212695,-148.041188,4290.134789
3341.694415,-11325.150913,0.000000,4443.353888
3341.694752,-9548.656652,-370.102971,4060.306139
3341.695090,-10214.842000,-370.102971,3370.820191
3341.695428,-10140.821405,-666.185348,1685.410096
3341.695766,-9474.636058,-1850.514855,536.266849
3341.696104,-9770.718434,-2738.761985,1149.143247
3341.696441,-8512.368333,-2072.576638,1149.143247
3341.696779,-8734.430116,-2442.679609,1378.971896
3341.697117,-9178.553681,-2516.700203,1302.362347
3341.697455,-9770.718434,-2812.782580,1149.143247
3341.697793,-10436.903782,-3108.864956,2068.457845
3341.698131,-9548.656652,-3627.009116,2681.334243
3341.698468,-9104.533087,-3849.070898,3983.696590
3341.698806,-9992.780217,-3849.070898,3907.087040
3341.699144,-10955.047942,-3330.926739,3753.867940
3341.699482,-10658.965565,-2220.617826,2451.505594
3341.699820,-10436.903782,-3997.112087,2145.067394
3341.700157,-10214.842000,-4145.153275,2298.286494
3341.700495,-9474.636058,-4441.235652,2911.162892
3341.700833,-10140.821405,-3256.906145,3294.210641
3341.701171,-10584.944971,-2664.741391,2604.724693
3341.701509,-10881.027347,-2146.597232,689.485948
3341.701847,-10362.883188,-1702.473667,-919.314598
3341.702184,-10436.903782,-2146.597232,-766.095498
3341.702522,-9548.656652,-3404.947333,229.828649
3341.702860,-9622.677246,-3997.112087,919.314598
3341.703198,-10066.800811,-4219.173869,1915.238745
3341.703536,-10140.821405,-3849.070898,1072.533697
3341.703873,-10140.821405,-5107.421000,1225.752797
3341.704211,-9104.533087,-4959.379811,1838.629195
3341.704549,-8956.491898,-4663.297435,2987.772442
3341.704887,-10584.944971,-3034.844362,4290.134789
3341.705225,-11251.130318,-1628.453072,1915.238745
3341.705562,-10140.821405,-518.144159,229.828649
3341.705900,-10584.944971,-1406.391290,1455.581446
3341.706238,-10658.965565,-2738.761985,2374.896044
3341.706576,-9104.533087,-2516.700203,3370.820191
3341.706914,-8660.409521,-1554.432478,4290.134789
3341.707252,-9178.553681,-888.247130,5056.230287
3341.707589,-10510.924376,-1258.350101,4903.011187
3341.707927,-11547.212695,-1184.329507,5822.325785
3341.708265,-10658.965565,666.185348,4366.744339
3341.708603,-10658.965565,2812.782580,2681.334243
3341.708941,-11177.109724,3330.926739,1225.752797
3341.709278,-10658.965565,1258.350101,-536.266849
3341.709616,-8586.388927,-814.226536,536.266849
3341.709954,-7254.018232,-2960.823768,2757.943793
3341.710292,-8808.450710,-2516.700203,5056.230287
3341.710630,-11251.130318,-2812.782580,3907.087040
3341.710967,-10436.903782,-1776.494261,153.219100
3341.711305,-8808.450710,-2072.576638,612.876398
3341.711643,-9474.636058,-2368.659014,2681.334243
3341.711981,-10436.903782,-1850.514855,3294.210641
3341.712319,-10807.006753,-1628.453072,2451.505594
3341.712657,-10510.924376,-1554.432478,1762.019645
3341.712994,-11251.130318,-2960.823768,1455.581446
3341.713332,-11399.171507,-3923.091493,2451.505594
3341.713670,-9178.553681,-3627.009116,2987.772442
3341.714008,-9030.512492,-5329.482782,2987.772442
3341.714346,-7994.224174,-4515.256246,3217.601092
3341.714683,-9178.553681,-2590.720797,4596.572988
3341.715021,-11473.192101,-1776.494261,5592.497135
3341.715359,-12435.459826,-444.123565,2298.286494
3341.715697,-12953.603985,222.061783,229.828649
3341.716035,-11769.274478,74.020594,0.000000
3341.716373,-9548.656652,-2072.576638,1608.800546
3341.716710,-9400.615463,-2516.700203,2451.505594
3341.717048,-8438.347739,-2664.741391,612.876398
3341.717386,-8882.471304,-2886.803174,229.828649
3341.717724,-11029.068536,-3775.050304,612.876398
3341.718062,-10066.800811,-4737.318029,536.266849
3341.718399,-8142.265362,-4589.276840,3600.648841
3341.718737,-9326.594869,-2294.638420,4060.306139
3341.719075,-10214.842000,148.041188,3600.648841
3341.719413,-11399.171507,592.164754,-153.219100
3341.719751,-11103.089130,-1332.370696,612.876398
3341.720088,-11769.274478,-2664.741391,2528.115143
3341.720426,-9252.574275,-2072.576638,3830.477490
3341.720764,-8660.409521,-2072.576638,3600.648841
3341.721102,-8586.388927,-3034.844362,3217.601092
3341.721440,-8142.265362,-4145.153275,4366.744339
3341.721778,-8956.491898,-3256.906145,5669.106685
3341.722115,-9992.780217,592.164754,4443.353888
3341.722453,-10955.047942,2072.576638,1532.190996
3341.722791,-13693.809927,1850.514855,-76.609550
3341.723129,-12805.562797,-1554.432478,-536.266849
3341.723467,-9622.677246,-2294.638420,919.314598
3341.723804,-7254.018232,-1110.308913,3370.820191
3341.724142,-7031.956449,-3034.844362,3370.820191
3341.724480,-11473.192101,-5255.462188,2451.505594
3341.724818,-11103.089130,-5921.647536,766.095498
3341.725156,-8512.368333,-4441.235652,689.485948
3341.725493,-8438.347739,-3182.885551,1225.752797
3341.725831,-11177.109724,-3627.009116,1838.629195
3341.726169,-13027.624579,-3775.050304,76.609550
3341.726507,-8882.471304,-2294.638420,-995.924147
3341.726845,-7994.224174,-1554.432478,766.095498
3341.727183,-11177.109724,-2960.823768,4903.011187
3341.727520,-14285.974681,-4441.235652,3907.087040
3341.727858,-11399.171507,-3256.906145,1685.410096
3341.728196,-7402.059420,-2146.597232,1532.190996
3341.728534,-8290.306550,-1776.494261,4979.620737
3341.728872,-11991.336260,-2368.659014,4366.744339
3341.729209,-11177.109724,-1406.391290,153.219100
3341.729547,-9030.512492,592.164754,306.438199
3341.729885,-10584.944971,962.267725,2374.896044
3341.730223,-12731.542202,814.226536,2221.676944
3341.730561,-10584.944971,666.185348,-842.705048
3341.730899,-8068.244768,1184.329507,-2068.457845
3341.731236,-8956.491898,148.041188,919.314598
3341.731574,-11251.130318,-888.247130,1378.971896
3341.731912,-8216.285956,-962.267725,0.000000
3341.732250,-6587.832884,-444.123565,536.266849
3341.732588,-9844.739029,-1258.350101,1608.800546
3341.732925,-12731.542202,-1184.329507,536.266849
3341.733263,-10584.944971,444.123565,-612.876398
3341.733601,-7105.977043,2738.761985,-306.438199
3341.733939,-10288.862594,666.185348,383.047749
3341.734277,-12657.521608,370.102971,-459.657299
3341.734614,-9770.718434,0.000000,-842.705048
3341.734952,-8660.409521,-222.061783,2681.334243
3341.735290,-9992.780217,-2072.576638,3753.867940
3341.735628,-11251.130318,0.000000,1762.019645
3341.735966,-9400.615463,1480.411884,0.000000
3341.736304,-9844.739029,1998.556043,0.000000
3341.736641,-12435.459826,-296.082377,-1302.362347
3341.736979,-11769.274478,-296.082377,-2068.457845
3341.737317,-8364.327145,518.144159,153.219100
3341.737655,-9918.759623,-1036.288319,3370.820191
3341.737993,-12953.603985,-296.082377,229.828649
3341.738330,-11325.150913,-444.123565,-2911.162892
3341.738668,-8216.285956,-592.164754,-1762.019645
3341.739006,-8364.327145,-2072.576638,0.000000
3341.739344,-10658.965565,-2664.741391,-1532.190996
3341.739681,-9400.615463,-1628.453072,-2451.505594
3341.740019,-9178.553681,-1702.473667,-536.266849
3341.740357,-11621.233289,-1776.494261,306.438199
3341.740694,-11843.295072,-592.164754,-1685.410096
3341.741032,-8660.409521,0.000000,-1532.190996
3341.741369,-8364.327145,-1184.329507,1685.410096
3341.741707,-10807.006753,-1702.473667,2298.286494
3341.742045,-10436.903782,-592.164754,1378.971896
3341.742382,-8660.409521,-148.041188,2528.115143
3341.742720,-9770.718434,-888.247130,4290.134789
3341.743057,-11251.130318,-740.205942,2298.286494
3341.743395,-9992.780217,1332.370696,612.876398
3341.743733,-9030.512492,1702.473667,1532.190996
3341.744070,-9400.615463,1628.453072,1072.533697
3341.744408,-11103.089130,1702.473667,-1149.143247
3341.744746,-10436.903782,1110.308913,-919.314598
3341.745083,-9474.636058,888.247130,842.705048
3341.745421,-10658.965565,148.041188,1225.752797
3341.745758,-10140.821405,74.020594,0.000000
3341.746096,-7994.224174,0.000000,-842.705048
3341.746434,-8216.285956,-1036.288319,0.000000
3341.746771,-9992.780217,-1480.411884,-1378.971896
3341.747109,-10140.821405,-1258.350101,-995.924147
3341.747447,-9770.718434,-1554.432478,1225.752797
3341.747784,-11251.130318,-1702.473667,1838.629195
3341.748122,-11991.336260,-1554.432478,383.047749
3341.748459,-11029.068536,-1258.350101,-383.047749
3341.748797,-9622.677246,-1184.329507,689.485948
3341.749135,-9918.759623,-1776.494261,1072.533697
3341.749472,-10362.883188,-2072.576638,842.705048
3341.749810,-8882.471304,-1998.556043,1149.143247
3341.750147,-10066.800811,-2294.638420,3217.601092
3341.750485,-11843.295072,-1702.473667,2068.457845
3341.750823,-10584.944971,-888.247130,-1455.581446
3341.751160,-9030.512492,-222.061783,-689.485948
3341.751498,-9696.697840,0.000000,383.047749
3341.751836,-10955.047942,-296.082377,-536.266849
3341.752173,-9770.718434,-740.205942,-1378.971896
3341.752511,-10214.842000,-1184.329507,919.314598
3341.752848,-11177.109724,-2072.576638,229.828649
3341.753186,-9622.677246,-740.205942,-1455.581446
3341.753524,-8512.368333,0.000000,-1455.581446
3341.753861,-8734.430116,-1332.370696,0.000000
3341.754199,-10362.883188,-814.226536,-459.657299
3341.754537,-10288.862594,592.164754,76.609550
3341.754874,-10214.842000,444.123565,1685.410096
3341.755212,-11695.253884,370.102971,2374.896044
3341.755549,-11917.315666,0.000000,919.314598
3341.755887,-9326.594869,888.247130,153.219100
3341.756225,-8438.347739,1036.288319,2681.334243
3341.756562,-9992.780217,1036.288319,2374.896044
3341.756900,-9918.759623,2146.597232,229.828649
3341.757237,-9252.574275,2146.597232,229.828649
3341.757575,-10658.965565,1924.535449,2604.724693
3341.757913,-11547.212695,1480.411884,842.705048
3341.758250,-9770.718434,2072.576638,-1532.190996
3341.758588,-7846.182985,1702.473667,-919.314598
3341.758926,-9474.636058,1110.308913,76.609550
3341.759263,-10436.903782,888.247130,-1072.533697
3341.759601,-9474.636058,814.226536,-1991.848295
3341.759938,-9548.656652,-518.144159,0.000000
3341.760276,-11843.295072,-1332.370696,-76.609550
3341.760614,-11103.089130,-2146.597232,-2221.676944
3341.760951,-7402.059420,-1998.556043,-1915.238745
3341.761289,-8142.265362,-2146.597232,689.485948
3341.761627,-10732.986159,-2516.700203,689.485948
3341.761964,-10658.965565,-1480.411884,-1378.971896
3341.762302,-10362.883188,-1702.473667,153.219100
3341.762639,-11843.295072,-2960.823768,1838.629195
3341.762977,-12361.439231,-2516.700203,459.657299
3341.763315,-10288.862594,-1258.350101,76.609550
3341.763652,-8660.409521,-370.102971,1378.971896
3341.763990,-10436.903782,-888.247130,1149.143247
3341.764327,-10510.924376,-814.226536,0.000000
3341.764665,-9326.594869,0.000000,153.219100
3341.765003,-10362.883188,-1258.350101,3217.601092
3341.765340,-12509.480420,-1036.288319,2221.676944
3341.765678,-10584.944971,74.020594,-612.876398
3341.766016,-8660.409521,1110.308913,0.000000
3341.766353,-9252.574275,1184.329507,229.828649
3341.766691,-10436.903782,222.061783,-1685.410096
3341.767028,-9178.553681,444.123565,-2451.505594
3341.767366,-8660.409521,0.000000,383.047749
3341.767704,-10436.903782,-1850.514855,842.705048
3341.768041,-11177.109724,-962.267725,-842.705048
3341.768379,-8660.409521,222.061783,-1072.533697
3341.768717,-8068.244768,-740.205942,0.000000
3341.769054,-9696.697840,0.000000,919.314598
3341.769392,-10066.800811,296.082377,-306.438199
3341.769729,-9252.574275,370.102971,1762.019645
3341.770067,-10955.047942,-148.041188,3140.991542
3341.770405,-12583.501014,-444.123565,2145.067394
3341.770742,-10658.965565,1480.411884,76.609550
3341.771080,-8438.347739,1702.473667,229.828649
3341.771417,-9770.718434,222.061783,1225.752797
3341.771755,-9844.739029,222.061783,-612.876398
3341.772093,-9548.656652,0.000000,-612.876398
3341.772430,-10288.862594,-740.205942,1762.019645
3341.772768,-12435.459826,-1480.411884,1302.362347
3341.773106,-10510.924376,0.000000,-2298.286494
3341.773443,-8512.368333,0.000000,-1072.533697
3341.773781,-9548.656652,-888.247130,995.924147
3341.774118,-10288.862594,-1258.350101,-1991.848295
3341.774456,-9696.697840,-888.247130,-2451.505594
3341.774794,-9622.677246,-1776.494261,-306.438199
3341.775131,-12361.439231,-2738.761985,1608.800546
3341.775469,-11769.274478,-3330.926739,-689.485948
3341.775807,-8290.306550,-1998.556043,-1762.019645
3341.776144,-8068.244768,-1258.350101,1149.143247
3341.776482,-10214.842000,-1184.329507,229.828649
3341.776819,-10288.862594,-888.247130,-76.609550
3341.777157,-9400.615463,-1184.329507,1608.800546
3341.777495,-11251.130318,-1110.308913,3753.867940
3341.777832,-13101.645173,-148.041188,2604.724693
3341.778170,-10288.862594,1184.329507,0.000000
3341.778507,-7550.100608,1036.288319,1685.410096
3341.778845,-9696.697840,962.267725,2298.286494
3341.779183,-10584.944971,1036.288319,536.266849
3341.779520,-9326.594869,1702.473667,0.000000
3341.779858,-9992.780217,740.205942,2145.067394
3341.780196,-11917.315666,370.102971,1915.238745
3341.780533,-10955.047942,888.247130,-995.924147
3341.780871,-7994.224174,1850.514855,-1608.800546
3341.781208,-7698.141797,962.267725,-383.047749
3341.781546,-9844.739029,222.061783,-995.924147
3341.781884,-9622.677246,74.020594,-1838.629195
3341.782221,-9474.636058,-666.185348,1455.581446
3341.782559,-11325.150913,-2220.617826,2911.162892
3341.782897,-11473.192101,-1258.350101,459.657299
3341.783234,-9178.553681,222.061783,-766.095498
3341.783572,-8364.327145,-518.144159,0.000000
3341.783909,-9474.636058,-1776.494261,-229.828649
3341.784247,-9844.739029,-518.144159,-1378.971896
3341.784585,-8956.491898,-370.102971,-383.047749
3341.784922,-11547.212695,-444.123565,2681.334243
3341.785260,-13175.665768,-1036.288319,842.705048
3341.785597,-10066.800811,0.000000,-1149.143247
3341.785935,-8586.388927,444.123565,766.095498
3341.786273,-9400.615463,-888.247130,1532.190996
3341.786610,-10288.862594,-888.247130,-306.438199
3341.786948,-9918.759623,-740.205942,-306.438199
3341.787286,-9918.759623,-888.247130,1915.238745
3341.787623,-11917.315666,-1480.411884,842.705048
3341.787961,-12139.377449,-592.164754,-1378.971896
3341.788298,-8808.450710,-592.164754,-2834.553343
3341.788636,-8438.347739,-370.102971,-1072.533697
3341.788974,-9474.636058,-740.205942,-536.266849
3341.789311,-9696.697840,-296.082377,-1762.019645
3341.789649,-9770.718434,-370.102971,919.314598
3341.789987,-11769.274478,-1406.391290,1762.019645
3341.790324,-12213.398043,0.000000,459.657299
3341.790662,-9474.636058,0.000000,-766.095498
3341.790999,-7698.141797,740.205942,2145.067394
3341.791337,-9178.553681,0.000000,2451.505594
3341.791675,-10140.821405,1332.370696,612.876398
3341.792012,-9844.739029,2072.576638,459.657299
3341.792350,-11547.212695,1332.370696,3370.820191
3341.792687,-11769.274478,888.247130,1991.848295
3341.793025,-9474.636058,2072.576638,-383.047749
3341.793363,-8290.306550,2220.617826,459.657299
3341.793700,-8438.347739,2738.761985,766.095498
3341.794038,-10658.965565,1332.370696,-766.095498
3341.794376,-9178.553681,1924.535449,-1455.581446
3341.794713,-9770.718434,1332.370696,919.314598
3341.795051,-12139.377449,74.020594,1838.629195
3341.795388,-10436.903782,0.000000,-2451.505594
3341.795726,-8290.306550,-518.144159,-2528.115143
3341.796064,-8734.430116,-1184.329507,-306.438199
3341.796401,-8808.450710,-2146.597232,-842.705048
3341.796739,-9622.677246,-1110.308913,-1072.533697
3341.797077,-10732.986159,-1332.370696,383.047749
3341.797414,-11917.315666,-592.164754,383.047749
3341.797752,-12361.439231,-1924.535449,-842.705048
3341.798089,-9992.780217,-2072.576638,-766.095498
3341.798427,-8290.306550,-2220.617826,1991.848295
3341.798765,-10584.944971,-1924.535449,2374.896044
3341.799102,-10436.903782,-666.185348,536.266849
3341.799440,-10066.800811,-1258.350101,536.266849
3341.799777,-11029.068536,-1184.329507,3677.258390
3341.800115,-12213.398043,-1406.391290,1991.848295
3341.800453,-10436.903782,0.000000,689.485948
3341.800790,-8882.471304,0.000000,306.438199
3341.801128,-9252.574275,222.061783,689.485948
3341.801466,-8956.491898,0.000000,-766.095498
3341.801803,-8734.430116,444.123565,-536.266849
3341.802141,-9326.594869,222.061783,842.705048
3341.802478,-11621.233289,-296.082377,919.314598
3341.802816,-11621.233289,1258.350101,-842.705048
3341.803154,-8734.430116,-296.082377,-1455.581446
3341.803491,-9030.512492,-296.082377,842.705048
3341.803829,-9474.636058,0.000000,536.266849
3341.804167,-9474.636058,518.144159,-383.047749
3341.804504,-8438.347739,296.082377,536.266849
3341.804842,-10362.883188,-148.041188,1685.410096
3341.805179,-12139.377449,592.164754,1608.800546
3341.805517,-10066.800811,1628.453072,-306.438199
3341.805855,-9252.574275,1184.329507,1608.800546
3341.806192,-10436.903782,1554.432478,1532.190996
3341.806530,-10436.903782,592.164754,76.609550
3341.806867,-9252.574275,1258.350101,842.705048
3341.807205,-9400.615463,222.061783,1838.629195
3341.807543,-11991.336260,518.144159,842.705048
3341.807880,-11177.109724,444.123565,-1455.581446
3341.808218,-8142.265362,-148.041188,-1532.190996
3341.808556,-8734.430116,-370.102971,76.609550
3341.808893,-10584.944971,-740.205942,-1302.362347
3341.809231,-9474.636058,-296.082377,-2221.676944
3341.809568,-10066.800811,-1258.350101,-536.266849
3341.809906,-11325.150913,-1924.535449,536.266849
3341.810244,-11251.130318,-2146.597232,-1762.019645
3341.810581,-9770.718434,-1332.370696,-1302.362347
3341.810919,-8956.491898,-1850.514855,0.000000
3341.811257,-10362.883188,-2960.823768,0.000000
3341.811594,-10066.800811,-1110.308913,-459.657299
3341.811932,-9474.636058,-1628.453072,689.485948
3341.812269,-11325.150913,-1850.514855,2451.505594
3341.812607,-12657.521608,-1702.473667,1838.629195
3341.812945,-10732.986159,592.164754,842.705048
3341.813282,-9474.636058,296.082377,1838.629195
3341.813620,-9622.677246,888.247130,1378.971896
3341.813957,-10288.862594,666.185348,459.657299
3341.814295,-9178.553681,1332.370696,0.000000
3341.814633,-9548.656652,1480.411884,2451.505594
3341.814970,-11769.274478,1332.370696,2987.772442
3341.815308,-11103.089130,1480.411884,766.095498
3341.815646,-9252.574275,1998.556043,0.000000
3341.815983,-8808.450710,1628.453072,-229.828649
3341.816321,-9474.636058,1406.391290,-995.924147
3341.816658,-8216.285956,740.205942,-1915.238745
3341.816996,-7846.182985,444.123565,306.438199
3341.817334,-10510.924376,74.020594,1302.362347
3341.817671,-11843.295072,0.000000,-612.876398
3341.818009,-9770.718434,666.185348,-1685.410096
3341.818347,-9030.512492,-592.164754,153.219100
3341.818684,-9992.780217,-370.102971,842.705048
3341.819022,-9474.636058,74.020594,-766.095498
3341.819359,-9548.656652,-370.102971,1149.143247
3341.819697,-11029.068536,-1332.370696,2681.334243
3341.820035,-12213.398043,-1258.350101,1072.533697
3341.820372,-10362.883188,222.061783,-536.266849
3341.820710,-10140.821405,-370.102971,766.095498
3341.821047,-10436.903782,-962.267725,229.828649
3341.821385,-10066.800811,-370.102971,-2145.067394
3341.821723,-9326.594869,296.082377,-1378.971896
3341.822060,-9104.533087,-740.205942,229.828649
3341.822398,-11695.253884,-1702.473667,0.000000
3341.822736,-11325.150913,-1258.350101,-1685.410096
3341.823073,-8956.491898,-1036.288319,-1149.143247
3341.823411,-9474.636058,-814.226536,459.657299
3341.823748,-10584.944971,-1258.350101,0.000000
3341.824086,-9474.636058,-740.205942,-1072.533697
3341.824424,-9696.697840,-1702.473667,919.314598
3341.824761,-11251.130318,-1924.535449,1455.581446
3341.825099,-10510.924376,-1924.535449,-306.438199
3341.825436,-9400.615463,-1628.453072,-1072.533697
3341.825774,-8364.327145,-1110.308913,766.095498
3341.826112,-9696.697840,-1036.288319,612.876398
3341.826449,-9770.718434,0.000000,76.609550
3341.826787,-9474.636058,148.041188,1225.752797
3341.827125,-10288.862594,1110.308913,3600.648841
3341.827462,-12435.459826,1258.350101,2374.896044
3341.827800,-11029.068536,1776.494261,689.485948
3341.828137,-9178.553681,1480.411884,1685.410096
3341.828475,-9548.656652,1776.494261,2604.724693
3341.828813,-10066.800811,1924.535449,536.266849
3341.829150,-8734.430116,1850.514855,-459.657299
3341.829488,-9622.677246,1184.329507,1838.629195
3341.829826,-11843.295072,370.102971,689.485948
3341.830163,-11177.109724,1554.432478,-1991.848295
3341.830501,-8956.491898,1702.473667,-1532.190996
3341.830838,-8660.409521,-1036.288319,-689.485948
3341.831176,-9918.759623,-1184.329507,-1608.800546
3341.831514,-8808.450710,-1110.308913,-2374.896044
3341.831851,-8142.265362,-1554.432478,459.657299
3341.832189,-9770.718434,-2368.659014,1378.971896
3341.832526,-11695.253884,-1850.514855,-536.266849
3341.832864,-10288.862594,-592.164754,-2145.067394
3341.833202,-9030.512492,-1258.350101,-536.266849
3341.833539,-10881.027347,-1776.494261,0.000000
3341.833877,-10066.800811,-2442.679609,-766.095498
3341.834215,-8734.430116,-814.226536,383.047749
3341.834552,-10214.842000,-962.267725,2681.334243
3341.834890,-13027.624579,-1184.329507,1532.190996
3341.835227,-10955.047942,-296.082377,-612.876398
3341.835565,-9622.677246,-740.205942,689.485948
3341.835903,-10066.800811,0.000000,1915.238745
3341.836240,-10881.027347,-370.102971,766.095498
3341.836578,-9548.656652,740.205942,-229.828649
3341.836916,-9178.553681,1184.329507,1225.752797
3341.837253,-12435.459826,222.061783,536.266849
3341.837590,-12361.439231,444.123565,-2221.676944
3341.837928,-9474.636058,666.185348,-2451.505594
3341.838265,-8660.409521,444.123565,-459.657299
3341.838602,-9770.718434,-592.164754,-1302.362347
3341.838940,-8586.388927,444.123565,-2221.676944
3341.839277,-8068.244768,222.061783,229.828649
3341.839614,-9844.739029,-518.144159,2451.505594
3341.839952,-11399.171507,-518.144159,689.485948
3341.840289,-9918.759623,740.205942,76.609550
3341.840626,-8734.430116,962.267725,2145.067394
3341.840964,-9992.780217,148.041188,2068.457845
3341.841301,-9770.718434,1110.308913,1149.143247
3341.841638,-9252.574275,1554.432478,1378.971896
3341.841976,-9844.739029,814.226536,2451.505594
3341.842313,-12287.418637,296.082377,1225.752797
3341.842650,-10732.986159,888.247130,-1225.752797
3341.842988,-7920.203579,1850.514855,-919.314598
3341.843325,-9104.533087,666.185348,76.609550
3341.843663,-10436.903782,666.185348,-1455.581446
3341.844000,-9326.594869,0.000000,-2374.896044
3341.844337,-9548.656652,-148.041188,536.266849
3341.844675,-11177.109724,0.000000,1149.143247
3341.845012,-12435.459826,-444.123565,-1455.581446
3341.845349,-10436.903782,-444.123565,-2374.896044
3341.845687,-9474.636058,-1554.432478,-1378.971896
3341.846024,-11029.068536,-2442.679609,0.000000
3341.846361,-10140.821405,-1480.411884,-1838.629195
3341.846699,-9474.636058,-1924.535449,-383.047749
3341.847036,-11547.212695,-1628.453072,1149.143247
3341.847373,-12213.398043,-2294.638420,-612.876398
3341.847711,-9104.533087,-1554.432478,-1149.143247
3341.848048,-7772.162391,-2146.597232,1838.629195
3341.848385,-9696.697840,-1480.411884,2528.115143
3341.848723,-10732.986159,-666.185348,842.705048
3341.849060,-9474.636058,518.144159,1455.581446
3341.849397,-9696.697840,-888.247130,4136.915689
3341.849735,-11399.171507,-1036.288319,3140.991542
3341.850072,-11029.068536,1184.329507,842.705048
3341.850409,-9326.594869,962.267725,689.485948
3341.850747,-8808.450710,962.267725,1455.581446
3341.851084,-9252.574275,592.164754,-612.876398
3341.851422,-9252.574275,1480.411884,-1532.190996
3341.851759,-8660.409521,1184.329507,-306.438199
3341.852096,-11325.150913,0.000000,0.000000
3341.852434,-11103.089130,518.144159,-1685.410096
3341.852771,-8808.450710,222.061783,-2145.067394
3341.853108,-9252.574275,148.041188,1532.190996
3341.853446,-11473.192101,-1110.308913,1455.581446
3341.853783,-10584.944971,-222.061783,-766.095498
3341.854120,-9548.656652,-740.205942,1532.190996
3341.854458,-10658.965565,-1480.411884,3524.039291
3341.854795,-11621.233289,-1554.432478,842.705048
3341.855132,-9474.636058,-1406.391290,-1225.752797
3341.855470,-8734.430116,-814.226536,995.924147
3341.855807,-10140.821405,-666.185348,1225.752797
3341.856144,-11029.068536,-888.247130,-612.876398
3341.856482,-9548.656652,0.000000,-766.095498
3341.856819,-9696.697840,-740.205942,1378.971896
3341.857156,-11399.171507,-740.205942,1149.143247
3341.857494,-10436.903782,-518.144159,-1915.238745
3341.857831,-8586.388927,-962.267725,-995.924147
3341.858168,-9474.636058,-1776.494261,459.657299
3341.858506,-10214.842000,-1776.494261,-1149.143247
3341.858843,-10140.821405,-592.164754,-1838.629195
3341.859181,-10140.821405,-1554.432478,383.047749
3341.859518,-11177.109724,-1480.411884,459.657299
3341.859855,-11843.295072,-1924.535449,-766.095498
3341.860193,-9844.739029,-592.164754,-766.095498
3341.860530,-9104.533087,-1036.288319,919.314598
3341.860867,-10658.965565,-962.267725,0.000000
3341.861205,-10066.800811,-370.102971,-995.924147
3341.861542,-9474.636058,-592.164754,1149.143247
3341.861879,-10584.944971,-518.144159,3140.991542
3341.862217,-11991.336260,-592.164754,2528.115143
3341.862554,-10288.862594,814.226536,842.705048
3341.862891,-8586.388927,1406.391290,1302.362347
3341.863229,-9548.656652,1258.350101,2451.505594
3341.863566,-10214.842000,1110.308913,919.314598
3341.863903,-8068.244768,1332.370696,1608.800546
3341.864241,-9400.615463,2220.617826,2451.505594
3341.864578,-11325.150913,1702.473667,536.266849
3341.864915,-10732.986159,1776.494261,-1378.971896
3341.865253,-9178.553681,1184.329507,-842.705048
3341.865590,-8216.285956,1110.308913,-536.266849
3341.865927,-9252.574275,518.144159,-995.924147
3341.866265,-9474.636058,74.020594,-1762.019645
3341.866602,-9252.574275,-740.205942,-689.485948
3341.866940,-11621.233289,-1110.308913,0.000000
3341.867277,-10658.965565,-1110.308913,-2451.505594
3341.867614,-9030.512492,-962.267725,-2528.115143
3341.867952,-9030.512492,-1480.411884,229.828649
3341.868289,-10140.821405,-1924.535449,-229.828649
3341.868626,-9770.718434,-1406.391290,-459.657299
3341.868964,-10732.986159,-1702.473667,1225.752797
3341.869301,-12879.583391,-1850.514855,3064.381992
3341.869638,-13027.624579,-888.247130,1455.581446
3341.869976,-10658.965565,-518.144159,-842.705048
3341.870313,-8734.430116,-370.102971,0.000000
3341.870650,-9696.697840,-1332.370696,689.485948
3341.870988,-10510.924376,-1036.288319,0.000000
3341.871325,-10140.821405,-740.205942,0.000000
3341.871662,-10066.800811,0.000000,1455.581446
3341.872000,-11547.212695,-814.226536,1532.190996
3341.872337,-11547.212695,-296.082377,0.000000
3341.872674,-8734.430116,0.000000,306.438199
3341.873012,-8956.491898,0.000000,1072.533697
3341.873349,-10436.903782,-962.267725,919.314598
3341.873686,-9104.533087,444.123565,-306.438199
3341.874024,-9622.677246,-962.267725,1991.848295
3341.874361,-10955.047942,-74.020594,1915.238745
3341.874699,-10658.965565,-592.164754,-612.876398
3341.875036,-8734.430116,-370.102971,-995.924147
3341.875373,-7179.997637,-444.123565,306.438199
3341.875711,-8438.347739,0.000000,612.876398
3341.876048,-9992.780217,148.041188,229.828649
3341.876385,-8660.409521,-518.144159,612.876398
3341.876723,-10732.986159,0.000000,2987.772442
3341.877060,-11473.192101,222.061783,2068.457845
3341.877397,-9844.739029,1628.453072,459.657299
3341.877735,-9770.718434,296.082377,1685.410096
3341.878072,-11251.130318,148.041188,2374.896044
3341.878409,-11103.089130,74.020594,383.047749
3341.878747,-10362.883188,148.041188,-383.047749
3341.879084,-9844.739029,-740.205942,919.314598
3341.879421,-11251.130318,-1776.494261,-306.438199
3341.879759,-10955.047942,-592.164754,-1838.629195
3341.880096,-8586.388927,-814.226536,-2834.553343
3341.880433,-8512.368333,-444.123565,-2145.067394
3341.880771,-11103.089130,-1924.535449,-2068.457845
3341.881108,-10807.006753,-1258.350101,-2681.334243
3341.881445,-9474.636058,-2368.659014,-842.705048
3341.881783,-10362.883188,-2516.700203,1838.629195
3341.882120,-11325.150913,-3330.926739,306.438199
3341.882458,-9844.739029,-2072.576638,-612.876398
3341.882795,-9252.574275,-1258.350101,306.438199
3341.883132,-10584.944971,-2738.761985,689.485948
3341.883470,-9696.697840,-1924.535449,-153.219100
3341.883807,-8586.388927,-962.267725,1532.190996
3341.884144,-9622.677246,0.000000,3677.258390
3341.884482,-11177.109724,-370.102971,1455.581446
3341.884819,-11177.109724,1628.453072,-1302.362347
3341.885156,-9178.553681,1998.556043,-229.828649
3341.885494,-9400.615463,1998.556043,766.095498
3341.885831,-10362.883188,1110.308913,1149.143247
3341.886168,-10066.800811,1628.453072,306.438199
3341.886506,-9030.512492,666.185348,2834.553343
3341.886843,-11547.212695,814.226536,1915.238745
3341.887180,-11177.109724,814.226536,-1072.533697
3341.887518,-9030.512492,888.247130,-1762.019645
3341.887855,-8216.285956,592.164754,-153.219100
3341.888192,-9400.615463,0.000000,-842.705048
3341.888530,-9400.615463,1110.308913,-1608.800546
3341.888867,-8956.491898,0.000000,0.000000
3341.889204,-10214.842000,-962.267725,995.924147
3341.889542,-11769.274478,-1184.329507,383.047749
3341.889879,-9992.780217,222.061783,-153.219100
3341.890217,-8512.368333,-1184.329507,1225.752797
3341.890554,-9844.739029,-1850.514855,2374.896044
3341.890891,-10436.903782,-1184.329507,689.485948
3341.891229,-9474.636058,-814.226536,536.266849
3341.891566,-10584.944971,-518.144159,2451.505594
3341.891903,-12435.459826,-1850.514855,1532.190996
3341.892241,-11177.109724,444.123565,-1302.362347
3341.892578,-8438.347739,592.164754,-1762.019645
3341.892915,-9104.533087,518.144159,-1072.533697
3341.893253,-10658.965565,-1480.411884,-1685.410096
3341.893590,-10066.800811,-1184.329507,-1838.629195
3341.893927,-9030.512492,-1776.494261,1149.143247
3341.894265,-11399.171507,-1332.370696,1532.190996
3341.894602,-12361.439231,-814.226536,-1532.190996
3341.894939,-11029.068536,0.000000,-2604.724693
3341.895277,-8956.491898,-740.205942,-536.266849
3341.895614,-10140.821405,-1628.453072,0.000000
3341.895951,-9548.656652,-1258.350101,0.000000
3341.896289,-9252.574275,-1184.329507,1302.362347
3341.896626,-10955.047942,-1036.288319,2528.115143
3341.896963,-12065.356855,-666.185348,383.047749
3341.897301,-10288.862594,740.205942,-919.314598
3341.897638,-8660.409521,0.000000,1302.362347
3341.897976,-10066.800811,962.267725,2298.286494
3341.898313,-9474.636058,814.226536,995.924147
3341.898650,-8586.388927,1554.432478,1532.190996
3341.898988,-8882.471304,666.185348,3140.991542
3341.899325,-11547.212695,740.205942,2681.334243
3341.899662,-11251.130318,2294.638420,-76.609550
3341.900000,-8364.327145,2072.576638,-919.314598
3341.900337,-8808.450710,1628.453072,612.876398
3341.900674,-9548.656652,444.123565,-229.828649
3341.901012,-8586.388927,666.185348,-1915.238745
3341.901349,-9770.718434,0.000000,995.924147
3341.901686,-10881.027347,-740.205942,995.924147
3341.902024,-11325.150913,-1110.308913,-1915.238745
3341.902361,-9474.636058,-740.205942,-2681.334243
3341.902698,-8586.388927,-1184.329507,-689.485948
3341.903036,-9474.636058,-2442.679609,153.219100
3341.903373,-9548.656652,-2368.659014,0.000000
3341.903710,-9400.615463,-2072.576638,1991.848295
3341.904048,-11991.336260,-1480.411884,2757.943793
3341.904385,-13989.892304,-2812.782580,689.485948
3341.904722,-11547.212695,-1480.411884,-842.705048
3341.905060,-8142.265362,-1406.391290,459.657299
3341.905397,-9030.512492,-962.267725,1915.238745
3341.905735,-9770.718434,-1332.370696,76.609550
3341.906072,-9400.615463,-1332.370696,-536.266849
3341.906409,-10214.842000,-1480.411884,2374.896044
3341.906747,-13027.624579,-1406.391290,1455.581446
3341.907084,-11547.212695,444.123565,-612.876398
3341.907421,-9030.512492,0.000000,-766.095498
3341.907759,-7846.182985,-518.144159,766.095498
3341.908096,-8438.347739,-1110.308913,76.609550
3341.908433,-8808.450710,74.020594,-76.609550
3341.908771,-9326.594869,-740.205942,919.314598
3341.909108,-11843.295072,-962.267725,766.095498
3341.909445,-12879.583391,148.041188,-995.924147
3341.909783,-9992.780217,296.082377,-1915.238745
3341.910120,-8512.368333,1480.411884,76.609550
3341.910457,-9030.512492,0.000000,689.485948
3341.910795,-9252.574275,222.061783,229.828649
3341.911132,-9622.677246,814.226536,2145.067394
3341.911469,-11399.171507,296.082377,3907.087040
3341.911807,-12731.542202,518.144159,1991.848295
3341.912144,-10881.027347,1850.514855,-919.314598
3341.912481,-8660.409521,2442.679609,1149.143247
3341.912819,-8956.491898,1406.391290,1455.581446
3341.913156,-9770.718434,1258.350101,229.828649
3341.913494,-10362.883188,1998.556043,0.000000
3341.913831,-10510.924376,740.205942,1302.362347
3341.914168,-11621.233289,0.000000,-459.657299
3341.914506,-10066.800811,-592.164754,-2604.724693
3341.914843,-7994.224174,-296.082377,-1915.238745
3341.915180,-7105.977043,-1036.288319,-383.047749
3341.915518,-9178.553681,-1924.535449,-1072.533697
3341.915855,-9696.697840,-666.185348,-2451.505594
3341.916192,-9918.759623,-1998.556043,-1532.190996
3341.916530,-11325.150913,-2960.823768,76.609550
3341.916867,-12287.418637,-2590.720797,-1225.752797
3341.917204,-10066.800811,-2146.597232,-1532.190996
3341.917542,-8808.450710,-2442.679609,0.000000
3341.917879,-9178.553681,-2220.617826,0.000000
3341.918216,-10510.924376,-1332.370696,-1225.752797
3341.918554,-11399.171507,-1406.391290,919.314598
3341.918891,-11991.336260,-1184.329507,2451.505594
3341.919228,-12657.521608,-1036.288319,2374.896044
3341.919566,-10807.006753,814.226536,1072.533697
3341.919903,-8882.471304,370.102971,766.095498
3341.920240,-10510.924376,1110.308913,1838.629195
3341.920578,-10658.965565,1258.350101,919.314598
3341.920915,-9252.574275,1850.514855,229.828649
3341.921253,-10362.883188,1554.432478,3064.381992
3341.921590,-11843.295072,518.144159,2681.334243
3341.921927,-10140.821405,1184.329507,306.438199
3341.922265,-9030.512492,2146.597232,306.438199
3341.922602,-8438.347739,1776.494261,1302.362347
3341.922939,-8586.388927,1406.391290,-842.705048
3341.923277,-8142.265362,814.226536,-1225.752797
3341.923614,-7846.182985,370.102971,153.219100
3341.923951,-9844.739029,-518.144159,1762.019645
3341.924289,-10658.965565,0.000000,459.657299
3341.924626,-8956.491898,740.205942,-919.314598
3341.924963,-7772.162391,962.267725,153.219100
3341.925301,-8882.471304,222.061783,153.219100
3341.925638,-10584.944971,-148.041188,0.000000
3341.925975,-10658.965565,0.000000,1838.629195
3341.926313,-10807.006753,-666.185348,2604.724693
3341.926650,-11325.150913,-518.144159,1991.848295
3341.926987,-10510.924376,888.247130,0.000000
3341.927325,-10066.800811,0.000000,459.657299
3341.927662,-11029.068536,-148.041188,0.000000
3341.927999,-10732.986159,-370.102971,-1225.752797
3341.928337,-9770.718434,74.020594,-612.876398
3341.928674,-10732.986159,-1406.391290,842.705048
3341.929012,-11251.130318,-1184.329507,-229.828649
3341.929349,-11029.068536,-1480.411884,-2604.724693
3341.929686,-9770.718434,-518.144159,-3064.381992
3341.930024,-9474.636058,-1258.350101,-2451.505594
3341.930361,-10658.965565,-2442.679609,-1762.019645
3341.930698,-8438.347739,-1924.535449,-1455.581446
3341.931036,-8512.368333,-2960.823768,153.219100
3341.931373,-10955.047942,-2294.638420,2987.772442
3341.931710,-10955.047942,-2960.823768,1072.533697
3341.932048,-10140.821405,-1702.473667,153.219100
3341.932385,-9474.636058,-1406.391290,2221.676944
3341.932722,-9622.677246,-1406.391290,1915.238745
3341.933060,-9474.636058,0.000000,1455.581446
3341.933397,-8808.450710,74.020594,1915.238745
3341.933734,-9326.594869,1036.288319,2911.162892
3341.934072,-11399.171507,0.000000,1378.971896
3341.934409,-10807.006753,1480.411884,919.314598
3341.934746,-9178.553681,1480.411884,1302.362347
3341.935084,-9548.656652,2590.720797,1838.629195
3341.935421,-10436.903782,2516.700203,689.485948
3341.935758,-9770.718434,2442.679609,76.609550
3341.936096,-9474.636058,1480.411884,1915.238745
3341.936433,-11325.150913,296.082377,2145.067394
3341.936771,-11695.253884,444.123565,919.314598
3341.937108,-10214.842000,370.102971,-1072.533697
3341.937445,-9474.636058,888.247130,-1532.190996
3341.937783,-9474.636058,0.000000,-2528.115143
3341.938120,-9252.574275,-592.164754,-2757.943793
3341.938457,-8438.347739,-962.267725,-995.924147
3341.938795,-9548.656652,-2220.617826,153.219100
3341.939132,-11769.274478,-2294.638420,229.828649
3341.939469,-10436.903782,-1850.514855,-1378.971896
3341.939807,-8734.430116,-1850.514855,229.828649
3341.940144,-9548.656652,-1332.370696,2068.457845
3341.940481,-9770.718434,-1702.473667,612.876398
3341.940818,-9548.656652,-888.247130,1302.362347
3341.941156,-10066.800811,-1776.494261,2374.896044
3341.941493,-11769.274478,-1850.514855,1762.019645
3341.941830,-11103.089130,-1628.453072,0.000000
3341.942168,-9326.594869,-148.041188,76.609550
3341.942505,-9548.656652,444.123565,689.485948
3341.942842,-10807.006753,888.247130,-1378.971896
3341.943180,-9030.512492,1184.329507,-2221.676944
3341.943517,-9400.615463,444.123565,-612.876398
3341.943854,-10955.047942,-666.185348,459.657299
3341.944192,-11917.315666,0.000000,-1378.971896
3341.944529,-10214.842000,666.185348,-1838.629195
3341.944866,-9104.533087,518.144159,0.000000
3341.945204,-10436.903782,148.041188,689.485948
3341.945541,-10584.944971,1258.350101,0.000000
3341.945878,-10066.800811,592.164754,1685.410096
3341.946216,-10658.965565,592.164754,3600.648841
3341.946553,-10807.006753,-444.123565,1149.143247
3341.946890,-10658.965565,518.144159,383.047749
3341.947228,-8808.450710,962.267725,1302.362347
3341.947565,-8660.409521,222.061783,1915.238745
3341.947902,-9326.594869,2146.597232,766.095498
3341.948240,-7994.224174,1850.514855,229.828649
3341.948577,-9548.656652,1850.514855,2911.162892
3341.948914,-12213.398043,148.041188,1991.848295
3341.949251,-11325.150913,888.247130,-306.438199
3341.949589,-8290.306550,888.247130,-612.876398
3341.949926,-8068.244768,74.020594,536.266849
3341.950263,-9252.574275,222.061783,-76.609550
3341.950601,-9770.718434,-1036.288319,-1302.362347
3341.950938,-9326.594869,-296.082377,0.000000
3341.951275,-11177.109724,-1924.535449,76.609550
3341.951613,-12213.398043,-1332.370696,-1685.410096
3341.951950,-9696.697840,-888.247130,-3140.991542
3341.952287,-9548.656652,-1332.370696,-842.705048
3341.952625,-10140.821405,-2072.576638,-306.438199
3341.952962,-10066.800811,-2146.597232,-1838.629195
3341.953299,-9844.739029,-1998.556043,536.266849
3341.953637,-10732.986159,-1628.453072,1302.362347
3341.953974,-13471.748144,-2812.782580,1455.581446
3341.954311,-12139.377449,-814.226536,0.000000
3341.954649,-9104.533087,-814.226536,919.314598
3341.954986,-9622.677246,-518.144159,2604.724693
3341.955323,-9474.636058,-518.144159,459.657299
3341.955661,-8956.491898,74.020594,153.219100
3341.955998,-10732.986159,-370.102971,3217.601092
3341.956335,-11621.233289,-814.226536,1838.629195
3341.956673,-10214.842000,-296.082377,-612.876398
3341.957010,-7772.162391,0.000000,0.000000
3341.957347,-6587.832884,296.082377,1302.362347
3341.957685,-8956.491898,-740.205942,229.828649
3341.958022,-8808.450710,1406.391290,-1455.581446
3341.958359,-8734.430116,444.123565,-689.485948
3341.958696,-11177.109724,-666.185348,1225.752797
3341.959034,-11473.192101,0.000000,-306.438199
3341.959371,-9400.615463,444.123565,-919.314598
3341.959708,-8068.244768,1036.288319,842.705048
3341.960046,-10140.821405,-592.164754,1532.190996
3341.960383,-10807.006753,740.205942,0.000000
3341.960720,-10288.862594,-444.123565,612.876398
3341.961058,-11991.336260,222.061783,2298.286494
3341.961395,-12805.562797,-666.185348,1455.581446
3341.961732,-11177.109724,370.102971,0.000000
3341.962070,-7624.121203,814.226536,919.314598
3341.962407,-9030.512492,0.000000,2451.505594
3341.962744,-11621.233289,666.185348,689.485948
3341.963082,-10881.027347,0.000000,-1225.752797
3341.963419,-10214.842000,-814.226536,153.219100
3341.963756,-10807.006753,-740.205942,0.000000
3341.964094,-10436.903782,-1480.411884,-2068.457845
3341.964431,-7624.121203,-1110.308913,-2298.286494
3341.964768,-7698.141797,-1924.535449,-153.219100
3341.965106,-9400.615463,-1850.514855,-689.485948
3341.965443,-9474.636058,-1036.288319,-3294.210641
3341.965780,-9178.553681,-1628.453072,-1225.752797
3341.966118,-11695.253884,-2738.761985,383.047749
3341.966455,-11325.150913,-2442.679609,-1532.190996
3341.966792,-9770.718434,-592.164754,-1072.533697
3341.967129,-8734.430116,-962.267725,459.657299
3341.967467,-9548.656652,-888.247130,919.314598
3341.967804,-11177.109724,-592.164754,0.000000
3341.968141,-10584.944971,-148.041188,1225.752797
3341.968479,-11843.295072,370.102971,3753.867940
3341.968816,-12583.501014,148.041188,2298.286494
3341.969153,-10362.883188,1480.411884,0.000000
3341.969491,-9474.636058,1702.473667,919.314598
3341.969828,-9548.656652,2146.597232,2987.772442
3341.970165,-10140.821405,2812.782580,612.876398
3341.970503,-9474.636058,3404.947333,766.095498
3341.970840,-10362.883188,2812.782580,1685.410096
3341.971177,-11917.315666,1480.411884,1838.629195
3341.971515,-11103.089130,1628.453072,0.000000
3341.971852,-8364.327145,1110.308913,0.000000
3341.972189,-7624.121203,1036.288319,919.314598
3341.972527,-8216.285956,444.123565,-306.438199
3341.972864,-9030.512492,666.185348,-2221.676944
3341.973201,-9326.594869,-1110.308913,-459.657299
3341.973539,-10066.800811,-962.267725,536.266849
3341.973876,-10584.944971,-1184.329507,0.000000
3341.974213,-9400.615463,-444.123565,-689.485948
3341.974551,-7550.100608,-962.267725,76.609550
3341.974888,-10140.821405,-1480.411884,1991.848295
3341.975225,-11029.068536,-962.267725,612.876398
3341.975563,-10066.800811,-1110.308913,306.438199
3341.975900,-11251.130318,-1332.370696,2757.943793
3341.976237,-11991.336260,-962.267725,612.876398
3341.976574,-11399.171507,-1258.350101,-612.876398
3341.976912,-10214.842000,-296.082377,0.000000
3341.977249,-8734.430116,-296.082377,536.266849
3341.977586,-11029.068536,-592.164754,306.438199
3341.977924,-11103.089130,444.123565,-689.485948
3341.978261,-10288.862594,0.000000,-76.609550
3341.978598,-12509.480420,-888.247130,383.047749
3341.978936,-11843.295072,-1406.391290,-1302.362347
3341.979273,-8586.388927,-814.226536,-1302.362347
3341.979610,-8808.450710,-592.164754,689.485948
3341.979948,-9844.739029,-1480.411884,153.219100
3341.980285,-9992.780217,-1036.288319,-536.266849
3341.980622,-10066.800811,-1258.350101,612.876398
3341.980960,-10066.800811,-1628.453072,995.924147
3341.981297,-11177.109724,-1554.432478,612.876398
3341.981634,-9178.553681,-740.205942,-459.657299
3341.981972,-7179.997637,-444.123565,1149.143247
3341.982309,-8586.388927,-148.041188,2145.067394
3341.982646,-9474.636058,444.123565,1225.752797
3341.982984,-10436.903782,740.205942,2145.067394
3341.983321,-10881.027347,592.164754,2221.676944
3341.983658,-11621.233289,222.061783,1838.629195
3341.983996,-9622.677246,1406.391290,0.000000
3341.984333,-7698.141797,666.185348,0.000000
3341.984670,-8808.450710,1406.391290,1149.143247
3341.985007,-10881.027347,444.123565,0.000000
3341.985345,-10214.842000,1110.308913,-1532.190996
3341.985682,-10214.842000,0.000000,76.609550
3341.986019,-11399.171507,-1406.391290,306.438199
3341.986357,-10881.027347,-962.267725,-1532.190996
3341.986694,-10362.883188,-814.226536,-1608.800546
3341.987031,-8734.430116,-666.185348,-1072.533697
3341.987369,-9992.780217,-2294.638420,-1378.971896
3341.987706,-10955.047942,-2220.617826,-1302.362347
3341.988043,-9622.677246,-2738.761985,-842.705048
3341.988381,-11399.171507,-2590.720797,1149.143247
3341.988718,-11547.212695,-2812.782580,-536.266849
3341.989055,-9400.615463,-2294.638420,-1302.362347
3341.989393,-9400.615463,-1776.494261,766.095498
3341.989730,-9548.656652,-1776.494261,1532.190996
3341.990067,-10584.944971,-814.226536,612.876398
3341.990405,-10140.821405,-222.061783,689.485948
3341.990742,-10807.006753,-666.185348,3064.381992
3341.991079,-11621.233289,-74.020594,1762.019645
3341.991417,-10510.924376,814.226536,-229.828649
3341.991754,-8142.265362,1776.494261,-153.219100
3341.992091,-9252.574275,1184.329507,689.485948
3341.992429,-10881.027347,1480.411884,-459.657299
3341.992766,-9770.718434,1776.494261,-1838.629195
3341.993103,-9326.594869,888.247130,-229.828649
3341.993441,-10510.924376,666.185348,689.485948
3341.993778,-10658.965565,1480.411884,0.000000
3341.994115,-9474.636058,1628.453072,-1838.629195
3341.994452,-8290.306550,1184.329507,-689.485948
3341.994790,-9474.636058,814.226536,0.000000
3341.995127,-9770.718434,1332.370696,0.000000
3341.995464,-9622.677246,296.082377,842.705048
3341.995802,-10732.986159,74.020594,3217.601092
3341.996139,-11547.212695,-296.082377,1608.800546
3341.996476,-10436.903782,666.185348,1072.533697
3341.996814,-9030.512492,592.164754,1608.800546
3341.997151,-8956.491898,296.082377,1455.581446
3341.997488,-9770.718434,148.041188,0.000000
3341.997826,-9400.615463,296.082377,-536.266849
3341.998163,-9696.697840,-74.020594,1838.629195
3341.998500,-11251.130318,-518.144159,2145.067394
3341.998838,-10510.924376,444.123565,-459.657299
3341.999175,-9474.636058,592.164754,-766.095498
3341.999512,-10362.883188,0.000000,306.438199
3341.999850,-10288.862594,-1628.453072,-919.314598
3342.000187,-9770.718434,-1258.350101,-919.314598
3342.000524,-9474.636058,-1998.556043,153.219100
3342.000862,-10658.965565,-2960.823768,-383.047749
3342.001199,-11103.089130,-2590.720797,-1608.800546
3342.001536,-10066.800811,-2294.638420,-1915.238745
3342.001874,-9474.636058,-2516.700203,-229.828649
3342.002211,-9770.718434,-1924.535449,0.000000
3342.002548,-10288.862594,-1258.350101,-766.095498
3342.002885,-9474.636058,-1850.514855,0.000000
3342.003223,-10436.903782,-2294.638420,2528.115143
3342.003560,-11991.336260,-1628.453072,2604.724693
3342.003897,-11103.089130,-962.267725,1302.362347
3342.004235,-9474.636058,296.082377,1455.581446
3342.004572,-9844.739029,222.061783,1608.800546
3342.004909,-10436.903782,518.144159,689.485948
3342.005247,-9770.718434,962.267725,766.095498
3342.005584,-10140.821405,444.123565,2068.457845
3342.005921,-11103.089130,518.144159,1149.143247
3342.006259,-10584.944971,1776.494261,-1532.190996
3342.006596,-7994.224174,1036.288319,-1915.238745
3342.006933,-8290.306550,1258.350101,536.266849
3342.007271,-9252.574275,592.164754,76.609550
3342.007608,-9696.697840,1110.308913,-1225.752797
3342.007945,-9548.656652,518.144159,-383.047749
3342.008283,-11103.089130,-1480.411884,76.609550
3342.008620,-11029.068536,-1998.556043,-995.924147
3342.008957,-8586.388927,-666.185348,-1149.143247
3342.009295,-7698.141797,-1258.350101,689.485948
3342.009632,-9252.574275,-1776.494261,842.705048
3342.009969,-9992.780217,-2590.720797,-766.095498
3342.010307,-9918.759623,-2368.659014,919.314598
3342.010644,-11029.068536,-1998.556043,3447.429741
3342.010981,-12509.480420,-1776.494261,2451.505594
3342.011319,-11843.295072,-962.267725,229.828649
3342.011656,-9252.574275,-518.144159,-536.266849
3342.011993,-9474.636058,0.000000,1149.143247
3342.012330,-11029.068536,-666.185348,229.828649
3342.012668,-10066.800811,-518.144159,0.000000
3342.013005,-10362.883188,-296.082377,1378.971896
3342.013342,-12583.501014,-518.144159,1685.410096
3342.013680,-11917.315666,0.000000,-1225.752797
3342.014017,-8808.450710,0.000000,-2221.676944
3342.014354,-8216.285956,-74.020594,229.828649
3342.014692,-9844.739029,-296.082377,-536.266849
3342.015029,-9844.739029,74.020594,-1762.019645
3342.015366,-9474.636058,-1332.370696,-229.828649
3342.015704,-10881.027347,-1184.329507,1455.581446
3342.016041,-11547.212695,-444.123565,-536.266849
3342.016378,-9992.780217,1110.308913,-1532.190996
3342.016716,-7624.121203,370.102971,0.000000
3342.017053,-8290.306550,222.061783,229.828649
3342.017390,-9696.697840,222.061783,-306.438199
3342.017728,-9252.574275,1036.288319,536.266849
3342.018065,-10140.821405,1554.432478,3677.258390
3342.018402,-11695.253884,1184.329507,2451.505594
3342.018740,-10658.965565,2516.700203,153.219100
3342.019077,-9178.553681,2960.823768,842.705048
3342.019414,-9326.594869,2220.617826,1762.019645
3342.019752,-10288.862594,1628.453072,612.876398
3342.020089,-9918.759623,1998.556043,0.000000
3342.020426,-9178.553681,1406.391290,1378.971896
3342.020763,-11547.212695,148.041188,1608.800546
3342.021101,-11769.274478,888.247130,-1225.752797
3342.021438,-9474.636058,666.185348,-1991.848295
3342.021775,-8290.306550,0.000000,-459.657299
3342.022113,-9622.677246,-592.164754,-1225.752797
3342.022450,-9696.697840,-1332.370696,-1915.238745
3342.022787,-9326.594869,-1924.535449,0.000000
3342.023125,-9844.739029,-3108.864956,1915.238745
3342.023462,-11991.336260,-2738.761985,1225.752797
3342.023799,-10214.842000,-1924.535449,-689.485948
3342.024137,-9474.636058,-2294.638420,0.000000
3342.024474,-10140.821405,-2664.741391,612.876398
3342.024811,-10658.965565,-2146.597232,-612.876398
3342.025149,-10066.800811,-1850.514855,536.266849
3342.025486,-10288.862594,-2072.576638,2374.896044
3342.025823,-11695.253884,-2368.659014,3217.601092
3342.026161,-11991.336260,-888.247130,1302.362347
3342.026498,-8586.388927,-222.061783,-383.047749
3342.026835,-9548.656652,0.000000,1072.533697
3342.027173,-11325.150913,-592.164754,306.438199
3342.027510,-9474.636058,592.164754,-1225.752797
3342.027847,-9400.615463,888.247130,766.095498
3342.028185,-11621.233289,-592.164754,1532.190996
3342.028522,-11547.212695,-148.041188,-766.095498
3342.028859,-9178.553681,148.041188,-2681.334243
3342.029197,-7846.182985,592.164754,-459.657299
3342.029534,-9104.533087,-666.185348,-919.314598
3342.029871,-9252.574275,-370.102971,-995.924147
3342.030208,-8364.327145,0.000000,459.657299
3342.030546,-10140.821405,-888.247130,3064.381992
3342.030883,-12509.480420,148.041188,1838.629195
3342.031220,-11177.109724,370.102971,-383.047749
3342.031558,-9252.574275,888.247130,-229.828649
3342.031895,-8734.430116,74.020594,0.000000
3342.032232,-9474.636058,740.205942,-919.314598
3342.032570,-8364.327145,74.020594,-536.266849
3342.032907,-8956.491898,-592.164754,1762.019645
3342.033244,-11473.192101,-1184.329507,2221.676944
3342.033582,-11547.212695,740.205942,0.000000
3342.033919,-9548.656652,444.123565,842.705048
3342.034256,-9992.780217,444.123565,1762.019645
3342.034594,-9548.656652,222.061783,76.609550
3342.034931,-10214.842000,518.144159,0.000000
3342.035268,-9104.533087,-370.102971,1149.143247
3342.035606,-11325.150913,-2072.576638,1991.848295
3342.035943,-12953.603985,-1628.453072,-383.047749
3342.036280,-9548.656652,-444.123565,-3064.381992
3342.036618,-8364.327145,-1184.329507,-1532.190996
3342.036955,-9622.677246,-1406.391290,-612.876398
3342.037292,-9622.677246,-1332.370696,-2374.896044
3342.037630,-9104.533087,-1628.453072,-1532.190996
3342.037967,-10436.903782,-1702.473667,1225.752797
3342.038304,-11547.212695,-2368.659014,383.047749
3342.038641,-10288.862594,-814.226536,-689.485948
3342.038979,-8216.285956,-666.185348,0.000000
3342.039316,-9474.636058,0.000000,1838.629195
3342.039653,-10807.006753,0.000000,1302.362347
3342.039991,-10066.800811,148.041188,1378.971896
3342.040328,-9622.677246,814.226536,2911.162892
3342.040665,-11991.336260,296.082377,3600.648841
3342.041003,-11769.274478,1702.473667,0.000000
3342.041340,-8660.409521,888.247130,-1915.238745
3342.041677,-8364.327145,2220.617826,459.657299
3342.042015,-8956.491898,1332.370696,-1225.752797
3342.042352,-8882.471304,1998.556043,-2145.067394
3342.042689,-9696.697840,1554.432478,-459.657299
3342.043027,-11325.150913,666.185348,536.266849
3342.043364,-12065.356855,370.102971,-153.219100
3342.043701,-9622.677246,1850.514855,-1378.971896
3342.044039,-9400.615463,0.000000,459.657299
3342.044376,-10140.821405,-1110.308913,153.219100
3342.044713,-8956.491898,-444.123565,-1149.143247
3342.045051,-8882.471304,-814.226536,766.095498
3342.045388,-9992.780217,-2220.617826,2068.457845
3342.045725,-11251.130318,-1554.432478,689.485948
3342.046063,-11769.274478,-740.205942,229.828649
3342.046400,-9104.533087,-296.082377,995.924147
3342.046737,-9474.636058,-666.185348,1608.800546
3342.047075,-10436.903782,-518.144159,995.924147
3342.047412,-9400.615463,0.000000,0.000000
3342.047749,-10732.986159,-592.164754,1915.238745
3342.048087,-12139.377449,-1480.411884,2145.067394
3342.048424,-10362.883188,-1480.411884,229.828649
3342.048761,-9030.512492,-814.226536,0.000000
3342.049099,-8734.430116,-888.247130,383.047749
3342.049436,-9992.780217,-148.041188,-1991.848295
3342.049773,-9474.636058,-370.102971,-1838.629195
3342.050111,-9548.656652,-814.226536,-459.657299
3342.050448,-10881.027347,-814.226536,1225.752797
3342.050785,-11917.315666,-1406.391290,-536.266849
3342.051123,-9548.656652,-518.144159,-1302.362347
3342.051460,-8586.388927,-1480.411884,0.000000
3342.051797,-9474.636058,-296.082377,536.266849
3342.052135,-9696.697840,-740.205942,153.219100
3342.052472,-10066.800811,-148.041188,612.876398
3342.052809,-11103.089130,0.000000,2451.505594
3342.053147,-12435.459826,-962.267725,2374.896044
3342.053484,-11473.192101,1036.288319,612.876398
3342.053821,-8882.471304,1406.391290,1149.143247
3342.054159,-9178.553681,1702.473667,1532.190996
3342.054496,-9474.636058,1036.288319,-76.609550
3342.054833,-9622.677246,1110.308913,153.219100
3342.055171,-10140.821405,1332.370696,1225.752797
3342.055508,-11325.150913,0.000000,995.924147
3342.055845,-11251.130318,444.123565,229.828649
3342.056183,-9030.512492,1036.288319,-1225.752797
3342.056520,-8068.244768,0.000000,229.828649
3342.056857,-9844.739029,-666.185348,-383.047749
3342.057194,-9030.512492,-1110.308913,-1762.019645
3342.057532,-9030.512492,-592.164754,-153.219100
3342.057869,-11029.068536,-2368.659014,1762.019645
3342.058206,-11547.212695,-3108.864956,153.219100
3342.058544,-10140.821405,-2146.597232,-689.485948
3342.058881,-9474.636058,-1406.391290,612.876398
3342.059218,-9844.739029,-1332.370696,536.266849
3342.059556,-10881.027347,-1184.329507,-689.485948
3342.059893,-10066.800811,-1776.494261,-919.314598
3342.060230,-10881.027347,-2516.700203,1149.143247
3342.060568,-12361.439231,-2146.597232,2451.505594
3342.060905,-10955.047942,-962.267725,842.705048
3342.061242,-8734.430116,0.000000,1685.410096
3342.061580,-10140.821405,592.164754,1991.848295
3342.061917,-11325.150913,1258.350101,-383.047749
3342.062254,-10510.924376,1332.370696,-919.314598
3342.062592,-10288.862594,666.185348,766.095498
3342.062929,-11177.109724,296.082377,1225.752797
3342.063266,-10510.924376,296.082377,-995.924147
3342.063604,-7994.224174,1110.308913,-1608.800546
3342.063941,-8364.327145,0.000000,0.000000
3342.064278,-8808.450710,592.164754,-766.095498
3342.064616,-8438.347739,1480.411884,-2604.724693
3342.064953,-9622.677246,0.000000,-1072.533697
3342.065290,-10510.924376,-296.082377,766.095498
3342.065628,-10658.965565,-444.123565,383.047749
3342.065965,-8956.491898,740.205942,76.609550
3342.066302,-7698.141797,814.226536,459.657299
3342.066640,-10066.800811,296.082377,1072.533697
3342.066977,-10510.924376,444.123565,-612.876398
3342.067314,-9918.759623,222.061783,-536.266849
3342.067652,-10362.883188,518.144159,2604.724693
3342.067989,-11695.253884,148.041188,1225.752797
3342.068326,-10955.047942,666.185348,0.000000
3342.068664,-9104.533087,814.226536,153.219100
3342.069001,-9252.574275,666.185348,1685.410096
3342.069338,-11029.068536,518.144159,842.705048
3342.069676,-10288.862594,592.164754,0.000000
3342.070013,-9548.656652,666.185348,1455.581446
3342.070350,-11769.274478,222.061783,1302.362347
3342.070688,-12139.377449,-740.205942,0.000000
3342.071025,-9252.574275,-370.102971,-1532.190996
3342.071362,-8808.450710,-1036.288319,153.219100
3342.071700,-9992.780217,-1554.432478,76.609550
3342.072037,-9844.739029,-1628.453072,-2298.286494
3342.072374,-9548.656652,-1702.473667,229.828649
3342.072712,-10288.862594,-2368.659014,1685.410096
3342.073049,-10881.027347,-2146.597232,842.705048
3342.073386,-9474.636058,-1406.391290,-459.657299
3342.073724,-8808.450710,-1184.329507,842.705048
3342.074061,-10140.821405,-1554.432478,1532.190996
3342.074398,-10584.944971,-1406.391290,842.705048
3342.074736,-9474.636058,592.164754,1302.362347
3342.075073,-10214.842000,74.020594,2911.162892
3342.075410,-11843.295072,0.000000,2374.896044
3342.075748,-11029.068536,518.144159,-306.438199
3342.076085,-8882.471304,1036.288319,0.000000
3342.076422,-9474.636058,814.226536,1991.848295
3342.076759,-10955.047942,370.102971,0.000000
3342.077097,-9178.553681,1702.473667,-1532.190996
3342.077434,-9030.512492,1924.535449,306.438199
3342.077771,-10955.047942,444.123565,1072.533697
3342.078109,-11251.130318,148.041188,-612.876398
3342.078446,-9770.718434,666.185348,-1685.410096
3342.078783,-8956.491898,74.020594,-689.485948
3342.079121,-9992.780217,-740.205942,-842.705048
3342.079458,-9844.739029,-296.082377,-1608.800546
3342.079795,-8586.388927,-1850.514855,-689.485948
3342.080133,-9770.718434,-1702.473667,1532.190996
3342.080470,-11029.068536,-2442.679609,919.314598
3342.080807,-10066.800811,-1776.494261,-689.485948
3342.081145,-8364.327145,-1924.535449,0.000000
3342.081482,-9696.697840,-1850.514855,1991.848295
3342.081819,-10066.800811,-1258.350101,383.047749
3342.082157,-9326.594869,-814.226536,383.047749
3342.082494,-9622.677246,-962.267725,2987.772442
3342.082831,-11621.233289,-1184.329507,2757.943793
3342.083169,-11029.068536,-740.205942,689.485948
3342.083506,-9770.718434,-222.061783,229.828649
3342.083843,-9474.636058,-962.267725,919.314598
3342.084181,-10584.944971,0.000000,-153.219100
3342.084518,-10436.903782,444.123565,-1685.410096
3342.084855,-9844.739029,592.164754,-306.438199
3342.085193,-11621.233289,0.000000,536.266849
3342.085530,-11769.274478,-222.061783,-1072.533697
3342.085867,-8882.471304,592.164754,-2528.115143
3342.086205,-9104.533087,74.020594,-153.219100
3342.086542,-10140.821405,-1406.391290,459.657299
3342.086879,-9770.718434,0.000000,-766.095498
3342.087217,-9252.574275,0.000000,459.657299
3342.087554,-10658.965565,0.000000,2987.772442
3342.087891,-11917.315666,444.123565,1302.362347
3342.088229,-10436.903782,296.082377,-459.657299
3342.088566,-8808.450710,296.082377,1378.971896
3342.088903,-9178.553681,1036.288319,2757.943793
3342.089241,-9918.759623,888.247130,1149.143247
3342.089578,-8068.244768,1850.514855,459.657299
3342.089915,-8586.388927,1850.514855,2221.676944
3342.090253,-11695.253884,1998.556043,2834.553343
3342.090590,-11251.130318,1628.453072,-612.876398
3342.090927,-9104.533087,2072.576638,-1608.800546
3342.091265,-9030.512492,1776.494261,153.219100
3342.091602,-9474.636058,518.144159,-1455.581446
3342.091939,-8882.471304,1184.329507,-2451.505594
3342.092277,-9252.574275,222.061783,-995.924147
3342.092614,-10658.965565,-592.164754,459.657299
3342.092951,-11103.089130,-888.247130,-1225.752797
3342.093289,-9844.739029,-962.267725,-1915.238745
3342.093626,-10140.821405,-1776.494261,76.609550
3342.093963,-11103.089130,-1850.514855,383.047749
3342.094301,-11029.068536,-1110.308913,229.828649
3342.094638,-9844.739029,-1480.411884,306.438199
3342.094975,-10436.903782,-2146.597232,1532.190996
3342.095313,-12065.356855,-2590.720797,536.266849
3342.095650,-10732.986159,-1924.535449,-766.095498
3342.095987,-9178.553681,-1480.411884,229.828649
3342.096324,-10436.903782,-1850.514855,2681.334243
3342.096662,-10584.944971,-1184.329507,1302.362347
3342.096999,-9252.574275,-518.144159,995.924147
3342.097336,-10140.821405,0.000000,3140.991542
3342.097674,-10881.027347,-1036.288319,2757.943793
3342.098011,-11695.253884,-296.082377,612.876398
3342.098348,-9918.759623,592.164754,-689.485948
3342.098686,-8438.347739,0.000000,76.609550
3342.099023,-9696.697840,0.000000,-306.438199
3342.099360,-9326.594869,370.102971,-1991.848295
3342.099698,-8068.244768,666.185348,-1225.752797
3342.100035,-10510.924376,370.102971,229.828649
3342.100372,-11991.336260,0.000000,-1072.533697
3342.100710,-9844.739029,-518.144159,-2221.676944
3342.101047,-8882.471304,-444.123565,306.438199
3342.101384,-9622.677246,-370.102971,1838.629195
3342.101722,-9844.739029,0.000000,766.095498
3342.102059,-9400.615463,370.102971,76.609550
3342.102396,-10066.800811,-518.144159,2298.286494
3342.102734,-11251.130318,-888.247130,1455.581446
3342.103071,-10066.800811,444.123565,-689.485948
3342.103408,-9844.739029,444.123565,76.609550
3342.103746,-9992.780217,222.061783,1915.238745
3342.104083,-9474.636058,-222.061783,229.828649
3342.104420,-8216.285956,148.041188,76.609550
3342.104758,-8882.471304,148.041188,2145.067394
3342.105095,-11621.233289,-1110.308913,2757.943793
3342.105432,-12139.377449,-444.123565,-459.657299
3342.105770,-9474.636058,-370.102971,-2145.067394
3342.106107,-9474.636058,-666.185348,919.314598
3342.106444,-9918.759623,-1702.473667,76.609550
3342.106782,-9770.718434,-444.123565,-459.657299
3342.107119,-9770.718434,-1258.350101,-383.047749
3342.107456,-11177.109724,-1924.535449,689.485948
3342.107794,-11695.253884,-2738.761985,-459.657299
3342.108131,-9844.739029,-1924.535449,-1608.800546
3342.108468,-8956.491898,-1332.370696,76.609550
3342.108806,-10214.842000,-1628.453072,766.095498
3342.109143,-10214.842000,-1332.370696,-383.047749
3342.109480,-9178.553681,-1406.391290,842.705048
3342.109818,-10362.883188,-962.267725,4366.744339
3342.110155,-11843.295072,-296.082377,3524.039291
3342.110492,-11843.295072,814.226536,689.485948
3342.110830,-10066.800811,1258.350101,229.828649
3342.111167,-9252.574275,1184.329507,2374.896044
3342.111504,-9326.594869,888.247130,1225.752797
3342.111842,-8882.471304,1628.453072,229.828649
3342.112179,-10066.800811,1184.329507,1455.581446
3342.112516,-11621.233289,1554.432478,1149.143247
3342.112854,-10955.047942,2294.638420,-1915.238745
3342.113191,-9030.512492,1924.535449,-2757.943793
3342.113528,-8882.471304,2146.597232,-995.924147
3342.113866,-8808.450710,740.205942,-1455.581446
3342.114203,-9474.636058,962.267725,-2068.457845
3342.114540,-9474.636058,296.082377,-842.705048
3342.114878,-10510.924376,-296.082377,919.314598
3342.115215,-12065.356855,-740.205942,-612.876398
3342.115552,-10140.821405,0.000000,-2757.943793
3342.115889,-8882.471304,-592.164754,-1532.190996
3342.116227,-9400.615463,-1184.329507,612.876398
3342.116564,-8512.368333,-2072.576638,-153.219100
3342.116901,-9178.553681,-1258.350101,306.438199
3342.117239,-10436.903782,-1184.329507,2145.067394
3342.117576,-11917.315666,-1184.329507,1072.533697
3342.117913,-11621.233289,-296.082377,536.266849
3342.118251,-9474.636058,-370.102971,0.000000
3342.118588,-8882.471304,-666.185348,1532.190996
3342.118925,-9844.739029,-1184.329507,1072.533697
3342.119263,-9770.718434,-518.144159,229.828649
3342.119600,-9992.780217,-740.205942,1608.800546
3342.119937,-11843.295072,-1332.370696,2374.896044
3342.120275,-12213.398043,-888.247130,0.000000
3342.120612,-10288.862594,-518.144159,-995.924147
3342.120949,-8586.388927,-370.102971,-536.266849
3342.121287,-9030.512492,-1184.329507,0.000000
3342.121624,-9622.677246,-740.205942,-612.876398
3342.121961,-9918.759623,-1110.308913,-383.047749
3342.122299,-10436.903782,-1332.370696,1838.629195
3342.122636,-11843.295072,-1480.411884,1608.800546
3342.122973,-10881.027347,444.123565,766.095498
3342.123311,-8956.491898,-1036.288319,1302.362347
3342.123648,-9326.594869,222.061783,2374.896044
3342.123985,-10140.821405,-222.061783,1838.629195
3342.124323,-9400.615463,962.267725,1225.752797
3342.124660,-10066.800811,518.144159,2374.896044
3342.124997,-11251.130318,222.061783,2834.553343
3342.125335,-10362.883188,1184.329507,689.485948
3342.125672,-8364.327145,1998.556043,-306.438199
3342.126009,-9474.636058,1554.432478,1149.143247
3342.126347,-9474.636058,1406.391290,0.000000
3342.126684,-9992.780217,740.205942,-459.657299
3342.127021,-9696.697840,-518.144159,0.000000
3342.127359,-10140.821405,-444.123565,689.485948
3342.127696,-10658.965565,-296.082377,-1378.971896
3342.128033,-9178.553681,-74.020594,-3294.210641
3342.128371,-8364.327145,-962.267725,-2451.505594
3342.128708,-9400.615463,-1480.411884,-1532.190996
3342.129045,-10066.800811,-1924.535449,-2145.067394
3342.129383,-9696.697840,-2368.659014,0.000000
3342.129720,-10955.047942,-2442.679609,2221.676944
3342.130057,-12509.480420,-2664.741391,1915.238745
3342.130395,-11325.150913,-2220.617826,-459.657299
3342.130732,-9696.697840,-2738.761985,0.000000
3342.131069,-9548.656652,-2146.597232,1838.629195
3342.131407,-10288.862594,-2146.597232,459.657299
3342.131744,-9622.677246,-1258.350101,536.266849
3342.132081,-11029.068536,-1258.350101,1838.629195
3342.132419,-12213.398043,-962.267725,2374.896044
3342.132756,-11325.150913,148.041188,459.657299
3342.133093,-9030.512492,962.267725,-612.876398
3342.133431,-9178.553681,1110.308913,383.047749
3342.133768,-10066.800811,518.144159,0.000000
3342.134105,-9548.656652,148.041188,-536.266849
3342.134442,-9252.574275,-592.164754,0.000000
3342.134780,-11029.068536,0.000000,2374.896044
3342.135117,-11843.295072,370.102971,229.828649
3342.135454,-8660.409521,1184.329507,-2298.286494
3342.135792,-7402.059420,74.020594,-1149.143247
3342.136129,-9326.594869,518.144159,-153.219100
3342.136466,-9178.553681,-148.041188,-383.047749
3342.136804,-9104.533087,222.061783,0.000000
3342.137141,-9548.656652,0.000000,2451.505594
3342.137478,-11769.274478,814.226536,2068.457845
3342.137816,-11325.150913,1776.494261,0.000000
3342.138153,-8660.409521,1776.494261,-612.876398
3342.138490,-9770.718434,1258.350101,1532.190996
3342.138828,-10732.986159,1036.288319,689.485948
3342.139165,-9104.533087,962.267725,-995.924147
3342.139502,-9252.574275,888.247130,1532.190996
3342.139840,-11695.253884,148.041188,2221.676944
3342.140177,-12213.398043,592.164754,-919.314598
3342.140514,-9548.656652,1332.370696,-1838.629195
3342.140851,-8956.491898,962.267725,-383.047749
3342.141188,-9918.759623,-370.102971,76.609550
3342.141525,-10288.862594,0.000000,-689.485948
3342.141863,-9918.759623,-592.164754,-229.828649
3342.142200,-11251.130318,-2294.638420,1608.800546
3342.142537,-11547.212695,-2664.741391,-383.047749
3342.142874,-9770.718434,-1554.432478,-1302.362347
3342.143212,-9326.594869,-2146.597232,536.266849
3342.143549,-9770.718434,-1924.535449,919.314598
3342.143886,-10732.986159,-2294.638420,-383.047749
3342.144224,-9178.553681,-962.267725,0.000000
3342.144561,-10732.986159,-2146.597232,2528.115143
3342.144898,-12583.501014,-2072.576638,3140.991542
3342.145235,-11103.089130,-1258.350101,306.438199
3342.145573,-8882.471304,-592.164754,919.314598
3342.145910,-9104.533087,814.226536,2451.505594
3342.146247,-9548.656652,666.185348,842.705048
3342.146584,-9770.718434,1110.308913,-383.047749
3342.146922,-9992.780217,592.164754,1225.752797
3342.147259,-11695.253884,888.247130,2528.115143
3342.147596,-11991.336260,370.102971,153.219100
3342.147933,-8734.430116,1406.391290,-1225.752797
3342.148271,-7402.059420,962.267725,842.705048
3342.148608,-9474.636058,888.247130,306.438199
3342.148945,-9474.636058,1258.350101,-919.314598
3342.149282,-9252.574275,0.000000,-1149.143247
3342.149620,-9992.780217,-1184.329507,1225.752797
3342.149957,-11621.233289,-1184.329507,-689.485948
3342.150294,-9844.739029,-74.020594,-2451.505594
3342.150632,-8290.306550,-666.185348,-1149.143247
3342.150969,-8660.409521,-814.226536,-612.876398
3342.151306,-9918.759623,-1110.308913,-1302.362347
3342.151643,-9104.533087,-1110.308913,-536.266849
3342.151981,-9696.697840,-2664.741391,1225.752797
3342.152318,-12065.356855,-2368.659014,2451.505594
3342.152655,-11843.295072,-1184.329507,459.657299
3342.152992,-9326.594869,0.000000,0.000000
3342.153330,-9548.656652,-1258.350101,1302.362347
3342.153667,-10807.006753,-592.164754,689.485948
3342.154004,-9918.759623,-1332.370696,0.000000
3342.154341,-9548.656652,-962.267725,1149.143247
3342.154679,-11399.171507,-888.247130,1915.238745
3342.155016,-12657.521608,-1554.432478,-459.657299
3342.155353,-9622.677246,0.000000,-2221.676944
3342.155690,-8216.285956,-888.247130,-612.876398
3342.156028,-9178.553681,-814.226536,459.657299
3342.156365,-9622.677246,-1406.391290,-383.047749
3342.156702,-9696.697840,-1850.514855,153.219100
3342.157040,-9992.780217,-2368.659014,2145.067394
3342.157377,-11621.233289,-1554.432478,1378.971896
3342.157714,-10288.862594,-740.205942,-536.266849
3342.158051,-8364.327145,-296.082377,0.000000
3342.158389,-9400.615463,370.102971,1378.971896
3342.158726,-9696.697840,-370.102971,0.000000
3342.159063,-9548.656652,1110.308913,536.266849
3342.159400,-9918.759623,222.061783,3140.991542
3342.159738,-11843.295072,888.247130,3753.867940
3342.160075,-11843.295072,2294.638420,536.266849
3342.160412,-9548.656652,2442.679609,383.047749
3342.160749,-9252.574275,2294.638420,2451.505594
3342.161087,-10140.821405,2294.638420,1608.800546
3342.161424,-10510.924376,3404.947333,76.609550
3342.161761,-10288.862594,1850.514855,0.000000
3342.162098,-10881.027347,1184.329507,76.609550
3342.162436,-11325.150913,1110.308913,-1302.362347
3342.162773,-9030.512492,2294.638420,-2834.553343
3342.163110,-7105.977043,666.185348,-3064.381992
3342.163448,-8586.388927,0.000000,-2451.505594
3342.163785,-8364.327145,-1184.329507,-2604.724693
3342.164122,-8660.409521,-888.247130,-995.924147
3342.164459,-10658.965565,-3108.864956,1302.362347
3342.164797,-11843.295072,-2294.638420,536.266849
3342.165134,-11547.212695,-2072.576638,-995.924147
3342.165471,-9252.574275,-2072.576638,-459.657299
3342.165808,-8364.327145,-1924.535449,689.485948
3342.166146,-10436.903782,-1702.473667,459.657299
3342.166483,-9844.739029,-1258.350101,-383.047749
3342.166820,-10066.800811,-1480.411884,612.876398
3342.167157,-12953.603985,-1332.370696,1608.800546
3342.167495,-12361.439231,-1184.329507,-229.828649
3342.167832,-9770.718434,74.020594,-612.876398
3342.168169,-9104.533087,-666.185348,1532.190996
3342.168507,-9844.739029,814.226536,1455.581446
3342.168844,-10658.965565,1776.494261,0.000000
3342.169181,-10955.047942,1258.350101,689.485948
3342.169518,-11769.274478,518.144159,1915.238745
3342.169856,-12361.439231,0.000000,153.219100
3342.170193,-9622.677246,1184.329507,-536.266849
3342.170530,-7698.141797,0.000000,0.000000
3342.170867,-8290.306550,0.000000,459.657299
3342.171205,-8290.306550,-370.102971,-1302.362347
3342.171542,-8882.471304,518.144159,153.219100
3342.171879,-9474.636058,-592.164754,2604.724693
3342.172216,-11621.233289,-1110.308913,1685.410096
3342.172554,-10362.883188,0.000000,153.219100
3342.172891,-8068.244768,148.041188,306.438199
3342.173228,-8882.471304,222.061783,2451.505594
3342.173565,-9252.574275,74.020594,1991.848295
3342.173903,-8956.491898,1036.288319,1378.971896
3342.174240,-10436.903782,0.000000,2987.772442
3342.174577,-11917.315666,-444.123565,2298.286494
3342.174915,-10955.047942,-222.061783,229.828649
3342.175252,-10140.821405,0.000000,-766.095498
3342.175589,-9178.553681,222.061783,-536.266849
3342.175926,-9474.636058,1110.308913,-1532.190996
3342.176264,-9770.718434,518.144159,-1455.581446
3342.176601,-9918.759623,-296.082377,-1225.752797
3342.176938,-11473.192101,-1036.288319,612.876398
3342.177275,-12731.542202,-1702.473667,-383.047749
3342.177613,-11473.192101,-1850.514855,-1915.238745
3342.177950,-9844.739029,-2368.659014,-229.828649
3342.178287,-9252.574275,-2738.761985,153.219100
3342.178624,-9400.615463,-2886.803174,-1532.190996
3342.178962,-9252.574275,-2146.597232,-1072.533697
3342.179299,-11177.109724,-3034.844362,306.438199
3342.179636,-11843.295072,-3034.844362,536.266849
3342.179973,-10807.006753,-2516.700203,-612.876398
3342.180311,-9252.574275,-1258.350101,1225.752797
3342.180648,-9178.553681,-2368.659014,1915.238745
3342.180985,-8956.491898,-1332.370696,1532.190996
3342.181323,-9326.594869,148.041188,1838.629195
3342.181660,-10140.821405,-296.082377,3524.039291
3342.181997,-11917.315666,888.247130,2451.505594
3342.182334,-11917.315666,962.267725,306.438199
3342.182672,-10362.883188,2072.576638,-995.924147
3342.183009,-8438.347739,1406.391290,-689.485948
3342.183346,-8438.347739,1628.453072,0.000000
3342.183683,-8068.244768,2220.617826,-766.095498
3342.184021,-9474.636058,1406.391290,229.828649
3342.184358,-11473.192101,1850.514855,995.924147
3342.184695,-12139.377449,1184.329507,-612.876398
3342.185032,-10510.924376,1406.391290,-1149.143247
3342.185370,-9104.533087,740.205942,-919.314598
3342.185707,-8956.491898,444.123565,-383.047749
3342.186044,-9474.636058,-296.082377,-612.876398
3342.186382,-8586.388927,-222.061783,-153.219100
3342.186719,-9326.594869,-592.164754,1072.533697
3342.187056,-11103.089130,-666.185348,919.314598
3342.187393,-11177.109724,-592.164754,-919.314598
3342.187731,-9992.780217,0.000000,-995.924147
3342.188068,-9178.553681,-370.102971,536.266849
3342.188405,-9252.574275,-296.082377,229.828649
3342.188742,-9474.636058,-222.061783,229.828649
3342.189080,-9844.739029,-74.020594,1838.629195
3342.189417,-11399.171507,-592.164754,1378.971896
3342.189754,-11621.233289,-370.102971,766.095498
3342.190091,-9918.759623,370.102971,-919.314598
3342.190429,-9770.718434,-1332.370696,0.000000
3342.190766,-10214.842000,-740.205942,0.000000
3342.191103,-9770.718434,74.020594,-842.705048
3342.191440,-9474.636058,74.020594,0.000000
3342.191778,-11325.150913,-592.164754,0.000000
3342.192115,-11769.274478,-1258.350101,-689.485948
3342.192452,-10140.821405,-888.247130,-1072.533697
3342.192790,-8364.327145,-444.123565,0.000000
3342.193127,-9844.739029,-740.205942,766.095498
3342.193464,-10732.986159,-296.082377,-76.609550
3342.193801,-8882.471304,0.000000,-306.438199
3342.194139,-10362.883188,-592.164754,3600.648841
3342.194476,-11843.295072,-444.123565,3140.991542
3342.194813,-10955.047942,0.000000,1455.581446
3342.195150,-9844.739029,888.247130,1149.143247
3342.195488,-9474.636058,740.205942,1685.410096
3342.195825,-9770.718434,1110.308913,995.924147
3342.196162,-9252.574275,1406.391290,689.485948
3342.196499,-8438.347739,592.164754,1608.800546
3342.196837,-10658.965565,1628.453072,2221.676944
3342.197174,-11473.192101,592.164754,76.609550
3342.197511,-9770.718434,1554.432478,-919.314598
3342.197848,-10066.800811,814.226536,0.000000
3342.198186,-9548.656652,296.082377,-1225.752797
3342.198523,-9104.533087,370.102971,-1915.238745
3342.198860,-8734.430116,-296.082377,-1378.971896
3342.199198,-9030.512492,-1258.350101,76.609550
3342.199535,-10881.027347,-1998.556043,-995.924147
3342.199872,-10807.006753,-1258.350101,-2068.457845
3342.200209,-9326.594869,-1036.288319,-1149.143247
3342.200547,-10658.965565,-1628.453072,766.095498
3342.200884,-10955.047942,-1998.556043,-842.705048
3342.201221,-9622.677246,-1924.535449,-1149.143247
3342.201558,-9992.780217,-2146.597232,1991.848295
3342.201896,-10881.027347,-2368.659014,2451.505594
3342.202233,-11251.130318,-2220.617826,229.828649
3342.202570,-10066.800811,-1258.350101,-306.438199
3342.202907,-9030.512492,-1628.453072,1149.143247
3342.203245,-11251.130318,-2294.638420,2374.896044
3342.203582,-9326.594869,-370.102971,842.705048
3342.203919,-9104.533087,-666.185348,2757.943793
3342.204256,-11251.130318,370.102971,3370.820191
3342.204594,-11547.212695,-296.082377,-766.095498
3342.204931,-10658.965565,74.020594,-1608.800546
3342.205268,-9474.636058,-666.185348,153.219100
3342.205606,-8956.491898,0.000000,0.000000
3342.205943,-9030.512492,-296.082377,-1608.800546
3342.206280,-8364.327145,592.164754,-1455.581446
3342.206617,-9918.759623,-1036.288319,766.095498
3342.206955,-12065.356855,-888.247130,1225.752797
3342.207292,-10066.800811,740.205942,-383.047749
3342.207629,-9104.533087,592.164754,1302.362347
3342.207966,-10214.842000,1036.288319,2681.334243
3342.208304,-10140.821405,296.082377,153.219100
3342.208641,-9474.636058,1924.535449,-383.047749
3342.208978,-9844.739029,518.144159,1685.410096
3342.209315,-11029.068536,0.000000,2451.505594
3342.209653,-10732.986159,666.185348,306.438199
3342.209990,-9030.512492,1554.432478,-229.828649
3342.210327,-9844.739029,888.247130,1302.362347
3342.210665,-10807.006753,0.000000,459.657299
3342.211002,-8882.471304,1776.494261,-1302.362347
3342.211339,-9252.574275,888.247130,-689.485948
3342.211676,-10436.903782,0.000000,1149.143247
3342.212014,-10955.047942,-814.226536,-1915.238745
3342.212351,-8956.491898,-222.061783,-2451.505594
3342.212688,-8586.388927,-592.164754,-1072.533697
3342.213025,-10140.821405,-666.185348,-1149.143247
3342.213363,-9622.677246,-1850.514855,-3217.601092
3342.213700,-8512.368333,-1480.411884,-1685.410096
3342.214037,-10510.924376,-2442.679609,2221.676944
3342.214374,-11917.315666,-2368.659014,1072.533697
3342.214712,-11473.192101,-1258.350101,-612.876398
3342.215049,-10436.903782,-1850.514855,-76.609550
3342.215386,-9992.780217,-1924.535449,459.657299
3342.215723,-10214.842000,-1480.411884,766.095498
3342.216061,-9992.780217,0.000000,1455.581446
3342.216398,-10214.842000,-296.082377,2987.772442
3342.216735,-11991.336260,740.205942,2681.334243
3342.217073,-11917.315666,1110.308913,-306.438199
3342.217410,-10288.862594,2146.597232,-459.657299
3342.217747,-10140.821405,444.123565,2068.457845
3342.218084,-9622.677246,592.164754,1149.143247
3342.218422,-8586.388927,1406.391290,612.876398
3342.218759,-8216.285956,1406.391290,1225.752797
3342.219096,-10510.924376,666.185348,2374.896044
3342.219433,-12213.398043,740.205942,76.609550
3342.219771,-9474.636058,1406.391290,-1685.410096
3342.220108,-8068.244768,296.082377,-306.438199
3342.220445,-8512.368333,-370.102971,229.828649
3342.220782,-8364.327145,-222.061783,-1838.629195
3342.221120,-7920.203579,0.000000,-842.705048
3342.221457,-9178.553681,-962.267725,2068.457845
3342.221794,-11473.192101,-666.185348,689.485948
3342.222131,-10807.006753,0.000000,-1072.533697
3342.222469,-9548.656652,0.000000,-383.047749
3342.222806,-9770.718434,-296.082377,612.876398
3342.223143,-10510.924376,-1184.329507,919.314598
3342.223481,-9474.636058,444.123565,612.876398
3342.223818,-10288.862594,-592.164754,2911.162892
3342.224155,-11325.150913,888.247130,1762.019645
3342.224492,-12657.521608,-444.123565,-919.314598
3342.224830,-10362.883188,-296.082377,-842.705048
3342.225167,-8882.471304,-962.267725,306.438199
3342.225504,-9548.656652,-814.226536,612.876398
3342.225841,-10140.821405,-1110.308913,-766.095498
3342.226179,-9548.656652,-1110.308913,-919.314598
3342.226516,-10881.027347,-2220.617826,689.485948
3342.226853,-11843.295072,-2294.638420,-1072.533697
3342.227190,-9918.759623,-1184.329507,-2298.286494
3342.227528,-8660.409521,-2294.638420,-842.705048
3342.227865,-9030.512492,-2294.638420,383.047749
3342.228202,-8956.491898,-2590.720797,0.000000
3342.228540,-9770.718434,-1776.494261,842.705048
3342.228877,-11177.109724,-1628.453072,2911.162892
3342.229214,-11621.233289,-1480.411884,1302.362347
3342.229551,-11029.068536,-1406.391290,0.000000
3342.229889,-9548.656652,-592.164754,536.266849
3342.230226,-9474.636058,222.061783,2604.724693
3342.230563,-10362.883188,518.144159,1915.238745
3342.230900,-8586.388927,1406.391290,-229.828649
3342.231238,-9252.574275,1628.453072,1378.971896
3342.231575,-12287.418637,1702.473667,2145.067394
3342.231912,-11769.274478,1184.329507,-306.438199
3342.232249,-9844.739029,2664.741391,-459.657299
3342.232587,-9474.636058,1998.556043,1532.190996
3342.232924,-10214.842000,1924.535449,536.266849
3342.233261,-9400.615463,1184.329507,-1455.581446
3342.233598,-8808.450710,1184.329507,0.000000
3342.233936,-10955.047942,-296.082377,1302.362347
3342.234273,-11177.109724,-296.082377,-842.705048
3342.234610,-9252.574275,0.000000,-2911.162892
3342.234948,-8512.368333,-1406.391290,-766.095498
3342.235285,-8586.388927,-1036.288319,-612.876398
3342.235622,-9696.697840,-888.247130,-1532.190996
3342.235959,-8882.471304,0.000000,-1225.752797
3342.236297,-9770.718434,-2072.576638,536.266849
3342.236634,-11991.336260,-2146.597232,1455.581446
3342.236971,-10658.965565,-1702.473667,-229.828649
3342.237308,-9104.533087,-740.205942,612.876398
3342.237646,-9326.594869,-1924.535449,1072.533697
3342.237983,-9474.636058,-1628.453072,0.000000
3342.238320,-9178.553681,-370.102971,153.219100
3342.238657,-10362.883188,-888.247130,1302.362347
3342.238995,-11695.253884,0.000000,1915.238745
3342.239332,-12509.480420,-370.102971,-612.876398
3342.239669,-10955.047942,814.226536,-1378.971896
3342.240006,-8882.471304,0.000000,-229.828649
3342.240344,-9696.697840,-370.102971,995.924147
3342.240681,-9474.636058,-1184.329507,76.609550
3342.241018,-9104.533087,222.061783,0.000000
3342.241356,-11251.130318,0.000000,842.705048
3342.241693,-12213.398043,-1258.350101,-995.924147
3342.242030,-9992.780217,-370.102971,-2221.676944
3342.242367,-8438.347739,-1110.308913,0.000000
3342.242705,-8808.450710,-148.041188,2221.676944
3342.243042,-9030.512492,-814.226536,229.828649
3342.243379,-9474.636058,666.185348,689.485948
3342.243717,-10214.842000,0.000000,2145.067394
3342.244054,-11917.315666,-148.041188,2298.286494
3342.244391,-11029.068536,518.144159,995.924147
3342.244729,-8660.409521,1776.494261,612.876398
3342.245066,-10288.862594,666.185348,2068.457845
3342.245403,-10140.821405,1406.391290,919.314598
3342.245741,-9178.553681,1184.329507,0.000000
3342.246078,-9844.739029,740.205942,1762.019645
3342.246415,-10658.965565,518.144159,1915.238745
3342.246753,-11473.192101,222.061783,-536.266849
3342.247090,-9548.656652,1036.288319,-2451.505594
3342.247427,-8734.430116,148.041188,-919.314598
3342.247765,-9622.677246,74.020594,-766.095498
3342.248102,-9474.636058,-592.164754,-1608.800546
3342.248439,-9104.533087,0.000000,-612.876398
3342.248777,-11103.089130,-1554.432478,459.657299
3342.249114,-12213.398043,-2368.659014,306.438199
3342.249451,-10214.842000,-2294.638420,-1149.143247
3342.249789,-8586.388927,-2146.597232,-689.485948
3342.250126,-9474.636058,-1776.494261,766.095498
3342.250463,-9992.780217,-2664.741391,-536.266849
3342.250801,-9178.553681,-2146.597232,-459.657299
3342.251138,-9992.780217,-2960.823768,2145.067394
3342.251475,-12213.398043,-1184.329507,3294.210641
3342.251812,-11251.130318,-962.267725,1302.362347
3342.252150,-10066.800811,148.041188,1378.971896
3342.252487,-10066.800811,0.000000,1838.629195
3342.252824,-9844.739029,0.000000,1072.533697
3342.253162,-9918.759623,814.226536,919.314598
3342.253499,-9548.656652,0.000000,1991.848295
3342.253836,-11029.068536,888.247130,1991.848295
3342.254174,-11547.212695,518.144159,-1225.752797
3342.254511,-9844.739029,1850.514855,-2757.943793
3342.254848,-8438.347739,370.102971,-1532.190996
3342.255186,-9400.615463,962.267725,-689.485948
3342.255523,-8512.368333,962.267725,-1838.629195
3342.255860,-8290.306550,666.185348,-1072.533697
3342.256198,-10140.821405,-666.185348,1838.629195
3342.256535,-11843.295072,-888.247130,995.924147
3342.256872,-11177.109724,0.000000,-383.047749
3342.257210,-9178.553681,0.000000,0.000000
3342.257547,-9030.512492,-740.205942,1302.362347
3342.257884,-9474.636058,-888.247130,1302.362347
3342.258222,-8660.409521,-370.102971,383.047749
3342.258559,-9696.697840,-518.144159,1455.581446
3342.258896,-12213.398043,-518.144159,1532.190996
3342.259234,-12065.356855,-518.144159,-766.095498
3342.259571,-8956.491898,1332.370696,-306.438199
3342.259908,-8512.368333,74.020594,1225.752797
3342.260246,-10140.821405,518.144159,383.047749
3342.260583,-10584.944971,-444.123565,-1302.362347
3342.260920,-9252.574275,-222.061783,0.000000
3342.261258,-10955.047942,-1406.391290,1838.629195
3342.261595,-12583.501014,-1850.514855,1302.362347
3342.261932,-9622.677246,-296.082377,-1838.629195
3342.262269,-9400.615463,-666.185348,-919.314598
3342.262607,-10140.821405,-1036.288319,-689.485948
3342.262944,-9178.553681,-2220.617826,-2834.553343
3342.263281,-8808.450710,-2220.617826,-612.876398
3342.263619,-8956.491898,-2664.741391,1608.800546
3342.263956,-12213.398043,-2960.823768,2604.724693
3342.264293,-11695.253884,-1184.329507,0.000000
3342.264631,-9326.594869,-74.020594,-995.924147
3342.264968,-9548.656652,-370.102971,1378.971896
3342.265305,-10436.903782,-1332.370696,459.657299
3342.265643,-9178.553681,518.144159,0.000000
3342.265980,-9844.739029,-444.123565,1685.410096
3342.266317,-11177.109724,-518.144159,3064.381992
3342.266655,-10658.965565,222.061783,229.828649
3342.266992,-9696.697840,2368.659014,0.000000
3342.267329,-9178.553681,1850.514855,1072.533697
3342.267667,-10288.862594,888.247130,919.314598
3342.268004,-9622.677246,1702.473667,76.609550
3342.268341,-9030.512492,1702.473667,536.266849
3342.268679,-10955.047942,740.205942,2145.067394
3342.269016,-12509.480420,814.226536,-76.609550
3342.269353,-9696.697840,518.144159,-2834.553343
3342.269691,-7624.121203,222.061783,-689.485948
3342.270028,-8290.306550,-592.164754,383.047749
3342.270365,-8586.388927,-1406.391290,-919.314598
3342.270703,-8660.409521,-814.226536,-766.095498
3342.271040,-9918.759623,-666.185348,1838.629195
3342.271377,-12435.459826,-740.205942,1685.410096
3342.271715,-11547.212695,-518.144159,-383.047749
3342.272052,-9474.636058,-518.144159,536.266849
3342.272389,-9474.636058,-1036.288319,2068.457845
3342.272727,-10066.800811,-296.082377,689.485948
3342.273064,-9770.718434,-370.102971,-612.876398
3342.273401,-10288.862594,-888.247130,1225.752797
3342.273738,-11843.295072,-962.267725,2298.286494
3342.274076,-12435.459826,-740.205942,612.876398
3342.274413,-9622.677246,740.205942,-995.924147
3342.274750,-8956.491898,370.102971,1225.752797
3342.275088,-10288.862594,0.000000,1225.752797
3342.275425,-9844.739029,-148.041188,-1225.752797
3342.275762,-9400.615463,-296.082377,536.266849
3342.276100,-11547.212695,-1184.329507,2451.505594
3342.276437,-11991.336260,-2294.638420,0.000000
3342.276774,-10140.821405,148.041188,-2451.505594
3342.277112,-7920.203579,-1332.370696,-2451.505594
3342.277449,-8216.285956,-1110.308913,-76.609550
3342.277786,-8216.285956,-1332.370696,-1149.143247
3342.278124,-8586.388927,-370.102971,-842.705048
3342.278461,-10214.842000,-1036.288319,1915.238745
3342.278798,-12879.583391,-1406.391290,2298.286494
3342.279136,-11103.089130,0.000000,0.000000
3342.279473,-8364.327145,0.000000,612.876398
3342.279810,-8882.471304,666.185348,2911.162892
3342.280148,-10584.944971,592.164754,766.095498
3342.280485,-9770.718434,1036.288319,-459.657299
3342.280822,-10214.842000,592.164754,766.095498
3342.281160,-12213.398043,0.000000,2451.505594
3342.281497,-12213.398043,962.267725,0.000000
3342.281834,-9400.615463,666.185348,-2145.067394
3342.282172,-7846.182985,296.082377,306.438199
3342.282509,-8660.409521,74.020594,459.657299
3342.282846,-9474.636058,740.205942,-766.095498
3342.283184,-10658.965565,-296.082377,0.000000
3342.283521,-12139.377449,-888.247130,1685.410096
3342.283858,-12509.480420,-1332.370696,689.485948
3342.284195,-9844.739029,-148.041188,-1455.581446
3342.284533,-7624.121203,-1332.370696,-612.876398
3342.284870,-9030.512492,-1776.494261,76.609550
3342.285207,-10288.862594,-1776.494261,-1072.533697
3342.285545,-9474.636058,-666.185348,-2451.505594
3342.285882,-10066.800811,-2146.597232,1225.752797
3342.286219,-11695.253884,-1776.494261,2145.067394
3342.286557,-10658.965565,-1924.535449,0.000000
3342.286894,-8882.471304,148.041188,383.047749
3342.287231,-8882.471304,0.000000,2298.286494
3342.287569,-10214.842000,-444.123565,1838.629195
3342.287906,-10362.883188,518.144159,919.314598
3342.288243,-9622.677246,222.061783,2221.676944
3342.288581,-11843.295072,1184.329507,2987.772442
3342.288918,-12287.418637,962.267725,229.828649
3342.289255,-9474.636058,2220.617826,-1608.800546
3342.289593,-8586.388927,1628.453072,-1225.752797
3342.289930,-9400.615463,1406.391290,-1072.533697
3342.290267,-9252.574275,962.267725,-2528.115143
3342.290605,-9474.636058,296.082377,-689.485948
3342.290942,-9844.739029,222.061783,536.266849
3342.291279,-11399.171507,-592.164754,76.609550
3342.291617,-9770.718434,666.185348,-612.876398
3342.291954,-9030.512492,-444.123565,-229.828649
3342.292291,-10140.821405,148.041188,1149.143247
3342.292629,-10066.800811,0.000000,-306.438199
3342.292966,-9252.574275,0.000000,-689.485948
3342.293303,-9548.656652,-2294.638420,1225.752797
3342.293641,-10510.924376,-1628.453072,1532.190996
3342.293978,-10510.924376,-1776.494261,689.485948
3342.294315,-8660.409521,-740.205942,842.705048
3342.294652,-8586.388927,0.000000,1991.848295
3342.294990,-10584.944971,-370.102971,1378.971896
3342.295327,-9992.780217,0.000000,-229.828649
3342.295664,-9548.656652,0.000000,766.095498
3342.296002,-11547.212695,-370.102971,2528.115143
3342.296339,-10955.047942,-1110.308913,689.485948
3342.296676,-9474.636058,-518.144159,-536.266849
3342.297014,-9400.615463,-1776.494261,0.000000
3342.297351,-10658.965565,-592.164754,-306.438199
3342.297688,-10436.903782,-1554.432478,-1915.238745
3342.298026,-9326.594869,-740.205942,-1991.848295
3342.298363,-10288.862594,-1702.473667,612.876398
3342.298700,-12435.459826,-1850.514855,919.314598
3342.299038,-11251.130318,-1406.391290,-306.438199
3342.299375,-9992.780217,-1480.411884,229.828649
3342.299712,-10510.924376,-1036.288319,1378.971896
3342.300050,-9918.759623,-1110.308913,-459.657299
3342.300387,-8956.491898,-962.267725,536.266849
3342.300724,-9548.656652,-1554.432478,2834.553343
3342.301062,-11177.109724,-1184.329507,3753.867940
3342.301399,-11473.192101,814.226536,1608.800546
3342.301736,-10140.821405,1406.391290,766.095498
3342.302074,-10658.965565,1184.329507,1378.971896
3342.302411,-9992.780217,1924.535449,459.657299
3342.302748,-8512.368333,2220.617826,-919.314598
3342.303086,-8142.265362,814.226536,536.266849
3342.303423,-9326.594869,1924.535449,1378.971896
3342.303760,-11103.089130,592.164754,536.266849
3342.304098,-10362.883188,2738.761985,-1915.238745
3342.304435,-9696.697840,1110.308913,-1838.629195
3342.304772,-10214.842000,1110.308913,-995.924147
3342.305109,-8290.306550,0.000000,-2987.772442
3342.305447,-7624.121203,-1036.288319,-1532.190996
3342.305784,-9252.574275,-1480.411884,1762.019645
3342.306121,-10658.965565,-1184.329507,612.876398
3342.306459,-11103.089130,-814.226536,-689.485948
3342.306796,-10658.965565,-518.144159,-383.047749
3342.307133,-9992.780217,-592.164754,842.705048
3342.307471,-10732.986159,-1406.391290,536.266849
3342.307808,-9548.656652,-592.164754,612.876398
3342.308145,-9474.636058,-1258.350101,2068.457845
3342.308483,-12139.377449,-962.267725,2681.334243
3342.308820,-12139.377449,-962.267725,383.047749
3342.309157,-10510.924376,-370.102971,0.000000
3342.309495,-9844.739029,-592.164754,1302.362347
3342.309832,-10140.821405,-370.102971,0.000000
3342.310169,-9474.636058,518.144159,-1225.752797
3342.310507,-9104.533087,-592.164754,-459.657299
3342.310844,-9844.739029,-1184.329507,229.828649
3342.311181,-11399.171507,-1702.473667,459.657299
3342.311519,-10658.965565,-222.061783,0.000000
3342.311856,-9178.553681,-962.267725,-459.657299
3342.312193,-8956.491898,-666.185348,0.000000
3342.312531,-9474.636058,-1184.329507,-536.266849
3342.312868,-9030.512492,-666.185348,76.609550
3342.313205,-8956.491898,-1998.556043,1149.143247
3342.313543,-11177.109724,-962.267725,2145.067394
3342.313880,-11103.089130,296.082377,459.657299
3342.314217,-9474.636058,1110.308913,229.828649
3342.314555,-9548.656652,444.123565,0.000000
3342.314892,-10214.842000,296.082377,76.609550
3342.315229,-8882.471304,1332.370696,229.828649
3342.315566,-9622.677246,740.205942,2528.115143
3342.315904,-12139.377449,1924.535449,3907.087040
3342.316241,-13027.624579,1258.350101,919.314598
3342.316578,-11325.150913,2294.638420,-306.438199
3342.316916,-9696.697840,1850.514855,229.828649
3342.317253,-9918.759623,1110.308913,229.828649
3342.317590,-8512.368333,74.020594,-1608.800546
3342.317928,-8438.347739,0.000000,-689.485948
3342.318265,-9770.718434,-74.020594,536.266849
3342.318602,-11251.130318,-888.247130,-306.438199
3342.318940,-9622.677246,222.061783,-2068.457845
3342.319277,-8956.491898,-814.226536,-1685.410096
3342.319614,-9474.636058,-1406.391290,-995.924147
3342.319952,-9030.512492,-2220.617826,-1072.533697
3342.320289,-8660.409521,-1628.453072,-306.438199
3342.320626,-9252.574275,-2812.782580,1991.848295
3342.320964,-11103.089130,-2294.638420,1685.410096
3342.321301,-10807.006753,-1406.391290,-229.828649
3342.321638,-9696.697840,-1850.514855,0.000000
3342.321976,-9844.739029,-1702.473667,995.924147
3342.322313,-10732.986159,-1258.350101,1302.362347
3342.322650,-9992.780217,592.164754,1072.533697
3342.322988,-9696.697840,0.000000,1455.581446
3342.323325,-12139.377449,74.020594,2757.943793
3342.323662,-11917.315666,148.041188,689.485948
3342.324000,-11103.089130,1036.288319,-153.219100
3342.324337,-9844.739029,444.123565,1225.752797
3342.324674,-10214.842000,814.226536,689.485948
3342.325012,-9548.656652,0.000000,-229.828649
3342.325349,-8438.347739,740.205942,76.609550
3342.325686,-9696.697840,222.061783,1762.019645
3342.326024,-11843.295072,-296.082377,536.266849
3342.326361,-9918.759623,296.082377,-1915.238745
3342.326698,-8808.450710,0.000000,-1225.752797
3342.327035,-9030.512492,222.061783,-306.438199
3342.327373,-8660.409521,-444.123565,-1302.362347
3342.327710,-8660.409521,444.123565,-1455.581446
3342.328047,-9474.636058,-1036.288319,153.219100
3342.328385,-11177.109724,-444.123565,1762.019645
3342.328722,-10658.965565,-962.267725,0.000000
3342.329059,-9252.574275,0.000000,919.314598
3342.329397,-9400.615463,0.000000,1838.629195
3342.329734,-10807.006753,-962.267725,1608.800546
3342.330071,-10066.800811,296.082377,306.438199
3342.330409,-9030.512492,-518.144159,1915.238745
3342.330746,-10881.027347,0.000000,2451.505594
3342.331083,-12287.418637,0.000000,0.000000
3342.331421,-10955.047942,1258.350101,-1838.629195
3342.331758,-9696.697840,666.185348,-919.314598
3342.332095,-10732.986159,0.000000,-689.485948
3342.332433,-10510.924376,-666.185348,-1762.019645
3342.332770,-9252.574275,-1110.308913,-1149.143247
3342.333107,-10362.883188,-1480.411884,766.095498
3342.333445,-11547.212695,-2590.720797,306.438199
3342.333782,-10362.883188,-1258.350101,-1149.143247
3342.334119,-9474.636058,-2294.638420,-995.924147
3342.334457,-10140.821405,-1776.494261,612.876398
3342.334794,-10732.986159,-2072.576638,306.438199
3342.335131,-9252.574275,-1036.288319,-153.219100
3342.335469,-8956.491898,-1776.494261,1838.629195
3342.335806,-10658.965565,-1184.329507,2298.286494
3342.336143,-11399.171507,-814.226536,536.266849
3342.336481,-9400.615463,-222.061783,-153.219100
3342.336818,-8364.327145,592.164754,1378.971896
3342.337155,-9770.718434,666.185348,919.314598
3342.337492,-10214.842000,1850.514855,0.000000
3342.337830,-9474.636058,1554.432478,1838.629195
3342.338167,-10214.842000,1850.514855,2451.505594
3342.338504,-11103.089130,2294.638420,1149.143247
3342.338842,-10288.862594,2960.823768,-612.876398
3342.339179,-9770.718434,1628.453072,0.000000
3342.339516,-9992.780217,1406.391290,-995.924147
3342.339854,-9548.656652,814.226536,-2451.505594
3342.340191,-8586.388927,1628.453072,-2298.286494
3342.340529,-9326.594869,-296.082377,0.000000
3342.340866,-10955.047942,-296.082377,-306.438199
3342.341204,-10288.862594,0.000000,-1685.410096
3342.341541,-9474.636058,-296.082377,0.000000
3342.341878,-9918.759623,-962.267725,536.266849
3342.342216,-10436.903782,-1628.453072,536.266849
3342.342553,-8882.471304,-1406.391290,459.657299
3342.342891,-8734.430116,-1554.432478,2528.115143
3342.343228,-11843.295072,-1628.453072,3600.648841
3342.343566,-11769.274478,-814.226536,0.000000
3342.343903,-9252.574275,-370.102971,-1302.362347
3342.344241,-8660.409521,-740.205942,229.828649
3342.344578,-9918.759623,-1406.391290,153.219100
3342.344915,-9548.656652,-592.164754,0.000000
3342.345253,-9252.574275,-740.205942,612.876398
3342.345590,-10436.903782,296.082377,2374.896044
3342.345928,-12879.583391,-444.123565,0.000000
3342.346265,-10732.986159,74.020594,-459.657299
3342.346603,-9178.553681,-740.205942,842.705048
3342.346940,-10732.986159,-444.123565,1149.143247
3342.347277,-10436.903782,-888.247130,-1762.019645
3342.347615,-9178.553681,-1258.350101,-2757.943793
3342.347952,-9548.656652,-2072.576638,0.000000
3342.348290,-10881.027347,-2738.761985,306.438199
3342.348627,-10214.842000,-888.247130,-612.876398
3342.348965,-9252.574275,-370.102971,0.000000
3342.349302,-9696.697840,-740.205942,1225.752797
3342.349639,-10436.903782,-962.267725,536.266849
3342.349977,-10362.883188,-296.082377,1225.752797
3342.350314,-9548.656652,-888.247130,2987.772442
3342.350652,-10288.862594,-666.185348,4290.134789
3342.350989,-10510.924376,1480.411884,2374.896044
3342.351327,-9844.739029,1036.288319,459.657299
3342.351664,-9770.718434,1036.288319,306.438199
3342.352002,-10658.965565,1480.411884,-383.047749
3342.352339,-9770.718434,1406.391290,-1149.143247
3342.352676,-9400.615463,1924.535449,0.000000
3342.353014,-10140.821405,814.226536,229.828649
3342.353351,-10510.924376,148.041188,-459.657299
3342.353689,-8882.471304,1184.329507,-2298.286494
3342.354026,-9400.615463,148.041188,229.828649
3342.354364,-9548.656652,222.061783,0.000000
3342.354701,-9548.656652,-444.123565,-1149.143247
3342.355038,-9696.697840,-962.267725,-76.609550
3342.355376,-10066.800811,-1480.411884,612.876398
3342.355713,-11251.130318,-1258.350101,1149.143247
3342.356051,-11325.150913,-740.205942,-459.657299
3342.356388,-9474.636058,-888.247130,-919.314598
3342.356726,-9622.677246,-518.144159,153.219100
3342.357063,-10140.821405,-2220.617826,689.485948
3342.357401,-9030.512492,-740.205942,383.047749
3342.357738,-9474.636058,-1332.370696,1991.848295
3342.358075,-11177.109724,-518.144159,2528.115143
3342.358413,-11251.130318,0.000000,842.705048
3342.358750,-10584.944971,518.144159,229.828649
3342.359088,-9474.636058,518.144159,1378.971896
3342.359425,-10214.842000,0.000000,995.924147
3342.359763,-10362.883188,518.144159,153.219100
3342.360100,-9696.697840,-74.020594,-612.876398
3342.360437,-9770.718434,0.000000,306.438199
3342.360775,-10140.821405,-814.226536,-766.095498
3342.361112,-9992.780217,0.000000,-919.314598
3342.361450,-8956.491898,74.020594,-842.705048
3342.361787,-10066.800811,148.041188,-229.828649
3342.362125,-10436.903782,-296.082377,-536.266849
3342.362462,-9252.574275,0.000000,0.000000
3342.362799,-10066.800811,444.123565,1915.238745
3342.363137,-12213.398043,-592.164754,1762.019645
3342.363474,-10658.965565,74.020594,-766.095498
3342.363812,-9474.636058,-296.082377,-229.828649
3342.364149,-10362.883188,-518.144159,1762.019645
3342.364487,-9474.636058,-296.082377,76.609550
3342.364824,-9252.574275,0.000000,0.000000
3342.365162,-9326.594869,222.061783,459.657299
3342.365499,-10658.965565,1110.308913,153.219100
3342.365836,-11769.274478,666.185348,-459.657299
3342.366174,-9918.759623,740.205942,-1455.581446
3342.366511,-9030.512492,0.000000,-383.047749
3342.366849,-9918.759623,444.123565,306.438199
3342.367186,-9252.574275,-296.082377,0.000000
3342.367524,-8586.388927,-1258.350101,459.657299
3342.367861,-10214.842000,-1924.535449,1762.019645
3342.368198,-10955.047942,-1924.535449,-612.876398
3342.368536,-10140.821405,-370.102971,-1915.238745
3342.368873,-9474.636058,-1554.432478,-1762.019645
3342.369211,-9844.739029,-1628.453072,-995.924147
3342.369548,-10658.965565,-1998.556043,-1608.800546
3342.369886,-9696.697840,-962.267725,0.000000
3342.370223,-9326.594869,-1554.432478,2221.676944
3342.370561,-11917.315666,-1554.432478,2451.505594
3342.370898,-11843.295072,-666.185348,459.657299
3342.371235,-10140.821405,-1036.288319,995.924147
3342.371573,-9844.739029,-148.041188,2681.334243
3342.371910,-11251.130318,-740.205942,2221.676944
3342.372248,-10288.862594,518.144159,1149.143247
3342.372585,-9252.574275,518.144159,1838.629195
3342.372923,-10436.903782,1036.288319,2298.286494
3342.373260,-11917.315666,592.164754,306.438199
3342.373597,-9844.739029,2664.741391,-1915.238745
3342.373935,-8586.388927,1480.411884,-229.828649
3342.374272,-8808.450710,1332.370696,766.095498
3342.374610,-8586.388927,592.164754,-995.924147
3342.374947,-9252.574275,-222.061783,229.828649
3342.375285,-9474.636058,-444.123565,919.314598
3342.375622,-10955.047942,-444.123565,306.438199
3342.375959,-10288.862594,-814.226536,-1378.971896
3342.376297,-8364.327145,-814.226536,-1072.533697
3342.376634,-8808.450710,-1184.329507,76.609550
3342.376972,-9400.615463,-1628.453072,-766.095498
3342.377309,-9030.512492,-814.226536,-919.314598
3342.377647,-9918.759623,-1702.473667,459.657299
3342.377984,-11547.212695,-1406.391290,1608.800546
3342.378322,-11251.130318,-222.061783,306.438199
3342.378659,-10658.965565,814.226536,536.266849
3342.378996,-10362.883188,-370.102971,1455.581446
3342.379334,-10807.006753,-296.082377,1072.533697
3342.379671,-10214.842000,-370.102971,766.095498
3342.380009,-10140.821405,-370.102971,2068.457845
3342.380346,-11695.253884,-666.185348,2681.334243
3342.380684,-12065.356855,0.000000,919.314598
3342.381021,-10362.883188,962.267725,-1762.019645
3342.381358,-9178.553681,666.185348,-1685.410096
3342.381696,-9474.636058,-222.061783,-1302.362347
3342.382033,-9474.636058,-1036.288319,-1991.848295
3342.382371,-8808.450710,-814.226536,-1302.362347
3342.382708,-9548.656652,-1258.350101,995.924147
3342.383046,-11399.171507,-1776.494261,536.266849
3342.383383,-10140.821405,-296.082377,-1378.971896
3342.383720,-9178.553681,-1258.350101,-229.828649
3342.384058,-9104.533087,-518.144159,1685.410096
3342.384395,-9770.718434,-1406.391290,1302.362347
3342.384733,-9400.615463,0.000000,842.705048
3342.385070,-9622.677246,-1110.308913,1532.190996
3342.385408,-11843.295072,-592.164754,1532.190996
3342.385745,-10807.006753,814.226536,0.000000
3342.386083,-9400.615463,1776.494261,-689.485948
3342.386420,-8956.491898,1554.432478,1302.362347
3342.386757,-10732.986159,1480.411884,306.438199
3342.387095,-10584.944971,1924.535449,-842.705048
3342.387432,-10510.924376,1184.329507,536.266849
3342.387770,-11843.295072,814.226536,1915.238745
3342.388107,-11621.233289,888.247130,76.609550
3342.388445,-9696.697840,1184.329507,-1991.848295
3342.388782,-8586.388927,518.144159,-459.657299
3342.389119,-9844.739029,-888.247130,-536.266849
3342.389457,-9770.718434,0.000000,-1838.629195
3342.389794,-8660.409521,-666.185348,-2145.067394
3342.390132,-9844.739029,-1258.350101,689.485948
3342.390469,-11843.295072,-1924.535449,383.047749
3342.390807,-10955.047942,-1924.535449,-2528.115143
3342.391144,-8068.244768,-1332.370696,-842.705048
3342.391482,-8956.491898,-1702.473667,1302.362347
3342.391819,-10510.924376,-2664.741391,689.485948
3342.392156,-9178.553681,-2294.638420,766.095498
3342.392494,-9474.636058,-2072.576638,3907.087040
3342.392831,-11695.253884,-1332.370696,4060.306139
3342.393169,-12065.356855,-888.247130,919.314598
3342.393506,-10510.924376,1258.350101,-153.219100
3342.393844,-9474.636058,0.000000,995.924147
3342.394181,-9844.739029,222.061783,1072.533697
3342.394518,-9770.718434,1036.288319,153.219100
3342.394856,-10066.800811,518.144159,2068.457845
3342.395193,-10732.986159,296.082377,2145.067394
3342.395531,-11991.336260,0.000000,0.000000
3342.395868,-10214.842000,1036.288319,-1685.410096
3342.396206,-8586.388927,222.061783,229.828649
3342.396543,-9400.615463,-370.102971,459.657299
3342.396880,-9474.636058,-444.123565,-1762.019645
3342.397218,-8660.409521,-444.123565,-1302.362347
3342.397555,-9474.636058,-1332.370696,1455.581446
3342.397893,-10955.047942,-1036.288319,459.657299
3342.398230,-9770.718434,222.061783,-1762.019645
3342.398568,-8956.491898,370.102971,-1225.752797
3342.398905,-9400.615463,148.041188,306.438199
3342.399243,-10658.965565,-1258.350101,-153.219100
3342.399580,-9918.759623,-518.144159,229.828649
3342.399917,-9252.574275,-740.205942,2757.943793
3342.400255,-11991.336260,444.123565,3830.477490
3342.400592,-12435.459826,0.000000,1149.143247
3342.400930,-9770.718434,740.205942,-1302.362347
3342.401267,-9400.615463,888.247130,-229.828649
3342.401605,-10807.006753,370.102971,-383.047749
3342.401942,-9696.697840,0.000000,-2221.676944
3342.402279,-9252.574275,0.000000,-153.219100
3342.402617,-10584.944971,-592.164754,2221.676944
3342.402954,-11177.109724,-740.205942,153.219100
3342.403292,-10436.903782,-518.144159,-1149.143247
3342.403629,-9104.533087,-370.102971,-383.047749
3342.403967,-10066.800811,-1702.473667,-153.219100
3342.404304,-9474.636058,-2738.761985,-919.314598
3342.404642,-8734.430116,-2368.659014,-612.876398
3342.404979,-9474.636058,-3256.906145,2987.772442
3342.405316,-11473.192101,-2442.679609,2451.505594
3342.405654,-11177.109724,-1258.350101,-383.047749
3342.405991,-9548.656652,-592.164754,0.000000
3342.406329,-9844.739029,-592.164754,1762.019645
3342.406666,-10584.944971,-518.144159,995.924147
3342.407004,-9992.780217,0.000000,229.828649
3342.407341,-10214.842000,0.000000,2757.943793
3342.407678,-11399.171507,-296.082377,2834.553343
3342.408016,-10955.047942,296.082377,1608.800546
3342.408353,-9474.636058,1850.514855,229.828649
3342.408691,-9474.636058,1554.432478,612.876398
3342.409028,-10436.903782,1036.288319,612.876398
3342.409366,-9770.718434,1184.329507,-919.314598
3342.409703,-9030.512492,962.267725,612.876398
3342.410040,-10510.924376,814.226536,1455.581446
3342.410378,-11917.315666,444.123565,-306.438199
3342.410715,-9770.718434,1258.350101,-3294.210641
3342.411053,-8734.430116,962.267725,-1991.848295
3342.411390,-8882.471304,222.061783,-1608.800546
3342.411728,-8586.388927,-1036.288319,-2068.457845
3342.412065,-8882.471304,-1332.370696,-1302.362347
3342.412403,-9992.780217,-1628.453072,1149.143247
3342.412740,-11621.233289,-1258.350101,995.924147
3342.413077,-11177.109724,-222.061783,-689.485948
3342.413415,-9252.574275,-1184.329507,229.828649
3342.413752,-9548.656652,-666.185348,1532.190996
3342.414090,-9622.677246,-444.123565,306.438199
3342.414427,-9622.677246,0.000000,0.000000
3342.414765,-10214.842000,-1036.288319,1685.410096
3342.415102,-11991.336260,-370.102971,2145.067394
3342.415439,-11547.212695,296.082377,383.047749
3342.415777,-10140.821405,962.267725,-536.266849
3342.416114,-10214.842000,296.082377,612.876398
3342.416452,-10658.965565,370.102971,76.609550
3342.416789,-9696.697840,370.102971,-995.924147
3342.417127,-9178.553681,-740.205942,229.828649
3342.417464,-10436.903782,-814.226536,1762.019645
3342.417802,-11621.233289,-888.247130,689.485948
3342.418139,-10658.965565,-370.102971,229.828649
3342.418476,-9178.553681,-740.205942,0.000000
3342.418814,-9844.739029,-592.164754,612.876398
3342.419151,-10140.821405,-1036.288319,0.000000
3342.419489,-8660.409521,-1036.288319,-766.095498
3342.419826,-8808.450710,-1406.391290,1455.581446
3342.420164,-10510.924376,-1036.288319,1608.800546
3342.420501,-10214.842000,-1406.391290,76.609550
3342.420838,-8586.388927,-148.041188,76.609550
3342.421176,-8660.409521,444.123565,2068.457845
3342.421513,-10362.883188,888.247130,1762.019645
3342.421851,-10140.821405,518.144159,229.828649
3342.422188,-9622.677246,814.226536,1991.848295
3342.422526,-10881.027347,0.000000,2987.772442
3342.422863,-11547.212695,740.205942,689.485948
3342.423200,-11177.109724,1406.391290,-383.047749
3342.423538,-9178.553681,814.226536,-1072.533697
3342.423875,-9474.636058,296.082377,-1685.410096
3342.424213,-9622.677246,592.164754,-2451.505594
3342.424550,-9178.553681,0.000000,-2451.505594
3342.424888,-10288.862594,-888.247130,-459.657299
3342.425225,-11399.171507,-1628.453072,-536.266849
3342.425563,-10214.842000,-1110.308913,-1225.752797
3342.425900,-10658.965565,-1480.411884,919.314598
3342.426237,-10732.986159,-740.205942,2145.067394
3342.426575,-8734.430116,-1998.556043,-919.314598
3342.426912,-9770.718434,-1628.453072,-919.314598
3342.427250,-10732.986159,-2516.700203,766.095498
3342.427587,-10066.800811,-2960.823768,1838.629195
3342.427925,-10362.883188,-1702.473667,1149.143247
3342.428262,-9400.615463,-1110.308913,-306.438199
3342.428599,-9326.594869,0.000000,689.485948
3342.428937,-9474.636058,-148.041188,1072.533697
3342.429274,-8882.471304,-296.082377,995.924147
3342.429612,-9548.656652,-296.082377,2221.676944
3342.429949,-11399.171507,296.082377,2911.162892
3342.430287,-11399.171507,888.247130,1378.971896
3342.430624,-11325.150913,296.082377,0.000000
3342.430961,-9252.574275,1554.432478,919.314598
3342.431299,-9770.718434,740.205942,76.609550
3342.431636,-10584.944971,1110.308913,-229.828649
3342.431974,-9326.594869,222.061783,-1378.971896
3342.432311,-10436.903782,0.000000,153.219100
3342.432649,-10807.006753,0.000000,0.000000
3342.432986,-9696.697840,74.020594,0.000000
3342.433324,-9548.656652,518.144159,766.095498
3342.433661,-9622.677246,666.185348,919.314598
3342.433998,-10807.006753,-962.267725,919.314598
3342.434336,-9474.636058,74.020594,229.828649
3342.434673,-8808.450710,-888.247130,1915.238745
3342.435011,-11251.130318,-1036.288319,3140.991542
3342.435348,-10140.821405,-740.205942,459.657299
3342.435686,-8882.471304,444.123565,-229.828649
3342.436023,-9622.677246,296.082377,0.000000
3342.436360,-8734.430116,296.082377,-995.924147
3342.436698,-8660.409521,814.226536,-1608.800546
3342.437035,-9696.697840,444.123565,0.000000
3342.437373,-10807.006753,666.185348,306.438199
3342.437710,-11621.233289,-444.123565,76.609550
3342.438048,-10436.903782,-74.020594,0.000000
3342.438385,-9474.636058,-518.144159,153.219100
3342.438723,-11177.109724,0.000000,842.705048
3342.439060,-10658.965565,-1036.288319,-1915.238745
3342.439397,-9474.636058,-888.247130,-1915.238745
3342.439735,-9696.697840,-1406.391290,0.000000
3342.440072,-11843.295072,-1628.453072,-612.876398
3342.440410,-10807.006753,-666.185348,-2298.286494
3342.440747,-9770.718434,-962.267725,-2145.067394
3342.441085,-9770.718434,-814.226536,0.000000
3342.441422,-9104.533087,-1184.329507,0.000000
3342.441759,-9178.553681,-814.226536,1149.143247
3342.442097,-9770.718434,-1332.370696,3217.601092
3342.442434,-11547.212695,-1406.391290,4213.525239
3342.442771,-12435.459826,370.102971,3217.601092
3342.443109,-10510.924376,222.061783,1608.800546
3342.443446,-8956.491898,592.164754,1225.752797
3342.443784,-8956.491898,74.020594,1149.143247
3342.444121,-9030.512492,962.267725,0.000000
3342.444458,-8216.285956,1110.308913,-766.095498
3342.444796,-9918.759623,1110.308913,689.485948
3342.445133,-11103.089130,518.144159,0.000000
3342.445471,-10288.862594,1332.370696,-1225.752797
3342.445808,-9178.553681,518.144159,459.657299
3342.446145,-9474.636058,444.123565,1149.143247
3342.446483,-9474.636058,-444.123565,0.000000
3342.446820,-9548.656652,-518.144159,-153.219100
3342.447157,-10214.842000,-2368.659014,919.314598
3342.447495,-11399.171507,-1702.473667,1455.581446
3342.447832,-10584.944971,-1184.329507,459.657299
3342.448170,-8734.430116,-814.226536,-383.047749
3342.448507,-9326.594869,-740.205942,306.438199
3342.448844,-10658.965565,-1258.350101,0.000000
3342.449182,-9844.739029,-148.041188,-1149.143247
3342.449519,-9548.656652,-1332.370696,842.705048
3342.449856,-12065.356855,-1184.329507,3140.991542
3342.450194,-11843.295072,-888.247130,919.314598
3342.450531,-10066.800811,-148.041188,919.314598
3342.450869,-10066.800811,-592.164754,1685.410096
3342.451206,-10436.903782,-592.164754,1762.019645
3342.451543,-10066.800811,296.082377,-689.485948
3342.451881,-9104.533087,-518.144159,-919.314598
3342.452218,-9918.759623,-814.226536,995.924147
3342.452556,-10955.047942,-1480.411884,76.609550
3342.452893,-9696.697840,370.102971,-1762.019645
3342.453230,-8512.368333,-962.267725,-1685.410096
3342.453568,-9548.656652,0.000000,-919.314598
3342.453905,-10214.842000,-1628.453072,-1225.752797
3342.454242,-9252.574275,0.000000,-1149.143247
3342.454580,-9400.615463,-370.102971,1149.143247
3342.454917,-11917.315666,-962.267725,2145.067394
3342.455255,-10510.924376,-740.205942,0.000000
3342.455592,-8734.430116,-518.144159,459.657299
3342.455929,-9474.636058,-518.144159,2757.943793
3342.456267,-9844.739029,666.185348,1991.848295
3342.456604,-9696.697840,740.205942,536.266849
3342.456942,-9252.574275,1924.535449,919.314598
3342.457279,-11177.109724,1998.556043,1378.971896
3342.457616,-11769.274478,888.247130,-153.219100
3342.457954,-9474.636058,1554.432478,-919.314598
3342.458291,-8586.388927,962.267725,536.266849
3342.458628,-9770.718434,1554.432478,1225.752797
3342.458966,-9548.656652,814.226536,-1378.971896
3342.459303,-9474.636058,0.000000,-306.438199
3342.459641,-10436.903782,-1036.288319,612.876398
3342.459978,-11695.253884,0.000000,229.828649
3342.460315,-9918.759623,296.082377,-2145.067394
3342.460653,-9696.697840,-148.041188,-1608.800546
3342.460990,-9770.718434,-1776.494261,-1302.362347
3342.461328,-9548.656652,-1332.370696,-2298.286494
3342.461665,-9252.574275,-370.102971,-1225.752797
3342.462002,-8882.471304,-1628.453072,-536.266849
3342.462340,-11029.068536,-2220.617826,612.876398
3342.462677,-10807.006753,-2368.659014,-995.924147
3342.463014,-9474.636058,-1406.391290,1838.629195
3342.463352,-9918.759623,-888.247130,2757.943793
3342.463689,-11695.253884,-962.267725,2757.943793
3342.464027,-10140.821405,962.267725,229.828649
3342.464364,-9474.636058,-518.144159,1762.019645
3342.464701,-11251.130318,-666.185348,3830.477490
3342.465039,-10881.027347,0.000000,1455.581446
3342.465376,-9770.718434,1480.411884,-459.657299
3342.465714,-9252.574275,1258.350101,229.828649
3342.466051,-10436.903782,1036.288319,-306.438199
3342.466388,-9178.553681,1332.370696,-1762.019645
3342.466726,-9252.574275,1036.288319,-306.438199
3342.467063,-10362.883188,444.123565,1149.143247
3342.467400,-11547.212695,370.102971,153.219100
3342.467738,-10658.965565,148.041188,-842.705048
3342.468075,-8068.244768,-888.247130,383.047749
3342.468413,-9178.553681,-740.205942,2528.115143
3342.468750,-10214.842000,-444.123565,1149.143247
3342.469087,-9326.594869,148.041188,229.828649
3342.469425,-9030.512492,-74.020594,1915.238745
3342.469762,-10658.965565,-296.082377,1838.629195
3342.470099,-11251.130318,0.000000,229.828649
3342.470437,-9918.759623,888.247130,-536.266849
3342.470774,-9474.636058,0.000000,153.219100
3342.471112,-9844.739029,444.123565,1072.533697
3342.471449,-9326.594869,0.000000,0.000000
3342.471786,-9104.533087,-666.185348,1149.143247
3342.472124,-10066.800811,-1110.308913,1915.238745
3342.472461,-11621.233289,-74.020594,536.266849
3342.472799,-10732.986159,814.226536,-1072.533697
3342.473136,-9400.615463,-518.144159,-995.924147
3342.473473,-10066.800811,-592.164754,-459.657299
3342.473811,-10362.883188,-1850.514855,-1838.629195
3342.474148,-9252.574275,-666.185348,-1915.238745
3342.474485,-9696.697840,-2072.576638,-766.095498
3342.474823,-11251.130318,-2294.638420,-459.657299
3342.475160,-10362.883188,-2368.659014,-2221.676944
3342.475498,-9474.636058,-2442.679609,-1378.971896
3342.475835,-9178.553681,-1628.453072,76.609550
3342.476172,-10362.883188,-2368.659014,-383.047749
3342.476510,-9548.656652,-1702.473667,-842.705048
3342.476847,-10214.842000,-1480.411884,1149.143247
3342.477185,-11843.295072,-1184.329507,3524.039291
3342.477522,-11103.089130,-592.164754,1532.190996
3342.477859,-9696.697840,148.041188,1378.971896
3342.478197,-10066.800811,592.164754,2145.067394
3342.478534,-10436.903782,444.123565,2374.896044
3342.478871,-9326.594869,1332.370696,306.438199
3342.479209,-9178.553681,666.185348,1762.019645
3342.479546,-11103.089130,1110.308913,2528.115143
3342.479884,-11621.233289,1184.329507,459.657299
3342.480221,-9548.656652,2294.638420,-1225.752797
3342.480558,-8660.409521,1036.288319,153.219100
3342.480896,-8882.471304,1110.308913,689.485948
3342.481233,-9400.615463,962.267725,-766.095498
3342.481571,-9474.636058,518.144159,0.000000
3342.481908,-10066.800811,-296.082377,536.266849
3342.482245,-10955.047942,-444.123565,229.828649
3342.482583,-10214.842000,-814.226536,-1225.752797
3342.482920,-8438.347739,-444.123565,-842.705048
3342.483257,-8956.491898,-1406.391290,689.485948
3342.483595,-9918.759623,-518.144159,0.000000
3342.483932,-9548.656652,-1110.308913,-383.047749
3342.484270,-10362.883188,-1258.350101,1608.800546
3342.484607,-11769.274478,0.000000,1455.581446
3342.484944,-11621.233289,-1036.288319,383.047749
3342.485282,-9770.718434,74.020594,383.047749
3342.485619,-8882.471304,-592.164754,919.314598
3342.485957,-9844.739029,0.000000,1915.238745
3342.486294,-10881.027347,-74.020594,-153.219100
3342.486631,-10955.047942,-518.144159,76.609550
3342.486969,-11251.130318,0.000000,459.657299
3342.487306,-11843.295072,-666.185348,-1149.143247
3342.487643,-8734.430116,-592.164754,-1991.848295
3342.487981,-8438.347739,-1628.453072,-766.095498
3342.488318,-9252.574275,-740.205942,536.266849
3342.488656,-9548.656652,-962.267725,-1915.238745
3342.488993,-10140.821405,-444.123565,-1302.362347
3342.489330,-10881.027347,-1998.556043,153.219100
3342.489668,-11473.192101,-1776.494261,536.266849
3342.490005,-9770.718434,-518.144159,-383.047749
3342.490342,-8512.368333,-444.123565,153.219100
3342.490680,-9030.512492,-296.082377,1149.143247
3342.491017,-9548.656652,-666.185348,153.219100
3342.491355,-10066.800811,518.144159,459.657299
3342.491692,-9844.739029,1036.288319,2451.505594
3342.492029,-11695.253884,1258.350101,2834.553343
3342.492367,-11399.171507,1258.350101,995.924147
3342.492704,-9178.553681,2368.659014,153.219100
3342.493042,-8956.491898,2072.576638,1149.143247
3342.493379,-10584.944971,1702.473667,1225.752797
3342.493716,-9844.739029,1480.411884,-612.876398
3342.494054,-9696.697840,888.247130,-153.219100
3342.494391,-11177.109724,444.123565,1072.533697
3342.494728,-10807.006753,74.020594,-612.876398
3342.495066,-9104.533087,74.020594,-1532.190996
3342.495403,-8364.327145,-296.082377,-306.438199
3342.495741,-9474.636058,-666.185348,383.047749
3342.496078,-10066.800811,-1924.535449,-612.876398
3342.496415,-9696.697840,-2146.597232,0.000000
3342.496753,-10066.800811,-2516.700203,1455.581446
3342.497090,-11251.130318,-2368.659014,1685.410096
3342.497428,-11029.068536,-1480.411884,-612.876398
3342.497765,-9474.636058,-1258.350101,-842.705048
3342.498102,-9400.615463,-2146.597232,0.000000
3342.498440,-10066.800811,-2368.659014,0.000000
3342.498777,-9474.636058,-1480.411884,76.609550
3342.499114,-10140.821405,-1702.473667,1838.629195
3342.499452,-11029.068536,-1406.391290,2451.505594
3342.499789,-11843.295072,-814.226536,1532.190996
3342.500127,-10881.027347,888.247130,459.657299
3342.500464,-9770.718434,-296.082377,842.705048
3342.500801,-10214.842000,0.000000,689.485948
3342.501139,-9770.718434,148.041188,-459.657299
3342.501476,-9474.636058,296.082377,0.000000
3342.501814,-9992.780217,-518.144159,612.876398
3342.502151,-11769.274478,-592.164754,536.266849
3342.502488,-10436.903782,0.000000,-1225.752797
3342.502826,-8364.327145,814.226536,-995.924147
3342.503163,-9252.574275,148.041188,842.705048
3342.503500,-9474.636058,-518.144159,-995.924147
3342.503838,-8290.306550,-444.123565,-1532.190996
3342.504175,-9104.533087,-296.082377,1608.800546
3342.504513,-10881.027347,-444.123565,1838.629195
3342.504850,-10732.986159,370.102971,459.657299
3342.505187,-9918.759623,1036.288319,306.438199
3342.505525,-9252.574275,814.226536,612.876398
3342.505862,-10066.800811,148.041188,1378.971896
3342.506200,-9844.739029,592.164754,842.705048
3342.506537,-9030.512492,-296.082377,1608.800546
3342.506874,-11695.253884,0.000000,3294.210641
3342.507212,-12435.459826,666.185348,459.657299
3342.507549,-9548.656652,1924.535449,-2145.067394
3342.507886,-8734.430116,1110.308913,-536.266849
3342.508224,-10732.986159,74.020594,-306.438199
3342.508561,-9252.574275,296.082377,-2298.286494
3342.508899,-8734.430116,0.000000,-1838.629195
3342.509236,-10510.924376,-2072.576638,1149.143247
3342.509573,-12213.398043,-2294.638420,306.438199
3342.509911,-11251.130318,-1554.432478,-2221.676944
3342.510248,-8660.409521,-1628.453072,-995.924147
3342.510585,-9030.512492,-2664.741391,995.924147
3342.510923,-9622.677246,-2220.617826,-536.266849
3342.511260,-9474.636058,-2294.638420,-1302.362347
