#time,accel_x,accel_y,accel_z
3213.993218,-10140.821405,-370.102971,1149.143247
3213.993556,-9918.759623,-1110.308913,0.000000
3213.993894,-9400.615463,-1702.473667,919.314598
3213.994231,-10214.842000,-1554.432478,1915.238745
3213.994569,-10140.821405,-2368.659014,1762.019645
3213.994907,-10362.883188,-2072.576638,2451.505594
3213.995245,-11029.068536,-2072.576638,2528.115143
3213.995582,-9548.656652,-1110.308913,1685.410096
3213.995920,-9400.615463,-666.185348,1685.410096
3213.996258,-9474.636058,0.000000,1532.190996
3213.996596,-9474.636058,0.000000,1072.533697
3213.996933,-9992.780217,888.247130,383.047749
3213.997271,-9548.656652,444.123565,1072.533697
3213.997609,-9326.594869,148.041188,1072.533697
3213.997947,-9770.718434,296.082377,2604.724693
3213.998284,-9104.533087,0.000000,2145.067394
3213.998622,-9474.636058,-296.082377,3140.991542
3213.998960,-10881.027347,-222.061783,2987.772442
3213.999298,-10881.027347,-296.082377,2145.067394
3213.999635,-10362.883188,-1406.391290,1915.238745
3213.999973,-9918.759623,-1850.514855,2298.286494
3214.000311,-10066.800811,-2368.659014,2451.505594
3214.000649,-10140.821405,-2738.761985,2298.286494
3214.000986,-9400.615463,-2886.803174,2374.896044
3214.001324,-10066.800811,-3108.864956,2374.896044
3214.001662,-10510.924376,-3849.070898,2374.896044
3214.002000,-11029.068536,-3478.967927,2451.505594
3214.002337,-10436.903782,-3627.009116,2374.896044
3214.002675,-9400.615463,-3256.906145,2374.896044
3214.003013,-9918.759623,-3182.885551,2528.115143
3214.003351,-10510.924376,-3775.050304,2834.553343
3214.003688,-10436.903782,-3478.967927,3064.381992
3214.004026,-10510.924376,-3182.885551,3524.039291
3214.004364,-9252.574275,-2146.597232,3524.039291
3214.004702,-10066.800811,-2738.761985,4443.353888
3214.005039,-11399.171507,-2220.617826,4596.572988
3214.005377,-10214.842000,-2442.679609,3524.039291
3214.005715,-9400.615463,-740.205942,2681.334243
3214.006053,-9474.636058,-296.082377,2221.676944
3214.006390,-9622.677246,-1776.494261,1838.629195
3214.006728,-10214.842000,-2516.700203,1991.848295
3214.007066,-9696.697840,-2960.823768,2604.724693
3214.007404,-9178.553681,-888.247130,2451.505594
3214.007741,-9844.739029,-962.267725,1762.019645
3214.008079,-11177.109724,-1850.514855,0.000000
3214.008417,-9474.636058,-2072.576638,-2145.067394
3214.008755,-9104.533087,-2146.597232,-1149.143247
3214.009092,-9104.533087,-1776.494261,383.047749
3214.009430,-8290.306550,-2146.597232,-995.924147
3214.009768,-9844.739029,-1850.514855,-919.314598
3214.010106,-10658.965565,-1998.556043,-919.314598
3214.010443,-10584.944971,-1702.473667,-689.485948
3214.010781,-10214.842000,-1184.329507,-689.485948
3214.011119,-9474.636058,148.041188,-383.047749
3214.011457,-10362.883188,-518.144159,-536.266849
3214.011794,-10510.924376,-666.185348,0.000000
3214.012132,-10732.986159,-518.144159,0.000000
3214.012470,-10732.986159,0.000000,-689.485948
3214.012807,-10066.800811,148.041188,-2298.286494
3214.013145,-10140.821405,148.041188,-2757.943793
3214.013483,-9918.759623,-740.205942,-3370.820191
3214.013821,-8660.409521,-1406.391290,-2681.334243
3214.014158,-9178.553681,-1332.370696,-1225.752797
3214.014496,-9844.739029,-518.144159,-536.266849
3214.014834,-11695.253884,296.082377,-842.705048
3214.015171,-11103.089130,518.144159,-2145.067394
3214.015508,-9696.697840,-148.041188,-766.095498
3214.015846,-10214.842000,-962.267725,2681.334243
3214.016183,-11177.109724,-814.226536,2987.772442
3214.016521,-10214.842000,-296.082377,1838.629195
3214.016858,-10066.800811,814.226536,995.924147
3214.017195,-9992.780217,0.000000,1072.533697
3214.017533,-11473.192101,148.041188,2068.457845
3214.017870,-9918.759623,0.000000,2374.896044
3214.018208,-7920.203579,1036.288319,2145.067394
3214.018545,-8364.327145,2516.700203,3600.648841
3214.018882,-11177.109724,3182.885551,3524.039291
3214.019220,-11917.315666,3330.926739,1149.143247
3214.019557,-9844.739029,3034.844362,612.876398
3214.019895,-9400.615463,2590.720797,2681.334243
3214.020232,-9918.759623,1998.556043,4290.134789
3214.020569,-9252.574275,1332.370696,2987.772442
3214.020907,-8438.347739,1998.556043,689.485948
3214.021244,-8660.409521,1036.288319,0.000000
3214.021582,-11103.089130,1480.411884,-612.876398
3214.021919,-11473.192101,222.061783,-1532.190996
3214.022256,-8882.471304,444.123565,-2451.505594
3214.022594,-7994.224174,-370.102971,-919.314598
3214.022931,-9548.656652,-222.061783,-306.438199
3214.023269,-10436.903782,-370.102971,-766.095498
3214.023606,-10658.965565,-518.144159,-1302.362347
3214.023943,-9474.636058,-1776.494261,76.609550
3214.024281,-10955.047942,-2072.576638,3140.991542
3214.024618,-11695.253884,-2368.659014,3907.087040
3214.024956,-11103.089130,-2146.597232,1225.752797
3214.025293,-10732.986159,-1110.308913,0.000000
3214.025630,-10955.047942,-1554.432478,-383.047749
3214.025968,-10955.047942,-2220.617826,-995.924147
3214.026305,-9326.594869,-1850.514855,-1762.019645
3214.026643,-8216.285956,-1850.514855,-1991.848295
3214.026980,-9918.759623,-1406.391290,-1225.752797
3214.027317,-11251.130318,-1036.288319,-2221.676944
3214.027655,-10658.965565,-740.205942,-2451.505594
3214.027992,-9030.512492,-1480.411884,-2451.505594
3214.028330,-9474.636058,-2146.597232,383.047749
3214.028667,-11029.068536,-1850.514855,1685.410096
3214.029004,-10955.047942,-1924.535449,459.657299
3214.029342,-9696.697840,-1702.473667,-1532.190996
3214.029679,-10214.842000,-2072.576638,-1991.848295
3214.030017,-10362.883188,-2368.659014,-1532.190996
3214.030354,-9252.574275,-1924.535449,-995.924147
3214.030691,-8068.244768,-1036.288319,0.000000
3214.031029,-8586.388927,-814.226536,612.876398
3214.031366,-10214.842000,74.020594,1225.752797
3214.031704,-10732.986159,0.000000,919.314598
3214.032041,-9474.636058,1184.329507,1532.190996
3214.032378,-9622.677246,666.185348,3370.820191
3214.032716,-10510.924376,148.041188,5439.278036
3214.033053,-10288.862594,592.164754,5362.668486
3214.033391,-9474.636058,1332.370696,2681.334243
3214.033728,-10436.903782,1184.329507,1455.581446
3214.034065,-11029.068536,888.247130,-153.219100
3214.034403,-10584.944971,0.000000,-612.876398
3214.034740,-8734.430116,222.061783,-1072.533697
3214.035078,-7179.997637,296.082377,-919.314598
3214.035415,-9178.553681,0.000000,-536.266849
3214.035752,-9844.739029,-666.185348,-1608.800546
3214.036090,-9548.656652,-740.205942,-2451.505594
3214.036427,-9400.615463,-1184.329507,-229.828649
3214.036765,-10584.944971,-2146.597232,1608.800546
3214.037102,-11621.233289,-1480.411884,2298.286494
3214.037439,-10955.047942,-814.226536,1149.143247
3214.037777,-10807.006753,-518.144159,0.000000
3214.038114,-11251.130318,-1554.432478,-689.485948
3214.038452,-11177.109724,-1850.514855,-153.219100
3214.038789,-9918.759623,-2368.659014,0.000000
3214.039126,-8660.409521,-962.267725,612.876398
3214.039464,-9548.656652,0.000000,766.095498
3214.039801,-11177.109724,0.000000,842.705048
3214.040139,-10584.944971,814.226536,153.219100
3214.040476,-9474.636058,962.267725,153.219100
3214.040813,-10881.027347,1184.329507,3140.991542
3214.041151,-11251.130318,1110.308913,2757.943793
3214.041488,-11325.150913,1480.411884,1762.019645
3214.041826,-10140.821405,1702.473667,0.000000
3214.042163,-9992.780217,1776.494261,-1685.410096
3214.042500,-10510.924376,0.000000,-1302.362347
3214.042838,-9252.574275,0.000000,-2451.505594
3214.043175,-6957.935855,222.061783,-1991.848295
3214.043513,-8364.327145,518.144159,-1302.362347
3214.043850,-9844.739029,518.144159,-1532.190996
3214.044187,-10584.944971,1110.308913,-1915.238745
3214.044525,-9474.636058,1258.350101,-1378.971896
3214.044862,-9104.533087,1110.308913,1302.362347
3214.045200,-10658.965565,222.061783,2757.943793
3214.045537,-11251.130318,-222.061783,3064.381992
3214.045874,-9992.780217,370.102971,1455.581446
3214.046212,-10214.842000,0.000000,995.924147
3214.046549,-11325.150913,0.000000,689.485948
3214.046887,-10807.006753,-1480.411884,-306.438199
3214.047224,-8808.450710,-370.102971,-306.438199
3214.047561,-8586.388927,222.061783,-306.438199
3214.047899,-10140.821405,0.000000,383.047749
3214.048236,-10732.986159,-148.041188,-1225.752797
3214.048574,-9918.759623,-592.164754,-1072.533697
3214.048911,-9548.656652,-148.041188,383.047749
3214.049248,-10436.903782,-1554.432478,1685.410096
3214.049586,-11991.336260,-1998.556043,2604.724693
3214.049923,-11029.068536,-2072.576638,612.876398
3214.050261,-9992.780217,-1258.350101,-995.924147
3214.050598,-10658.965565,-3034.844362,-1072.533697
3214.050935,-10955.047942,-3923.091493,-1072.533697
3214.051273,-8660.409521,-4219.173869,-1225.752797
3214.051610,-8438.347739,-2738.761985,0.000000
3214.051948,-8808.450710,-1628.453072,229.828649
3214.052285,-10807.006753,-1850.514855,459.657299
3214.052622,-10658.965565,-1850.514855,76.609550
3214.052960,-8808.450710,-1702.473667,766.095498
3214.053297,-10140.821405,-592.164754,4596.572988
3214.053635,-12065.356855,-592.164754,4826.401637
3214.053972,-10955.047942,-296.082377,2987.772442
3214.054309,-9918.759623,740.205942,2145.067394
3214.054647,-9992.780217,666.185348,536.266849
3214.054984,-10436.903782,74.020594,229.828649
3214.055322,-9548.656652,518.144159,-612.876398
3214.055659,-8068.244768,1036.288319,-919.314598
3214.055997,-8586.388927,1332.370696,-766.095498
3214.056334,-10658.965565,1924.535449,-842.705048
3214.056671,-10362.883188,1406.391290,-1455.581446
3214.057009,-9326.594869,1554.432478,-2068.457845
3214.057346,-9326.594869,888.247130,612.876398
3214.057684,-10584.944971,0.000000,1685.410096
3214.058021,-11325.150913,-1406.391290,2451.505594
3214.058358,-10288.862594,-592.164754,0.000000
3214.058696,-10436.903782,-814.226536,-842.705048
3214.059033,-11399.171507,-1110.308913,-1225.752797
3214.059371,-10140.821405,-2590.720797,-1915.238745
3214.059708,-8142.265362,-2368.659014,-1225.752797
3214.060045,-7476.080014,-1776.494261,0.000000
3214.060383,-9622.677246,-444.123565,383.047749
3214.060720,-11325.150913,-814.226536,-612.876398
3214.061058,-10214.842000,296.082377,-1762.019645
3214.061395,-10066.800811,-148.041188,689.485948
3214.061732,-10807.006753,-592.164754,2911.162892
3214.062070,-11325.150913,-370.102971,3064.381992
3214.062407,-10955.047942,-148.041188,1685.410096
3214.062745,-10510.924376,148.041188,0.000000
3214.063082,-11029.068536,0.000000,-1149.143247
3214.063419,-11473.192101,-888.247130,-766.095498
3214.063757,-9030.512492,-370.102971,-1762.019645
3214.064094,-8068.244768,-148.041188,-1685.410096
3214.064432,-9252.574275,370.102971,-383.047749
3214.064769,-10584.944971,296.082377,-842.705048
3214.065106,-10881.027347,74.020594,-383.047749
3214.065444,-10140.821405,370.102971,995.924147
3214.065781,-10214.842000,370.102971,3370.820191
3214.066119,-11917.315666,518.144159,4903.011187
3214.066456,-10658.965565,296.082377,3140.991542
3214.066793,-9326.594869,666.185348,2298.286494
3214.067131,-9918.759623,592.164754,2145.067394
3214.067468,-10584.944971,666.185348,1532.190996
3214.067806,-9252.574275,666.185348,536.266849
3214.068143,-7772.162391,592.164754,0.000000
3214.068480,-7846.182985,2146.597232,536.266849
3214.068818,-9622.677246,1628.453072,-306.438199
3214.069155,-9844.739029,2368.659014,-612.876398
3214.069493,-8512.368333,1258.350101,-1302.362347
3214.069830,-9252.574275,1036.288319,1149.143247
3214.070167,-10436.903782,74.020594,2681.334243
3214.070505,-10881.027347,-740.205942,2068.457845
3214.070842,-10436.903782,-518.144159,76.609550
3214.071180,-10140.821405,-1184.329507,-1225.752797
3214.071517,-11325.150913,-1554.432478,-1762.019645
3214.071854,-10214.842000,-2664.741391,-3217.601092
3214.072192,-8808.450710,-2738.761985,-2528.115143
3214.072529,-8882.471304,-1554.432478,-1608.800546
3214.072867,-10658.965565,-1850.514855,-1302.362347
3214.073204,-11843.295072,-1480.411884,-1302.362347
3214.073541,-10881.027347,-1702.473667,-1455.581446
3214.073879,-10066.800811,-2368.659014,1072.533697
3214.074216,-11843.295072,-2368.659014,3907.087040
3214.074554,-12065.356855,-2294.638420,4136.915689
3214.074891,-11177.109724,-1036.288319,2298.286494
3214.075228,-11029.068536,-1184.329507,1378.971896
3214.075566,-10658.965565,-1184.329507,0.000000
3214.075903,-10214.842000,-2368.659014,-383.047749
3214.076241,-8882.471304,-888.247130,-536.266849
3214.076578,-7402.059420,-148.041188,-919.314598
3214.076915,-9178.553681,444.123565,0.000000
3214.077253,-10214.842000,370.102971,-842.705048
3214.077590,-9696.697840,296.082377,-1608.800546
3214.077928,-9400.615463,1036.288319,229.828649
3214.078265,-9992.780217,370.102971,1455.581446
3214.078602,-10955.047942,0.000000,2528.115143
3214.078940,-9696.697840,0.000000,1532.190996
3214.079277,-9030.512492,518.144159,459.657299
3214.079615,-9622.677246,148.041188,306.438199
3214.079952,-10658.965565,-370.102971,76.609550
3214.080289,-9548.656652,74.020594,-459.657299
3214.080627,-8364.327145,296.082377,-306.438199
3214.080964,-8660.409521,1850.514855,1072.533697
3214.081302,-11547.212695,962.267725,1762.019645
3214.081639,-10658.965565,1850.514855,536.266849
3214.081976,-10140.821405,1480.411884,842.705048
3214.082314,-10584.944971,222.061783,3447.429741
3214.082651,-10584.944971,-222.061783,4903.011187
3214.082989,-10955.047942,-296.082377,3600.648841
3214.083326,-10436.903782,592.164754,1685.410096
3214.083663,-9918.759623,222.061783,-383.047749
3214.084001,-11251.130318,-740.205942,-1149.143247
3214.084338,-10288.862594,-1406.391290,-2068.457845
3214.084676,-8142.265362,-814.226536,-2145.067394
3214.085013,-8364.327145,-1036.288319,-1838.629195
3214.085350,-9622.677246,-740.205942,-2145.067394
3214.085688,-10288.862594,-1184.329507,-2451.505594
3214.086025,-9474.636058,-1480.411884,-2528.115143
3214.086363,-9474.636058,-1628.453072,0.000000
3214.086700,-11103.089130,-1776.494261,2221.676944
3214.087037,-11991.336260,-2072.576638,3064.381992
3214.087375,-10584.944971,-740.205942,536.266849
3214.087712,-10140.821405,-518.144159,0.000000
3214.088050,-11843.295072,-740.205942,306.438199
3214.088387,-10807.006753,-740.205942,-842.705048
3214.088724,-9030.512492,0.000000,-153.219100
3214.089062,-8586.388927,1184.329507,1149.143247
3214.089399,-9326.594869,1184.329507,689.485948
3214.089737,-11029.068536,2294.638420,919.314598
3214.090074,-10881.027347,2368.659014,459.657299
3214.090411,-10066.800811,2368.659014,766.095498
3214.090749,-10658.965565,1924.535449,2987.772442
3214.091086,-11029.068536,2294.638420,3140.991542
3214.091424,-10140.821405,518.144159,2145.067394
3214.091761,-8586.388927,1258.350101,76.609550
3214.092098,-9474.636058,1480.411884,-689.485948
3214.092436,-10214.842000,-518.144159,-1455.581446
3214.092773,-8956.491898,-518.144159,-2374.896044
3214.093111,-7624.121203,-888.247130,-1838.629195
3214.093448,-8660.409521,222.061783,-612.876398
3214.093785,-10510.924376,-148.041188,-995.924147
3214.094123,-10436.903782,-666.185348,-1532.190996
3214.094460,-8956.491898,-814.226536,-612.876398
3214.094798,-9178.553681,-1184.329507,1991.848295
3214.095135,-11325.150913,-2220.617826,3677.258390
3214.095472,-11399.171507,-1924.535449,2987.772442
3214.095810,-10881.027347,-740.205942,1915.238745
3214.096147,-11029.068536,-740.205942,612.876398
3214.096485,-11547.212695,-1110.308913,153.219100
3214.096822,-10658.965565,-1850.514855,-229.828649
3214.097159,-8734.430116,-1776.494261,-383.047749
3214.097497,-8734.430116,0.000000,306.438199
3214.097834,-10732.986159,-444.123565,0.000000
3214.098172,-11177.109724,-222.061783,-1762.019645
3214.098509,-10066.800811,-370.102971,-1685.410096
3214.098846,-10288.862594,-444.123565,842.705048
3214.099184,-11251.130318,-962.267725,2681.334243
3214.099521,-11177.109724,-1554.432478,1915.238745
3214.099859,-10214.842000,-1036.288319,689.485948
3214.100196,-9992.780217,-814.226536,-842.705048
3214.100533,-10066.800811,-1628.453072,-1072.533697
3214.100871,-10288.862594,-1776.494261,-919.314598
3214.101208,-8142.265362,-1998.556043,-1149.143247
3214.101546,-7328.038826,-148.041188,-612.876398
3214.101883,-9252.574275,148.041188,919.314598
3214.102220,-10584.944971,962.267725,306.438199
3214.102558,-10066.800811,592.164754,0.000000
3214.102895,-9400.615463,1628.453072,1532.190996
3214.103233,-9844.739029,1258.350101,3830.477490
3214.103570,-11473.192101,1110.308913,4596.572988
3214.103907,-10510.924376,1184.329507,3294.210641
3214.104245,-9030.512492,1332.370696,1225.752797
3214.104582,-9622.677246,1480.411884,0.000000
3214.104920,-11103.089130,518.144159,-995.924147
3214.105257,-9918.759623,1036.288319,-2145.067394
3214.105594,-8142.265362,518.144159,-2298.286494
3214.105932,-8882.471304,1184.329507,-1762.019645
3214.106269,-10510.924376,1036.288319,-2221.676944
3214.106607,-10362.883188,0.000000,-2528.115143
3214.106944,-9400.615463,-296.082377,-1915.238745
3214.107281,-9918.759623,-1628.453072,766.095498
3214.107619,-11325.150913,-1628.453072,3370.820191
3214.107956,-11547.212695,-2368.659014,2374.896044
3214.108294,-10732.986159,-1776.494261,459.657299
3214.108631,-10955.047942,-1258.350101,-459.657299
3214.108969,-10955.047942,-2146.597232,-612.876398
3214.109306,-9918.759623,-2738.761985,-842.705048
3214.109643,-8290.306550,-2220.617826,-536.266849
3214.109981,-8586.388927,-1258.350101,689.485948
3214.110318,-10288.862594,0.000000,689.485948
3214.110656,-11251.130318,148.041188,0.000000
3214.110993,-9844.739029,0.000000,-383.047749
3214.111330,-9178.553681,370.102971,1302.362347
3214.111668,-10732.986159,518.144159,3983.696590
3214.112005,-11843.295072,518.144159,3983.696590
3214.112343,-10214.842000,888.247130,1532.190996
3214.112680,-9548.656652,1258.350101,-383.047749
3214.113017,-10436.903782,518.144159,-766.095498
3214.113355,-10288.862594,740.205942,-1838.629195
3214.113692,-8956.491898,518.144159,-1608.800546
3214.114030,-7476.080014,1110.308913,-1991.848295
3214.114367,-8882.471304,1110.308913,-1532.190996
3214.114704,-10955.047942,1406.391290,-842.705048
3214.115042,-10362.883188,962.267725,-1378.971896
3214.115379,-9622.677246,888.247130,536.266849
3214.115717,-9918.759623,444.123565,3294.210641
3214.116054,-10510.924376,-74.020594,4443.353888
3214.116392,-10140.821405,444.123565,3524.039291
3214.116729,-9918.759623,0.000000,2068.457845
3214.117067,-10214.842000,592.164754,612.876398
3214.117404,-10807.006753,-222.061783,76.609550
3214.117742,-9770.718434,0.000000,-306.438199
3214.118079,-8068.244768,-1036.288319,-1072.533697
3214.118417,-8660.409521,592.164754,-383.047749
3214.118754,-9918.759623,74.020594,-689.485948
3214.119092,-9770.718434,-666.185348,-2298.286494
3214.119429,-8808.450710,-592.164754,-2298.286494
3214.119767,-10066.800811,-1184.329507,1378.971896
3214.120104,-11325.150913,-1924.535449,2681.334243
3214.120442,-11399.171507,-2220.617826,1838.629195
3214.120779,-11103.089130,-1628.453072,0.000000
3214.121117,-10807.006753,-1628.453072,-1532.190996
3214.121454,-11473.192101,-3108.864956,-1838.629195
3214.121792,-10881.027347,-2960.823768,-1608.800546
3214.122129,-8512.368333,-2294.638420,-1685.410096
3214.122467,-9178.553681,-1554.432478,-383.047749
3214.122804,-11251.130318,-1702.473667,-536.266849
3214.123142,-10732.986159,-1184.329507,-919.314598
3214.123479,-10807.006753,-592.164754,306.438199
3214.123817,-9918.759623,-814.226536,2451.505594
3214.124154,-11177.109724,-740.205942,5056.230287
3214.124492,-11917.315666,0.000000,5439.278036
3214.124829,-10807.006753,962.267725,2834.553343
3214.125167,-9770.718434,1184.329507,1455.581446
3214.125504,-10807.006753,592.164754,766.095498
3214.125842,-10066.800811,296.082377,76.609550
3214.126179,-8142.265362,1036.288319,-689.485948
3214.126517,-7179.997637,1998.556043,0.000000
3214.126854,-8956.491898,1776.494261,-995.924147
3214.127192,-10362.883188,1924.535449,-1762.019645
3214.127529,-9474.636058,2294.638420,-2681.334243
3214.127867,-8808.450710,1406.391290,-1225.752797
3214.128204,-9252.574275,518.144159,459.657299
3214.128542,-10214.842000,0.000000,2681.334243
3214.128879,-10140.821405,-296.082377,1378.971896
3214.129217,-9622.677246,296.082377,153.219100
3214.129554,-10955.047942,0.000000,-995.924147
3214.129892,-11621.233289,-1332.370696,-1455.581446
3214.130229,-9770.718434,-1406.391290,-1991.848295
3214.130567,-8068.244768,-1332.370696,-383.047749
3214.130904,-9178.553681,-148.041188,383.047749
3214.131242,-10510.924376,-518.144159,229.828649
3214.131579,-11547.212695,148.041188,0.000000
3214.131917,-10214.842000,296.082377,76.609550
3214.132254,-10807.006753,-518.144159,2757.943793
3214.132592,-12213.398043,-1184.329507,4673.182538
3214.132929,-11103.089130,-962.267725,2221.676944
3214.133267,-10436.903782,148.041188,1149.143247
3214.133604,-10881.027347,-370.102971,-383.047749
3214.133942,-10436.903782,-2072.576638,-1532.190996
3214.134279,-9918.759623,-1480.411884,-1532.190996
3214.134617,-8438.347739,-1554.432478,-1762.019645
3214.134954,-8068.244768,-740.205942,-1608.800546
3214.135292,-9622.677246,-666.185348,-1532.190996
3214.135629,-10288.862594,-1036.288319,-1915.238745
3214.135967,-9474.636058,-666.185348,-995.924147
3214.136304,-9622.677246,-444.123565,995.924147
3214.136642,-10510.924376,-444.123565,2911.162892
3214.136979,-11325.150913,-296.082377,3064.381992
3214.137317,-10658.965565,74.020594,2298.286494
3214.137654,-9844.739029,370.102971,1455.581446
3214.137992,-10140.821405,592.164754,1378.971896
3214.138329,-10362.883188,444.123565,0.000000
3214.138667,-9030.512492,1036.288319,0.000000
3214.139004,-8068.244768,1998.556043,689.485948
3214.139342,-10066.800811,2294.638420,689.485948
3214.139679,-11399.171507,2812.782580,536.266849
3214.140017,-10288.862594,2220.617826,-536.266849
3214.140354,-9622.677246,2886.803174,229.828649
3214.140692,-10362.883188,814.226536,1915.238745
3214.141029,-10658.965565,444.123565,2757.943793
3214.141367,-10732.986159,0.000000,1685.410096
3214.141704,-9844.739029,0.000000,-153.219100
3214.142042,-9844.739029,-370.102971,-2221.676944
3214.142379,-10140.821405,-2590.720797,-2757.943793
3214.142717,-8586.388927,-2960.823768,-2451.505594
3214.143054,-7105.977043,-2886.803174,-1608.800546
3214.143391,-8660.409521,-1776.494261,-76.609550
3214.143729,-10436.903782,-1258.350101,-1608.800546
3214.144066,-10584.944971,-1702.473667,-2374.896044
3214.144404,-10140.821405,-2220.617826,-536.266849
3214.144741,-9696.697840,-2146.597232,2068.457845
3214.145079,-11399.171507,-2960.823768,3907.087040
3214.145416,-11547.212695,-2442.679609,3677.258390
3214.145754,-10658.965565,-1554.432478,2068.457845
3214.146091,-10955.047942,-740.205942,1149.143247
3214.146429,-11843.295072,-1184.329507,-153.219100
3214.146766,-10658.965565,-1406.391290,-1225.752797
3214.147104,-8882.471304,-814.226536,-306.438199
3214.147441,-8882.471304,740.205942,383.047749
3214.147779,-10140.821405,592.164754,-612.876398
3214.148116,-11177.109724,370.102971,-689.485948
3214.148454,-9844.739029,592.164754,-919.314598
3214.148791,-10066.800811,296.082377,919.314598
3214.149129,-11029.068536,370.102971,2451.505594
3214.149466,-10807.006753,-814.226536,1838.629195
3214.149804,-9474.636058,0.000000,995.924147
3214.150141,-8956.491898,-296.082377,76.609550
3214.150479,-9696.697840,0.000000,-153.219100
3214.150816,-10140.821405,-444.123565,-612.876398
3214.151154,-8216.285956,-444.123565,-766.095498
3214.151491,-8068.244768,74.020594,0.000000
3214.151829,-9400.615463,1480.411884,689.485948
3214.152166,-10362.883188,1702.473667,306.438199
3214.152504,-10436.903782,1110.308913,0.000000
3214.152841,-8808.450710,1554.432478,995.924147
3214.153179,-9992.780217,888.247130,3600.648841
3214.153516,-11399.171507,296.082377,3907.087040
3214.153854,-9992.780217,296.082377,1455.581446
3214.154191,-9844.739029,888.247130,153.219100
3214.154529,-10732.986159,148.041188,-919.314598
3214.154866,-10584.944971,-222.061783,-2068.457845
3214.155204,-9770.718434,-814.226536,-1608.800546
3214.155541,-8216.285956,-666.185348,-1685.410096
3214.155879,-9474.636058,-296.082377,-76.609550
3214.156216,-11547.212695,148.041188,-1225.752797
3214.156554,-11325.150913,-888.247130,-2068.457845
3214.156891,-10510.924376,-1554.432478,-1225.752797
3214.157229,-9918.759623,-2442.679609,1302.362347
3214.157566,-11251.130318,-1998.556043,2987.772442
3214.157904,-11473.192101,-2368.659014,2068.457845
3214.158241,-10584.944971,-1480.411884,0.000000
3214.158579,-10658.965565,-1850.514855,-306.438199
3214.158916,-10807.006753,-1924.535449,0.000000
3214.159254,-9918.759623,-1406.391290,459.657299
3214.159591,-8512.368333,-1332.370696,689.485948
3214.159929,-8068.244768,0.000000,1532.190996
3214.160266,-9992.780217,1258.350101,1149.143247
3214.160604,-10955.047942,740.205942,1302.362347
3214.160941,-9622.677246,1776.494261,-306.438199
3214.161279,-10066.800811,666.185348,1762.019645
3214.161616,-10510.924376,1850.514855,2528.115143
3214.161954,-10362.883188,888.247130,1991.848295
3214.162291,-9474.636058,888.247130,459.657299
3214.162629,-8808.450710,962.267725,-1072.533697
3214.162966,-10066.800811,740.205942,-1455.581446
3214.163304,-10214.842000,370.102971,-1838.629195
3214.163641,-8512.368333,0.000000,-2374.896044
3214.163979,-8586.388927,444.123565,-995.924147
3214.164316,-9844.739029,74.020594,0.000000
3214.164654,-10732.986159,814.226536,-536.266849
3214.164991,-10658.965565,0.000000,-1072.533697
3214.165329,-9770.718434,-444.123565,612.876398
3214.165666,-10140.821405,-1628.453072,2911.162892
3214.166004,-11103.089130,-1924.535449,3677.258390
3214.166341,-10584.944971,-1036.288319,2451.505594
3214.166679,-10510.924376,-1184.329507,459.657299
3214.167016,-11029.068536,-888.247130,306.438199
3214.167354,-11029.068536,-1776.494261,-842.705048
3214.167691,-9474.636058,-1184.329507,-919.314598
3214.168029,-8586.388927,-1628.453072,153.219100
3214.168366,-9104.533087,-1184.329507,0.000000
3214.168704,-10584.944971,-740.205942,-612.876398
3214.169041,-11029.068536,-740.205942,-1991.848295
3214.169379,-9474.636058,-1776.494261,-995.924147
3214.169716,-9696.697840,-1998.556043,1378.971896
3214.170054,-11029.068536,-1554.432478,2987.772442
3214.170391,-11103.089130,-1702.473667,1302.362347
3214.170729,-10436.903782,-1332.370696,-612.876398
3214.171066,-10436.903782,-1036.288319,-1225.752797
3214.171404,-11325.150913,-2146.597232,-766.095498
3214.171741,-9770.718434,-1480.411884,-919.314598
3214.172079,-8438.347739,-296.082377,-459.657299
3214.172416,-9178.553681,-444.123565,1225.752797
3214.172754,-10214.842000,296.082377,1072.533697
3214.173091,-11029.068536,370.102971,1225.752797
3214.173429,-10658.965565,1628.453072,1149.143247
3214.173766,-10510.924376,814.226536,2987.772442
3214.174104,-10807.006753,962.267725,4596.572988
3214.174441,-10140.821405,1332.370696,3524.039291
3214.174779,-9474.636058,2072.576638,2068.457845
3214.175116,-9474.636058,1776.494261,536.266849
3214.175454,-9844.739029,1258.350101,-766.095498
3214.175791,-10066.800811,1332.370696,-919.314598
3214.176129,-8956.491898,296.082377,-1532.190996
3214.176466,-7994.224174,1702.473667,-689.485948
3214.176804,-9252.574275,592.164754,-1225.752797
3214.177141,-9992.780217,962.267725,-2451.505594
3214.177479,-9474.636058,518.144159,-3447.429741
3214.177816,-9474.636058,-370.102971,-1072.533697
3214.178154,-9548.656652,-1628.453072,1532.190996
3214.178491,-9918.759623,-2590.720797,1991.848295
3214.178829,-10584.944971,-1332.370696,1455.581446
3214.179166,-11029.068536,-1332.370696,-306.438199
3214.179504,-11399.171507,-1406.391290,-995.924147
3214.179841,-11251.130318,-2368.659014,-995.924147
3214.180179,-10288.862594,-1998.556043,-153.219100
3214.180516,-8660.409521,-1628.453072,76.609550
3214.180854,-10214.842000,-666.185348,842.705048
3214.181191,-11473.192101,-296.082377,306.438199
3214.181529,-11029.068536,-296.082377,-306.438199
3214.181866,-10288.862594,-518.144159,766.095498
3214.182204,-10584.944971,-296.082377,2221.676944
3214.182541,-11177.109724,-666.185348,3524.039291
3214.182879,-11325.150913,-222.061783,2068.457845
3214.183216,-10066.800811,222.061783,383.047749
3214.183554,-9992.780217,148.041188,-689.485948
3214.183891,-10288.862594,-888.247130,-1991.848295
3214.184229,-9548.656652,-740.205942,-1608.800546
3214.184566,-7476.080014,-518.144159,-1991.848295
3214.184904,-8290.306550,-296.082377,-1225.752797
3214.185241,-9548.656652,74.020594,-1225.752797
3214.185579,-10288.862594,0.000000,-1685.410096
3214.185916,-9622.677246,1184.329507,-229.828649
3214.186254,-9178.553681,444.123565,842.705048
3214.186591,-10140.821405,-222.061783,2911.162892
3214.186929,-10584.944971,0.000000,3294.210641
3214.187266,-9770.718434,-370.102971,2681.334243
3214.187604,-9622.677246,1480.411884,1915.238745
3214.187941,-11325.150913,592.164754,612.876398
3214.188279,-11029.068536,370.102971,-383.047749
3214.188616,-9178.553681,222.061783,0.000000
3214.188954,-8808.450710,740.205942,612.876398
3214.189291,-9548.656652,962.267725,689.485948
3214.189629,-10584.944971,518.144159,-689.485948
3214.189966,-10362.883188,444.123565,-1302.362347
3214.190304,-9400.615463,-444.123565,-536.266849
3214.190641,-10140.821405,-888.247130,2604.724693
3214.190979,-10807.006753,-1776.494261,2451.505594
3214.191316,-10362.883188,-1628.453072,689.485948
3214.191654,-9992.780217,-1332.370696,-1302.362347
3214.191991,-10881.027347,-2146.597232,-1991.848295
3214.192329,-10658.965565,-3182.885551,-1532.190996
3214.192666,-9326.594869,-3627.009116,-1302.362347
3214.193004,-8438.347739,-2738.761985,-153.219100
3214.193341,-9252.574275,-1702.473667,-459.657299
3214.193679,-10881.027347,-1554.432478,-689.485948
3214.194016,-10955.047942,-1850.514855,-1455.581446
3214.194354,-9474.636058,-1332.370696,-383.047749
3214.194691,-9844.739029,-962.267725,2987.772442
3214.195029,-11547.212695,-1110.308913,4826.401637
3214.195366,-11177.109724,-370.102971,3600.648841
3214.195704,-10214.842000,518.144159,1608.800546
3214.196041,-10436.903782,1184.329507,0.000000
3214.196379,-11251.130318,814.226536,-612.876398
3214.196716,-11029.068536,222.061783,0.000000
3214.197054,-8512.368333,1110.308913,-229.828649
3214.197391,-7698.141797,1406.391290,-306.438199
3214.197729,-9844.739029,2294.638420,-76.609550
3214.198066,-11177.109724,888.247130,-1072.533697
3214.198404,-9770.718434,1776.494261,-1455.581446
3214.198741,-9178.553681,1332.370696,-229.828649
3214.199079,-9474.636058,0.000000,1608.800546
3214.199416,-9844.739029,74.020594,1991.848295
3214.199754,-10066.800811,0.000000,1685.410096
3214.200091,-10140.821405,518.144159,76.609550
3214.200429,-9992.780217,-74.020594,-995.924147
3214.200766,-10732.986159,-1110.308913,-612.876398
3214.201104,-8808.450710,-740.205942,-766.095498
3214.201441,-8660.409521,-888.247130,306.438199
3214.201779,-9474.636058,370.102971,536.266849
3214.202116,-10510.924376,370.102971,-995.924147
3214.202454,-10140.821405,296.082377,-995.924147
3214.202791,-9474.636058,-148.041188,229.828649
3214.203129,-9474.636058,-74.020594,2681.334243
3214.203466,-11547.212695,-740.205942,3140.991542
3214.203804,-11251.130318,-222.061783,1378.971896
3214.204141,-10066.800811,222.061783,-612.876398
3214.204479,-11473.192101,-666.185348,-612.876398
3214.204816,-11695.253884,-962.267725,-1225.752797
3214.205154,-9696.697840,-1850.514855,-1685.410096
3214.205491,-8216.285956,-1258.350101,-1532.190996
3214.205829,-8956.491898,-1258.350101,-689.485948
3214.206166,-10658.965565,-1036.288319,-1149.143247
3214.206504,-10955.047942,-1258.350101,-1302.362347
3214.206841,-9918.759623,-1110.308913,-306.438199
3214.207179,-9548.656652,-888.247130,2068.457845
3214.207516,-11251.130318,-592.164754,3600.648841
3214.207854,-10955.047942,-962.267725,3294.210641
3214.208191,-10436.903782,-888.247130,1608.800546
3214.208529,-9770.718434,148.041188,1685.410096
3214.208866,-10658.965565,-592.164754,1302.362347
3214.209204,-9696.697840,-592.164754,1072.533697
3214.209541,-8142.265362,148.041188,459.657299
3214.209879,-8438.347739,1110.308913,995.924147
3214.210216,-9918.759623,2146.597232,0.000000
3214.210554,-10658.965565,1480.411884,-1532.190996
3214.210891,-9992.780217,3034.844362,-1149.143247
3214.211229,-8808.450710,1850.514855,-229.828649
3214.211566,-9918.759623,518.144159,1685.410096
3214.211904,-10140.821405,444.123565,1455.581446
3214.212241,-9770.718434,222.061783,995.924147
3214.212579,-10510.924376,666.185348,-76.609550
3214.212916,-10732.986159,-444.123565,-2528.115143
3214.213254,-9992.780217,-1702.473667,-2681.334243
3214.213591,-9030.512492,-2146.597232,-1762.019645
3214.213929,-7550.100608,-1998.556043,-459.657299
3214.214266,-9696.697840,-1110.308913,0.000000
3214.214604,-11251.130318,-1184.329507,-689.485948
3214.214941,-10436.903782,-1332.370696,-1685.410096
3214.215279,-10436.903782,-1850.514855,536.266849
3214.215616,-10658.965565,-2146.597232,3294.210641
3214.215954,-11029.068536,-2220.617826,4443.353888
3214.216291,-11251.130318,-1110.308913,2911.162892
3214.216629,-10214.842000,-814.226536,306.438199
3214.216966,-10881.027347,-1110.308913,0.000000
3214.217304,-11473.192101,-1406.391290,0.000000
3214.217641,-9844.739029,-1554.432478,-383.047749
3214.217979,-8142.265362,-444.123565,0.000000
3214.218316,-8956.491898,222.061783,-153.219100
3214.218653,-10214.842000,296.082377,-842.705048
3214.218991,-9770.718434,74.020594,-1685.410096
3214.219328,-9622.677246,444.123565,-689.485948
3214.219666,-10214.842000,370.102971,1072.533697
3214.220003,-10658.965565,0.000000,1838.629195
3214.220341,-11029.068536,518.144159,1378.971896
3214.220678,-9770.718434,-296.082377,766.095498
3214.221016,-9844.739029,518.144159,0.000000
3214.221353,-10214.842000,-592.164754,306.438199
3214.221691,-9770.718434,-296.082377,536.266849
3214.222028,-8068.244768,-148.041188,153.219100
3214.222366,-8734.430116,296.082377,1302.362347
3214.222703,-10732.986159,1776.494261,1991.848295
3214.223041,-10955.047942,2146.597232,306.438199
3214.223378,-10510.924376,1776.494261,536.266849
3214.223715,-9548.656652,2220.617826,1838.629195
3214.224053,-9844.739029,666.185348,4136.915689
3214.224390,-10732.986159,666.185348,4060.306139
3214.224728,-10214.842000,1332.370696,1685.410096
3214.225065,-10214.842000,888.247130,0.000000
3214.225403,-10881.027347,148.041188,-842.705048
3214.225740,-9770.718434,-962.267725,-2145.067394
3214.226078,-8734.430116,-444.123565,-1762.019645
3214.226415,-8364.327145,-814.226536,-689.485948
3214.226753,-9474.636058,-222.061783,-1838.629195
3214.227090,-10658.965565,-592.164754,-3140.991542
3214.227428,-10362.883188,-962.267725,-3064.381992
3214.227765,-9474.636058,-1184.329507,-1149.143247
3214.228102,-10436.903782,-2590.720797,2374.896044
3214.228440,-10807.006753,-2368.659014,2681.334243
3214.228777,-11325.150913,-2072.576638,1532.190996
3214.229115,-11103.089130,-1258.350101,0.000000
3214.229452,-11177.109724,-1554.432478,-459.657299
3214.229790,-11621.233289,-2146.597232,0.000000
3214.230127,-9770.718434,-1480.411884,536.266849
3214.230465,-8290.306550,-148.041188,1455.581446
3214.230802,-9400.615463,148.041188,2068.457845
3214.231140,-10584.944971,888.247130,842.705048
3214.231477,-11029.068536,666.185348,153.219100
3214.231815,-9548.656652,1184.329507,612.876398
3214.232152,-9770.718434,1480.411884,2451.505594
3214.232490,-11547.212695,666.185348,3830.477490
3214.232827,-10066.800811,518.144159,1915.238745
3214.233164,-8956.491898,814.226536,0.000000
3214.233502,-9622.677246,666.185348,-612.876398
3214.233839,-9400.615463,-518.144159,-1915.238745
3214.234177,-9474.636058,-148.041188,-1608.800546
3214.234514,-7254.018232,-370.102971,-1991.848295
3214.234852,-8068.244768,444.123565,-1302.362347
3214.235189,-10732.986159,444.123565,-612.876398
3214.235527,-10807.006753,148.041188,-2145.067394
3214.235864,-9104.533087,222.061783,-1378.971896
3214.236202,-9326.594869,-592.164754,1378.971896
3214.236539,-10510.924376,-1110.308913,3753.867940
3214.236877,-11399.171507,-1332.370696,3370.820191
3214.237214,-10658.965565,-740.205942,1762.019645
3214.237552,-10288.862594,222.061783,306.438199
3214.237889,-11473.192101,-518.144159,-229.828649
3214.238226,-10807.006753,-962.267725,-459.657299
3214.238564,-8734.430116,-1332.370696,-76.609550
3214.238901,-8364.327145,222.061783,76.609550
3214.239239,-10807.006753,518.144159,-229.828649
3214.239576,-11325.150913,0.000000,-1991.848295
3214.239914,-9992.780217,-592.164754,-2068.457845
3214.240251,-9474.636058,-814.226536,0.000000
3214.240589,-10288.862594,-1628.453072,2757.943793
3214.240926,-11103.089130,-962.267725,2068.457845
3214.241264,-11251.130318,-1406.391290,383.047749
3214.241601,-9844.739029,-814.226536,-2145.067394
3214.241939,-10658.965565,-1776.494261,-1838.629195
3214.242276,-10807.006753,-2146.597232,-766.095498
3214.242613,-8734.430116,-1406.391290,-995.924147
3214.242951,-7846.182985,-518.144159,-306.438199
3214.243288,-9030.512492,0.000000,306.438199
3214.243626,-10510.924376,518.144159,-383.047749
3214.243963,-10955.047942,666.185348,-229.828649
3214.244301,-10214.842000,1036.288319,1532.190996
3214.244638,-10066.800811,1554.432478,3830.477490
3214.244976,-11029.068536,888.247130,4903.011187
3214.245313,-10584.944971,1258.350101,3830.477490
3214.245651,-9474.636058,1184.329507,1225.752797
3214.245988,-10140.821405,2072.576638,536.266849
3214.246326,-10881.027347,1628.453072,-153.219100
3214.246663,-10214.842000,518.144159,-1149.143247
3214.247001,-8290.306550,1036.288319,-1149.143247
3214.247338,-8142.265362,740.205942,-689.485948
3214.247675,-10140.821405,1554.432478,-76.609550
3214.248013,-11029.068536,444.123565,-1225.752797
3214.248350,-9474.636058,-222.061783,-2604.724693
3214.248688,-9400.615463,-740.205942,1378.971896
3214.249025,-10436.903782,-1850.514855,3907.087040
3214.249363,-10732.986159,-2220.617826,3370.820191
3214.249700,-9992.780217,-1924.535449,919.314598
3214.250038,-10584.944971,-1184.329507,76.609550
3214.250375,-11399.171507,-1998.556043,-1302.362347
3214.250713,-10881.027347,-2738.761985,-1072.533697
3214.251050,-8808.450710,-1924.535449,-459.657299
3214.251388,-8586.388927,-1258.350101,0.000000
3214.251725,-10214.842000,-296.082377,-153.219100
3214.252062,-11029.068536,-444.123565,-1532.190996
3214.252400,-10807.006753,-740.205942,-459.657299
3214.252737,-9474.636058,-444.123565,536.266849
3214.253075,-10732.986159,-740.205942,2681.334243
3214.253412,-12139.377449,296.082377,2604.724693
3214.253750,-11103.089130,0.000000,459.657299
3214.254087,-10584.944971,444.123565,-1149.143247
3214.254425,-10436.903782,0.000000,-1915.238745
3214.254762,-10658.965565,-444.123565,-1991.848295
3214.255100,-9474.636058,-1036.288319,-2298.286494
3214.255437,-7402.059420,-592.164754,-2298.286494
3214.255775,-8512.368333,222.061783,-766.095498
3214.256112,-10955.047942,0.000000,-919.314598
3214.256450,-10362.883188,888.247130,-919.314598
3214.256787,-9696.697840,0.000000,0.000000
3214.257124,-10140.821405,296.082377,3370.820191
3214.257462,-10658.965565,74.020594,4443.353888
3214.257799,-10807.006753,296.082377,4060.306139
3214.258137,-9548.656652,0.000000,2451.505594
3214.258474,-9178.553681,518.144159,842.705048
3214.258812,-10955.047942,740.205942,995.924147
3214.259149,-10362.883188,-74.020594,383.047749
3214.259487,-8364.327145,1110.308913,-229.828649
3214.259824,-8438.347739,888.247130,536.266849
3214.260162,-10436.903782,1702.473667,-766.095498
3214.260499,-9992.780217,1110.308913,-2374.896044
3214.260837,-9844.739029,222.061783,-1455.581446
3214.261174,-8364.327145,-444.123565,995.924147
3214.261512,-10214.842000,-1332.370696,3370.820191
3214.261849,-11473.192101,-1480.411884,3064.381992
3214.262186,-11029.068536,-296.082377,-153.219100
3214.262524,-11029.068536,-1480.411884,-842.705048
3214.262861,-11621.233289,-1924.535449,-1072.533697
3214.263199,-10140.821405,-2960.823768,-1455.581446
3214.263536,-9252.574275,-2146.597232,-459.657299
3214.263874,-8586.388927,-1998.556043,-383.047749
3214.264211,-9844.739029,-1332.370696,-612.876398
3214.264549,-11251.130318,-1258.350101,-1072.533697
3214.264886,-11029.068536,-1332.370696,153.219100
3214.265224,-9992.780217,-814.226536,2068.457845
3214.265561,-10807.006753,-1184.329507,3830.477490
3214.265899,-11399.171507,222.061783,4979.620737
3214.266236,-10955.047942,0.000000,2145.067394
3214.266573,-10140.821405,962.267725,995.924147
3214.266911,-10436.903782,296.082377,0.000000
3214.267248,-10584.944971,0.000000,-766.095498
3214.267586,-8882.471304,962.267725,-1302.362347
3214.267923,-7550.100608,592.164754,-1532.190996
3214.268261,-8068.244768,1184.329507,-1378.971896
3214.268598,-9770.718434,1332.370696,-2145.067394
3214.268936,-10140.821405,1480.411884,-2604.724693
3214.269273,-8882.471304,1702.473667,-1915.238745
3214.269611,-9326.594869,296.082377,1149.143247
3214.269948,-9992.780217,-370.102971,2987.772442
3214.270286,-9918.759623,-222.061783,2145.067394
3214.270623,-9622.677246,518.144159,1149.143247
3214.270961,-10955.047942,-74.020594,0.000000
3214.271298,-11177.109724,-666.185348,0.000000
3214.271635,-10436.903782,-1258.350101,-689.485948
3214.271973,-8586.388927,-740.205942,0.000000
3214.272310,-8290.306550,0.000000,612.876398
3214.272648,-10658.965565,148.041188,842.705048
3214.272985,-11177.109724,148.041188,-383.047749
3214.273323,-9696.697840,0.000000,-459.657299
3214.273660,-10362.883188,-370.102971,2681.334243
3214.273998,-11399.171507,-814.226536,4366.744339
3214.274335,-11399.171507,-666.185348,3524.039291
3214.274673,-10658.965565,148.041188,1072.533697
3214.275010,-10584.944971,-592.164754,-842.705048
3214.275348,-11177.109724,-1554.432478,-1225.752797
3214.275685,-10066.800811,-2664.741391,-1608.800546
3214.276023,-8216.285956,-2220.617826,-2145.067394
3214.276360,-8142.265362,-1406.391290,-1762.019645
3214.276697,-9992.780217,-1480.411884,-1608.800546
3214.277035,-10140.821405,-1332.370696,-2987.772442
3214.277372,-9770.718434,-1776.494261,-2221.676944
3214.277710,-9030.512492,-370.102971,689.485948
3214.278047,-10362.883188,-1850.514855,3217.601092
3214.278385,-11843.295072,-666.185348,3983.696590
3214.278722,-11325.150913,-666.185348,2451.505594
3214.279060,-10436.903782,222.061783,1455.581446
3214.279397,-10584.944971,444.123565,306.438199
3214.279735,-11325.150913,-74.020594,536.266849
3214.280072,-9400.615463,296.082377,0.000000
3214.280410,-7179.997637,1332.370696,306.438199
3214.280747,-9178.553681,1998.556043,689.485948
3214.281084,-10881.027347,2368.659014,0.000000
3214.281422,-10881.027347,2516.700203,-383.047749
3214.281759,-9474.636058,2812.782580,306.438199
3214.282097,-9178.553681,1184.329507,1915.238745
3214.282434,-10362.883188,814.226536,4443.353888
3214.282772,-10510.924376,370.102971,2068.457845
3214.283109,-8956.491898,888.247130,-383.047749
3214.283447,-10584.944971,0.000000,-1149.143247
3214.283784,-11177.109724,-1554.432478,-1838.629195
3214.284122,-9178.553681,-2294.638420,-2757.943793
3214.284459,-7624.121203,-1776.494261,-1991.848295
3214.284797,-8068.244768,-888.247130,-1072.533697
3214.285134,-10066.800811,-1184.329507,-2068.457845
3214.285472,-10807.006753,-1406.391290,-2145.067394
3214.285809,-9548.656652,-1554.432478,-766.095498
3214.286146,-9474.636058,-1480.411884,1838.629195
3214.286484,-11547.212695,-1406.391290,4519.963438
3214.286821,-11917.315666,-1850.514855,2604.724693
3214.287159,-11251.130318,-592.164754,1762.019645
3214.287496,-10807.006753,-296.082377,153.219100
3214.287834,-11399.171507,-814.226536,153.219100
3214.288171,-11029.068536,-1998.556043,-842.705048
3214.288509,-8512.368333,-740.205942,-689.485948
3214.288846,-8438.347739,-370.102971,-919.314598
3214.289184,-9770.718434,0.000000,-612.876398
3214.289521,-10955.047942,222.061783,-536.266849
3214.289859,-10436.903782,-148.041188,-383.047749
3214.290196,-9548.656652,74.020594,766.095498
3214.290534,-10732.986159,-148.041188,2987.772442
3214.290871,-12139.377449,-222.061783,3140.991542
3214.291208,-10066.800811,-518.144159,689.485948
3214.291546,-9844.739029,-592.164754,459.657299
3214.291883,-9918.759623,-296.082377,153.219100
3214.292221,-9770.718434,-1258.350101,-383.047749
3214.292558,-8808.450710,-888.247130,0.000000
3214.292896,-7105.977043,0.000000,-766.095498
3214.293233,-9400.615463,1406.391290,842.705048
3214.293571,-11325.150913,1702.473667,0.000000
3214.293908,-10066.800811,1406.391290,-766.095498
3214.294246,-9104.533087,2146.597232,995.924147
3214.294583,-9400.615463,814.226536,3370.820191
3214.294921,-10807.006753,962.267725,3983.696590
3214.295258,-11325.150913,222.061783,2451.505594
3214.295595,-10066.800811,740.205942,153.219100
3214.295933,-10955.047942,962.267725,-536.266849
3214.296270,-11399.171507,-518.144159,-1838.629195
3214.296608,-9252.574275,-1036.288319,-2068.457845
3214.296945,-7698.141797,-1184.329507,-2604.724693
3214.297283,-8364.327145,-296.082377,-1532.190996
3214.297620,-10584.944971,-592.164754,-2068.457845
3214.297958,-11325.150913,-888.247130,-2068.457845
3214.298295,-10658.965565,-1480.411884,-995.924147
3214.298633,-9992.780217,-2664.741391,1838.629195
3214.298970,-11251.130318,-1924.535449,3983.696590
3214.299308,-11991.336260,-2516.700203,2987.772442
3214.299645,-10658.965565,-2146.597232,612.876398
3214.299983,-10436.903782,-1850.514855,306.438199
3214.300320,-11547.212695,-1924.535449,0.000000
3214.300657,-11029.068536,-2442.679609,459.657299
3214.300995,-8734.430116,-1184.329507,-76.609550
3214.301332,-7624.121203,-518.144159,459.657299
3214.301670,-9696.697840,1036.288319,459.657299
3214.302007,-10584.944971,888.247130,-536.266849
3214.302345,-10140.821405,962.267725,0.000000
3214.302682,-9548.656652,1110.308913,1532.190996
3214.303020,-10510.924376,1332.370696,2757.943793
3214.303357,-11473.192101,518.144159,3370.820191
3214.303695,-9622.677246,1258.350101,842.705048
3214.304032,-8956.491898,814.226536,-689.485948
3214.304370,-9844.739029,962.267725,-689.485948
3214.304707,-9770.718434,148.041188,-1991.848295
3214.305045,-9030.512492,-592.164754,-2068.457845
3214.305382,-8068.244768,222.061783,-995.924147
3214.305719,-8882.471304,592.164754,-306.438199
3214.306057,-11029.068536,1332.370696,306.438199
3214.306394,-10955.047942,740.205942,-459.657299
3214.306732,-9326.594869,740.205942,0.000000
3214.307069,-10140.821405,-740.205942,3830.477490
3214.307407,-11695.253884,-1332.370696,5592.497135
3214.307744,-11103.089130,-370.102971,3370.820191
3214.308082,-10807.006753,-518.144159,1225.752797
3214.308419,-10288.862594,-370.102971,0.000000
3214.308757,-10955.047942,-1554.432478,-1149.143247
3214.309094,-9844.739029,-1184.329507,-689.485948
3214.309432,-7846.182985,-1332.370696,-919.314598
3214.309769,-8808.450710,0.000000,-612.876398
3214.310106,-10510.924376,0.000000,-1685.410096
3214.310444,-11029.068536,0.000000,-3064.381992
3214.310781,-9918.759623,-1480.411884,-1455.581446
3214.311119,-9178.553681,-1258.350101,459.657299
3214.311456,-10807.006753,-2368.659014,2757.943793
3214.311794,-10881.027347,-1998.556043,1685.410096
3214.312131,-10214.842000,-1702.473667,-995.924147
3214.312469,-10658.965565,-2072.576638,-1455.581446
3214.312806,-10807.006753,-2220.617826,-1685.410096
3214.313144,-10066.800811,-1924.535449,-1072.533697
3214.313481,-8364.327145,-1776.494261,-919.314598
3214.313819,-7698.141797,-666.185348,-153.219100
3214.314156,-10140.821405,0.000000,842.705048
3214.314494,-11399.171507,0.000000,842.705048
3214.314831,-10510.924376,1554.432478,919.314598
3214.315168,-10658.965565,1184.329507,3524.039291
3214.315506,-11325.150913,1332.370696,4673.182538
3214.315843,-10881.027347,740.205942,4596.572988
3214.316181,-10362.883188,1332.370696,3064.381992
3214.316518,-9326.594869,1554.432478,842.705048
3214.316856,-10436.903782,1332.370696,0.000000
3214.317193,-10214.842000,1110.308913,-995.924147
3214.317531,-8216.285956,962.267725,-1838.629195
3214.317868,-7328.038826,1036.288319,-1302.362347
3214.318206,-9326.594869,1480.411884,-766.095498
3214.318543,-10584.944971,1480.411884,-2374.896044
3214.318880,-9770.718434,740.205942,-3447.429741
3214.319218,-8734.430116,148.041188,-1608.800546
3214.319555,-9474.636058,-1332.370696,2298.286494
3214.319892,-10362.883188,-2368.659014,3370.820191
3214.320230,-10362.883188,-1554.432478,1608.800546
3214.320567,-9992.780217,-1628.453072,0.000000
3214.320904,-11103.089130,-740.205942,-1149.143247
3214.321242,-11843.295072,-2664.741391,-689.485948
3214.321579,-9770.718434,-1776.494261,-689.485948
3214.321916,-8660.409521,-962.267725,-229.828649
3214.322254,-9474.636058,-592.164754,536.266849
3214.322591,-10658.965565,-592.164754,0.000000
3214.322929,-11399.171507,-592.164754,-153.219100
3214.323266,-10362.883188,-74.020594,1149.143247
3214.323603,-10658.965565,0.000000,2987.772442
3214.323941,-11695.253884,-962.267725,3753.867940
3214.324278,-11843.295072,-666.185348,2451.505594
3214.324615,-10066.800811,0.000000,306.438199
3214.324953,-10066.800811,0.000000,-689.485948
3214.325290,-10658.965565,-814.226536,-1455.581446
3214.325627,-9622.677246,-1110.308913,-2221.676944
3214.325965,-7994.224174,-666.185348,-2451.505594
3214.326302,-7476.080014,-592.164754,-1532.190996
3214.326639,-9400.615463,-222.061783,-1072.533697
3214.326977,-10881.027347,-74.020594,-919.314598
3214.327314,-9474.636058,370.102971,-995.924147
3214.327652,-9178.553681,518.144159,612.876398
3214.327989,-10066.800811,0.000000,3600.648841
3214.328326,-10807.006753,-666.185348,3447.429741
3214.328664,-9696.697840,-74.020594,3064.381992
3214.329001,-9918.759623,1480.411884,2145.067394
3214.329338,-10288.862594,666.185348,153.219100
3214.329676,-10881.027347,1110.308913,-383.047749
3214.330013,-9400.615463,1110.308913,0.000000
3214.330350,-8290.306550,1480.411884,76.609550
3214.330688,-9548.656652,1702.473667,689.485948
3214.331025,-11251.130318,1998.556043,-995.924147
3214.331362,-10658.965565,1554.432478,-1149.143247
3214.331700,-9326.594869,740.205942,-383.047749
3214.332037,-9696.697840,-74.020594,2221.676944
3214.332375,-11325.150913,-1258.350101,3677.258390
3214.332712,-10510.924376,-962.267725,1225.752797
3214.333049,-10362.883188,-1110.308913,-1302.362347
3214.333387,-11103.089130,-1258.350101,-2298.286494
3214.333724,-10732.986159,-2738.761985,-1915.238745
3214.334061,-9474.636058,-3552.988522,-1378.971896
3214.334399,-7402.059420,-2664.741391,-1149.143247
3214.334736,-8586.388927,-1776.494261,-383.047749
3214.335073,-10807.006753,-1998.556043,-919.314598
3214.335411,-10807.006753,-2146.597232,-1455.581446
3214.335748,-9770.718434,-1924.535449,842.705048
3214.336085,-9622.677246,-1184.329507,2987.772442
3214.336423,-11103.089130,-666.185348,4749.792088
3214.336760,-11843.295072,-814.226536,3907.087040
3214.337098,-10658.965565,0.000000,2221.676944
3214.337435,-10362.883188,592.164754,-229.828649
3214.337772,-11399.171507,888.247130,-229.828649
3214.338110,-10658.965565,-444.123565,-612.876398
3214.338447,-8216.285956,1036.288319,-1149.143247
3214.338784,-7920.203579,1998.556043,-1072.533697
3214.339122,-9696.697840,1258.350101,-153.219100
3214.339459,-11177.109724,1480.411884,-1225.752797
3214.339796,-10362.883188,1628.453072,-1608.800546
3214.340134,-9474.636058,1332.370696,229.828649
3214.340471,-9770.718434,74.020594,2145.067394
3214.340808,-10510.924376,-444.123565,2911.162892
3214.341146,-9474.636058,370.102971,1762.019645
3214.341483,-9474.636058,296.082377,76.609550
3214.341821,-10658.965565,-296.082377,-229.828649
3214.342158,-10436.903782,-518.144159,-1608.800546
3214.342495,-9400.615463,-1480.411884,0.000000
3214.342833,-7994.224174,-518.144159,76.609550
3214.343170,-8586.388927,0.000000,0.000000
3214.343507,-10732.986159,592.164754,-1149.143247
3214.343845,-9844.739029,296.082377,-1378.971896
3214.344182,-9252.574275,0.000000,766.095498
3214.344519,-9770.718434,-666.185348,3370.820191
3214.344857,-11769.274478,-74.020594,4136.915689
3214.345194,-11547.212695,-148.041188,1455.581446
3214.345531,-10658.965565,-296.082377,-383.047749
3214.345869,-11103.089130,-74.020594,-1149.143247
3214.346206,-11547.212695,-1184.329507,-1685.410096
3214.346544,-10288.862594,-1480.411884,-1608.800546
3214.346881,-8438.347739,-1554.432478,-1991.848295
3214.347218,-8586.388927,-1258.350101,-1302.362347
3214.347556,-10732.986159,-962.267725,-1685.410096
3214.347893,-11325.150913,-1776.494261,-1915.238745
3214.348230,-9844.739029,-1258.350101,0.000000
3214.348568,-9844.739029,-1258.350101,2374.896044
3214.348905,-11473.192101,-1036.288319,3983.696590
3214.349242,-11473.192101,-740.205942,2911.162892
3214.349580,-11029.068536,-814.226536,1838.629195
3214.349917,-10214.842000,-592.164754,1302.362347
3214.350254,-10362.883188,-222.061783,689.485948
3214.350592,-9918.759623,0.000000,995.924147
3214.350929,-8364.327145,0.000000,229.828649
3214.351267,-7624.121203,1702.473667,229.828649
3214.351604,-9696.697840,2294.638420,0.000000
3214.351941,-11029.068536,2220.617826,-383.047749
3214.352279,-9770.718434,2368.659014,-1149.143247
3214.352616,-9326.594869,1850.514855,612.876398
3214.352953,-9474.636058,1184.329507,2451.505594
3214.353291,-10066.800811,1184.329507,2221.676944
3214.353628,-10066.800811,740.205942,919.314598
3214.353965,-9548.656652,888.247130,-1762.019645
3214.354303,-10807.006753,0.000000,-1455.581446
3214.354640,-10955.047942,-740.205942,-2298.286494
3214.354977,-9030.512492,-1036.288319,-2451.505594
3214.355315,-8142.265362,-888.247130,-1072.533697
3214.355652,-9474.636058,-740.205942,-612.876398
3214.355990,-10214.842000,-740.205942,-689.485948
3214.356327,-10214.842000,-962.267725,-1225.752797
3214.356664,-10436.903782,-1924.535449,1225.752797
3214.357002,-10658.965565,-1776.494261,2834.553343
3214.357339,-11843.295072,-1924.535449,4903.011187
3214.357676,-11621.233289,-666.185348,2987.772442
3214.358014,-10510.924376,-1184.329507,842.705048
3214.358351,-10510.924376,-518.144159,0.000000
3214.358688,-10584.944971,-1776.494261,0.000000
3214.359026,-10066.800811,-1628.453072,-153.219100
3214.359363,-8512.368333,-666.185348,-1149.143247
3214.359700,-9104.533087,-148.041188,-536.266849
3214.360038,-10214.842000,-370.102971,-1532.190996
3214.360375,-9844.739029,-296.082377,-2145.067394
3214.360713,-9474.636058,-814.226536,-612.876398
3214.361050,-9400.615463,-222.061783,766.095498
3214.361387,-11029.068536,-1184.329507,2221.676944
3214.361725,-11251.130318,-444.123565,1532.190996
3214.362062,-10584.944971,148.041188,-383.047749
3214.362399,-10510.924376,0.000000,-536.266849
3214.362737,-10066.800811,-666.185348,-842.705048
3214.363074,-9178.553681,-370.102971,-612.876398
3214.363411,-8364.327145,0.000000,-383.047749
3214.363749,-8142.265362,592.164754,612.876398
3214.364086,-9770.718434,888.247130,1225.752797
3214.364423,-11769.274478,1924.535449,766.095498
3214.364761,-10436.903782,2664.741391,842.705048
3214.365098,-9696.697840,1998.556043,1915.238745
3214.365436,-10362.883188,1184.329507,3753.867940
3214.365773,-10214.842000,666.185348,3677.258390
3214.366110,-10362.883188,1332.370696,2298.286494
3214.366448,-10214.842000,2072.576638,229.828649
3214.366785,-11251.130318,222.061783,-1455.581446
3214.367122,-10288.862594,-296.082377,-1302.362347
3214.367460,-8586.388927,-740.205942,-1762.019645
3214.367797,-7105.977043,-370.102971,-995.924147
3214.368134,-8586.388927,-1036.288319,-1838.629195
3214.368472,-10288.862594,0.000000,-2451.505594
3214.368809,-10658.965565,-1184.329507,-2911.162892
3214.369146,-9770.718434,-1332.370696,-383.047749
3214.369484,-10362.883188,-2220.617826,2221.676944
3214.369821,-11251.130318,-2442.679609,3217.601092
3214.370159,-11103.089130,-1850.514855,1302.362347
3214.370496,-9992.780217,-2294.638420,0.000000
3214.370833,-11473.192101,-2146.597232,76.609550
3214.371171,-10955.047942,-1776.494261,-153.219100
3214.371508,-10955.047942,-2368.659014,842.705048
3214.371845,-8586.388927,-740.205942,995.924147
3214.372183,-8956.491898,-444.123565,919.314598
3214.372520,-10807.006753,370.102971,1378.971896
3214.372857,-10732.986159,444.123565,76.609550
3214.373195,-10140.821405,1110.308913,995.924147
3214.373532,-11029.068536,1110.308913,2528.115143
3214.373869,-10955.047942,740.205942,2911.162892
3214.374207,-10955.047942,888.247130,2374.896044
3214.374544,-9548.656652,74.020594,229.828649
3214.374882,-9178.553681,888.247130,-612.876398
3214.375219,-10288.862594,0.000000,-1072.533697
3214.375556,-9474.636058,-962.267725,-1532.190996
3214.375894,-7476.080014,-518.144159,-1838.629195
3214.376231,-8364.327145,518.144159,-766.095498
3214.376568,-9548.656652,888.247130,-459.657299
3214.376906,-10362.883188,740.205942,-1915.238745
3214.377243,-9622.677246,814.226536,-1149.143247
3214.377580,-8882.471304,74.020594,0.000000
3214.377918,-9992.780217,-370.102971,3600.648841
3214.378255,-11103.089130,-592.164754,3753.867940
3214.378592,-10362.883188,0.000000,1455.581446
3214.378930,-10584.944971,888.247130,383.047749
3214.379267,-10955.047942,-296.082377,0.000000
3214.379605,-10584.944971,-592.164754,-383.047749
3214.379942,-8882.471304,-740.205942,-459.657299
3214.380279,-8364.327145,222.061783,0.000000
3214.380617,-10140.821405,296.082377,-459.657299
3214.380954,-11325.150913,444.123565,-1225.752797
3214.381291,-10881.027347,-370.102971,-1455.581446
3214.381629,-10140.821405,-370.102971,-612.876398
3214.381966,-10066.800811,-1406.391290,1378.971896
3214.382303,-11029.068536,-2368.659014,2451.505594
3214.382641,-10732.986159,-2146.597232,1072.533697
3214.382978,-9696.697840,-1850.514855,-1378.971896
3214.383315,-10362.883188,-2146.597232,-919.314598
3214.383653,-11251.130318,-2220.617826,-1072.533697
3214.383990,-9548.656652,-3330.926739,-459.657299
3214.384328,-8142.265362,-1850.514855,612.876398
3214.384665,-8734.430116,-592.164754,919.314598
3214.385002,-10584.944971,-518.144159,1149.143247
3214.385340,-10881.027347,0.000000,0.000000
3214.385677,-9844.739029,148.041188,612.876398
3214.386014,-10288.862594,1036.288319,3753.867940
3214.386352,-11029.068536,296.082377,4366.744339
3214.386689,-10658.965565,888.247130,3140.991542
3214.387026,-9844.739029,1702.473667,1149.143247
3214.387364,-10066.800811,1924.535449,76.609550
3214.387701,-10510.924376,1628.453072,-842.705048
3214.388038,-10288.862594,592.164754,-766.095498
3214.388376,-8142.265362,962.267725,-1149.143247
3214.388713,-7846.182985,962.267725,-536.266849
3214.389051,-9844.739029,1924.535449,0.000000
3214.389388,-10955.047942,1332.370696,-2221.676944
3214.389725,-10214.842000,1406.391290,-2528.115143
3214.390063,-9474.636058,-148.041188,-306.438199
3214.390400,-9844.739029,-962.267725,2451.505594
3214.390737,-10955.047942,-2072.576638,2911.162892
3214.391075,-10066.800811,-1110.308913,842.705048
3214.391412,-9696.697840,-1406.391290,-306.438199
3214.391749,-10362.883188,-1332.370696,-919.314598
3214.392087,-11029.068536,-2072.576638,0.000000
3214.392424,-9548.656652,-1998.556043,536.266849
3214.392761,-8068.244768,-1184.329507,612.876398
3214.393099,-9992.780217,0.000000,536.266849
3214.393436,-11473.192101,-296.082377,-1378.971896
3214.393774,-10066.800811,-518.144159,-1225.752797
3214.394111,-9474.636058,-740.205942,0.000000
3214.394448,-9770.718434,-814.226536,2451.505594
3214.394786,-10955.047942,-296.082377,2604.724693
3214.395123,-11769.274478,-888.247130,1072.533697
3214.395460,-10214.842000,0.000000,-1532.190996
3214.395798,-10140.821405,-666.185348,-1532.190996
3214.396135,-10955.047942,-518.144159,-842.705048
3214.396472,-9252.574275,-1258.350101,-1838.629195
3214.396810,-8142.265362,-888.247130,-1149.143247
3214.397147,-8734.430116,-148.041188,-76.609550
3214.397484,-11029.068536,0.000000,76.609550
3214.397822,-11251.130318,222.061783,-153.219100
3214.398159,-10288.862594,0.000000,383.047749
3214.398497,-10140.821405,222.061783,2757.943793
3214.398834,-10658.965565,-222.061783,3907.087040
3214.399171,-10658.965565,444.123565,3907.087040
3214.399509,-9844.739029,444.123565,2145.067394
3214.399846,-9918.759623,1258.350101,995.924147
3214.400183,-10658.965565,1184.329507,766.095498
3214.400521,-10066.800811,518.144159,0.000000
3214.400858,-8290.306550,1702.473667,459.657299
3214.401195,-8586.388927,1036.288319,995.924147
3214.401533,-9918.759623,2220.617826,0.000000
3214.401870,-10807.006753,1628.453072,-2604.724693
3214.402208,-9548.656652,1036.288319,-2987.772442
3214.402545,-8216.285956,0.000000,-766.095498
3214.402882,-9252.574275,-1258.350101,2221.676944
3214.403220,-10584.944971,-962.267725,1838.629195
3214.403557,-9992.780217,-740.205942,-1378.971896
3214.403894,-9770.718434,-1184.329507,-2451.505594
3214.404232,-10807.006753,-1998.556043,-2068.457845
3214.404569,-10584.944971,-2886.803174,-1608.800546
3214.404906,-9474.636058,-2442.679609,-995.924147
3214.405244,-8586.388927,-1998.556043,0.000000
3214.405581,-9992.780217,-1924.535449,383.047749
3214.405918,-11473.192101,-2072.576638,0.000000
3214.406256,-11029.068536,-1702.473667,-306.438199
3214.406593,-9992.780217,-1628.453072,1072.533697
3214.406931,-10732.986159,-1850.514855,3830.477490
3214.407268,-11621.233289,-1258.350101,5056.230287
3214.407605,-11251.130318,-592.164754,3370.820191
3214.407943,-10510.924376,296.082377,1532.190996
3214.408280,-10955.047942,0.000000,-612.876398
3214.408617,-10955.047942,0.000000,-229.828649
3214.408955,-9992.780217,0.000000,536.266849
3214.409292,-7920.203579,0.000000,229.828649
3214.409629,-7698.141797,518.144159,153.219100
3214.409967,-10140.821405,814.226536,-383.047749
3214.410304,-10955.047942,1184.329507,-1608.800546
3214.410641,-8882.471304,592.164754,-2145.067394
3214.410979,-8882.471304,370.102971,459.657299
3214.411316,-9622.677246,-666.185348,2834.553343
3214.411654,-9548.656652,-296.082377,1838.629195
3214.411991,-9178.553681,74.020594,306.438199
3214.412328,-9696.697840,222.061783,-536.266849
3214.412666,-10140.821405,0.000000,0.000000
3214.413003,-10362.883188,-370.102971,0.000000
3214.413340,-8734.430116,296.082377,459.657299
3214.413678,-8882.471304,518.144159,842.705048
3214.414015,-10658.965565,888.247130,536.266849
3214.414352,-10955.047942,1036.288319,-153.219100
3214.414690,-10140.821405,592.164754,-383.047749
3214.415027,-9918.759623,444.123565,842.705048
3214.415364,-10658.965565,-74.020594,2911.162892
3214.415702,-11399.171507,0.000000,2604.724693
3214.416039,-10658.965565,592.164754,76.609550
3214.416377,-10362.883188,74.020594,-1532.190996
3214.416714,-11177.109724,-666.185348,-1991.848295
3214.417051,-10807.006753,-1702.473667,-1532.190996
3214.417389,-9252.574275,-1406.391290,-1532.190996
3214.417726,-8142.265362,-1036.288319,-1225.752797
3214.418063,-9844.739029,-1776.494261,-1762.019645
3214.418401,-10584.944971,-1776.494261,-2681.334243
3214.418738,-9918.759623,-2072.576638,-2374.896044
3214.419075,-9326.594869,-2294.638420,229.828649
3214.419413,-9548.656652,-1998.556043,2145.067394
3214.419750,-11103.089130,-1776.494261,2604.724693
3214.420088,-11103.089130,-1258.350101,1532.190996
3214.420425,-10066.800811,-962.267725,306.438199
3214.420762,-10510.924376,-518.144159,459.657299
3214.421100,-10732.986159,0.000000,689.485948
3214.421437,-9696.697840,-222.061783,689.485948
3214.421775,-8660.409521,444.123565,1532.190996
3214.422112,-8882.471304,2072.576638,1149.143247
3214.422449,-10807.006753,1258.350101,612.876398
3214.422787,-11029.068536,1850.514855,153.219100
3214.423124,-9326.594869,2738.761985,0.000000
3214.423462,-9844.739029,1628.453072,2298.286494
3214.423799,-9992.780217,1184.329507,2987.772442
3214.424136,-9622.677246,592.164754,2068.457845
3214.424474,-9474.636058,1184.329507,612.876398
3214.424811,-10362.883188,1036.288319,-842.705048
3214.425149,-10584.944971,-296.082377,-1762.019645
3214.425486,-9992.780217,-1850.514855,-1378.971896
3214.425824,-8586.388927,-1110.308913,-76.609550
3214.426161,-8364.327145,-888.247130,306.438199
3214.426498,-9844.739029,-518.144159,0.000000
3214.426836,-10362.883188,-888.247130,-1302.362347
3214.427173,-9696.697840,-1184.329507,-1225.752797
3214.427511,-9400.615463,-1480.411884,2068.457845
3214.427848,-10436.903782,-1924.535449,4136.915689
3214.428185,-11399.171507,-1628.453072,3524.039291
3214.428523,-10584.944971,-518.144159,1302.362347
3214.428860,-10362.883188,-592.164754,-153.219100
3214.429198,-11103.089130,-888.247130,76.609550
3214.429535,-11325.150913,-1480.411884,-229.828649
3214.429872,-9844.739029,-962.267725,-383.047749
3214.430210,-8512.368333,-666.185348,-536.266849
3214.430547,-9918.759623,-296.082377,-306.438199
3214.430885,-11029.068536,-740.205942,-766.095498
3214.431222,-10140.821405,-666.185348,-1149.143247
3214.431559,-9696.697840,-666.185348,76.609550
3214.431897,-10288.862594,-814.226536,1685.410096
3214.432234,-11177.109724,-962.267725,1685.410096
3214.432572,-10955.047942,-962.267725,536.266849
3214.432909,-10362.883188,-592.164754,-919.314598
3214.433246,-9770.718434,-518.144159,-1378.971896
3214.433584,-10955.047942,-1406.391290,-919.314598
3214.433921,-9030.512492,-1036.288319,-919.314598
3214.434259,-7772.162391,-740.205942,689.485948
3214.434596,-8882.471304,148.041188,1455.581446
3214.434933,-10584.944971,1036.288319,76.609550
3214.435271,-10955.047942,1258.350101,-306.438199
3214.435608,-9400.615463,1850.514855,612.876398
3214.435946,-8586.388927,1110.308913,2451.505594
3214.436283,-10214.842000,1480.411884,3830.477490
3214.436621,-10140.821405,1110.308913,2298.286494
3214.436958,-9622.677246,1924.535449,229.828649
3214.437295,-10214.842000,1480.411884,-995.924147
3214.437633,-11177.109724,740.205942,-1608.800546
3214.437970,-9696.697840,-1036.288319,-1532.190996
3214.438308,-8438.347739,-888.247130,-1762.019645
3214.438645,-7920.203579,-444.123565,-766.095498
3214.438982,-9548.656652,-370.102971,-766.095498
3214.439320,-10732.986159,-592.164754,-2298.286494
3214.439657,-10288.862594,-1480.411884,-1532.190996
3214.439995,-9844.739029,-1184.329507,689.485948
3214.440332,-11251.130318,-1258.350101,2451.505594
3214.440669,-11843.295072,-1924.535449,3294.210641
3214.441007,-10510.924376,-1406.391290,919.314598
3214.441344,-10140.821405,-1924.535449,0.000000
3214.441682,-11399.171507,-1776.494261,0.000000
3214.442019,-11695.253884,-1702.473667,229.828649
3214.442356,-9992.780217,-2294.638420,1225.752797
3214.442694,-9178.553681,-1036.288319,1532.190996
3214.443031,-9104.533087,0.000000,919.314598
3214.443369,-10955.047942,296.082377,383.047749
3214.443706,-10436.903782,740.205942,0.000000
3214.444043,-9252.574275,148.041188,1302.362347
3214.444381,-9844.739029,444.123565,3217.601092
3214.444718,-10881.027347,444.123565,2298.286494
3214.445056,-10732.986159,592.164754,536.266849
3214.445393,-9844.739029,888.247130,-689.485948
3214.445731,-9252.574275,518.144159,-1838.629195
3214.446068,-9548.656652,0.000000,-1762.019645
3214.446405,-8734.430116,-444.123565,-1302.362347
3214.446743,-7698.141797,-888.247130,-995.924147
3214.447080,-8882.471304,148.041188,153.219100
3214.447418,-10881.027347,370.102971,-229.828649
3214.447755,-10881.027347,1332.370696,-536.266849
3214.448092,-10214.842000,370.102971,306.438199
3214.448430,-9474.636058,0.000000,2451.505594
3214.448767,-10584.944971,-148.041188,4519.963438
3214.449105,-11251.130318,0.000000,3140.991542
3214.449442,-10658.965565,444.123565,919.314598
3214.449779,-10955.047942,666.185348,-383.047749
3214.450117,-11177.109724,0.000000,-153.219100
3214.450454,-10066.800811,-1332.370696,-459.657299
3214.450792,-8808.450710,-962.267725,0.000000
3214.451129,-8142.265362,444.123565,-229.828649
3214.451466,-11251.130318,370.102971,0.000000
3214.451804,-11029.068536,0.000000,-2374.896044
3214.452141,-9844.739029,0.000000,-1991.848295
3214.452479,-9474.636058,-1554.432478,766.095498
3214.452816,-9770.718434,-2146.597232,1838.629195
3214.453153,-10066.800811,-1924.535449,1225.752797
3214.453491,-10288.862594,-2294.638420,-1378.971896
3214.453828,-9474.636058,-2072.576638,-2374.896044
3214.454166,-11029.068536,-2220.617826,-1762.019645
3214.454503,-10955.047942,-2738.761985,-1608.800546
3214.454841,-8660.409521,-1924.535449,-842.705048
3214.455178,-8512.368333,-2072.576638,766.095498
3214.455515,-9918.759623,-1184.329507,1762.019645
3214.455853,-11029.068536,0.000000,1225.752797
3214.456190,-11399.171507,222.061783,1455.581446
3214.456528,-10362.883188,666.185348,2757.943793
3214.456865,-11029.068536,592.164754,4596.572988
3214.457202,-11695.253884,740.205942,5209.449386
3214.457540,-10510.924376,1554.432478,1915.238745
3214.457877,-9548.656652,1776.494261,76.609550
3214.458215,-10140.821405,1480.411884,-1149.143247
3214.458552,-10140.821405,962.267725,-536.266849
3214.458889,-9030.512492,1036.288319,-459.657299
3214.459227,-7698.141797,1184.329507,-459.657299
3214.459564,-8586.388927,740.205942,76.609550
3214.459902,-10214.842000,1258.350101,-995.924147
3214.460239,-10362.883188,1850.514855,-1915.238745
3214.460576,-8956.491898,222.061783,-1455.581446
3214.460914,-8808.450710,-592.164754,1302.362347
3214.461251,-10362.883188,-1406.391290,3370.820191
3214.461589,-10510.924376,-814.226536,1302.362347
3214.461926,-9474.636058,-888.247130,-1072.533697
3214.462263,-9770.718434,-814.226536,-1378.971896
3214.462601,-10955.047942,-1998.556043,-919.314598
3214.462938,-10288.862594,-1702.473667,-995.924147
3214.463276,-9400.615463,-1184.329507,536.266849
3214.463613,-9548.656652,-148.041188,842.705048
3214.463950,-11103.089130,-592.164754,766.095498
3214.464288,-11843.295072,0.000000,0.000000
3214.464625,-10436.903782,0.000000,76.609550
3214.464963,-10436.903782,-740.205942,2374.896044
3214.465300,-11177.109724,-370.102971,3140.991542
3214.465638,-11325.150913,-444.123565,1991.848295
3214.465975,-10732.986159,74.020594,-536.266849
3214.466312,-10584.944971,0.000000,-2221.676944
3214.466650,-10436.903782,-666.185348,-2757.943793
3214.466987,-10140.821405,-1850.514855,-2451.505594
3214.467325,-8364.327145,-1184.329507,-1685.410096
3214.467662,-7920.203579,-592.164754,-1225.752797
3214.467999,-9770.718434,-962.267725,76.609550
3214.468337,-10658.965565,-888.247130,-842.705048
3214.468674,-9918.759623,-666.185348,-536.266849
3214.469012,-9400.615463,296.082377,1685.410096
3214.469349,-9770.718434,-962.267725,2604.724693
3214.469686,-10881.027347,-518.144159,3294.210641
3214.470024,-10066.800811,74.020594,1838.629195
3214.470361,-9548.656652,1184.329507,919.314598
3214.470699,-10214.842000,888.247130,536.266849
3214.471036,-10214.842000,740.205942,153.219100
3214.471373,-9400.615463,444.123565,919.314598
3214.471711,-8586.388927,1628.453072,995.924147
3214.472048,-9474.636058,1998.556043,1072.533697
3214.472386,-11547.212695,2072.576638,229.828649
3214.472723,-10807.006753,1480.411884,-689.485948
3214.473060,-9548.656652,1110.308913,76.609550
3214.473398,-9770.718434,-74.020594,1608.800546
3214.473735,-10584.944971,-666.185348,2911.162892
3214.474073,-10807.006753,-1110.308913,1532.190996
3214.474410,-9844.739029,-518.144159,-1302.362347
3214.474748,-10066.800811,-1110.308913,-2834.553343
3214.475085,-11177.109724,-2442.679609,-1915.238745
3214.475422,-9918.759623,-2738.761985,-1915.238745
3214.475760,-8438.347739,-2590.720797,-842.705048
3214.476097,-9252.574275,-1480.411884,766.095498
3214.476435,-10362.883188,-1850.514855,-306.438199
3214.476772,-11473.192101,-1850.514855,-919.314598
3214.477109,-10214.842000,-1628.453072,-153.219100
3214.477447,-9548.656652,-1258.350101,2068.457845
3214.477784,-10881.027347,-1702.473667,4060.306139
3214.478122,-11769.274478,-1258.350101,3677.258390
3214.478459,-10140.821405,-148.041188,1685.410096
3214.478796,-9918.759623,814.226536,0.000000
3214.479134,-10584.944971,370.102971,-1532.190996
3214.479471,-10436.903782,-592.164754,-1302.362347
3214.479809,-9030.512492,296.082377,-306.438199
3214.480146,-8142.265362,740.205942,76.609550
3214.480483,-9770.718434,1406.391290,306.438199
3214.480821,-10881.027347,1184.329507,-919.314598
3214.481158,-10807.006753,1036.288319,-995.924147
3214.481496,-9326.594869,1184.329507,153.219100
3214.481833,-9918.759623,148.041188,2145.067394
3214.482170,-10436.903782,0.000000,2681.334243
3214.482508,-10140.821405,0.000000,689.485948
3214.482845,-9474.636058,814.226536,-842.705048
3214.483183,-9770.718434,592.164754,-1302.362347
3214.483520,-10214.842000,-370.102971,-1225.752797
3214.483858,-9474.636058,-888.247130,306.438199
3214.484195,-8216.285956,0.000000,919.314598
3214.484532,-9326.594869,888.247130,1455.581446
3214.484870,-11547.212695,1110.308913,306.438199
3214.485207,-11103.089130,518.144159,-383.047749
3214.485545,-9474.636058,222.061783,383.047749
3214.485882,-9252.574275,-148.041188,3140.991542
3214.486219,-11103.089130,-444.123565,3524.039291
3214.486557,-10658.965565,-518.144159,1455.581446
3214.486894,-9992.780217,-222.061783,-766.095498
3214.487232,-9992.780217,0.000000,-2221.676944
3214.487569,-10732.986159,-1110.308913,-2145.067394
3214.487906,-10214.842000,-1480.411884,-1532.190996
3214.488244,-8142.265362,-1924.535449,-2451.505594
3214.488581,-8882.471304,-962.267725,-383.047749
3214.488919,-10807.006753,-1554.432478,-153.219100
3214.489256,-11399.171507,-2072.576638,-1149.143247
3214.489593,-10214.842000,-1628.453072,-689.485948
3214.489931,-9992.780217,-1480.411884,1915.238745
3214.490268,-11547.212695,-1110.308913,3447.429741
3214.490606,-11177.109724,-1702.473667,2528.115143
3214.490943,-10732.986159,-370.102971,1149.143247
3214.491280,-10214.842000,-222.061783,153.219100
3214.491618,-10807.006753,296.082377,-842.705048
3214.491955,-10658.965565,-74.020594,76.609550
3214.492293,-9400.615463,0.000000,995.924147
3214.492630,-8438.347739,1332.370696,2374.896044
3214.492967,-9918.759623,1702.473667,1378.971896
3214.493305,-10436.903782,2146.597232,383.047749
3214.493642,-10955.047942,1776.494261,0.000000
3214.493980,-8660.409521,1702.473667,919.314598
3214.494317,-8882.471304,1554.432478,1762.019645
3214.494655,-10140.821405,888.247130,2145.067394
3214.494992,-9918.759623,592.164754,0.000000
3214.495329,-8586.388927,1036.288319,-1608.800546
3214.495667,-9178.553681,0.000000,-1991.848295
3214.496004,-10066.800811,-1110.308913,-2221.676944
3214.496342,-9104.533087,-888.247130,-1915.238745
3214.496679,-8364.327145,-1110.308913,-919.314598
3214.497016,-9548.656652,-740.205942,76.609550
3214.497354,-10955.047942,-592.164754,0.000000
3214.497691,-10881.027347,-888.247130,-919.314598
3214.498029,-9992.780217,-1776.494261,1149.143247
3214.498366,-10066.800811,-1702.473667,2987.772442
3214.498703,-11769.274478,-1258.350101,4519.963438
3214.499041,-12287.418637,-1110.308913,2451.505594
3214.499378,-10510.924376,-222.061783,-919.314598
3214.499716,-11325.150913,0.000000,-1532.190996
3214.500053,-11621.233289,-1110.308913,-1302.362347
3214.500390,-10436.903782,-1332.370696,-766.095498
3214.500728,-8956.491898,-1554.432478,459.657299
3214.501065,-8660.409521,-74.020594,76.609550
3214.501403,-10436.903782,-814.226536,-612.876398
3214.501740,-11325.150913,-1036.288319,-995.924147
3214.502077,-9474.636058,-518.144159,-383.047749
3214.502415,-9178.553681,-1332.370696,1302.362347
3214.502752,-9992.780217,-888.247130,2681.334243
3214.503090,-10214.842000,-1258.350101,1072.533697
3214.503427,-9844.739029,-370.102971,-689.485948
3214.503765,-9400.615463,0.000000,-1762.019645
3214.504102,-10140.821405,-740.205942,-1378.971896
3214.504439,-9918.759623,-518.144159,-536.266849
3214.504777,-8882.471304,-148.041188,229.828649
3214.505114,-7920.203579,222.061783,1225.752797
3214.505452,-9696.697840,814.226536,1532.190996
3214.505789,-11399.171507,2146.597232,1608.800546
3214.506126,-11029.068536,3108.864956,995.924147
3214.506464,-10140.821405,2442.679609,2145.067394
3214.506801,-10436.903782,1480.411884,3600.648841
3214.507139,-10732.986159,1924.535449,3907.087040
3214.507476,-9992.780217,2368.659014,1455.581446
3214.507813,-9548.656652,1406.391290,-459.657299
3214.508151,-10362.883188,1036.288319,-1302.362347
3214.508488,-10658.965565,296.082377,-1685.410096
3214.508826,-9474.636058,-666.185348,-2145.067394
3214.509163,-7476.080014,0.000000,-1532.190996
3214.509500,-8956.491898,-592.164754,-1762.019645
3214.509838,-9992.780217,-444.123565,-1608.800546
3214.510175,-9548.656652,-1480.411884,-2451.505594
3214.510513,-9178.553681,-1924.535449,306.438199
3214.510850,-9844.739029,-2886.803174,2145.067394
3214.511187,-11177.109724,-2516.700203,2681.334243
3214.511525,-11325.150913,-1998.556043,1685.410096
3214.511862,-10436.903782,-1924.535449,-383.047749
3214.512200,-10214.842000,-1998.556043,-766.095498
3214.512537,-10955.047942,-2368.659014,-612.876398
3214.512875,-10510.924376,-2368.659014,0.000000
3214.513212,-8808.450710,-1184.329507,76.609550
3214.513549,-9918.759623,-1036.288319,1455.581446
3214.513887,-11029.068536,222.061783,1302.362347
3214.514224,-11251.130318,0.000000,612.876398
3214.514562,-10658.965565,814.226536,1532.190996
3214.514899,-10436.903782,740.205942,2757.943793
3214.515236,-11695.253884,444.123565,3830.477490
3214.515574,-11325.150913,592.164754,2298.286494
3214.515911,-10066.800811,1110.308913,76.609550
3214.516249,-9844.739029,1110.308913,-1685.410096
3214.516586,-9992.780217,-296.082377,-2451.505594
3214.516923,-8956.491898,-370.102971,-2298.286494
3214.517261,-7698.141797,-962.267725,-1378.971896
3214.517598,-7994.224174,296.082377,0.000000
3214.517936,-9844.739029,148.041188,76.609550
3214.518273,-10881.027347,814.226536,-306.438199
3214.518610,-9844.739029,962.267725,-306.438199
3214.518948,-8438.347739,0.000000,1915.238745
3214.519285,-9252.574275,0.000000,3677.258390
3214.519623,-10807.006753,-666.185348,3907.087040
3214.519960,-9992.780217,592.164754,2068.457845
3214.520297,-9770.718434,1110.308913,-459.657299
3214.520635,-10955.047942,296.082377,-995.924147
3214.520972,-10732.986159,0.000000,-1762.019645
3214.521310,-8734.430116,-962.267725,-689.485948
3214.521647,-8438.347739,222.061783,0.000000
3214.521984,-9104.533087,0.000000,306.438199
3214.522322,-10955.047942,-296.082377,-306.438199
3214.522659,-11399.171507,-370.102971,-919.314598
3214.522996,-9992.780217,-444.123565,153.219100
3214.523334,-10510.924376,-1258.350101,2221.676944
3214.523671,-11325.150913,-1924.535449,1762.019645
3214.524009,-10658.965565,-1998.556043,229.828649
3214.524346,-10066.800811,-1776.494261,-1991.848295
3214.524683,-10436.903782,-2294.638420,-2528.115143
3214.525021,-10658.965565,-2960.823768,-2451.505594
3214.525358,-10436.903782,-3182.885551,-612.876398
3214.525695,-8586.388927,-1776.494261,-612.876398
3214.526033,-9104.533087,-1628.453072,919.314598
3214.526370,-10584.944971,-1036.288319,1225.752797
3214.526708,-10955.047942,-666.185348,76.609550
3214.527045,-10066.800811,592.164754,1608.800546
3214.527382,-10140.821405,592.164754,3524.039291
3214.527720,-11325.150913,740.205942,4826.401637
3214.528057,-11251.130318,444.123565,3370.820191
3214.528394,-9770.718434,1702.473667,229.828649
3214.528732,-9622.677246,1998.556043,-1302.362347
3214.529069,-10066.800811,1332.370696,-995.924147
3214.529406,-9178.553681,1184.329507,-1225.752797
3214.529744,-8142.265362,962.267725,-306.438199
3214.530081,-7402.059420,1924.535449,0.000000
3214.530419,-9770.718434,2146.597232,-76.609550
3214.530756,-10732.986159,1110.308913,-1225.752797
3214.531093,-9400.615463,2294.638420,-1608.800546
3214.531431,-10140.821405,74.020594,383.047749
3214.531768,-9474.636058,74.020594,2451.505594
3214.532105,-10732.986159,-592.164754,2451.505594
3214.532443,-10658.965565,-962.267725,1149.143247
3214.532780,-9474.636058,0.000000,-1532.190996
3214.533118,-10436.903782,-1110.308913,-995.924147
3214.533455,-11103.089130,-2072.576638,229.828649
3214.533792,-9474.636058,-1924.535449,76.609550
3214.534130,-8586.388927,-740.205942,1532.190996
3214.534467,-9992.780217,-222.061783,1149.143247
3214.534804,-11325.150913,0.000000,306.438199
3214.535142,-11177.109724,-518.144159,-153.219100
3214.535479,-9548.656652,-666.185348,919.314598
3214.535817,-9918.759623,-444.123565,3524.039291
3214.536154,-11325.150913,-1184.329507,3064.381992
3214.536491,-10584.944971,-1184.329507,1685.410096
3214.536829,-10066.800811,-814.226536,-1455.581446
3214.537166,-10436.903782,-1184.329507,-1225.752797
3214.537503,-10584.944971,-1406.391290,-1991.848295
3214.537841,-9474.636058,-2368.659014,-1685.410096
3214.538178,-8290.306550,-1554.432478,-995.924147
3214.538516,-8290.306550,-1184.329507,-612.876398
3214.538853,-10658.965565,-518.144159,76.609550
3214.539190,-11029.068536,-740.205942,-536.266849
3214.539528,-9918.759623,-666.185348,0.000000
3214.539865,-9918.759623,-370.102971,1915.238745
3214.540202,-11399.171507,0.000000,3600.648841
3214.540540,-11251.130318,-592.164754,2987.772442
3214.540877,-10288.862594,370.102971,995.924147
3214.541214,-9474.636058,1184.329507,842.705048
3214.541552,-10658.965565,814.226536,383.047749
3214.541889,-10288.862594,148.041188,-306.438199
3214.542227,-8438.347739,1110.308913,306.438199
3214.542564,-8586.388927,1628.453072,383.047749
3214.542901,-9918.759623,2516.700203,0.000000
3214.543239,-11177.109724,1924.535449,-1072.533697
3214.543576,-9696.697840,1702.473667,-1762.019645
3214.543913,-8512.368333,370.102971,-306.438199
3214.544251,-9696.697840,0.000000,1991.848295
3214.544588,-10288.862594,-740.205942,1532.190996
3214.544926,-10214.842000,-1110.308913,-459.657299
3214.545263,-9474.636058,-444.123565,-2068.457845
3214.545600,-9474.636058,-1998.556043,-2757.943793
3214.545938,-10510.924376,-2146.597232,-1762.019645
3214.546275,-9252.574275,-2590.720797,-1685.410096
3214.546612,-7994.224174,-1776.494261,-383.047749
3214.546950,-9992.780217,-1332.370696,306.438199
3214.547287,-11473.192101,-1554.432478,306.438199
3214.547625,-11399.171507,-1110.308913,229.828649
3214.547962,-10362.883188,-1554.432478,842.705048
3214.548299,-10362.883188,-1110.308913,2987.772442
3214.548637,-11399.171507,-962.267725,4213.525239
3214.548974,-11547.212695,-518.144159,3217.601092
3214.549311,-10510.924376,-222.061783,689.485948
3214.549649,-10658.965565,0.000000,-689.485948
3214.549986,-11251.130318,-148.041188,0.000000
3214.550324,-10214.842000,0.000000,536.266849
3214.550661,-8290.306550,0.000000,919.314598
3214.550998,-8512.368333,888.247130,995.924147
3214.551336,-10066.800811,444.123565,536.266849
3214.551673,-10955.047942,1110.308913,-919.314598
3214.552010,-9844.739029,370.102971,-1302.362347
3214.552348,-8956.491898,518.144159,383.047749
3214.552685,-9178.553681,-740.205942,1838.629195
3214.553022,-9844.739029,-518.144159,1685.410096
3214.553360,-9030.512492,0.000000,0.000000
3214.553697,-9104.533087,0.000000,-536.266849
3214.554035,-10140.821405,0.000000,-229.828649
3214.554372,-10066.800811,-518.144159,-383.047749
3214.554709,-8882.471304,74.020594,995.924147
3214.555047,-9178.553681,222.061783,1838.629195
3214.555384,-10066.800811,1924.535449,1762.019645
3214.555721,-11473.192101,1036.288319,306.438199
3214.556059,-11177.109724,1406.391290,0.000000
3214.556396,-9770.718434,888.247130,995.924147
3214.556734,-10436.903782,-148.041188,2757.943793
3214.557071,-10807.006753,148.041188,2451.505594
3214.557408,-10436.903782,148.041188,0.000000
3214.557746,-9992.780217,74.020594,-1762.019645
3214.558083,-10584.944971,-1480.411884,-1991.848295
3214.558420,-10362.883188,-1702.473667,-2298.286494
3214.558758,-9696.697840,-1480.411884,-1915.238745
3214.559095,-8882.471304,-1480.411884,-1685.410096
3214.559433,-9400.615463,-1702.473667,-1378.971896
3214.559770,-10436.903782,-2220.617826,-2221.676944
3214.560107,-10214.842000,-2072.576638,-1685.410096
3214.560445,-9178.553681,-2146.597232,-383.047749
3214.560782,-9992.780217,-2072.576638,1838.629195
3214.561119,-11103.089130,-2368.659014,2298.286494
3214.561457,-10510.924376,-1776.494261,1072.533697
3214.561794,-10436.903782,-888.247130,842.705048
3214.562132,-10140.821405,-962.267725,229.828649
3214.562469,-10658.965565,-666.185348,-459.657299
3214.562806,-9696.697840,-296.082377,229.828649
3214.563144,-8586.388927,222.061783,1838.629195
3214.563481,-9252.574275,1258.350101,2911.162892
3214.563818,-10955.047942,1110.308913,2298.286494
3214.564156,-11325.150913,2294.638420,153.219100
3214.564493,-10510.924376,2072.576638,689.485948
3214.564830,-10288.862594,2072.576638,1915.238745
3214.565168,-9770.718434,962.267725,2298.286494
3214.565505,-9770.718434,962.267725,1991.848295
3214.565843,-9474.636058,1184.329507,0.000000
3214.566180,-9622.677246,1258.350101,-1532.190996
3214.566517,-9992.780217,222.061783,-2145.067394
3214.566855,-9548.656652,-1332.370696,-1149.143247
3214.567192,-8216.285956,-592.164754,-842.705048
3214.567529,-8586.388927,0.000000,383.047749
3214.567867,-10362.883188,0.000000,995.924147
3214.568204,-10658.965565,-740.205942,-1225.752797
3214.568542,-9918.759623,-370.102971,-689.485948
3214.568879,-9548.656652,-1110.308913,1685.410096
3214.569216,-10436.903782,-2294.638420,3600.648841
3214.569554,-10584.944971,-1554.432478,3524.039291
3214.569891,-10436.903782,-814.226536,1608.800546
3214.570228,-10436.903782,74.020594,-536.266849
3214.570566,-11177.109724,-1036.288319,-1149.143247
3214.570903,-11843.295072,-1184.329507,-689.485948
3214.571241,-9696.697840,-1406.391290,-306.438199
3214.571578,-8586.388927,-370.102971,306.438199
3214.571915,-9992.780217,-592.164754,0.000000
3214.572253,-10807.006753,-740.205942,-919.314598
3214.572590,-10510.924376,-370.102971,-1302.362347
3214.572927,-10140.821405,-814.226536,-612.876398
3214.573265,-9770.718434,-1036.288319,1225.752797
3214.573602,-11251.130318,-1332.370696,1455.581446
3214.573940,-10140.821405,-1628.453072,0.000000
3214.574277,-9548.656652,-666.185348,-919.314598
3214.574614,-10140.821405,-592.164754,-995.924147
3214.574952,-10955.047942,-1406.391290,-995.924147
3214.575289,-9474.636058,-740.205942,-459.657299
3214.575626,-8290.306550,-370.102971,536.266849
3214.575964,-9030.512492,592.164754,995.924147
3214.576301,-10732.986159,1036.288319,995.924147
3214.576638,-10510.924376,1258.350101,306.438199
3214.576976,-9474.636058,2442.679609,766.095498
3214.577313,-9696.697840,2072.576638,2757.943793
3214.577651,-10436.903782,1998.556043,3677.258390
3214.577988,-9992.780217,1036.288319,2911.162892
3214.578325,-9104.533087,2294.638420,842.705048
3214.578663,-10140.821405,2368.659014,76.609550
3214.579000,-11103.089130,1258.350101,-612.876398
3214.579337,-9918.759623,370.102971,-1532.190996
3214.579675,-8808.450710,518.144159,-842.705048
3214.580012,-8290.306550,592.164754,-689.485948
3214.580350,-9770.718434,444.123565,-1608.800546
3214.580687,-10584.944971,-962.267725,-1915.238745
3214.581024,-9844.739029,-814.226536,-1838.629195
3214.581362,-9252.574275,-1776.494261,919.314598
3214.581699,-10732.986159,-2072.576638,2834.553343
3214.582036,-10955.047942,-1702.473667,1991.848295
3214.582374,-11251.130318,-1850.514855,842.705048
3214.582711,-10807.006753,-1554.432478,-383.047749
3214.583049,-10510.924376,-2220.617826,-1149.143247
3214.583386,-11103.089130,-2516.700203,383.047749
3214.583723,-9844.739029,-2368.659014,995.924147
3214.584061,-8808.450710,-1332.370696,1072.533697
3214.584398,-10140.821405,-370.102971,612.876398
3214.584735,-11251.130318,-370.102971,-153.219100
3214.585073,-10658.965565,-370.102971,-536.266849
3214.585410,-9696.697840,0.000000,1072.533697
3214.585748,-9770.718434,0.000000,2681.334243
3214.586085,-10881.027347,-518.144159,2451.505594
3214.586422,-10584.944971,0.000000,919.314598
3214.586760,-9770.718434,74.020594,-1072.533697
3214.587097,-10066.800811,666.185348,-1608.800546
3214.587434,-10214.842000,-592.164754,-1608.800546
3214.587772,-9178.553681,-1184.329507,-1302.362347
3214.588109,-7550.100608,-962.267725,-459.657299
3214.588446,-8364.327145,74.020594,995.924147
3214.588784,-10807.006753,444.123565,536.266849
3214.589121,-11029.068536,444.123565,0.000000
3214.589459,-10214.842000,296.082377,0.000000
3214.589796,-9178.553681,74.020594,2528.115143
3214.590133,-10584.944971,0.000000,4596.572988
3214.590471,-11029.068536,0.000000,4519.963438
3214.590808,-10436.903782,148.041188,1838.629195
3214.591145,-10140.821405,1406.391290,0.000000
3214.591483,-11251.130318,444.123565,-76.609550
3214.591820,-10732.986159,-666.185348,0.000000
3214.592158,-8660.409521,0.000000,-459.657299
3214.592495,-8142.265362,0.000000,0.000000
3214.592832,-9844.739029,518.144159,-612.876398
3214.593170,-10066.800811,-148.041188,-2451.505594
3214.593507,-9918.759623,-740.205942,-1685.410096
3214.593844,-8882.471304,-666.185348,-306.438199
3214.594182,-10510.924376,-1628.453072,2068.457845
3214.594519,-11325.150913,-1628.453072,1455.581446
3214.594857,-9918.759623,-1258.350101,-1149.143247
3214.595194,-10140.821405,-2220.617826,-1838.629195
3214.595531,-10807.006753,-2664.741391,-2145.067394
3214.595869,-10436.903782,-2590.720797,-1149.143247
3214.596206,-9622.677246,-2368.659014,-842.705048
3214.596543,-9030.512492,-1998.556043,0.000000
3214.596881,-9474.636058,-1110.308913,153.219100
3214.597218,-11621.233289,-296.082377,689.485948
3214.597556,-11177.109724,222.061783,1225.752797
3214.597893,-10140.821405,-592.164754,2068.457845
3214.598230,-10436.903782,74.020594,4060.306139
3214.598568,-11029.068536,592.164754,4673.182538
3214.598905,-11029.068536,1184.329507,2987.772442
3214.599242,-10436.903782,1776.494261,229.828649
3214.599580,-10066.800811,1554.432478,-1149.143247
3214.599917,-10066.800811,1480.411884,-919.314598
3214.600254,-8956.491898,1110.308913,-1455.581446
3214.600592,-7328.038826,1036.288319,-842.705048
3214.600929,-8216.285956,1554.432478,-995.924147
3214.601267,-10436.903782,2146.597232,-1378.971896
3214.601604,-10510.924376,1998.556043,-2451.505594
3214.601941,-8808.450710,1258.350101,-2298.286494
3214.602279,-8734.430116,74.020594,1225.752797
3214.602616,-9696.697840,-592.164754,2834.553343
3214.602953,-10140.821405,-222.061783,1915.238745
3214.603291,-9918.759623,0.000000,383.047749
3214.603628,-10510.924376,-296.082377,-1149.143247
3214.603966,-11103.089130,-1110.308913,-919.314598
3214.604303,-10584.944971,-1406.391290,-612.876398
3214.604640,-8290.306550,-1480.411884,306.438199
3214.604978,-8586.388927,-814.226536,995.924147
3214.605315,-10807.006753,0.000000,1838.629195
3214.605652,-11473.192101,74.020594,-306.438199
3214.605990,-11029.068536,0.000000,383.047749
3214.606327,-10362.883188,-222.061783,2298.286494
3214.606665,-10807.006753,-962.267725,3217.601092
3214.607002,-11325.150913,-518.144159,2987.772442
3214.607339,-10658.965565,-814.226536,612.876398
3214.607677,-10066.800811,-1036.288319,-1455.581446
3214.608014,-10807.006753,-1628.453072,-1302.362347
3214.608351,-10288.862594,-1702.473667,-1455.581446
3214.608689,-9030.512492,-2368.659014,-1532.190996
3214.609026,-7994.224174,-1850.514855,-1149.143247
3214.609364,-8956.491898,-1258.350101,-842.705048
3214.609701,-10658.965565,-1332.370696,-383.047749
3214.610038,-9918.759623,-1110.308913,-766.095498
3214.610376,-9178.553681,-666.185348,76.609550
3214.610713,-9770.718434,-1036.288319,2604.724693
3214.611050,-10807.006753,-148.041188,3217.601092
3214.611388,-11547.212695,-666.185348,2681.334243
3214.611725,-9770.718434,592.164754,1225.752797
3214.612062,-9992.780217,666.185348,0.000000
3214.612400,-10732.986159,444.123565,766.095498
3214.612737,-9326.594869,666.185348,153.219100
3214.613075,-8734.430116,1184.329507,689.485948
3214.613412,-9696.697840,2294.638420,842.705048
3214.613749,-10362.883188,2368.659014,0.000000
3214.614087,-11177.109724,2516.700203,-1149.143247
3214.614424,-9696.697840,1702.473667,-1302.362347
3214.614761,-9104.533087,1184.329507,1072.533697
3214.615099,-10362.883188,-592.164754,2451.505594
3214.615436,-11103.089130,-370.102971,1225.752797
3214.615774,-9622.677246,0.000000,-766.095498
3214.616111,-9992.780217,-814.226536,-2604.724693
3214.616448,-9844.739029,-2146.597232,-2145.067394
3214.616786,-9696.697840,-2886.803174,-2145.067394
3214.617123,-8512.368333,-2368.659014,-76.609550
3214.617460,-8438.347739,-1036.288319,-536.266849
3214.617798,-10362.883188,-1332.370696,-459.657299
3214.618135,-11399.171507,-1628.453072,-842.705048
3214.618473,-10140.821405,-1480.411884,-766.095498
3214.618810,-9844.739029,-1480.411884,2068.457845
3214.619147,-10807.006753,-1924.535449,3600.648841
3214.619485,-11103.089130,-1702.473667,3140.991542
3214.619822,-10881.027347,-592.164754,1532.190996
3214.620159,-11029.068536,296.082377,306.438199
3214.620497,-11177.109724,-370.102971,-612.876398
3214.620834,-11103.089130,-518.144159,-459.657299
3214.621172,-9474.636058,222.061783,229.828649
3214.621509,-8586.388927,0.000000,459.657299
3214.621846,-9400.615463,222.061783,0.000000
3214.622184,-10436.903782,296.082377,-306.438199
3214.622521,-11177.109724,740.205942,229.828649
3214.622858,-9696.697840,1184.329507,-76.609550
3214.623196,-10140.821405,0.000000,1685.410096
3214.623533,-10214.842000,-518.144159,2145.067394
3214.623871,-9548.656652,-666.185348,1149.143247
3214.624208,-9326.594869,666.185348,229.828649
3214.624545,-9104.533087,0.000000,-459.657299
3214.624883,-9696.697840,-296.082377,76.609550
3214.625220,-9474.636058,-592.164754,76.609550
3214.625557,-7698.141797,74.020594,536.266849
3214.625895,-9252.574275,1924.535449,1838.629195
3214.626232,-10732.986159,1184.329507,306.438199
3214.626570,-10362.883188,1850.514855,-995.924147
3214.626907,-9622.677246,1554.432478,0.000000
3214.627244,-9548.656652,666.185348,2145.067394
3214.627582,-10584.944971,666.185348,3140.991542
3214.627919,-10807.006753,0.000000,1608.800546
3214.628256,-9918.759623,814.226536,-612.876398
3214.628594,-9918.759623,0.000000,-1991.848295
3214.628931,-10807.006753,-296.082377,-1608.800546
3214.629269,-10510.924376,-1924.535449,-1685.410096
3214.629606,-8882.471304,-962.267725,-1608.800546
3214.629943,-8882.471304,-740.205942,-995.924147
3214.630281,-10807.006753,-666.185348,-536.266849
3214.630618,-11029.068536,-1628.453072,-1532.190996
3214.630955,-10214.842000,-1554.432478,-1532.190996
3214.631293,-9696.697840,-2516.700203,1455.581446
3214.631630,-10807.006753,-2146.597232,2681.334243
3214.631968,-11399.171507,-2664.741391,2528.115143
3214.632305,-10584.944971,-1406.391290,459.657299
3214.632642,-10214.842000,-1332.370696,-612.876398
3214.632980,-10807.006753,-962.267725,76.609550
3214.633317,-10658.965565,-1850.514855,842.705048
3214.633654,-9104.533087,-1110.308913,1838.629195
3214.633992,-8290.306550,0.000000,995.924147
3214.634329,-9474.636058,1258.350101,842.705048
3214.634667,-11029.068536,1480.411884,-383.047749
3214.635004,-10510.924376,592.164754,-229.828649
3214.635341,-9326.594869,2220.617826,766.095498
3214.635679,-9474.636058,962.267725,2145.067394
3214.636016,-10510.924376,592.164754,2757.943793
3214.636353,-9844.739029,296.082377,459.657299
3214.636691,-9326.594869,962.267725,-612.876398
3214.637028,-9548.656652,1332.370696,-995.924147
3214.637366,-10436.903782,-666.185348,-1302.362347
3214.637703,-9474.636058,-740.205942,-842.705048
3214.638040,-8216.285956,-888.247130,-689.485948
3214.638378,-9030.512492,592.164754,689.485948
3214.638715,-11251.130318,296.082377,0.000000
3214.639053,-10955.047942,0.000000,-766.095498
3214.639390,-9474.636058,-518.144159,153.219100
3214.639727,-9770.718434,-962.267725,3064.381992
3214.640065,-10807.006753,-1258.350101,4366.744339
3214.640402,-10955.047942,-1406.391290,2451.505594
3214.640739,-10288.862594,-222.061783,459.657299
3214.641077,-10288.862594,-222.061783,-229.828649
3214.641414,-10881.027347,-814.226536,0.000000
3214.641752,-10584.944971,-1554.432478,-306.438199
3214.642089,-8734.430116,-1258.350101,-919.314598
3214.642426,-8364.327145,-666.185348,-612.876398
3214.642764,-9992.780217,-370.102971,-1225.752797
3214.643101,-10436.903782,-666.185348,-2374.896044
3214.643438,-9474.636058,-1184.329507,-1838.629195
3214.643776,-9252.574275,-1480.411884,536.266849
3214.644113,-9844.739029,-962.267725,1149.143247
3214.644451,-11029.068536,-2072.576638,612.876398
3214.644788,-10510.924376,-1184.329507,-229.828649
3214.645125,-9992.780217,-1036.288319,-1762.019645
3214.645463,-10807.006753,-592.164754,-1072.533697
3214.645800,-10658.965565,-1258.350101,-919.314598
3214.646137,-9030.512492,-1184.329507,-766.095498
3214.646475,-8216.285956,-296.082377,689.485948
3214.646812,-9844.739029,0.000000,1455.581446
3214.647150,-11399.171507,1332.370696,1149.143247
3214.647487,-10732.986159,1258.350101,766.095498
3214.647824,-9992.780217,2146.597232,2528.115143
3214.648162,-9770.718434,1110.308913,3677.258390
3214.648499,-10584.944971,1628.453072,4213.525239
3214.648836,-10288.862594,1480.411884,2374.896044
3214.649174,-9252.574275,1110.308913,306.438199
3214.649511,-9548.656652,1702.473667,-919.314598
3214.649849,-10584.944971,444.123565,-919.314598
3214.650186,-9030.512492,444.123565,-1608.800546
3214.650523,-7698.141797,-222.061783,-1762.019645
3214.650861,-9104.533087,592.164754,-536.266849
3214.651198,-9548.656652,222.061783,-1991.848295
3214.651535,-9992.780217,-370.102971,-2911.162892
3214.651873,-9178.553681,-1406.391290,-1149.143247
3214.652210,-9030.512492,-1776.494261,1532.190996
3214.652548,-10584.944971,-1924.535449,3983.696590
3214.652885,-11399.171507,-1998.556043,1991.848295
3214.653222,-10658.965565,-1258.350101,689.485948
3214.653560,-11547.212695,-962.267725,-306.438199
3214.653897,-11325.150913,-2072.576638,-536.266849
3214.654234,-10436.903782,-1406.391290,153.219100
3214.654572,-9474.636058,-1776.494261,1149.143247
3214.654909,-9252.574275,-814.226536,689.485948
3214.655247,-10510.924376,0.000000,76.609550
3214.655584,-11473.192101,-370.102971,0.000000
3214.655921,-10510.924376,0.000000,229.828649
3214.656259,-9548.656652,0.000000,2528.115143
3214.656596,-10584.944971,0.000000,3677.258390
3214.656933,-11177.109724,-222.061783,2068.457845
3214.657271,-10510.924376,74.020594,306.438199
3214.657608,-9844.739029,222.061783,-1991.848295
3214.657946,-10214.842000,-592.164754,-1915.238745
3214.658283,-9622.677246,-888.247130,-2528.115143
3214.658620,-8438.347739,-1406.391290,-1762.019645
3214.658958,-7179.997637,-740.205942,-995.924147
3214.659295,-9104.533087,-74.020594,-919.314598
3214.659632,-10436.903782,518.144159,-1302.362347
3214.659970,-10288.862594,0.000000,-842.705048
3214.660307,-9474.636058,222.061783,0.000000
3214.660645,-9400.615463,0.000000,3677.258390
3214.660982,-10510.924376,-222.061783,4136.915689
3214.661319,-10658.965565,296.082377,3524.039291
3214.661657,-10955.047942,962.267725,1378.971896
3214.661994,-10436.903782,1554.432478,-306.438199
3214.662331,-11695.253884,296.082377,-536.266849
3214.662669,-10362.883188,0.000000,-229.828649
3214.663006,-7920.203579,296.082377,-689.485948
3214.663344,-9178.553681,148.041188,306.438199
3214.663681,-10214.842000,666.185348,0.000000
3214.664018,-10214.842000,74.020594,-1532.190996
3214.664356,-9918.759623,74.020594,-306.438199
3214.664693,-9992.780217,-962.267725,1762.019645
3214.665031,-11399.171507,-1480.411884,3217.601092
3214.665368,-11547.212695,-1110.308913,1762.019645
3214.665705,-10436.903782,-1406.391290,-995.924147
3214.666043,-10362.883188,-1850.514855,-1608.800546
3214.666380,-10732.986159,-3108.864956,-1302.362347
3214.666717,-10066.800811,-3108.864956,-459.657299
3214.667055,-8438.347739,-2368.659014,-919.314598
3214.667392,-8660.409521,-2146.597232,-76.609550
3214.667730,-9844.739029,-1258.350101,-383.047749
3214.668067,-10807.006753,-1332.370696,-229.828649
3214.668404,-9548.656652,0.000000,536.266849
3214.668742,-9622.677246,-148.041188,2298.286494
3214.669079,-10658.965565,148.041188,5286.058936
3214.669416,-11251.130318,222.061783,4136.915689
3214.669754,-10955.047942,1110.308913,2221.676944
3214.670091,-10362.883188,1850.514855,0.000000
3214.670429,-10658.965565,1258.350101,-842.705048
3214.670766,-10510.924376,222.061783,-919.314598
3214.671103,-8142.265362,962.267725,-1532.190996
3214.671441,-7772.162391,1406.391290,-383.047749
3214.671778,-9178.553681,1332.370696,-306.438199
3214.672115,-10658.965565,2220.617826,-1532.190996
3214.672453,-10584.944971,1702.473667,-1532.190996
3214.672790,-9474.636058,814.226536,-842.705048
3214.673128,-9104.533087,370.102971,2528.115143
3214.673465,-10881.027347,-962.267725,4136.915689
3214.673802,-10066.800811,-296.082377,1608.800546
3214.674140,-9992.780217,-148.041188,-383.047749
3214.674477,-10658.965565,-962.267725,-842.705048
3214.674814,-10955.047942,-1998.556043,-919.314598
3214.675152,-9918.759623,-1998.556043,-612.876398
3214.675489,-7846.182985,-814.226536,-459.657299
3214.675827,-8438.347739,-592.164754,0.000000
3214.676164,-11251.130318,74.020594,-229.828649
3214.676501,-10584.944971,0.000000,-1915.238745
3214.676839,-9474.636058,296.082377,-383.047749
3214.677176,-10066.800811,-518.144159,1915.238745
3214.677513,-11325.150913,-740.205942,2987.772442
3214.677851,-11177.109724,-592.164754,1838.629195
3214.678188,-10362.883188,-740.205942,153.219100
3214.678526,-10510.924376,-740.205942,-995.924147
3214.678863,-11251.130318,-1776.494261,-1915.238745
3214.679200,-10140.821405,-1850.514855,-1762.019645
3214.679538,-8808.450710,-1628.453072,-1838.629195
3214.679875,-8438.347739,-962.267725,-995.924147
3214.680212,-10362.883188,-740.205942,-919.314598
3214.680550,-10658.965565,-1406.391290,-459.657299
3214.680887,-9844.739029,-296.082377,0.000000
3214.681225,-9548.656652,-666.185348,2298.286494
3214.681562,-11547.212695,-518.144159,4290.134789
3214.681899,-11399.171507,-740.205942,3677.258390
3214.682237,-10214.842000,-518.144159,2604.724693
3214.682574,-9696.697840,1406.391290,1762.019645
3214.682911,-10214.842000,0.000000,536.266849
3214.683249,-10140.821405,0.000000,766.095498
3214.683586,-8438.347739,444.123565,0.000000
3214.683924,-7772.162391,1258.350101,766.095498
3214.684261,-9918.759623,2294.638420,76.609550
3214.684598,-10140.821405,2072.576638,-1532.190996
3214.684936,-9474.636058,2220.617826,-1838.629195
3214.685273,-8734.430116,1184.329507,-383.047749
3214.685610,-8956.491898,518.144159,1762.019645
3214.685948,-10807.006753,-666.185348,2757.943793
3214.686285,-10807.006753,0.000000,766.095498
3214.686623,-9696.697840,0.000000,-1685.410096
3214.686960,-10510.924376,-962.267725,-2298.286494
3214.687297,-10807.006753,-2294.638420,-1915.238745
3214.687635,-9252.574275,-2442.679609,-1608.800546
3214.687972,-8216.285956,-1924.535449,-153.219100
3214.688310,-9326.594869,-1258.350101,306.438199
3214.688647,-11547.212695,-1036.288319,-383.047749
3214.688984,-11769.274478,-1036.288319,0.000000
3214.689322,-10584.944971,-1480.411884,612.876398
3214.689659,-10214.842000,-1184.329507,3600.648841
3214.689996,-11547.212695,-1850.514855,4519.963438
3214.690334,-11177.109724,-1332.370696,3524.039291
3214.690671,-10362.883188,-222.061783,306.438199
3214.691009,-10436.903782,0.000000,-536.266849
3214.691346,-11547.212695,-592.164754,-612.876398
3214.691683,-9992.780217,-1258.350101,-536.266849
3214.692021,-7994.224174,-296.082377,-536.266849
3214.692358,-8142.265362,222.061783,-689.485948
3214.692695,-9548.656652,592.164754,-995.924147
3214.693033,-10066.800811,370.102971,-1762.019645
3214.693370,-9474.636058,296.082377,-1072.533697
3214.693708,-8882.471304,740.205942,459.657299
3214.694045,-10955.047942,-74.020594,2374.896044
3214.694382,-10436.903782,-518.144159,1991.848295
3214.694720,-9844.739029,0.000000,612.876398
3214.695057,-9326.594869,666.185348,0.000000
3214.695394,-10140.821405,148.041188,-306.438199
3214.695732,-10584.944971,0.000000,-229.828649
3214.696069,-9548.656652,0.000000,76.609550
3214.696407,-8364.327145,740.205942,1072.533697
3214.696744,-9844.739029,2294.638420,1762.019645
3214.697081,-11621.233289,1628.453072,1072.533697
3214.697419,-10881.027347,2442.679609,459.657299
3214.697756,-9992.780217,1702.473667,1685.410096
3214.698093,-10658.965565,518.144159,4060.306139
3214.698431,-10658.965565,296.082377,3064.381992
3214.698768,-10881.027347,74.020594,1762.019645
3214.699106,-9696.697840,296.082377,-612.876398
3214.699443,-9326.594869,-740.205942,-2451.505594
3214.699780,-10140.821405,-962.267725,-2298.286494
3214.700118,-9770.718434,-1850.514855,-2374.896044
3214.700455,-7550.100608,-1480.411884,-2451.505594
3214.700792,-8660.409521,-1406.391290,-1991.848295
3214.701130,-10510.924376,-888.247130,-2451.505594
3214.701467,-10214.842000,-2146.597232,-2757.943793
3214.701805,-9030.512492,-2590.720797,-612.876398
3214.702142,-9326.594869,-2072.576638,2298.286494
3214.702479,-11473.192101,-2368.659014,3447.429741
3214.702817,-11547.212695,-2294.638420,1608.800546
3214.703154,-10658.965565,-1924.535449,76.609550
3214.703491,-10658.965565,-1184.329507,76.609550
3214.703829,-11103.089130,-1184.329507,0.000000
3214.704166,-10881.027347,-888.247130,0.000000
3214.704504,-9178.553681,-666.185348,1072.533697
3214.704841,-8734.430116,592.164754,2068.457845
3214.705178,-10584.944971,1036.288319,1532.190996
3214.705516,-11177.109724,1332.370696,536.266849
3214.705853,-11103.089130,1628.453072,1149.143247
3214.706190,-9844.739029,1776.494261,1455.581446
3214.706528,-10066.800811,888.247130,3217.601092
3214.706865,-10510.924376,666.185348,2681.334243
3214.707203,-9548.656652,370.102971,306.438199
3214.707540,-8956.491898,888.247130,-1149.143247
3214.707877,-9770.718434,0.000000,-1685.410096
3214.708215,-9696.697840,-1332.370696,-1915.238745
3214.708552,-8216.285956,-962.267725,-1302.362347
3214.708889,-7994.224174,-74.020594,153.219100
3214.709227,-9622.677246,0.000000,-306.438199
3214.709564,-10436.903782,0.000000,-1455.581446
3214.709902,-9992.780217,-222.061783,-1149.143247
3214.710239,-9252.574275,-740.205942,995.924147
3214.710576,-9474.636058,-1702.473667,3677.258390
3214.710914,-11177.109724,-592.164754,3370.820191
3214.711251,-11029.068536,-666.185348,1608.800546
3214.711588,-10584.944971,518.144159,0.000000
3214.711926,-11325.150913,-592.164754,-1149.143247
3214.712263,-10658.965565,-1036.288319,-612.876398
3214.712601,-10214.842000,-666.185348,-919.314598
3214.712938,-9178.553681,-444.123565,-536.266849
3214.713275,-9326.594869,74.020594,0.000000
3214.713613,-11029.068536,0.000000,-306.438199
3214.713950,-10881.027347,-592.164754,-1378.971896
3214.714288,-9548.656652,-592.164754,-306.438199
3214.714625,-10140.821405,-1480.411884,2145.067394
3214.714962,-11473.192101,-1480.411884,2451.505594
3214.715300,-11103.089130,-962.267725,536.266849
3214.715637,-10214.842000,-1110.308913,-612.876398
3214.715974,-10066.800811,-1184.329507,-1072.533697
3214.716312,-10066.800811,-1258.350101,-689.485948
3214.716649,-9844.739029,-1332.370696,-459.657299
3214.716987,-7920.203579,-1184.329507,612.876398
3214.717324,-8660.409521,-444.123565,842.705048
3214.717661,-10066.800811,222.061783,1072.533697
3214.717999,-10658.965565,1332.370696,459.657299
3214.718336,-9918.759623,1258.350101,1225.752797
3214.718673,-9326.594869,2146.597232,2757.943793
3214.719011,-10066.800811,1480.411884,3677.258390
3214.719348,-10584.944971,1110.308913,3294.210641
3214.719685,-9696.697840,1776.494261,1455.581446
3214.720023,-9400.615463,1628.453072,-612.876398
3214.720360,-10362.883188,1776.494261,-766.095498
3214.720698,-10658.965565,814.226536,-1532.190996
3214.721035,-8882.471304,1036.288319,-1608.800546
3214.721372,-8660.409521,666.185348,-1302.362347
3214.721710,-9992.780217,814.226536,-383.047749
3214.722047,-10955.047942,0.000000,-2068.457845
3214.722384,-10288.862594,-444.123565,-1378.971896
3214.722722,-9474.636058,-1036.288319,766.095498
3214.723059,-9992.780217,-2072.576638,2834.553343
3214.723396,-11251.130318,-1924.535449,2987.772442
3214.723734,-11547.212695,-1776.494261,1072.533697
3214.724071,-10658.965565,-1110.308913,-919.314598
3214.724408,-11177.109724,-2294.638420,-689.485948
3214.724746,-10881.027347,-2960.823768,-842.705048
3214.725083,-9252.574275,-2442.679609,-689.485948
3214.725420,-8438.347739,-1554.432478,76.609550
3214.725758,-9400.615463,-962.267725,0.000000
3214.726095,-10584.944971,-518.144159,-459.657299
3214.726432,-10658.965565,-296.082377,-1072.533697
3214.726770,-9474.636058,0.000000,-306.438199
3214.727107,-9770.718434,0.000000,2221.676944
3214.727444,-11103.089130,-740.205942,3294.210641
3214.727782,-10658.965565,0.000000,1455.581446
3214.728119,-10066.800811,148.041188,-459.657299
3214.728456,-9844.739029,444.123565,-1532.190996
3214.728794,-10732.986159,-296.082377,-1532.190996
3214.729131,-9474.636058,-666.185348,-1762.019645
3214.729468,-7846.182985,148.041188,-1072.533697
3214.729806,-8142.265362,0.000000,229.828649
3214.730143,-10584.944971,740.205942,306.438199
3214.730481,-11103.089130,592.164754,76.609550
3214.730818,-10658.965565,962.267725,1072.533697
3214.731155,-9400.615463,592.164754,2068.457845
3214.731493,-10510.924376,0.000000,4903.011187
3214.731830,-10732.986159,-518.144159,4366.744339
3214.732167,-9474.636058,1184.329507,2451.505594
3214.732505,-10214.842000,1036.288319,1225.752797
3214.732842,-10881.027347,962.267725,-612.876398
3214.733179,-10584.944971,-444.123565,-306.438199
3214.733517,-9400.615463,74.020594,459.657299
3214.733854,-7698.141797,592.164754,-383.047749
3214.734191,-9474.636058,1036.288319,-459.657299
3214.734529,-10658.965565,222.061783,-2528.115143
3214.734866,-9178.553681,-444.123565,-3064.381992
3214.735203,-8660.409521,-814.226536,-459.657299
3214.735541,-9770.718434,-1776.494261,2145.067394
3214.735878,-10807.006753,-1998.556043,1532.190996
3214.736215,-10658.965565,-1850.514855,-842.705048
3214.736553,-10362.883188,-1258.350101,-2451.505594
3214.736890,-10807.006753,-2368.659014,-2298.286494
3214.737227,-11473.192101,-3478.967927,-1225.752797
3214.737565,-9770.718434,-2664.741391,-995.924147
3214.737902,-8956.491898,-2442.679609,-612.876398
3214.738239,-9918.759623,-1258.350101,-612.876398
3214.738577,-11325.150913,-2220.617826,0.000000
3214.738914,-11325.150913,-888.247130,536.266849
3214.739251,-10362.883188,-666.185348,1838.629195
3214.739589,-10658.965565,0.000000,4596.572988
3214.739926,-11917.315666,-148.041188,4903.011187
3214.740263,-11325.150913,444.123565,2987.772442
3214.740601,-10362.883188,962.267725,1225.752797
3214.740938,-9992.780217,2072.576638,-459.657299
3214.741276,-10658.965565,222.061783,-306.438199
3214.741613,-9474.636058,814.226536,-995.924147
3214.741950,-7031.956449,592.164754,-1302.362347
3214.742288,-7476.080014,1480.411884,0.000000
3214.742625,-9844.739029,1702.473667,-1455.581446
3214.742962,-10140.821405,1184.329507,-1838.629195
3214.743300,-9030.512492,1406.391290,-1838.629195
3214.743637,-8364.327145,1110.308913,383.047749
3214.743974,-9474.636058,0.000000,2451.505594
3214.744312,-10436.903782,0.000000,3370.820191
3214.744649,-9030.512492,296.082377,383.047749
3214.744986,-9918.759623,592.164754,-306.438199
3214.745324,-11473.192101,444.123565,-153.219100
3214.745661,-10955.047942,-1258.350101,-689.485948
3214.745998,-9474.636058,-740.205942,383.047749
3214.746336,-8364.327145,0.000000,459.657299
3214.746673,-10362.883188,666.185348,1302.362347
3214.747010,-11399.171507,592.164754,0.000000
3214.747348,-11251.130318,0.000000,-383.047749
3214.747685,-9696.697840,962.267725,1225.752797
3214.748022,-11399.171507,-74.020594,3294.210641
3214.748360,-11769.274478,-666.185348,3370.820191
3214.748697,-10510.924376,-740.205942,229.828649
3214.749034,-10288.862594,-296.082377,-536.266849
3214.749372,-10584.944971,-888.247130,-1685.410096
3214.749709,-10510.924376,-2220.617826,-1991.848295
3214.750046,-9548.656652,-2368.659014,-1915.238745
3214.750384,-8068.244768,-2294.638420,-1532.190996
3214.750721,-8438.347739,-1850.514855,-1378.971896
3214.751058,-9918.759623,-1184.329507,-1302.362347
3214.751396,-10140.821405,-1628.453072,-1149.143247
3214.751733,-8660.409521,-1702.473667,0.000000
3214.752071,-9400.615463,-1036.288319,1685.410096
3214.752408,-11177.109724,-1258.350101,4060.306139
3214.752745,-11399.171507,-888.247130,2604.724693
3214.753083,-9622.677246,0.000000,2374.896044
3214.753420,-10362.883188,814.226536,76.609550
3214.753757,-10658.965565,740.205942,-383.047749
3214.754095,-10362.883188,296.082377,306.438199
3214.754432,-8364.327145,888.247130,536.266849
3214.754769,-8068.244768,2368.659014,1225.752797
3214.755107,-10881.027347,2516.700203,459.657299
3214.755444,-11547.212695,1998.556043,-766.095498
3214.755781,-9918.759623,2442.679609,-919.314598
3214.756119,-9474.636058,1332.370696,919.314598
3214.756456,-9770.718434,740.205942,2451.505594
3214.756793,-10658.965565,-296.082377,1838.629195
3214.757131,-10066.800811,74.020594,229.828649
3214.757468,-9474.636058,-444.123565,-2221.676944
3214.757805,-10362.883188,-1258.350101,-2221.676944
3214.758143,-9918.759623,-3034.844362,-1608.800546
3214.758480,-8142.265362,-2664.741391,-383.047749
3214.758817,-7846.182985,-1776.494261,229.828649
3214.759155,-9844.739029,-1554.432478,1072.533697
3214.759492,-10955.047942,-1480.411884,-995.924147
3214.759829,-10955.047942,-1776.494261,-842.705048
3214.760167,-9992.780217,-1776.494261,1838.629195
3214.760504,-9770.718434,-2664.741391,3524.039291
3214.760841,-11473.192101,-1332.370696,3907.087040
3214.761179,-10732.986159,-1110.308913,1991.848295
3214.761516,-10362.883188,-444.123565,-229.828649
3214.761853,-11029.068536,-592.164754,-1302.362347
3214.762191,-11621.233289,-592.164754,-842.705048
3214.762528,-9992.780217,-518.144159,-383.047749
3214.762866,-8808.450710,-370.102971,153.219100
3214.763203,-8660.409521,148.041188,153.219100
3214.763540,-10584.944971,814.226536,-536.266849
3214.763878,-11103.089130,814.226536,-306.438199
3214.764215,-10807.006753,962.267725,459.657299
3214.764552,-10066.800811,222.061783,1378.971896
3214.764890,-11473.192101,-148.041188,2528.115143
3214.765227,-10658.965565,0.000000,1302.362347
3214.765564,-9178.553681,222.061783,-229.828649
3214.765902,-9252.574275,296.082377,-383.047749
3214.766239,-10066.800811,-370.102971,-612.876398
3214.766576,-9400.615463,-740.205942,0.000000
3214.766914,-8290.306550,0.000000,229.828649
3214.767251,-9104.533087,1332.370696,1608.800546
3214.767588,-10436.903782,1776.494261,1149.143247
3214.767926,-10955.047942,2220.617826,229.828649
3214.768263,-9178.553681,1850.514855,383.047749
3214.768600,-9326.594869,814.226536,2987.772442
3214.768938,-10362.883188,148.041188,4213.525239
3214.769275,-10658.965565,148.041188,2145.067394
3214.769612,-10288.862594,444.123565,76.609550
3214.769950,-10140.821405,296.082377,-1838.629195
3214.770287,-10140.821405,-592.164754,-1991.848295
3214.770624,-9548.656652,-962.267725,-2451.505594
3214.770962,-9252.574275,-666.185348,-1685.410096
3214.771299,-8882.471304,-814.226536,-1685.410096
3214.771636,-10658.965565,-518.144159,-1455.581446
3214.771974,-11843.295072,-1332.370696,-2145.067394
3214.772311,-10140.821405,-1850.514855,-1302.362347
3214.772648,-10066.800811,-2146.597232,689.485948
3214.772986,-10658.965565,-2590.720797,2987.772442
3214.773323,-11547.212695,-2516.700203,2681.334243
3214.773661,-10658.965565,-2368.659014,612.876398
3214.773998,-11251.130318,-1554.432478,-306.438199
3214.774335,-10807.006753,-1258.350101,-536.266849
3214.774673,-10807.006753,-1924.535449,0.000000
3214.775010,-8956.491898,-1110.308913,612.876398
3214.775347,-8216.285956,0.000000,919.314598
3214.775685,-9474.636058,444.123565,1072.533697
3214.776022,-10732.986159,740.205942,0.000000
3214.776359,-10436.903782,1480.411884,-383.047749
3214.776697,-10288.862594,1184.329507,459.657299
3214.777034,-9474.636058,592.164754,1685.410096
3214.777371,-9992.780217,740.205942,2221.676944
3214.777709,-9548.656652,888.247130,459.657299
3214.778046,-9400.615463,814.226536,-1225.752797
3214.778383,-9326.594869,1036.288319,-2451.505594
3214.778721,-9992.780217,0.000000,-2451.505594
3214.779058,-9326.594869,-222.061783,-1302.362347
3214.779395,-7698.141797,0.000000,-1225.752797
3214.779733,-8882.471304,666.185348,842.705048
3214.780070,-11103.089130,296.082377,612.876398
3214.780407,-10955.047942,888.247130,536.266849
3214.780745,-10288.862594,-222.061783,612.876398
3214.781082,-9992.780217,-592.164754,2834.553343
3214.781419,-10955.047942,-1702.473667,4979.620737
3214.781757,-10658.965565,-1184.329507,4749.792088
3214.782094,-9992.780217,0.000000,1455.581446
3214.782431,-10140.821405,0.000000,-383.047749
3214.782769,-11251.130318,-962.267725,-919.314598
3214.783106,-10140.821405,-1184.329507,-306.438199
3214.783443,-9474.636058,-814.226536,0.000000
3214.783781,-8808.450710,-444.123565,0.000000
3214.784118,-9770.718434,-962.267725,-536.266849
3214.784456,-10807.006753,-1110.308913,-1378.971896
3214.784793,-9992.780217,-888.247130,-1532.190996
3214.785130,-8956.491898,-2072.576638,76.609550
3214.785468,-10214.842000,-1924.535449,2145.067394
3214.785805,-11029.068536,-1998.556043,1302.362347
3214.786142,-10362.883188,-1332.370696,-1072.533697
3214.786480,-9918.759623,-1184.329507,-1685.410096
3214.786817,-10658.965565,-1184.329507,-1302.362347
3214.787154,-10288.862594,-2072.576638,-919.314598
3214.787492,-9178.553681,-1406.391290,-306.438199
3214.787829,-8364.327145,-962.267725,1072.533697
3214.788166,-9844.739029,0.000000,1532.190996
3214.788504,-11325.150913,814.226536,1455.581446
3214.788841,-11547.212695,888.247130,1302.362347
3214.789178,-10214.842000,1998.556043,2068.457845
3214.789516,-10288.862594,1480.411884,3370.820191
3214.789853,-11325.150913,740.205942,4443.353888
3214.790190,-9992.780217,1554.432478,2298.286494
3214.790528,-9030.512492,1998.556043,-153.219100
3214.790865,-10140.821405,2516.700203,-1225.752797
3214.791202,-10214.842000,1258.350101,-1762.019645
3214.791540,-9548.656652,370.102971,-1225.752797
3214.791877,-7994.224174,814.226536,-919.314598
3214.792214,-8216.285956,1258.350101,-1072.533697
3214.792552,-10140.821405,888.247130,-1685.410096
3214.792889,-10140.821405,0.000000,-3600.648841
3214.793226,-9030.512492,-370.102971,-1685.410096
3214.793564,-8956.491898,-1406.391290,689.485948
3214.793901,-9844.739029,-2368.659014,2145.067394
3214.794238,-10732.986159,-1628.453072,1302.362347
3214.794576,-10436.903782,-1776.494261,-306.438199
3214.794913,-10140.821405,-740.205942,-1302.362347
3214.795251,-11029.068536,-1406.391290,-612.876398
3214.795588,-10732.986159,-2072.576638,0.000000
3214.795925,-9178.553681,-2072.576638,459.657299
3214.796263,-9770.718434,-888.247130,1302.362347
3214.796600,-10658.965565,-814.226536,919.314598
3214.796937,-11473.192101,-444.123565,229.828649
3214.797275,-10955.047942,-444.123565,536.266849
3214.797612,-10436.903782,-148.041188,1838.629195
3214.797949,-10807.006753,-222.061783,3600.648841
3214.798287,-11103.089130,-814.226536,2451.505594
3214.798624,-10658.965565,-592.164754,1072.533697
3214.798961,-9770.718434,0.000000,-229.828649
3214.799299,-10436.903782,-148.041188,-1149.143247
3214.799636,-10214.842000,-888.247130,-1378.971896
3214.799973,-8586.388927,-1332.370696,-1532.190996
3214.800311,-7846.182985,-370.102971,-536.266849
3214.800648,-8808.450710,-814.226536,306.438199
3214.800985,-10288.862594,148.041188,-459.657299
3214.801323,-10140.821405,-370.102971,-995.924147
3214.801660,-9548.656652,222.061783,689.485948
3214.801997,-9400.615463,148.041188,2374.896044
3214.802335,-10214.842000,-296.082377,4519.963438
3214.802672,-10436.903782,0.000000,3294.210641
3214.803009,-9104.533087,1184.329507,1225.752797
3214.803347,-10288.862594,1702.473667,383.047749
3214.803684,-11103.089130,1554.432478,-459.657299
3214.804021,-9696.697840,296.082377,-459.657299
3214.804359,-9030.512492,1110.308913,229.828649
3214.804696,-8734.430116,1184.329507,0.000000
3214.805033,-10288.862594,1776.494261,-766.095498
3214.805371,-10955.047942,1036.288319,-1762.019645
3214.805708,-9400.615463,0.000000,-1608.800546
3214.806046,-9622.677246,-370.102971,842.705048
3214.806383,-10732.986159,-1184.329507,2528.115143
3214.806720,-10955.047942,-1036.288319,1072.533697
3214.807058,-10140.821405,-1480.411884,-1302.362347
3214.807395,-10362.883188,-1258.350101,-2068.457845
3214.807732,-10436.903782,-1998.556043,-2374.896044
3214.808070,-10510.924376,-3256.906145,-1378.971896
3214.808407,-8882.471304,-2886.803174,-995.924147
3214.808744,-8586.388927,-2442.679609,0.000000
3214.809082,-10066.800811,-962.267725,0.000000
3214.809419,-10807.006753,-1258.350101,-1225.752797
3214.809756,-10214.842000,-1110.308913,-459.657299
3214.810094,-9474.636058,-1110.308913,1225.752797
3214.810431,-10658.965565,-962.267725,4366.744339
3214.810768,-11843.295072,-888.247130,4826.401637
3214.811106,-9918.759623,592.164754,2145.067394
3214.811443,-10214.842000,518.144159,689.485948
3214.811780,-10807.006753,1258.350101,-459.657299
3214.812118,-10362.883188,666.185348,-306.438199
3214.812455,-10066.800811,222.061783,0.000000
3214.812792,-7476.080014,592.164754,-153.219100
3214.813130,-8660.409521,1258.350101,306.438199
3214.813467,-11029.068536,1332.370696,-306.438199
3214.813804,-9918.759623,962.267725,-1378.971896
3214.814142,-9696.697840,888.247130,-536.266849
3214.814479,-9770.718434,296.082377,2145.067394
3214.814816,-10214.842000,0.000000,2911.162892
3214.815154,-10510.924376,-74.020594,2757.943793
3214.815491,-9474.636058,370.102971,306.438199
3214.815828,-9992.780217,222.061783,612.876398
