#time,accel_x,accel_y,accel_z
2925.884665,-8512.368333,-4071.132681,-2757.943793
2925.885003,-8364.327145,-3108.864956,-1915.238745
2925.885341,-10362.883188,-2146.597232,-2068.457845
2925.885679,-11547.212695,-2442.679609,-1991.848295
2925.886016,-11325.150913,-1776.494261,-2374.896044
2925.886354,-10288.862594,-2590.720797,-1225.752797
2925.886692,-10066.800811,-1776.494261,0.000000
2925.887030,-9474.636058,-2590.720797,842.705048
2925.887367,-9696.697840,-2590.720797,612.876398
2925.887705,-8956.491898,-1924.535449,153.219100
2925.888043,-10066.800811,-814.226536,612.876398
2925.888380,-10732.986159,222.061783,306.438199
2925.888718,-11547.212695,518.144159,-1225.752797
2925.889056,-11843.295072,1332.370696,-1915.238745
2925.889394,-11325.150913,370.102971,-2604.724693
2925.889731,-10214.842000,518.144159,-2145.067394
2925.890069,-9696.697840,-962.267725,-2451.505594
2925.890407,-9696.697840,-962.267725,-1762.019645
2925.890745,-9104.533087,-1480.411884,-2451.505594
2925.891082,-9622.677246,-1776.494261,-1762.019645
2925.891420,-9770.718434,-1924.535449,-1225.752797
2925.891758,-10362.883188,-1776.494261,-1838.629195
2925.892095,-10510.924376,-666.185348,-1915.238745
2925.892433,-10732.986159,-962.267725,-2604.724693
2925.892771,-10214.842000,-1258.350101,-3064.381992
2925.893109,-9622.677246,-1776.494261,-2528.115143
2925.893446,-8808.450710,-2220.617826,-2374.896044
2925.893784,-7920.203579,-1998.556043,-1225.752797
2925.894122,-8882.471304,-2368.659014,-995.924147
2925.894460,-8882.471304,-1776.494261,-689.485948
2925.894797,-9474.636058,-1554.432478,-1225.752797
2925.895135,-10510.924376,-1184.329507,-766.095498
2925.895473,-11399.171507,-2146.597232,-1838.629195
2925.895810,-10584.944971,-3034.844362,-3140.991542
2925.896148,-10066.800811,-3775.050304,-3217.601092
2925.896486,-9104.533087,-5033.400406,-3753.867940
2925.896824,-7846.182985,-5033.400406,-3370.820191
2925.897161,-8512.368333,-4959.379811,-3217.601092
2925.897499,-9844.739029,-4441.235652,-2834.553343
2925.897837,-10955.047942,-4367.215058,-4596.572988
2925.898175,-11843.295072,-5181.441594,-4979.620737
2925.898512,-11769.274478,-5477.523971,-4060.306139
2925.898850,-10881.027347,-6809.894666,-2528.115143
2925.899188,-10066.800811,-6069.688724,-1532.190996
2925.899526,-9770.718434,-5995.668130,-1149.143247
2925.899863,-10436.903782,-6217.729913,-1302.362347
2925.900201,-9770.718434,-7031.956449,-1378.971896
2925.900539,-9770.718434,-6513.812290,-1302.362347
2925.900876,-10066.800811,-4145.153275,76.609550
2925.901214,-10362.883188,-2368.659014,459.657299
2925.901552,-10362.883188,-1110.308913,-919.314598
2925.901890,-11325.150913,-2368.659014,-1072.533697
2925.902227,-11843.295072,-2294.638420,-689.485948
2925.902565,-10584.944971,-2664.741391,-689.485948
2925.902903,-9178.553681,-1406.391290,0.000000
2925.903241,-8438.347739,-2294.638420,-842.705048
2925.903578,-9030.512492,-3034.844362,-1455.581446
2925.903916,-9548.656652,-1480.411884,-1915.238745
2925.904254,-9104.533087,0.000000,-1532.190996
2925.904591,-9474.636058,0.000000,-2834.553343
2925.904929,-9918.759623,-1332.370696,-3524.039291
2925.905267,-12065.356855,-1110.308913,-2528.115143
2925.905605,-9474.636058,-814.226536,-2911.162892
2925.905942,-7772.162391,-1850.514855,-1838.629195
2925.906280,-7698.141797,-2590.720797,919.314598
2925.906618,-9992.780217,-1480.411884,459.657299
2925.906956,-9696.697840,-296.082377,-1225.752797
2925.907293,-9770.718434,-1110.308913,-2221.676944
2925.907630,-10362.883188,-1258.350101,-612.876398
2925.907967,-13101.645173,-444.123565,-1532.190996
2925.908304,-11547.212695,0.000000,-3370.820191
2925.908641,-8734.430116,-518.144159,-2451.505594
2925.908978,-8660.409521,-1850.514855,-459.657299
2925.909316,-9918.759623,-1480.411884,-1225.752797
2925.909653,-10955.047942,-2072.576638,-1915.238745
2925.909990,-10658.965565,-1850.514855,-2068.457845
2925.910327,-9252.574275,-1332.370696,-2374.896044
2925.910664,-10214.842000,-814.226536,-1838.629195
2925.911001,-10362.883188,0.000000,-1455.581446
2925.911339,-10066.800811,-518.144159,-3140.991542
2925.911676,-10658.965565,-1258.350101,-3447.429741
2925.912013,-10584.944971,-1184.329507,-3294.210641
2925.912350,-10362.883188,-2590.720797,-2374.896044
2925.912687,-9474.636058,-3478.967927,-2068.457845
2925.913024,-8586.388927,-3034.844362,-1149.143247
2925.913361,-9844.739029,-2368.659014,-1149.143247
2925.913699,-10214.842000,-1850.514855,-1608.800546
2925.914036,-10066.800811,-1554.432478,-1915.238745
2925.914373,-9770.718434,-1406.391290,76.609550
2925.914710,-10658.965565,518.144159,689.485948
2925.915047,-10066.800811,2072.576638,1532.190996
2925.915384,-11843.295072,2442.679609,766.095498
2925.915721,-11621.233289,518.144159,76.609550
2925.916059,-10362.883188,-222.061783,536.266849
2925.916396,-9178.553681,888.247130,1991.848295
2925.916733,-9918.759623,814.226536,1378.971896
2925.917070,-11547.212695,-444.123565,-1149.143247
2925.917407,-9992.780217,-666.185348,-3294.210641
2925.917744,-8216.285956,-1702.473667,-842.705048
2925.918081,-8512.368333,-296.082377,1455.581446
2925.918419,-7624.121203,592.164754,-153.219100
2925.918756,-9844.739029,518.144159,-76.609550
2925.919093,-10955.047942,-962.267725,-995.924147
2925.919430,-9918.759623,-2072.576638,-1072.533697
2925.919767,-10362.883188,-1998.556043,1532.190996
2925.920104,-9400.615463,-2664.741391,306.438199
2925.920442,-9474.636058,-3849.070898,-306.438199
2925.920779,-9622.677246,-4737.318029,-1149.143247
2925.921116,-8734.430116,-5255.462188,-995.924147
2925.921453,-9696.697840,-4219.173869,1378.971896
2925.921790,-10362.883188,-2664.741391,459.657299
2925.922127,-10955.047942,-962.267725,-229.828649
2925.922464,-12509.480420,-814.226536,-306.438199
2925.922802,-10732.986159,-740.205942,383.047749
2925.923139,-11473.192101,-1258.350101,2451.505594
2925.923476,-11029.068536,-962.267725,1991.848295
2925.923813,-11843.295072,-2146.597232,1302.362347
2925.924150,-11843.295072,-3034.844362,-1378.971896
2925.924487,-8808.450710,-3775.050304,-2451.505594
2925.924824,-8660.409521,-2442.679609,-995.924147
2925.925162,-8290.306550,-1998.556043,-2068.457845
2925.925499,-8956.491898,-666.185348,-2145.067394
2925.925836,-9918.759623,-222.061783,-2298.286494
2925.926173,-9770.718434,222.061783,-459.657299
2925.926510,-10807.006753,740.205942,-306.438199
2925.926847,-10732.986159,0.000000,229.828649
2925.927185,-11399.171507,-1554.432478,1532.190996
2925.927522,-9844.739029,-1628.453072,766.095498
2925.927859,-8660.409521,-2294.638420,2145.067394
2925.928196,-7254.018232,-666.185348,1838.629195
2925.928533,-9030.512492,-370.102971,1149.143247
2925.928870,-9770.718434,148.041188,0.000000
2925.929207,-9844.739029,2220.617826,153.219100
2925.929545,-11251.130318,3478.967927,2068.457845
2925.929882,-10732.986159,4293.194464,919.314598
2925.930219,-11029.068536,3701.029710,536.266849
2925.930556,-11621.233289,2590.720797,766.095498
2925.930893,-10732.986159,1258.350101,2068.457845
2925.931230,-9104.533087,444.123565,2145.067394
2925.931567,-8364.327145,0.000000,2451.505594
2925.931905,-9844.739029,148.041188,995.924147
2925.932242,-10066.800811,0.000000,-1532.190996
2925.932579,-10510.924376,0.000000,-1838.629195
2925.932916,-9104.533087,1406.391290,-1608.800546
2925.933253,-9178.553681,1110.308913,-2681.334243
2925.933590,-10807.006753,1036.288319,-2834.553343
2925.933928,-10732.986159,-740.205942,-2757.943793
2925.934265,-10584.944971,-2072.576638,766.095498
2925.934602,-9844.739029,-2738.761985,2068.457845
2925.934939,-9326.594869,-3182.885551,2145.067394
2925.935276,-10510.924376,-3923.091493,1915.238745
2925.935613,-10214.842000,-4071.132681,1455.581446
2925.935950,-10658.965565,-2738.761985,2145.067394
2925.936288,-9474.636058,-296.082377,536.266849
2925.936625,-10732.986159,518.144159,459.657299
2925.936962,-11547.212695,1332.370696,-612.876398
2925.937299,-10881.027347,1036.288319,-1608.800546
2925.937636,-10140.821405,370.102971,689.485948
2925.937973,-9696.697840,370.102971,612.876398
2925.938310,-9622.677246,-592.164754,1991.848295
2925.938648,-10362.883188,-740.205942,1149.143247
2925.938985,-10066.800811,-1628.453072,536.266849
2925.939322,-10140.821405,74.020594,842.705048
2925.939659,-9770.718434,814.226536,306.438199
2925.939996,-10658.965565,962.267725,-689.485948
2925.940333,-10436.903782,1184.329507,-1762.019645
2925.940670,-10658.965565,740.205942,-1149.143247
2925.941008,-9104.533087,148.041188,-919.314598
2925.941345,-8438.347739,444.123565,229.828649
2925.941682,-9104.533087,-2072.576638,1685.410096
2925.942019,-9918.759623,-2368.659014,995.924147
2925.942356,-9844.739029,-2368.659014,1838.629195
2925.942693,-9696.697840,-1554.432478,2221.676944
2925.943031,-10066.800811,-962.267725,2834.553343
2925.943368,-10658.965565,-74.020594,612.876398
2925.943705,-10288.862594,740.205942,-383.047749
2925.944042,-10510.924376,0.000000,842.705048
2925.944379,-9474.636058,296.082377,229.828649
2925.944716,-10214.842000,-148.041188,766.095498
2925.945053,-10658.965565,-1184.329507,0.000000
2925.945391,-10584.944971,-740.205942,-306.438199
2925.945728,-11103.089130,-2072.576638,612.876398
2925.946065,-8956.491898,-1776.494261,76.609550
2925.946402,-9918.759623,-1776.494261,0.000000
2925.946739,-10436.903782,-2220.617826,-1378.971896
2925.947076,-10066.800811,-2368.659014,-1838.629195
2925.947413,-9400.615463,-1110.308913,-2221.676944
2925.947751,-9474.636058,-1036.288319,-1915.238745
2925.948088,-10362.883188,-1480.411884,-1455.581446
2925.948425,-11103.089130,-1850.514855,-2145.067394
2925.948762,-10214.842000,-2590.720797,-766.095498
2925.949099,-8660.409521,-2072.576638,842.705048
2925.949436,-9992.780217,-2368.659014,2681.334243
2925.949774,-11029.068536,-1998.556043,2757.943793
2925.950111,-10584.944971,-1406.391290,766.095498
2925.950448,-10584.944971,-592.164754,1608.800546
2925.950785,-9474.636058,1406.391290,1225.752797
2925.951122,-9918.759623,1184.329507,1455.581446
2925.951459,-10214.842000,1258.350101,1762.019645
2925.951796,-9696.697840,1036.288319,153.219100
2925.952134,-10288.862594,1406.391290,1685.410096
2925.952471,-9770.718434,1776.494261,2068.457845
2925.952808,-9844.739029,1924.535449,1302.362347
2925.953145,-9992.780217,962.267725,-306.438199
2925.953482,-10066.800811,222.061783,0.000000
2925.953819,-8956.491898,370.102971,0.000000
2925.954156,-8660.409521,1332.370696,-536.266849
2925.954494,-9696.697840,1036.288319,-612.876398
2925.954831,-9992.780217,296.082377,-2451.505594
2925.955168,-10658.965565,-148.041188,-1532.190996
2925.955505,-9252.574275,296.082377,0.000000
2925.955842,-9030.512492,-592.164754,1225.752797
2925.956179,-9474.636058,-962.267725,1072.533697
2925.956517,-10066.800811,-1850.514855,0.000000
2925.956854,-11177.109724,-2146.597232,1838.629195
2925.957191,-9844.739029,-1554.432478,1532.190996
2925.957528,-10510.924376,-1036.288319,1762.019645
2925.957865,-10881.027347,0.000000,306.438199
2925.958202,-10214.842000,0.000000,-995.924147
2925.958539,-10584.944971,-518.144159,76.609550
2925.958877,-9474.636058,-592.164754,76.609550
2925.959214,-10658.965565,74.020594,1302.362347
2925.959551,-10732.986159,-444.123565,0.000000
2925.959888,-10658.965565,-1036.288319,-153.219100
2925.960225,-10288.862594,-888.247130,612.876398
2925.960562,-9622.677246,-814.226536,0.000000
2925.960899,-10214.842000,-962.267725,76.609550
2925.961237,-10658.965565,-1850.514855,-2374.896044
2925.961574,-10362.883188,-1702.473667,-1991.848295
2925.961911,-8734.430116,-1036.288319,-1149.143247
2925.962248,-8216.285956,-814.226536,-229.828649
2925.962585,-9178.553681,-962.267725,536.266849
2925.962922,-9400.615463,-148.041188,-842.705048
2925.963259,-10658.965565,444.123565,842.705048
2925.963597,-10732.986159,74.020594,919.314598
2925.963934,-11029.068536,518.144159,2145.067394
2925.964271,-11177.109724,-296.082377,1838.629195
2925.964608,-10732.986159,-296.082377,1685.410096
2925.964945,-9326.594869,-444.123565,1838.629195
2925.965282,-7994.224174,962.267725,1378.971896
2925.965620,-8734.430116,888.247130,2451.505594
2925.965957,-10214.842000,1258.350101,612.876398
2925.966294,-11251.130318,1406.391290,0.000000
2925.966631,-11029.068536,2886.803174,0.000000
2925.966968,-10066.800811,2294.638420,0.000000
2925.967305,-10362.883188,1258.350101,383.047749
2925.967642,-9622.677246,-148.041188,-1072.533697
2925.967980,-10510.924376,-1480.411884,-153.219100
2925.968317,-9104.533087,-2294.638420,-536.266849
2925.968654,-8290.306550,-1924.535449,-383.047749
2925.968991,-9030.512492,-2294.638420,383.047749
2925.969328,-9400.615463,-1998.556043,-612.876398
2925.969665,-10140.821405,-592.164754,0.000000
2925.970002,-10140.821405,-296.082377,-766.095498
2925.970340,-11103.089130,222.061783,153.219100
2925.970677,-11695.253884,-1554.432478,-1532.190996
2925.971014,-10807.006753,-2368.659014,-1072.533697
2925.971351,-10510.924376,-3404.947333,766.095498
2925.971688,-7846.182985,-2368.659014,1532.190996
2925.972025,-9030.512492,-1480.411884,2757.943793
2925.972363,-10288.862594,-1184.329507,383.047749
2925.972700,-11177.109724,-296.082377,-229.828649
2925.973037,-11251.130318,592.164754,306.438199
2925.973374,-11177.109724,1924.535449,842.705048
2925.973711,-11769.274478,1480.411884,1455.581446
2925.974048,-11251.130318,222.061783,-536.266849
2925.974385,-10362.883188,-296.082377,-229.828649
2925.974723,-8956.491898,-1036.288319,-229.828649
2925.975060,-8586.388927,-740.205942,459.657299
2925.975397,-9252.574275,-1332.370696,-229.828649
2925.975734,-8882.471304,-444.123565,-1378.971896
2925.976071,-9622.677246,148.041188,-995.924147
2925.976408,-9474.636058,1628.453072,-612.876398
2925.976745,-9918.759623,2294.638420,-383.047749
2925.977083,-11251.130318,1332.370696,-459.657299
2925.977420,-11251.130318,444.123565,-919.314598
2925.977757,-10066.800811,0.000000,536.266849
2925.978094,-8068.244768,-962.267725,1838.629195
2925.978431,-8586.388927,-666.185348,3294.210641
2925.978768,-9178.553681,-740.205942,1532.190996
2925.979105,-10510.924376,888.247130,995.924147
2925.979443,-10510.924376,1628.453072,766.095498
2925.979780,-10510.924376,2590.720797,1762.019645
2925.980117,-11325.150913,1554.432478,919.314598
2925.980454,-11177.109724,1406.391290,-459.657299
2925.980791,-11473.192101,444.123565,-306.438199
2925.981128,-9622.677246,-814.226536,0.000000
2925.981466,-7624.121203,-962.267725,-383.047749
2925.981803,-8956.491898,-1924.535449,919.314598
2925.982140,-9696.697840,-1406.391290,-76.609550
2925.982477,-10658.965565,-1332.370696,-229.828649
2925.982814,-9696.697840,148.041188,-1225.752797
2925.983151,-10436.903782,222.061783,-995.924147
2925.983488,-11843.295072,-740.205942,-1072.533697
2925.983826,-10807.006753,-1184.329507,-1915.238745
2925.984163,-11029.068536,-2220.617826,612.876398
2925.984500,-8586.388927,-2072.576638,1149.143247
2925.984837,-8290.306550,-2368.659014,2145.067394
2925.985174,-10436.903782,-2368.659014,2834.553343
2925.985511,-10584.944971,-592.164754,1378.971896
2925.985848,-11103.089130,666.185348,2451.505594
2925.986186,-10436.903782,2812.782580,1225.752797
2925.986523,-10881.027347,3108.864956,536.266849
2925.986860,-11473.192101,1850.514855,76.609550
2925.987197,-11399.171507,888.247130,-766.095498
2925.987534,-9030.512492,1332.370696,229.828649
2925.987871,-8734.430116,962.267725,689.485948
2925.988209,-8956.491898,0.000000,919.314598
2925.988546,-8808.450710,148.041188,-76.609550
2925.988883,-9622.677246,1258.350101,842.705048
2925.989220,-9474.636058,2516.700203,0.000000
2925.989557,-10288.862594,3108.864956,-153.219100
2925.989894,-11325.150913,1406.391290,-2145.067394
2925.990231,-10732.986159,0.000000,-2987.772442
2925.990569,-9622.677246,-1480.411884,-1532.190996
2925.990906,-7179.997637,-1406.391290,-536.266849
2925.991243,-7772.162391,-2812.782580,766.095498
2925.991580,-8364.327145,-2664.741391,919.314598
2925.991917,-9326.594869,-1702.473667,0.000000
2925.992254,-10584.944971,-370.102971,1149.143247
2925.992591,-10658.965565,888.247130,689.485948
2925.992929,-12065.356855,1480.411884,1762.019645
2925.993266,-12213.398043,74.020594,-229.828649
2925.993603,-11547.212695,-962.267725,0.000000
2925.993940,-9844.739029,-1702.473667,842.705048
2925.994277,-8882.471304,-1998.556043,1225.752797
2925.994614,-9622.677246,-1850.514855,1455.581446
2925.994952,-9548.656652,-2072.576638,0.000000
2925.995289,-10955.047942,-666.185348,153.219100
2925.995626,-9844.739029,296.082377,-306.438199
2925.995963,-10881.027347,888.247130,0.000000
2925.996300,-11695.253884,592.164754,-229.828649
2925.996637,-11843.295072,-1036.288319,-1685.410096
2925.996974,-10955.047942,-1480.411884,0.000000
2925.997312,-8512.368333,-2368.659014,-612.876398
2925.997649,-8290.306550,-2368.659014,1378.971896
2925.997986,-9252.574275,-2812.782580,153.219100
2925.998323,-8512.368333,-2442.679609,0.000000
2925.998660,-9400.615463,0.000000,1838.629195
2925.998997,-9326.594869,1184.329507,1532.190996
2925.999334,-10807.006753,2368.659014,1225.752797
2925.999672,-11769.274478,888.247130,306.438199
2926.000009,-11473.192101,444.123565,842.705048
2926.000346,-9770.718434,1036.288319,2374.896044
2926.000683,-8364.327145,740.205942,2221.676944
2926.001020,-8438.347739,-370.102971,2221.676944
2926.001357,-8364.327145,-296.082377,766.095498
2926.001694,-9030.512492,1184.329507,1378.971896
2926.002032,-10140.821405,3627.009116,766.095498
2926.002369,-10955.047942,4071.132681,0.000000
2926.002706,-12435.459826,3404.947333,-1608.800546
2926.003043,-12139.377449,1406.391290,-3524.039291
2926.003380,-10584.944971,888.247130,-1991.848295
2926.003717,-7624.121203,-1332.370696,-1378.971896
2926.004055,-7994.224174,-2146.597232,0.000000
2926.004392,-8586.388927,-3775.050304,-995.924147
2926.004729,-9474.636058,-2738.761985,-306.438199
2926.005066,-10066.800811,-1850.514855,842.705048
2926.005403,-9474.636058,74.020594,306.438199
2926.005740,-11621.233289,444.123565,919.314598
2926.006077,-12731.542202,-296.082377,-995.924147
2926.006415,-11843.295072,-1036.288319,-1302.362347
2926.006752,-9918.759623,-1998.556043,76.609550
2926.007089,-8290.306550,-2516.700203,995.924147
2926.007426,-9030.512492,-2516.700203,1225.752797
2926.007763,-9548.656652,-2960.823768,536.266849
2926.008100,-9622.677246,-592.164754,842.705048
2926.008437,-9548.656652,444.123565,1378.971896
2926.008774,-11029.068536,2072.576638,1532.190996
2926.009112,-12805.562797,1998.556043,612.876398
2926.009449,-12361.439231,1184.329507,-612.876398
2926.009786,-10955.047942,148.041188,306.438199
2926.010123,-8364.327145,0.000000,766.095498
2926.010460,-8512.368333,296.082377,919.314598
2926.010797,-9326.594869,-1702.473667,-383.047749
2926.011134,-9326.594869,-1110.308913,-995.924147
2926.011471,-8882.471304,0.000000,1072.533697
2926.011808,-8808.450710,1924.535449,1685.410096
2926.012145,-10732.986159,3256.906145,1072.533697
2926.012482,-12953.603985,1924.535449,-536.266849
2926.012819,-12065.356855,2072.576638,-1149.143247
2926.013156,-9992.780217,740.205942,766.095498
2926.013494,-7994.224174,814.226536,2145.067394
2926.013831,-9030.512492,-1036.288319,2374.896044
2926.014168,-9252.574275,-1628.453072,1532.190996
2926.014505,-9030.512492,-518.144159,1532.190996
2926.014842,-9030.512492,1036.288319,3064.381992
2926.015179,-9992.780217,2368.659014,2221.676944
2926.015516,-11843.295072,2590.720797,689.485948
2926.015853,-12805.562797,1924.535449,-1225.752797
2926.016190,-11029.068536,1036.288319,-1685.410096
2926.016527,-9474.636058,-518.144159,-1225.752797
2926.016864,-8290.306550,-740.205942,-306.438199
2926.017201,-9252.574275,-2960.823768,-995.924147
2926.017538,-9326.594869,-2812.782580,-1378.971896
2926.017876,-9474.636058,-2072.576638,-229.828649
2926.018213,-9030.512492,-666.185348,76.609550
2926.018550,-11473.192101,-444.123565,76.609550
2926.018887,-12879.583391,-888.247130,-1455.581446
2926.019224,-12213.398043,-888.247130,-2221.676944
2926.019561,-11029.068536,-2072.576638,-76.609550
2926.019898,-8142.265362,-2516.700203,-383.047749
2926.020235,-8438.347739,-3627.009116,1302.362347
2926.020572,-9474.636058,-3849.070898,689.485948
2926.020909,-9104.533087,-2886.803174,995.924147
2926.021246,-9696.697840,-888.247130,2528.115143
2926.021583,-9622.677246,666.185348,2221.676944
2926.021920,-12065.356855,2146.597232,2145.067394
2926.022257,-12879.583391,1924.535449,612.876398
2926.022595,-12361.439231,1776.494261,536.266849
2926.022932,-9844.739029,592.164754,383.047749
2926.023269,-8882.471304,74.020594,459.657299
2926.023606,-9252.574275,-962.267725,0.000000
2926.023943,-7328.038826,-1258.350101,-1378.971896
2926.024280,-7550.100608,-888.247130,842.705048
2926.024617,-7698.141797,1406.391290,842.705048
2926.024954,-9770.718434,2738.761985,536.266849
2926.025291,-12509.480420,2738.761985,-612.876398
2926.025628,-13397.727550,962.267725,-1608.800546
2926.025965,-11325.150913,1184.329507,-1378.971896
2926.026302,-8808.450710,74.020594,-536.266849
2926.026639,-8586.388927,-2368.659014,919.314598
2926.026977,-7254.018232,-3775.050304,383.047749
2926.027314,-7920.203579,-3627.009116,842.705048
2926.027651,-8734.430116,-1998.556043,2528.115143
2926.027988,-9400.615463,148.041188,2221.676944
2926.028325,-12435.459826,962.267725,1762.019645
2926.028662,-12805.562797,1776.494261,-612.876398
2926.028999,-12287.418637,1406.391290,0.000000
2926.029336,-10510.924376,444.123565,383.047749
2926.029673,-9400.615463,-962.267725,306.438199
2926.030010,-9992.780217,-1998.556043,1149.143247
2926.030347,-9178.553681,-2886.803174,0.000000
2926.030684,-9400.615463,-1628.453072,842.705048
2926.031021,-8512.368333,-370.102971,0.000000
2926.031359,-10436.903782,592.164754,766.095498
2926.031696,-11473.192101,1184.329507,-995.924147
2926.032033,-12287.418637,1110.308913,-1915.238745
2926.032370,-11695.253884,0.000000,-689.485948
2926.032707,-9030.512492,-1258.350101,-1378.971896
2926.033044,-9104.533087,-1258.350101,1149.143247
2926.033381,-8882.471304,-2738.761985,612.876398
2926.033718,-8808.450710,-2886.803174,612.876398
2926.034055,-8068.244768,-1480.411884,2145.067394
2926.034392,-8808.450710,296.082377,2528.115143
2926.034729,-11547.212695,2072.576638,2451.505594
2926.035066,-12583.501014,2294.638420,229.828649
2926.035403,-12435.459826,2886.803174,612.876398
2926.035740,-11103.089130,2220.617826,995.924147
2926.036078,-9548.656652,1924.535449,995.924147
2926.036415,-9474.636058,962.267725,689.485948
2926.036752,-8660.409521,-518.144159,0.000000
2926.037089,-8956.491898,74.020594,919.314598
2926.037426,-8142.265362,1258.350101,919.314598
2926.037763,-9326.594869,2368.659014,612.876398
2926.038100,-11843.295072,2220.617826,306.438199
2926.038437,-12731.542202,1628.453072,-1685.410096
2926.038774,-11251.130318,1332.370696,-1838.629195
2926.039111,-9400.615463,518.144159,-1608.800546
2926.039448,-9252.574275,-2442.679609,-995.924147
2926.039785,-8142.265362,-3849.070898,-919.314598
2926.040122,-7772.162391,-3997.112087,-1072.533697
2926.040460,-8290.306550,-3108.864956,536.266849
2926.040797,-8290.306550,-1184.329507,612.876398
2926.041134,-11029.068536,-666.185348,612.876398
2926.041471,-12509.480420,-296.082377,-306.438199
2926.041808,-12731.542202,0.000000,-306.438199
2926.042145,-11695.253884,-592.164754,229.828649
2926.042482,-10362.883188,-2516.700203,842.705048
2926.042819,-8956.491898,-2886.803174,1455.581446
2926.043156,-9326.594869,-2960.823768,1225.752797
2926.043493,-9474.636058,-2516.700203,1455.581446
2926.043830,-8734.430116,-1332.370696,842.705048
2926.044167,-10214.842000,444.123565,842.705048
2926.044504,-11843.295072,1184.329507,536.266849
2926.044842,-12213.398043,888.247130,-383.047749
2926.045179,-12213.398043,592.164754,306.438199
2926.045516,-9992.780217,0.000000,-306.438199
2926.045853,-9918.759623,-740.205942,-383.047749
2926.046190,-9548.656652,-2442.679609,-1149.143247
2926.046527,-8068.244768,-2294.638420,-1455.581446
2926.046864,-7328.038826,-2960.823768,919.314598
2926.047201,-7031.956449,-1184.329507,842.705048
2926.047538,-8660.409521,0.000000,1685.410096
2926.047875,-11695.253884,962.267725,383.047749
2926.048212,-12361.439231,1998.556043,-229.828649
2926.048549,-11621.233289,1258.350101,-459.657299
2926.048886,-9844.739029,814.226536,229.828649
2926.049223,-9548.656652,-1110.308913,1532.190996
2926.049561,-8586.388927,-1776.494261,383.047749
2926.049898,-8438.347739,-1850.514855,1378.971896
2926.050235,-8438.347739,296.082377,2068.457845
2926.050572,-9992.780217,1702.473667,1072.533697
2926.050909,-12361.439231,1850.514855,536.266849
2926.051246,-12953.603985,2146.597232,-1225.752797
2926.051583,-12435.459826,2146.597232,0.000000
2926.051920,-10140.821405,1184.329507,-995.924147
2926.052257,-9400.615463,-1480.411884,-383.047749
2926.052594,-9104.533087,-2960.823768,-995.924147
2926.052931,-8586.388927,-2960.823768,-995.924147
2926.053268,-8438.347739,-2886.803174,0.000000
2926.053605,-7920.203579,-1554.432478,-995.924147
2926.053943,-9770.718434,-962.267725,-766.095498
2926.054280,-12065.356855,-370.102971,-1838.629195
2926.054617,-12435.459826,0.000000,-1378.971896
2926.054954,-11177.109724,-518.144159,-153.219100
2926.055291,-10066.800811,-1406.391290,76.609550
2926.055628,-9474.636058,-2664.741391,1762.019645
2926.055965,-9474.636058,-3256.906145,1455.581446
2926.056302,-9474.636058,-2738.761985,2987.772442
2926.056639,-8734.430116,-1332.370696,2221.676944
2926.056976,-9326.594869,1184.329507,2068.457845
2926.057313,-11103.089130,2146.597232,1685.410096
2926.057650,-12139.377449,2886.803174,689.485948
2926.057987,-12435.459826,2294.638420,1302.362347
2926.058325,-10732.986159,2590.720797,0.000000
2926.058662,-10140.821405,1628.453072,306.438199
2926.058999,-9252.574275,0.000000,-536.266849
2926.059336,-7624.121203,-1036.288319,-689.485948
2926.059673,-7772.162391,-888.247130,1455.581446
2926.060010,-7846.182985,74.020594,919.314598
2926.060347,-8882.471304,1184.329507,76.609550
2926.060684,-10807.006753,2072.576638,-1302.362347
2926.061021,-11843.295072,1332.370696,-919.314598
2926.061358,-11029.068536,1184.329507,-689.485948
2926.061695,-9770.718434,0.000000,0.000000
2926.062032,-10288.862594,-740.205942,383.047749
2926.062369,-9178.553681,-3256.906145,-229.828649
2926.062706,-8290.306550,-3182.885551,153.219100
2926.063044,-8216.285956,-2812.782580,1608.800546
2926.063381,-9474.636058,-1258.350101,2604.724693
2926.063718,-11103.089130,-148.041188,1762.019645
2926.064055,-12953.603985,666.185348,995.924147
2926.064392,-13027.624579,1406.391290,1072.533697
2926.064729,-11029.068536,962.267725,153.219100
2926.065066,-10881.027347,-74.020594,995.924147
2926.065403,-10066.800811,-1258.350101,-306.438199
2926.065740,-9474.636058,-2516.700203,-1072.533697
2926.066077,-8956.491898,-2368.659014,-229.828649
2926.066414,-8068.244768,-1258.350101,-995.924147
2926.066751,-9844.739029,-1110.308913,459.657299
2926.067088,-11621.233289,-888.247130,-1455.581446
2926.067426,-11103.089130,74.020594,-1685.410096
2926.067763,-10955.047942,-592.164754,-1225.752797
2926.068100,-9326.594869,-1554.432478,-229.828649
2926.068437,-9178.553681,-3108.864956,0.000000
2926.068774,-9178.553681,-3552.988522,0.000000
2926.069111,-9178.553681,-2664.741391,612.876398
2926.069448,-8438.347739,-2146.597232,919.314598
2926.069785,-8882.471304,-1036.288319,1608.800546
2926.070122,-10658.965565,-370.102971,1149.143247
2926.070459,-11843.295072,518.144159,612.876398
2926.070796,-11769.274478,1258.350101,1838.629195
2926.071133,-10584.944971,1480.411884,1378.971896
2926.071470,-10436.903782,1850.514855,919.314598
2926.071808,-10214.842000,814.226536,-383.047749
2926.072145,-9622.677246,74.020594,-612.876398
2926.072482,-9252.574275,-592.164754,459.657299
2926.072819,-8438.347739,888.247130,612.876398
2926.073156,-10362.883188,1110.308913,306.438199
2926.073493,-10955.047942,1110.308913,-995.924147
2926.073830,-11473.192101,1036.288319,-1378.971896
2926.074167,-10362.883188,1036.288319,-229.828649
2926.074504,-9030.512492,740.205942,-1608.800546
2926.074841,-9474.636058,-1628.453072,-1225.752797
2926.075178,-9696.697840,-3034.844362,-1532.190996
2926.075515,-8586.388927,-3552.988522,-383.047749
2926.075852,-8660.409521,-2960.823768,766.095498
2926.076189,-8142.265362,-1702.473667,229.828649
2926.076527,-10436.903782,-1776.494261,842.705048
2926.076864,-11547.212695,-1554.432478,306.438199
2926.077201,-11177.109724,-740.205942,0.000000
2926.077538,-10288.862594,222.061783,1302.362347
2926.077875,-11251.130318,-74.020594,995.924147
2926.078212,-10658.965565,-1184.329507,0.000000
2926.078549,-10362.883188,-740.205942,229.828649
2926.078886,-9918.759623,-1184.329507,1532.190996
2926.079223,-9178.553681,148.041188,1762.019645
2926.079560,-10214.842000,740.205942,1532.190996
2926.079897,-11325.150913,1258.350101,153.219100
2926.080234,-11695.253884,1924.535449,0.000000
2926.080571,-11399.171507,2220.617826,459.657299
2926.080909,-9992.780217,1554.432478,0.000000
2926.081246,-10288.862594,518.144159,0.000000
2926.081583,-10066.800811,-666.185348,-689.485948
2926.081920,-9252.574275,-740.205942,-1302.362347
2926.082257,-8142.265362,-740.205942,1072.533697
2926.082594,-8142.265362,0.000000,995.924147
2926.082931,-9474.636058,-592.164754,1455.581446
2926.083268,-10214.842000,444.123565,76.609550
2926.083605,-10362.883188,740.205942,153.219100
2926.083942,-9622.677246,1554.432478,995.924147
2926.084279,-9474.636058,1036.288319,1762.019645
2926.084616,-10510.924376,370.102971,1455.581446
2926.084953,-10510.924376,-592.164754,153.219100
2926.085291,-9474.636058,-222.061783,842.705048
2926.085628,-8734.430116,0.000000,2145.067394
2926.085965,-9918.759623,370.102971,1685.410096
2926.086302,-10140.821405,74.020594,153.219100
2926.086639,-11251.130318,518.144159,-612.876398
2926.086976,-10732.986159,814.226536,-459.657299
2926.087313,-10288.862594,888.247130,-1532.190996
2926.087650,-11399.171507,0.000000,-842.705048
2926.087987,-10066.800811,-1036.288319,-2374.896044
2926.088324,-9622.677246,-2886.803174,-1838.629195
2926.088661,-8734.430116,-2368.659014,0.000000
2926.088998,-8068.244768,-1924.535449,-383.047749
2926.089335,-10584.944971,-2664.741391,229.828649
2926.089672,-11473.192101,-2442.679609,-919.314598
2926.090010,-11029.068536,-2072.576638,-459.657299
2926.090347,-10658.965565,-1258.350101,0.000000
2926.090684,-9548.656652,-2368.659014,383.047749
2926.091021,-10066.800811,-2294.638420,995.924147
2926.091358,-9918.759623,-2960.823768,153.219100
2926.091695,-9474.636058,-1628.453072,995.924147
2926.092032,-9178.553681,-518.144159,1455.581446
2926.092369,-10066.800811,-518.144159,1762.019645
2926.092706,-10658.965565,-222.061783,842.705048
2926.093043,-11177.109724,222.061783,766.095498
2926.093380,-11177.109724,1628.453072,1532.190996
2926.093717,-9622.677246,962.267725,459.657299
2926.094054,-10140.821405,1036.288319,1608.800546
2926.094392,-9770.718434,296.082377,-229.828649
2926.094729,-9326.594869,296.082377,-153.219100
2926.095066,-9252.574275,-592.164754,689.485948
2926.095403,-8882.471304,74.020594,-306.438199
2926.095740,-9548.656652,0.000000,0.000000
2926.096077,-9770.718434,0.000000,-1302.362347
2926.096414,-9992.780217,0.000000,306.438199
2926.096751,-9770.718434,370.102971,842.705048
2926.097088,-9696.697840,518.144159,536.266849
2926.097425,-10881.027347,222.061783,1072.533697
2926.097762,-10881.027347,-1036.288319,-536.266849
2926.098099,-10214.842000,-1036.288319,1149.143247
2926.098436,-9622.677246,-1110.308913,1838.629195
2926.098774,-9548.656652,-296.082377,2145.067394
2926.099111,-10436.903782,-296.082377,995.924147
2926.099448,-11029.068536,-592.164754,612.876398
2926.099785,-10807.006753,740.205942,1072.533697
2926.100122,-9844.739029,666.185348,766.095498
2926.100459,-10955.047942,1110.308913,766.095498
2926.100796,-10510.924376,0.000000,-1225.752797
2926.101133,-9696.697840,-814.226536,-1378.971896
2926.101470,-9030.512492,-296.082377,0.000000
2926.101807,-8512.368333,74.020594,-919.314598
2926.102144,-10288.862594,-962.267725,-766.095498
2926.102481,-10214.842000,-1480.411884,-2374.896044
2926.102818,-10214.842000,-962.267725,-842.705048
2926.103155,-9770.718434,-1036.288319,0.000000
2926.103493,-9252.574275,-296.082377,153.219100
2926.103830,-10288.862594,-962.267725,0.000000
2926.104167,-10288.862594,-1036.288319,-842.705048
2926.104504,-10214.842000,-740.205942,0.000000
2926.104841,-9400.615463,-444.123565,612.876398
2926.105178,-9696.697840,222.061783,1072.533697
2926.105515,-11769.274478,-888.247130,1072.533697
2926.105852,-10658.965565,1110.308913,383.047749
2926.106189,-10658.965565,814.226536,1685.410096
2926.106527,-10140.821405,1110.308913,2145.067394
2926.106864,-9696.697840,1554.432478,2681.334243
2926.107201,-10362.883188,1628.453072,1762.019645
2926.107538,-10658.965565,1406.391290,842.705048
2926.107876,-10140.821405,1332.370696,689.485948
2926.108213,-9622.677246,1924.535449,766.095498
2926.108550,-9844.739029,888.247130,0.000000
2926.108887,-9918.759623,222.061783,-766.095498
2926.109225,-9696.697840,0.000000,-1225.752797
2926.109562,-9030.512492,-370.102971,-612.876398
2926.109899,-8364.327145,-296.082377,-1302.362347
2926.110237,-8956.491898,-1554.432478,-306.438199
2926.110574,-9696.697840,-1998.556043,-995.924147
2926.110911,-10362.883188,-1850.514855,229.828649
2926.111248,-9474.636058,-1184.329507,766.095498
2926.111586,-9918.759623,-296.082377,153.219100
2926.111923,-11325.150913,-1480.411884,153.219100
2926.112260,-11251.130318,-1702.473667,229.828649
2926.112597,-10140.821405,-2294.638420,689.485948
2926.112935,-9474.636058,-1332.370696,2221.676944
2926.113272,-9844.739029,-592.164754,2374.896044
2926.113609,-10732.986159,-1258.350101,919.314598
2926.113946,-10881.027347,-296.082377,-306.438199
2926.114284,-10732.986159,0.000000,1378.971896
2926.114621,-10288.862594,888.247130,919.314598
2926.114958,-11103.089130,74.020594,919.314598
2926.115296,-11621.233289,296.082377,-383.047749
2926.115633,-10436.903782,-888.247130,-995.924147
2926.115970,-9548.656652,-962.267725,76.609550
2926.116307,-8808.450710,-444.123565,229.828649
2926.116645,-9548.656652,-1036.288319,0.000000
2926.116982,-9252.574275,-962.267725,-1762.019645
2926.117319,-10288.862594,-1036.288319,-919.314598
2926.117656,-9770.718434,0.000000,-459.657299
2926.117994,-9326.594869,222.061783,-76.609550
2926.118331,-10140.821405,-740.205942,0.000000
2926.118668,-9548.656652,0.000000,-919.314598
2926.119005,-9696.697840,-148.041188,229.828649
2926.119343,-9252.574275,-740.205942,766.095498
2926.119680,-9030.512492,74.020594,2145.067394
2926.120017,-10510.924376,296.082377,1838.629195
2926.120355,-10436.903782,1184.329507,459.657299
2926.120692,-10140.821405,1258.350101,612.876398
2926.121029,-10214.842000,2220.617826,536.266849
2926.121366,-10658.965565,1702.473667,76.609550
2926.121704,-11325.150913,740.205942,0.000000
2926.122041,-11029.068536,666.185348,-153.219100
2926.122378,-9844.739029,-592.164754,842.705048
2926.122715,-8142.265362,0.000000,76.609550
2926.123053,-8882.471304,-148.041188,1532.190996
2926.123390,-9770.718434,-444.123565,-229.828649
2926.123727,-10732.986159,0.000000,-995.924147
2926.124064,-11029.068536,444.123565,-229.828649
2926.124402,-10436.903782,296.082377,-1072.533697
2926.124739,-10140.821405,-1184.329507,-995.924147
2926.125076,-10140.821405,-2368.659014,-995.924147
2926.125414,-9474.636058,-2220.617826,536.266849
2926.125751,-9326.594869,-2294.638420,842.705048
2926.126088,-9104.533087,-2146.597232,1608.800546
2926.126425,-9548.656652,-1554.432478,1149.143247
2926.126763,-10732.986159,-1702.473667,1685.410096
2926.127100,-11251.130318,0.000000,2604.724693
2926.127437,-10066.800811,1850.514855,2068.457845
2926.127774,-11695.253884,1628.453072,1991.848295
2926.128112,-11473.192101,518.144159,766.095498
2926.128449,-10362.883188,296.082377,0.000000
2926.128786,-9474.636058,148.041188,1378.971896
2926.129123,-8660.409521,148.041188,1378.971896
2926.129461,-8956.491898,296.082377,1302.362347
2926.129798,-9400.615463,222.061783,-536.266849
2926.130135,-9992.780217,1036.288319,0.000000
2926.130473,-10140.821405,1776.494261,0.000000
2926.130810,-9622.677246,2368.659014,-689.485948
2926.131147,-11103.089130,1332.370696,-536.266849
2926.131484,-10066.800811,0.000000,-2451.505594
2926.131822,-9844.739029,148.041188,-1072.533697
2926.132159,-8586.388927,-1258.350101,-766.095498
2926.132496,-7994.224174,-962.267725,536.266849
2926.132833,-9326.594869,-1332.370696,995.924147
2926.133171,-10214.842000,-1184.329507,0.000000
2926.133508,-10955.047942,-148.041188,1455.581446
2926.133845,-10362.883188,222.061783,612.876398
2926.134182,-10732.986159,962.267725,1072.533697
2926.134520,-11103.089130,370.102971,-536.266849
2926.134857,-11251.130318,-370.102971,-229.828649
2926.135194,-10510.924376,-1554.432478,612.876398
2926.135532,-8438.347739,-370.102971,536.266849
2926.135869,-9178.553681,-740.205942,995.924147
2926.136206,-10214.842000,-962.267725,-306.438199
2926.136543,-10288.862594,-888.247130,-766.095498
2926.136881,-9992.780217,0.000000,76.609550
2926.137218,-10288.862594,444.123565,0.000000
2926.137555,-11251.130318,-148.041188,-383.047749
2926.137892,-11695.253884,-1628.453072,-1991.848295
2926.138230,-10510.924376,-1998.556043,-1378.971896
2926.138567,-8438.347739,-2738.761985,-536.266849
2926.138904,-7994.224174,-2442.679609,842.705048
2926.139241,-9030.512492,-2738.761985,689.485948
2926.139579,-10066.800811,-2294.638420,306.438199
2926.139916,-10436.903782,-740.205942,1225.752797
2926.140253,-9770.718434,1036.288319,1378.971896
2926.140591,-11917.315666,1628.453072,1608.800546
2926.140928,-12583.501014,-296.082377,459.657299
2926.141265,-11029.068536,296.082377,-383.047749
2926.141602,-9474.636058,-296.082377,1991.848295
2926.141940,-8068.244768,148.041188,2451.505594
2926.142277,-9252.574275,-74.020594,2757.943793
2926.142614,-9844.739029,0.000000,766.095498
2926.142951,-9622.677246,814.226536,536.266849
2926.143289,-9770.718434,2664.741391,1838.629195
2926.143626,-8882.471304,4071.132681,766.095498
2926.143963,-11473.192101,2590.720797,76.609550
2926.144300,-12583.501014,1332.370696,-1838.629195
2926.144638,-10584.944971,666.185348,-2374.896044
2926.144975,-8882.471304,-518.144159,-1072.533697
2926.145312,-7105.977043,-1110.308913,0.000000
2926.145650,-8290.306550,-2812.782580,0.000000
2926.145987,-9252.574275,-2146.597232,-766.095498
2926.146324,-8586.388927,-888.247130,-612.876398
2926.146661,-10362.883188,444.123565,995.924147
2926.146999,-11843.295072,888.247130,306.438199
2926.147336,-11991.336260,0.000000,-1225.752797
2926.147673,-12139.377449,-1332.370696,-459.657299
2926.148010,-10584.944971,-2294.638420,1532.190996
2926.148348,-8216.285956,-1924.535449,1762.019645
2926.148685,-9178.553681,-1850.514855,2145.067394
2926.149022,-9992.780217,-1776.494261,536.266849
2926.149359,-10288.862594,-1110.308913,-76.609550
2926.149697,-10658.965565,518.144159,919.314598
2926.150034,-9992.780217,2738.761985,383.047749
2926.150371,-12065.356855,2664.741391,536.266849
2926.150708,-12583.501014,1480.411884,-2374.896044
2926.151046,-10955.047942,-296.082377,-1762.019645
2926.151383,-9548.656652,-962.267725,612.876398
2926.151720,-8586.388927,-740.205942,995.924147
2926.152058,-8882.471304,-1554.432478,229.828649
2926.152395,-9474.636058,-2072.576638,-459.657299
2926.152732,-9104.533087,-296.082377,1072.533697
2926.153069,-9474.636058,1036.288319,1762.019645
2926.153407,-10658.965565,1628.453072,536.266849
2926.153744,-11843.295072,962.267725,-689.485948
2926.154081,-11991.336260,222.061783,-995.924147
2926.154418,-9844.739029,0.000000,-612.876398
2926.154756,-8216.285956,-1184.329507,1302.362347
2926.155093,-8512.368333,-1998.556043,2987.772442
2926.155430,-8364.327145,-1480.411884,2145.067394
2926.155767,-10436.903782,-666.185348,3064.381992
2926.156105,-9918.759623,1776.494261,2528.115143
2926.156442,-9992.780217,3034.844362,842.705048
2926.156779,-12509.480420,2146.597232,306.438199
2926.157117,-12065.356855,2146.597232,-1838.629195
2926.157454,-10732.986159,1036.288319,-1072.533697
2926.157791,-8956.491898,-370.102971,-689.485948
2926.158128,-7105.977043,-962.267725,-1072.533697
2926.158466,-8734.430116,-2294.638420,0.000000
2926.158803,-9622.677246,-2812.782580,-612.876398
2926.159140,-9918.759623,-1036.288319,842.705048
2926.159477,-9918.759623,-444.123565,229.828649
2926.159815,-10510.924376,74.020594,-689.485948
2926.160152,-11917.315666,-444.123565,-383.047749
2926.160489,-12287.418637,-1184.329507,-1225.752797
2926.160826,-10955.047942,-1924.535449,-536.266849
2926.161164,-8882.471304,-2072.576638,-1378.971896
2926.161501,-8586.388927,-2960.823768,383.047749
2926.161838,-9252.574275,-3627.009116,0.000000
2926.162176,-9474.636058,-2812.782580,995.924147
2926.162513,-9252.574275,-296.082377,2451.505594
2926.162850,-9622.677246,2442.679609,1838.629195
2926.163187,-12435.459826,2072.576638,1762.019645
2926.163525,-13397.727550,888.247130,383.047749
2926.163862,-12065.356855,518.144159,0.000000
2926.164199,-9474.636058,296.082377,766.095498
2926.164536,-8364.327145,222.061783,1532.190996
2926.164874,-8882.471304,-1406.391290,1302.362347
2926.165211,-8142.265362,-1332.370696,-919.314598
2926.165548,-8364.327145,-518.144159,536.266849
2926.165885,-9104.533087,1850.514855,689.485948
2926.166223,-10436.903782,2294.638420,-766.095498
2926.166560,-11695.253884,1554.432478,-1685.410096
2926.166897,-12065.356855,962.267725,-2528.115143
2926.167235,-10066.800811,592.164754,-1302.362347
2926.167572,-8586.388927,-666.185348,-76.609550
2926.167909,-8438.347739,-1184.329507,76.609550
2926.168246,-9252.574275,-3330.926739,536.266849
2926.168584,-10214.842000,-2368.659014,1072.533697
2926.168921,-9030.512492,-1036.288319,2451.505594
2926.169258,-9844.739029,1332.370696,2604.724693
2926.169595,-12287.418637,2072.576638,2298.286494
2926.169933,-12879.583391,1406.391290,-536.266849
2926.170270,-12731.542202,1776.494261,-995.924147
2926.170607,-10066.800811,-148.041188,0.000000
2926.170944,-8290.306550,0.000000,0.000000
2926.171282,-9030.512492,-1628.453072,766.095498
2926.171619,-9326.594869,-2664.741391,-306.438199
2926.171956,-9252.574275,-1406.391290,229.828649
2926.172294,-9326.594869,0.000000,1225.752797
2926.172631,-10362.883188,1628.453072,0.000000
2926.172968,-12139.377449,74.020594,-229.828649
2926.173305,-13027.624579,370.102971,-1455.581446
2926.173643,-10881.027347,-1258.350101,-1991.848295
2926.173980,-8142.265362,-1258.350101,-1149.143247
2926.174317,-7698.141797,-2812.782580,306.438199
2926.174654,-9104.533087,-3552.988522,0.000000
2926.174992,-8882.471304,-3404.947333,229.828649
2926.175329,-8882.471304,-592.164754,2221.676944
2926.175666,-9400.615463,222.061783,2451.505594
2926.176003,-11695.253884,1258.350101,2604.724693
2926.176341,-12731.542202,1332.370696,1225.752797
2926.176678,-12657.521608,1702.473667,383.047749
2926.177015,-9844.739029,814.226536,1608.800546
2926.177353,-8586.388927,592.164754,1302.362347
2926.177690,-9326.594869,-592.164754,1762.019645
2926.178027,-8956.491898,-1776.494261,-612.876398
2926.178364,-8660.409521,370.102971,919.314598
2926.178702,-8734.430116,1924.535449,1225.752797
2926.179039,-9918.759623,3404.947333,995.924147
2926.179376,-12213.398043,1924.535449,229.828649
2926.179713,-12879.583391,2442.679609,-1915.238745
2926.180051,-12139.377449,1628.453072,-1455.581446
2926.180388,-10140.821405,1036.288319,-1149.143247
2926.180725,-8438.347739,-1850.514855,-1762.019645
2926.181062,-8290.306550,-4219.173869,-1225.752797
2926.181400,-8216.285956,-4219.173869,-383.047749
2926.181737,-7920.203579,-2812.782580,1225.752797
2926.182074,-8586.388927,-666.185348,689.485948
2926.182412,-11177.109724,0.000000,306.438199
2926.182749,-12879.583391,148.041188,-842.705048
2926.183086,-12435.459826,0.000000,-1378.971896
2926.183423,-10732.986159,-814.226536,306.438199
2926.183761,-8882.471304,-1628.453072,842.705048
2926.184098,-9030.512492,-2368.659014,1991.848295
2926.184435,-9326.594869,-2886.803174,995.924147
2926.184772,-9622.677246,-2368.659014,1532.190996
2926.185110,-9622.677246,-740.205942,2374.896044
2926.185447,-10881.027347,740.205942,2068.457845
2926.185784,-11621.233289,1924.535449,459.657299
2926.186121,-12361.439231,1332.370696,-1225.752797
2926.186459,-11769.274478,592.164754,-842.705048
2926.186796,-9918.759623,-296.082377,-995.924147
2926.187133,-9326.594869,-444.123565,-766.095498
2926.187471,-9178.553681,-1998.556043,-1072.533697
2926.187808,-8808.450710,-2516.700203,-1378.971896
2926.188145,-8586.388927,-1924.535449,1225.752797
2926.188482,-8142.265362,74.020594,1378.971896
2926.188820,-10140.821405,1110.308913,1608.800546
2926.189157,-12213.398043,666.185348,689.485948
2926.189494,-12361.439231,888.247130,-612.876398
2926.189831,-10955.047942,962.267725,306.438199
2926.190169,-8808.450710,222.061783,229.828649
2926.190506,-8512.368333,-1110.308913,1225.752797
2926.190843,-8512.368333,-2072.576638,383.047749
2926.191180,-8586.388927,-1702.473667,1302.362347
2926.191518,-7994.224174,148.041188,2221.676944
2926.191855,-9474.636058,2072.576638,2298.286494
2926.192192,-12213.398043,2442.679609,2451.505594
2926.192530,-12731.542202,2368.659014,-459.657299
2926.192867,-12139.377449,2886.803174,-766.095498
2926.193204,-10066.800811,1702.473667,-842.705048
2926.193541,-8512.368333,-962.267725,-919.314598
2926.193879,-8882.471304,-2146.597232,-536.266849
2926.194216,-9104.533087,-2368.659014,-1608.800546
2926.194553,-9474.636058,-1554.432478,-842.705048
2926.194890,-8586.388927,-1332.370696,-1225.752797
2926.195228,-10732.986159,-222.061783,0.000000
2926.195565,-11917.315666,-1258.350101,229.828649
2926.195902,-12805.562797,74.020594,-229.828649
2926.196239,-11473.192101,-1332.370696,383.047749
2926.196577,-9844.739029,-1554.432478,0.000000
2926.196914,-9474.636058,-2516.700203,612.876398
2926.197251,-9474.636058,-4219.173869,76.609550
2926.197589,-8512.368333,-2886.803174,919.314598
2926.197926,-8364.327145,-2072.576638,1532.190996
2926.198263,-8586.388927,888.247130,2068.457845
2926.198600,-11029.068536,1850.514855,1762.019645
2926.198938,-12139.377449,1702.473667,0.000000
2926.199275,-12583.501014,1702.473667,76.609550
2926.199612,-10288.862594,1258.350101,229.828649
2926.199949,-9400.615463,888.247130,766.095498
2926.200287,-9178.553681,-962.267725,153.219100
2926.200624,-8660.409521,-1554.432478,-919.314598
2926.200961,-8808.450710,-962.267725,536.266849
2926.201298,-8660.409521,592.164754,383.047749
2926.201636,-9992.780217,1480.411884,-76.609550
2926.201973,-11399.171507,1702.473667,-1302.362347
2926.202310,-11769.274478,1036.288319,-1225.752797
2926.202648,-10732.986159,222.061783,-459.657299
2926.202985,-9400.615463,518.144159,-306.438199
2926.203322,-9548.656652,-666.185348,76.609550
2926.203659,-8808.450710,-2368.659014,-919.314598
2926.203997,-9474.636058,-2516.700203,76.609550
2926.204334,-8882.471304,-2442.679609,2068.457845
2926.204671,-8882.471304,-296.082377,1149.143247
2926.205008,-10436.903782,296.082377,2145.067394
2926.205346,-11547.212695,1628.453072,383.047749
2926.205683,-12065.356855,1406.391290,383.047749
2926.206020,-11177.109724,0.000000,689.485948
2926.206357,-9548.656652,814.226536,0.000000
2926.206695,-9770.718434,-1702.473667,76.609550
2926.207032,-9400.615463,-1998.556043,-1225.752797
2926.207369,-8142.265362,-2146.597232,-919.314598
2926.207706,-8660.409521,-962.267725,612.876398
2926.208044,-9400.615463,-592.164754,459.657299
2926.208381,-11177.109724,-592.164754,-76.609550
2926.208718,-12361.439231,0.000000,-919.314598
2926.209056,-12065.356855,-666.185348,-383.047749
2926.209393,-9474.636058,-1554.432478,-1072.533697
2926.209730,-8808.450710,-2368.659014,76.609550
2926.210067,-8882.471304,-2664.741391,536.266849
2926.210405,-9178.553681,-2960.823768,153.219100
2926.210742,-9326.594869,-1998.556043,1072.533697
2926.211079,-9252.574275,-666.185348,1225.752797
2926.211416,-10955.047942,444.123565,2145.067394
2926.211753,-11473.192101,1702.473667,1302.362347
2926.212090,-11843.295072,888.247130,1149.143247
2926.212428,-10510.924376,1110.308913,1455.581446
2926.212765,-9104.533087,1480.411884,919.314598
2926.213102,-9918.759623,0.000000,2298.286494
2926.213439,-9474.636058,-444.123565,-229.828649
2926.213776,-9400.615463,0.000000,0.000000
2926.214113,-8364.327145,1036.288319,459.657299
2926.214451,-8438.347739,1776.494261,306.438199
2926.214788,-10436.903782,1850.514855,383.047749
2926.215125,-11843.295072,1258.350101,-1072.533697
2926.215462,-11399.171507,1554.432478,-1225.752797
2926.215799,-10436.903782,888.247130,-1762.019645
2926.216136,-9622.677246,-740.205942,-1378.971896
2926.216474,-8586.388927,-3256.906145,-2068.457845
2926.216811,-8660.409521,-3701.029710,-1225.752797
2926.217148,-8216.285956,-2886.803174,383.047749
2926.217485,-8290.306550,-1258.350101,0.000000
2926.217822,-10807.006753,-962.267725,1455.581446
2926.218160,-11843.295072,-74.020594,229.828649
2926.218497,-12953.603985,-518.144159,1378.971896
2926.218834,-11473.192101,74.020594,1838.629195
2926.219171,-9992.780217,0.000000,1072.533697
2926.219508,-10584.944971,-962.267725,1532.190996
2926.219845,-9992.780217,-1924.535449,0.000000
2926.220183,-10140.821405,-1332.370696,766.095498
2926.220520,-9474.636058,0.000000,919.314598
2926.220857,-8956.491898,222.061783,459.657299
2926.221194,-9918.759623,962.267725,229.828649
2926.221531,-11695.253884,1184.329507,-459.657299
2926.221868,-11917.315666,1332.370696,0.000000
2926.222206,-9992.780217,518.144159,-536.266849
2926.222543,-9474.636058,0.000000,0.000000
2926.222880,-9030.512492,-1850.514855,0.000000
2926.223217,-8956.491898,-2738.761985,-766.095498
2926.223554,-8216.285956,-2146.597232,536.266849
2926.223891,-7624.121203,-1332.370696,842.705048
2926.224229,-9104.533087,-370.102971,1915.238745
2926.224566,-10658.965565,0.000000,689.485948
2926.224903,-11177.109724,148.041188,1072.533697
2926.225240,-10955.047942,592.164754,842.705048
2926.225577,-9696.697840,814.226536,536.266849
2926.225914,-10658.965565,888.247130,1685.410096
2926.226252,-10140.821405,-1184.329507,-229.828649
2926.226589,-9770.718434,-740.205942,995.924147
2926.226926,-9252.574275,444.123565,1608.800546
2926.227263,-9474.636058,1628.453072,1608.800546
2926.227600,-11843.295072,1184.329507,1838.629195
2926.227937,-12213.398043,1184.329507,-153.219100
2926.228275,-10807.006753,1850.514855,0.000000
2926.228612,-10807.006753,1702.473667,0.000000
2926.228949,-10140.821405,962.267725,-459.657299
2926.229286,-9992.780217,-1850.514855,-2451.505594
2926.229623,-10066.800811,-2368.659014,-1838.629195
2926.229960,-8734.430116,-2368.659014,-1532.190996
2926.230298,-8216.285956,-2072.576638,-689.485948
2926.230635,-8660.409521,-1924.535449,229.828649
2926.230972,-10066.800811,-2368.659014,-612.876398
2926.231309,-11473.192101,-296.082377,-689.485948
2926.231646,-10881.027347,-740.205942,-689.485948
2926.231983,-9622.677246,-1184.329507,-612.876398
2926.232321,-10140.821405,-2664.741391,536.266849
2926.232658,-9992.780217,-2664.741391,383.047749
2926.232995,-9252.574275,-2738.761985,1455.581446
2926.233332,-8882.471304,-1776.494261,2451.505594
2926.233669,-9252.574275,222.061783,2681.334243
2926.234006,-11769.274478,296.082377,3064.381992
2926.234344,-12657.521608,1184.329507,1072.533697
2926.234681,-11843.295072,2072.576638,919.314598
2926.235018,-10584.944971,1998.556043,306.438199
2926.235355,-9400.615463,2590.720797,76.609550
2926.235692,-10881.027347,148.041188,-153.219100
2926.236029,-9696.697840,222.061783,-1225.752797
2926.236367,-9474.636058,296.082377,-383.047749
2926.236704,-9474.636058,740.205942,76.609550
2926.237041,-8956.491898,370.102971,76.609550
2926.237378,-10140.821405,0.000000,0.000000
2926.237715,-10881.027347,666.185348,1225.752797
2926.238052,-9548.656652,592.164754,995.924147
2926.238390,-9770.718434,1332.370696,536.266849
2926.238727,-10214.842000,0.000000,689.485948
2926.239064,-10140.821405,-370.102971,0.000000
2926.239401,-9696.697840,-1554.432478,153.219100
2926.239738,-7698.141797,-1258.350101,612.876398
2926.240075,-7920.203579,0.000000,1149.143247
2926.240413,-9918.759623,-666.185348,1225.752797
2926.240750,-10066.800811,222.061783,229.828649
2926.241087,-11103.089130,592.164754,1225.752797
2926.241424,-10955.047942,1184.329507,1378.971896
2926.241761,-10436.903782,1406.391290,153.219100
2926.242098,-11103.089130,-222.061783,0.000000
2926.242436,-10288.862594,-1110.308913,-919.314598
2926.242773,-9992.780217,-518.144159,-306.438199
2926.243110,-9474.636058,74.020594,-842.705048
2926.243447,-9474.636058,-518.144159,-229.828649
2926.243784,-10658.965565,-1184.329507,-1225.752797
2926.244121,-10955.047942,-518.144159,-1149.143247
2926.244459,-11251.130318,-296.082377,-459.657299
2926.244796,-10362.883188,-1258.350101,-766.095498
2926.245133,-10140.821405,-1924.535449,0.000000
2926.245470,-9992.780217,-2146.597232,153.219100
2926.245807,-10140.821405,-1776.494261,689.485948
2926.246144,-8512.368333,-1628.453072,1149.143247
2926.246482,-8956.491898,-888.247130,1762.019645
2926.246819,-10807.006753,-1406.391290,2757.943793
2926.247156,-10955.047942,-444.123565,1685.410096
2926.247493,-11029.068536,222.061783,2681.334243
2926.247830,-9474.636058,1628.453072,1838.629195
2926.248168,-8882.471304,1776.494261,995.924147
2926.248505,-10436.903782,1110.308913,766.095498
2926.248842,-9474.636058,814.226536,-689.485948
2926.249179,-9770.718434,444.123565,153.219100
2926.249516,-8660.409521,1332.370696,76.609550
2926.249853,-8808.450710,1036.288319,0.000000
2926.250191,-10362.883188,888.247130,229.828649
2926.250528,-11029.068536,222.061783,-459.657299
2926.250865,-9918.759623,1110.308913,0.000000
2926.251202,-9992.780217,962.267725,-306.438199
2926.251539,-10955.047942,-296.082377,-612.876398
2926.251876,-10436.903782,-1332.370696,-1991.848295
2926.252214,-9992.780217,-2072.576638,-1149.143247
2926.252551,-8586.388927,-1628.453072,-383.047749
2926.252888,-7624.121203,-1258.350101,-536.266849
2926.253225,-9918.759623,-1406.391290,229.828649
2926.253562,-11251.130318,-2294.638420,-766.095498
2926.253899,-10807.006753,-1480.411884,689.485948
2926.254237,-10066.800811,-518.144159,2221.676944
2926.254574,-10510.924376,0.000000,2145.067394
2926.254911,-10807.006753,-1480.411884,1838.629195
2926.255248,-10584.944971,-1036.288319,766.095498
2926.255585,-9992.780217,-1480.411884,1762.019645
2926.255922,-9400.615463,-592.164754,919.314598
2926.256260,-9548.656652,-1184.329507,766.095498
2926.256597,-10881.027347,-1036.288319,0.000000
2926.256934,-10732.986159,-370.102971,-766.095498
2926.257271,-10066.800811,592.164754,-306.438199
2926.257608,-9104.533087,444.123565,-536.266849
2926.257945,-9622.677246,0.000000,-383.047749
2926.258283,-10066.800811,-518.144159,-612.876398
2926.258620,-10807.006753,148.041188,-842.705048
2926.258957,-10436.903782,-296.082377,76.609550
2926.259294,-10066.800811,-518.144159,0.000000
2926.259631,-9844.739029,222.061783,229.828649
2926.259968,-9400.615463,-1036.288319,0.000000
2926.260306,-9918.759623,-222.061783,1838.629195
2926.260643,-9548.656652,222.061783,1838.629195
2926.260980,-10214.842000,1258.350101,1072.533697
2926.261317,-10732.986159,1776.494261,1072.533697
2926.261654,-10510.924376,962.267725,76.609550
2926.261991,-10140.821405,2368.659014,1455.581446
2926.262329,-9252.574275,2590.720797,1072.533697
2926.262666,-9918.759623,2294.638420,1532.190996
2926.263003,-10288.862594,740.205942,612.876398
2926.263340,-10881.027347,444.123565,0.000000
2926.263677,-10214.842000,1184.329507,612.876398
2926.264014,-8734.430116,814.226536,-306.438199
2926.264352,-9252.574275,296.082377,153.219100
2926.264689,-9918.759623,-962.267725,-1378.971896
2926.265026,-9992.780217,-444.123565,-1149.143247
2926.265363,-9770.718434,-444.123565,-995.924147
2926.265700,-9252.574275,0.000000,-1302.362347
2926.266037,-10881.027347,-962.267725,-536.266849
2926.266375,-10955.047942,-2072.576638,-1455.581446
2926.266712,-9770.718434,-2146.597232,-383.047749
2926.267049,-9178.553681,-2220.617826,383.047749
2926.267386,-9178.553681,-1998.556043,229.828649
2926.267723,-10140.821405,-1850.514855,689.485948
2926.268060,-10066.800811,-2146.597232,459.657299
2926.268398,-10807.006753,-1406.391290,919.314598
2926.268735,-10362.883188,-296.082377,1532.190996
2926.269072,-10658.965565,74.020594,1532.190996
2926.269409,-11177.109724,-74.020594,1225.752797
2926.269746,-9992.780217,370.102971,0.000000
2926.270083,-10066.800811,370.102971,1608.800546
2926.270421,-9474.636058,814.226536,1378.971896
2926.270758,-10214.842000,740.205942,689.485948
2926.271095,-10436.903782,444.123565,153.219100
2926.271432,-10214.842000,1036.288319,-919.314598
2926.271769,-10140.821405,444.123565,536.266849
2926.272106,-9252.574275,962.267725,-306.438199
2926.272444,-9400.615463,0.000000,-612.876398
2926.272781,-9622.677246,0.000000,-1072.533697
2926.273118,-10066.800811,-592.164754,-153.219100
2926.273455,-9844.739029,-1110.308913,612.876398
2926.273792,-8808.450710,74.020594,76.609550
2926.274129,-9992.780217,-444.123565,1532.190996
2926.274467,-10436.903782,-370.102971,459.657299
2926.274804,-9918.759623,-888.247130,919.314598
2926.275141,-10140.821405,148.041188,1225.752797
2926.275478,-9918.759623,444.123565,919.314598
2926.275815,-10955.047942,0.000000,689.485948
2926.276152,-10955.047942,-888.247130,-383.047749
2926.276490,-9104.533087,-1406.391290,459.657299
2926.276827,-8068.244768,-592.164754,536.266849
2926.277164,-9696.697840,-370.102971,1378.971896
2926.277501,-9992.780217,-370.102971,0.000000
2926.277838,-11473.192101,-74.020594,-383.047749
2926.278176,-10881.027347,-962.267725,229.828649
2926.278513,-10362.883188,222.061783,-766.095498
2926.278850,-10362.883188,-740.205942,-383.047749
2926.279187,-9918.759623,-2146.597232,-1532.190996
2926.279524,-9622.677246,-1850.514855,-1915.238745
2926.279861,-9548.656652,-1628.453072,-1072.533697
2926.280199,-9474.636058,-1554.432478,-1838.629195
2926.280536,-9696.697840,-2146.597232,-689.485948
2926.280873,-10066.800811,-1850.514855,-842.705048
2926.281210,-10584.944971,-370.102971,306.438199
2926.281547,-10214.842000,0.000000,1072.533697
2926.281884,-10510.924376,222.061783,1302.362347
2926.282222,-11251.130318,-592.164754,2298.286494
2926.282559,-10955.047942,370.102971,1072.533697
2926.282896,-10807.006753,1184.329507,2221.676944
2926.283233,-9400.615463,740.205942,1455.581446
2926.283570,-9252.574275,1258.350101,1225.752797
2926.283907,-9548.656652,1406.391290,766.095498
2926.284245,-9844.739029,1998.556043,306.438199
2926.284582,-9622.677246,2072.576638,153.219100
2926.284919,-9622.677246,2442.679609,306.438199
2926.285256,-10066.800811,2368.659014,689.485948
2926.285593,-10288.862594,1036.288319,-383.047749
2926.285930,-10436.903782,444.123565,0.000000
2926.286268,-9400.615463,0.000000,229.828649
2926.286605,-8586.388927,0.000000,153.219100
2926.286942,-9030.512492,-296.082377,1225.752797
2926.287279,-9548.656652,-592.164754,-612.876398
2926.287616,-10955.047942,-740.205942,0.000000
2926.287953,-10510.924376,-370.102971,-306.438199
2926.288291,-9400.615463,0.000000,-612.876398
2926.288628,-9548.656652,-888.247130,-383.047749
2926.288965,-10436.903782,-1924.535449,-383.047749
2926.289302,-10214.842000,-2368.659014,689.485948
2926.289639,-9474.636058,-1110.308913,1532.190996
2926.289976,-9770.718434,-370.102971,1685.410096
2926.290314,-10658.965565,-1258.350101,1762.019645
2926.290651,-11547.212695,-370.102971,1378.971896
2926.290988,-11177.109724,296.082377,2451.505594
2926.291325,-10732.986159,1036.288319,1225.752797
2926.291662,-11029.068536,814.226536,306.438199
2926.291999,-11251.130318,-1036.288319,-1685.410096
2926.292337,-10436.903782,-1776.494261,-1302.362347
2926.292674,-9326.594869,-1776.494261,-1225.752797
2926.293011,-8438.347739,-740.205942,-1149.143247
2926.293348,-8882.471304,-1332.370696,-76.609550
2926.293685,-9252.574275,-1332.370696,-1072.533697
2926.294022,-10584.944971,-1184.329507,-306.438199
2926.294360,-9770.718434,-888.247130,76.609550
2926.294697,-9992.780217,0.000000,612.876398
2926.295034,-10436.903782,-1554.432478,1608.800546
2926.295371,-10140.821405,-1036.288319,-229.828649
2926.295708,-9770.718434,-1628.453072,459.657299
2926.296045,-8586.388927,-1628.453072,1072.533697
2926.296383,-8068.244768,-740.205942,1532.190996
2926.296720,-9474.636058,-74.020594,1685.410096
2926.297057,-11103.089130,518.144159,1302.362347
2926.297394,-10881.027347,1776.494261,1149.143247
2926.297731,-9918.759623,2664.741391,1225.752797
2926.298068,-10510.924376,3256.906145,766.095498
2926.298406,-11917.315666,1184.329507,229.828649
2926.298743,-11843.295072,592.164754,-612.876398
2926.299080,-9474.636058,-518.144159,76.609550
2926.299417,-7994.224174,-1480.411884,-306.438199
2926.299754,-8364.327145,-2146.597232,383.047749
2926.300091,-8882.471304,-1924.535449,-995.924147
2926.300429,-10066.800811,-1332.370696,-842.705048
2926.300766,-10362.883188,0.000000,-459.657299
2926.301103,-9844.739029,740.205942,-2145.067394
2926.301440,-11399.171507,-518.144159,-1378.971896
2926.301777,-11325.150913,-1332.370696,-1685.410096
2926.302114,-10140.821405,-2442.679609,-1302.362347
2926.302452,-8734.430116,-2516.700203,-306.438199
2926.302789,-7772.162391,-2516.700203,766.095498
2926.303126,-9178.553681,-3701.029710,1838.629195
2926.303463,-10140.821405,-2664.741391,1838.629195
2926.303800,-11029.068536,-814.226536,3294.210641
2926.304137,-10955.047942,1702.473667,2528.115143
2926.304475,-11325.150913,2146.597232,1608.800546
2926.304812,-11769.274478,1110.308913,459.657299
2926.305149,-11399.171507,814.226536,-459.657299
2926.305486,-9770.718434,370.102971,689.485948
2926.305823,-8734.430116,1184.329507,0.000000
2926.306160,-9252.574275,74.020594,-76.609550
2926.306498,-9548.656652,0.000000,-536.266849
2926.306835,-10658.965565,888.247130,153.219100
2926.307172,-9548.656652,2516.700203,842.705048
2926.307509,-9770.718434,2886.803174,919.314598
2926.307846,-11473.192101,1998.556043,0.000000
2926.308184,-10807.006753,74.020594,-1838.629195
2926.308521,-11251.130318,222.061783,-612.876398
2926.308858,-8364.327145,-814.226536,-306.438199
2926.309195,-7105.977043,-814.226536,536.266849
2926.309532,-8216.285956,-962.267725,1302.362347
2926.309869,-8956.491898,-1184.329507,0.000000
2926.310206,-9770.718434,222.061783,2068.457845
2926.310543,-9770.718434,1776.494261,1302.362347
2926.310881,-10881.027347,2146.597232,1302.362347
2926.311218,-12435.459826,1480.411884,1302.362347
2926.311555,-11547.212695,370.102971,0.000000
2926.311892,-9844.739029,-296.082377,229.828649
2926.312229,-8068.244768,-962.267725,306.438199
2926.312566,-8808.450710,-962.267725,766.095498
2926.312903,-9770.718434,-1998.556043,-153.219100
2926.313241,-10288.862594,-1332.370696,0.000000
2926.313578,-9844.739029,-148.041188,459.657299
2926.313915,-10510.924376,1036.288319,383.047749
2926.314252,-12213.398043,518.144159,-383.047749
2926.314589,-12583.501014,-592.164754,-2221.676944
2926.314926,-10955.047942,-2368.659014,-1762.019645
2926.315263,-9400.615463,-2220.617826,-2145.067394
2926.315600,-9178.553681,-3775.050304,0.000000
2926.315938,-8882.471304,-4219.173869,842.705048
2926.316275,-9252.574275,-4663.297435,0.000000
2926.316612,-10362.883188,-3034.844362,2451.505594
2926.316949,-9178.553681,-962.267725,1838.629195
2926.317286,-10658.965565,74.020594,1915.238745
2926.317623,-11843.295072,-148.041188,1149.143247
2926.317960,-11695.253884,0.000000,-383.047749
2926.318298,-10362.883188,74.020594,229.828649
2926.318635,-8364.327145,-666.185348,-536.266849
2926.318972,-8364.327145,-518.144159,689.485948
2926.319309,-9474.636058,-1776.494261,612.876398
2926.319646,-9104.533087,444.123565,1685.410096
2926.319983,-9252.574275,1480.411884,1991.848295
2926.320320,-10140.821405,2442.679609,1532.190996
2926.320657,-11473.192101,2146.597232,689.485948
2926.320995,-11843.295072,1480.411884,-383.047749
2926.321332,-11547.212695,1184.329507,-383.047749
2926.321669,-9326.594869,0.000000,-1762.019645
2926.322006,-7846.182985,0.000000,-1915.238745
2926.322343,-8882.471304,-2516.700203,-919.314598
2926.322680,-8586.388927,-2886.803174,-1608.800546
2926.323017,-9178.553681,-1480.411884,536.266849
2926.323355,-9326.594869,0.000000,1378.971896
2926.323692,-10140.821405,1110.308913,459.657299
2926.324029,-12361.439231,0.000000,383.047749
2926.324366,-12583.501014,-74.020594,0.000000
2926.324703,-10510.924376,-1110.308913,459.657299
2926.325040,-9104.533087,-888.247130,383.047749
2926.325377,-8882.471304,-962.267725,919.314598
2926.325714,-9992.780217,-2738.761985,689.485948
2926.326052,-9918.759623,-2072.576638,995.924147
2926.326389,-9696.697840,-222.061783,2068.457845
2926.326726,-10288.862594,1776.494261,1685.410096
2926.327063,-11843.295072,1702.473667,229.828649
2926.327400,-12213.398043,370.102971,-1072.533697
2926.327737,-11547.212695,518.144159,-536.266849
2926.328074,-9252.574275,-370.102971,-689.485948
2926.328412,-8734.430116,-370.102971,-306.438199
2926.328749,-9400.615463,-2294.638420,-306.438199
2926.329086,-9696.697840,-1998.556043,-1149.143247
2926.329423,-9696.697840,-1110.308913,612.876398
2926.329760,-9104.533087,518.144159,995.924147
2926.330097,-10436.903782,1998.556043,1378.971896
2926.330434,-12213.398043,296.082377,612.876398
2926.330771,-11547.212695,1332.370696,-306.438199
2926.331109,-10584.944971,740.205942,459.657299
2926.331446,-9178.553681,888.247130,766.095498
2926.331783,-8734.430116,0.000000,1149.143247
2926.332120,-9548.656652,-1258.350101,1838.629195
2926.332457,-9400.615463,148.041188,1838.629195
2926.332794,-8216.285956,1850.514855,3217.601092
2926.333131,-9104.533087,3997.112087,2681.334243
2926.333469,-11399.171507,3034.844362,1378.971896
2926.333806,-12361.439231,2960.823768,-459.657299
2926.334143,-11991.336260,2664.741391,-1072.533697
2926.334480,-10510.924376,1480.411884,-1072.533697
2926.334817,-7476.080014,-666.185348,-1302.362347
2926.335154,-8142.265362,-2220.617826,-766.095498
2926.335491,-8290.306550,-2590.720797,-842.705048
2926.335828,-9178.553681,-1332.370696,0.000000
2926.336166,-9252.574275,-592.164754,383.047749
2926.336503,-10807.006753,666.185348,0.000000
2926.336840,-12213.398043,-592.164754,-383.047749
2926.337177,-12361.439231,-666.185348,-1532.190996
2926.337514,-10807.006753,-1850.514855,-306.438199
2926.337851,-8956.491898,-2368.659014,-383.047749
2926.338188,-8438.347739,-3701.029710,-536.266849
2926.338526,-9844.739029,-4441.235652,0.000000
2926.338863,-9474.636058,-3849.070898,153.219100
2926.339200,-9770.718434,-2072.576638,1838.629195
2926.339537,-9696.697840,1036.288319,1149.143247
2926.339874,-11695.253884,296.082377,1532.190996
2926.340211,-12509.480420,518.144159,919.314598
2926.340548,-12139.377449,0.000000,306.438199
2926.340885,-10510.924376,0.000000,1149.143247
2926.341223,-9770.718434,-222.061783,153.219100
2926.341560,-9548.656652,-2146.597232,-153.219100
2926.341897,-9622.677246,-2516.700203,-919.314598
2926.342234,-9104.533087,-2146.597232,153.219100
2926.342571,-7698.141797,-148.041188,229.828649
2926.342908,-9030.512492,814.226536,0.000000
2926.343245,-11029.068536,740.205942,-612.876398
2926.343583,-11399.171507,444.123565,-1991.848295
2926.343920,-11177.109724,740.205942,-612.876398
2926.344257,-9548.656652,0.000000,0.000000
2926.344594,-9474.636058,-1702.473667,459.657299
2926.344931,-9178.553681,-2738.761985,306.438199
2926.345268,-8808.450710,-2368.659014,1149.143247
2926.345605,-8364.327145,-1184.329507,2911.162892
2926.345942,-9326.594869,1036.288319,2451.505594
2926.346280,-11547.212695,1998.556043,1991.848295
2926.346617,-12139.377449,2072.576638,153.219100
2926.346954,-12657.521608,1924.535449,-383.047749
2926.347291,-10955.047942,1480.411884,0.000000
2926.347628,-9178.553681,222.061783,-383.047749
2926.347965,-8808.450710,-1036.288319,536.266849
2926.348302,-9252.574275,-962.267725,-612.876398
2926.348640,-9252.574275,-1554.432478,919.314598
2926.348977,-9622.677246,-666.185348,1378.971896
2926.349314,-10584.944971,814.226536,842.705048
2926.349651,-11769.274478,814.226536,229.828649
2926.349988,-11843.295072,592.164754,-1685.410096
2926.350325,-10214.842000,74.020594,-1991.848295
2926.350662,-8734.430116,-666.185348,-2221.676944
2926.350999,-8882.471304,-1998.556043,-1225.752797
2926.351337,-9326.594869,-3034.844362,-689.485948
2926.351674,-9770.718434,-2960.823768,0.000000
2926.352011,-9326.594869,-1628.453072,1991.848295
2926.352348,-8882.471304,-740.205942,2298.286494
2926.352685,-10732.986159,1628.453072,2604.724693
2926.353022,-11917.315666,1184.329507,1762.019645
2926.353359,-12139.377449,1258.350101,1685.410096
2926.353697,-10658.965565,1406.391290,995.924147
2926.354034,-10140.821405,1406.391290,919.314598
2926.354371,-10066.800811,666.185348,1149.143247
2926.354708,-9030.512492,-592.164754,-306.438199
2926.355045,-8956.491898,518.144159,383.047749
2926.355382,-8216.285956,1998.556043,1302.362347
2926.355719,-9474.636058,2812.782580,536.266849
2926.356056,-10732.986159,2220.617826,306.438199
2926.356394,-11029.068536,2220.617826,-612.876398
2926.356731,-11621.233289,2294.638420,0.000000
2926.357068,-10288.862594,666.185348,-612.876398
2926.357405,-8808.450710,0.000000,-995.924147
2926.357742,-8734.430116,-2368.659014,-383.047749
2926.358079,-8586.388927,-3330.926739,-689.485948
2926.358416,-8882.471304,-2516.700203,766.095498
2926.358754,-8956.491898,-1184.329507,766.095498
2926.359091,-9844.739029,0.000000,1072.533697
2926.359428,-11103.089130,-592.164754,76.609550
2926.359765,-11991.336260,148.041188,153.219100
2926.360102,-11177.109724,-814.226536,459.657299
2926.360439,-10214.842000,-814.226536,306.438199
2926.360776,-9770.718434,-1702.473667,1149.143247
2926.361113,-9474.636058,-2442.679609,229.828649
2926.361451,-9696.697840,-2442.679609,919.314598
2926.361788,-10140.821405,-1776.494261,1072.533697
2926.362125,-9918.759623,0.000000,229.828649
2926.362462,-10214.842000,666.185348,-229.828649
2926.362799,-11843.295072,444.123565,-1072.533697
2926.363136,-11843.295072,-370.102971,-1225.752797
2926.363473,-10214.842000,-1110.308913,-2068.457845
2926.363811,-9178.553681,-1480.411884,-1532.190996
2926.364148,-8882.471304,-3108.864956,-306.438199
2926.364485,-9030.512492,-3330.926739,-689.485948
2926.364822,-8438.347739,-3997.112087,995.924147
2926.365159,-9252.574275,-1406.391290,1149.143247
2926.365496,-9770.718434,0.000000,1302.362347
2926.365833,-11621.233289,222.061783,1149.143247
2926.366170,-11843.295072,666.185348,-229.828649
2926.366508,-10362.883188,0.000000,995.924147
2926.366845,-10214.842000,370.102971,995.924147
2926.367182,-9252.574275,0.000000,919.314598
2926.367519,-9252.574275,-1702.473667,766.095498
2926.367856,-9400.615463,-962.267725,1072.533697
2926.368193,-8512.368333,-370.102971,2298.286494
2926.368530,-9030.512492,2072.576638,2451.505594
2926.368868,-10288.862594,1702.473667,2528.115143
2926.369205,-11399.171507,2886.803174,995.924147
2926.369542,-12731.542202,2960.823768,229.828649
2926.369879,-11325.150913,2442.679609,-766.095498
2926.370216,-9400.615463,740.205942,-1608.800546
2926.370553,-8512.368333,-1258.350101,-995.924147
2926.370890,-8364.327145,-1924.535449,-1838.629195
2926.371227,-8512.368333,-2368.659014,-1072.533697
2926.371565,-8068.244768,-1184.329507,-919.314598
2926.371902,-9326.594869,-592.164754,0.000000
2926.372239,-11103.089130,74.020594,0.000000
2926.372576,-12435.459826,814.226536,-306.438199
2926.372913,-11991.336260,296.082377,76.609550
2926.373250,-10362.883188,0.000000,-842.705048
2926.373587,-9770.718434,-1332.370696,0.000000
2926.373925,-9696.697840,-3182.885551,842.705048
2926.374262,-9178.553681,-2664.741391,1532.190996
2926.374599,-9030.512492,-1332.370696,2068.457845
2926.374936,-9844.739029,0.000000,2068.457845
2926.375273,-10362.883188,1480.411884,1455.581446
2926.375610,-11843.295072,1406.391290,0.000000
2926.375947,-12361.439231,1998.556043,919.314598
2926.376284,-10510.924376,2294.638420,0.000000
2926.376622,-9622.677246,2294.638420,-153.219100
2926.376959,-9474.636058,148.041188,0.000000
2926.377296,-9400.615463,-296.082377,-1225.752797
2926.377633,-9474.636058,-1184.329507,995.924147
2926.377970,-8660.409521,370.102971,229.828649
2926.378307,-8660.409521,814.226536,459.657299
2926.378644,-10732.986159,666.185348,459.657299
2926.378982,-11251.130318,666.185348,-842.705048
2926.379319,-10732.986159,518.144159,-229.828649
2926.379656,-9326.594869,1628.453072,229.828649
2926.379993,-9178.553681,148.041188,-153.219100
2926.380330,-9252.574275,-962.267725,-306.438199
2926.380667,-9474.636058,-1776.494261,76.609550
2926.381004,-8734.430116,-814.226536,2068.457845
2926.381341,-9400.615463,-296.082377,2757.943793
2926.381679,-10510.924376,148.041188,3677.258390
2926.382016,-11177.109724,296.082377,1838.629195
2926.382353,-11917.315666,888.247130,1685.410096
2926.382690,-10362.883188,1110.308913,995.924147
2926.383027,-10436.903782,0.000000,-76.609550
2926.383364,-9918.759623,-1258.350101,0.000000
2926.383701,-9622.677246,-2072.576638,-1225.752797
2926.384039,-9252.574275,-2294.638420,-229.828649
2926.384376,-8438.347739,-1184.329507,-306.438199
2926.384713,-9474.636058,-740.205942,-383.047749
2926.385050,-10807.006753,-1332.370696,-766.095498
2926.385387,-11399.171507,-1184.329507,-1455.581446
2926.385724,-11769.274478,-1924.535449,-612.876398
2926.386061,-10658.965565,-2590.720797,-536.266849
2926.386398,-9696.697840,-2442.679609,459.657299
2926.386736,-10584.944971,-3775.050304,153.219100
2926.387073,-9622.677246,-3627.009116,-536.266849
2926.387410,-8808.450710,-3627.009116,229.828649
2926.387747,-9104.533087,-1850.514855,689.485948
2926.388084,-9474.636058,-740.205942,1149.143247
2926.388421,-11917.315666,0.000000,1378.971896
2926.388758,-12139.377449,888.247130,995.924147
2926.389096,-10510.924376,1776.494261,1072.533697
2926.389433,-10732.986159,1628.453072,1378.971896
2926.389770,-10214.842000,0.000000,919.314598
2926.390107,-10436.903782,-592.164754,383.047749
2926.390444,-9548.656652,-814.226536,842.705048
2926.390781,-8216.285956,148.041188,1225.752797
2926.391118,-8364.327145,1258.350101,919.314598
2926.391455,-9474.636058,1406.391290,383.047749
2926.391793,-10510.924376,1702.473667,-995.924147
2926.392130,-10881.027347,1776.494261,-995.924147
2926.392467,-9400.615463,2886.803174,-1762.019645
2926.392804,-9918.759623,1184.329507,-1838.629195
2926.393141,-10140.821405,-888.247130,-1915.238745
2926.393478,-9178.553681,-2072.576638,-1991.848295
2926.393815,-8512.368333,-1998.556043,306.438199
2926.394153,-8438.347739,-740.205942,689.485948
2926.394490,-9104.533087,-1036.288319,1302.362347
2926.394827,-10807.006753,-1184.329507,766.095498
2926.395164,-11843.295072,740.205942,459.657299
2926.395501,-11103.089130,0.000000,1225.752797
2926.395838,-9844.739029,1776.494261,306.438199
2926.396175,-9992.780217,-296.082377,1072.533697
2926.396512,-11103.089130,-962.267725,536.266849
2926.396850,-9918.759623,-740.205942,459.657299
2926.397187,-9252.574275,-666.185348,612.876398
2926.397524,-9622.677246,222.061783,1302.362347
2926.397861,-10362.883188,-444.123565,536.266849
2926.398198,-11399.171507,518.144159,0.000000
2926.398535,-11251.130318,518.144159,229.828649
2926.398872,-9770.718434,740.205942,-459.657299
2926.399210,-10066.800811,518.144159,-1072.533697
2926.399547,-10288.862594,-592.164754,-1072.533697
2926.399884,-10066.800811,-1998.556043,-1072.533697
2926.400221,-9548.656652,-1480.411884,1149.143247
2926.400558,-9030.512492,74.020594,612.876398
2926.400895,-9474.636058,222.061783,1302.362347
2926.401232,-11029.068536,74.020594,919.314598
2926.401569,-11177.109724,74.020594,536.266849
2926.401907,-10140.821405,962.267725,1302.362347
2926.402244,-9622.677246,1258.350101,1762.019645
2926.402581,-9622.677246,888.247130,1225.752797
2926.402918,-10436.903782,296.082377,306.438199
2926.403255,-9918.759623,370.102971,1149.143247
2926.403592,-8142.265362,740.205942,1302.362347
2926.403929,-9030.512492,1924.535449,1685.410096
2926.404267,-10584.944971,1406.391290,1991.848295
2926.404604,-11621.233289,888.247130,229.828649
2926.404941,-10732.986159,1184.329507,383.047749
2926.405278,-9770.718434,1850.514855,-153.219100
2926.405615,-10066.800811,296.082377,-76.609550
2926.405952,-9548.656652,-1628.453072,-1915.238745
2926.406289,-9104.533087,-1258.350101,-2681.334243
2926.406626,-9030.512492,-1924.535449,-689.485948
2926.406964,-8586.388927,-1850.514855,-1838.629195
2926.407301,-9622.677246,-2516.700203,-766.095498
2926.407638,-11473.192101,-2664.741391,-995.924147
2926.407975,-10955.047942,-2368.659014,-383.047749
2926.408312,-10362.883188,-1850.514855,229.828649
2926.408649,-9696.697840,-1702.473667,76.609550
2926.408986,-10732.986159,-2516.700203,612.876398
2926.409324,-11399.171507,-3552.988522,0.000000
2926.409661,-10066.800811,-2590.720797,919.314598
2926.409998,-9992.780217,-1480.411884,1455.581446
2926.410335,-10140.821405,-888.247130,1532.190996
2926.410672,-10214.842000,-370.102971,919.314598
2926.411009,-11473.192101,-444.123565,536.266849
2926.411347,-10732.986159,222.061783,1532.190996
2926.411684,-9548.656652,222.061783,612.876398
2926.412021,-10066.800811,592.164754,689.485948
2926.412358,-10214.842000,-814.226536,229.828649
2926.412695,-9844.739029,-296.082377,-689.485948
2926.413032,-9474.636058,0.000000,0.000000
2926.413369,-8734.430116,0.000000,-229.828649
2926.413707,-9030.512492,666.185348,-306.438199
2926.414044,-9770.718434,-444.123565,-995.924147
2926.414381,-9918.759623,0.000000,0.000000
2926.414718,-9178.553681,-740.205942,1455.581446
2926.415055,-9696.697840,814.226536,1378.971896
2926.415392,-9622.677246,592.164754,1072.533697
2926.415730,-9992.780217,-444.123565,153.219100
2926.416067,-9548.656652,-666.185348,919.314598
2926.416404,-9104.533087,148.041188,1225.752797
2926.416741,-9474.636058,1480.411884,1455.581446
2926.417078,-11251.130318,666.185348,1072.533697
2926.417415,-11177.109724,444.123565,0.000000
2926.417752,-10658.965565,1406.391290,1072.533697
2926.418090,-9770.718434,1184.329507,1378.971896
2926.418427,-10140.821405,1258.350101,1149.143247
2926.418764,-10362.883188,0.000000,229.828649
2926.419101,-11029.068536,-666.185348,-306.438199
2926.419438,-10140.821405,0.000000,153.219100
2926.419775,-9918.759623,0.000000,306.438199
2926.420113,-10214.842000,0.000000,76.609550
2926.420450,-10436.903782,-1628.453072,-1608.800546
2926.420787,-10066.800811,-518.144159,-1608.800546
2926.421124,-9400.615463,-1406.391290,-919.314598
2926.421461,-9696.697840,-1628.453072,-766.095498
2926.421798,-10362.883188,-1406.391290,-689.485948
2926.422136,-10214.842000,-1924.535449,-689.485948
2926.422473,-9622.677246,-1258.350101,-306.438199
2926.422810,-9178.553681,-1554.432478,306.438199
2926.423147,-9548.656652,-370.102971,1072.533697
2926.423484,-10140.821405,-1480.411884,2298.286494
2926.423821,-11103.089130,0.000000,1378.971896
2926.424158,-10955.047942,222.061783,2374.896044
2926.424496,-9918.759623,888.247130,2068.457845
2926.424833,-9474.636058,1850.514855,1072.533697
2926.425170,-10658.965565,1628.453072,995.924147
2926.425507,-9992.780217,1850.514855,-459.657299
2926.425844,-10140.821405,1332.370696,306.438199
2926.426181,-9918.759623,2442.679609,0.000000
2926.426519,-9104.533087,2368.659014,-766.095498
2926.426856,-10658.965565,1110.308913,-689.485948
2926.427193,-10807.006753,518.144159,-766.095498
2926.427530,-9030.512492,0.000000,383.047749
2926.427867,-8586.388927,592.164754,-229.828649
2926.428204,-9474.636058,-296.082377,229.828649
2926.428542,-9622.677246,-814.226536,153.219100
2926.428879,-10584.944971,-1406.391290,0.000000
2926.429216,-9992.780217,-1480.411884,0.000000
2926.429553,-9474.636058,-148.041188,76.609550
2926.429890,-9770.718434,-2072.576638,0.000000
2926.430227,-10140.821405,-2294.638420,-383.047749
2926.430564,-9474.636058,-2146.597232,229.828649
2926.430902,-9400.615463,-1776.494261,1149.143247
2926.431239,-9770.718434,-592.164754,919.314598
2926.431576,-10732.986159,-1258.350101,1302.362347
2926.431913,-11621.233289,-148.041188,76.609550
2926.432250,-11251.130318,-1110.308913,995.924147
2926.432587,-10658.965565,74.020594,536.266849
2926.432925,-10140.821405,-666.185348,306.438199
2926.433262,-10436.903782,-2072.576638,153.219100
2926.433599,-9992.780217,-1406.391290,-766.095498
2926.433936,-10140.821405,-1628.453072,0.000000
2926.434273,-10288.862594,-1332.370696,76.609550
2926.434610,-9474.636058,-1036.288319,-995.924147
2926.434948,-10066.800811,-1332.370696,-689.485948
2926.435285,-10140.821405,-444.123565,-1149.143247
2926.435622,-10214.842000,-1110.308913,0.000000
2926.435959,-9548.656652,-370.102971,0.000000
2926.436296,-9548.656652,-444.123565,459.657299
2926.436633,-10584.944971,-666.185348,612.876398
2926.436970,-10807.006753,-962.267725,919.314598
2926.437308,-9400.615463,-370.102971,1608.800546
2926.437645,-9400.615463,222.061783,1991.848295
2926.437982,-9548.656652,0.000000,2451.505594
2926.438319,-9770.718434,666.185348,459.657299
2926.438656,-10436.903782,888.247130,1225.752797
2926.438993,-9622.677246,2368.659014,919.314598
2926.439331,-9474.636058,2590.720797,306.438199
2926.439668,-10288.862594,1702.473667,153.219100
2926.440005,-10140.821405,1332.370696,-919.314598
2926.440342,-9696.697840,814.226536,-995.924147
2926.440679,-8808.450710,740.205942,-1149.143247
2926.441016,-8956.491898,0.000000,153.219100
2926.441353,-9400.615463,-666.185348,-383.047749
2926.441691,-10140.821405,-370.102971,-1072.533697
2926.442028,-9548.656652,-444.123565,0.000000
2926.442365,-10140.821405,-518.144159,-1455.581446
2926.442702,-10510.924376,-370.102971,-536.266849
2926.443039,-11251.130318,-1850.514855,-1455.581446
2926.443376,-10658.965565,-1776.494261,-689.485948
2926.443714,-9622.677246,-1628.453072,-306.438199
2926.444051,-9400.615463,-1184.329507,0.000000
2926.444388,-9104.533087,-1850.514855,459.657299
2926.444725,-10214.842000,-2368.659014,689.485948
2926.445062,-11399.171507,-444.123565,1838.629195
2926.445399,-11103.089130,296.082377,1608.800546
2926.445737,-11695.253884,888.247130,2068.457845
2926.446074,-10955.047942,0.000000,1455.581446
2926.446411,-10658.965565,-518.144159,1072.533697
2926.446748,-10362.883188,0.000000,1838.629195
2926.447085,-9030.512492,-296.082377,766.095498
2926.447422,-8586.388927,148.041188,1685.410096
2926.447759,-9918.759623,0.000000,689.485948
2926.448097,-9844.739029,740.205942,-153.219100
2926.448434,-10732.986159,1776.494261,0.000000
2926.448771,-9992.780217,1480.411884,-1302.362347
2926.449108,-9252.574275,1184.329507,-1149.143247
2926.449445,-9696.697840,-444.123565,-1072.533697
2926.449782,-9622.677246,-962.267725,229.828649
2926.450120,-8956.491898,-1628.453072,1225.752797
2926.450457,-9326.594869,-518.144159,1532.190996
2926.450794,-8882.471304,0.000000,2145.067394
2926.451131,-10066.800811,-370.102971,1072.533697
2926.451468,-10881.027347,0.000000,2451.505594
2926.451805,-10807.006753,814.226536,1762.019645
2926.452143,-10066.800811,2812.782580,842.705048
2926.452480,-11473.192101,1406.391290,0.000000
2926.452817,-11251.130318,222.061783,-1455.581446
2926.453154,-10140.821405,-518.144159,-612.876398
2926.453491,-8734.430116,-1332.370696,-1149.143247
2926.453828,-7920.203579,-370.102971,995.924147
2926.454165,-8734.430116,-1702.473667,229.828649
2926.454503,-10214.842000,-296.082377,0.000000
2926.454840,-10955.047942,-814.226536,536.266849
2926.455177,-10732.986159,888.247130,-842.705048
2926.455514,-10955.047942,0.000000,-612.876398
2926.455851,-11843.295072,-1332.370696,-1838.629195
2926.456188,-10140.821405,-2368.659014,-2451.505594
2926.456526,-9252.574275,-3997.112087,-1072.533697
2926.456863,-8808.450710,-3330.926739,-842.705048
2926.457200,-8290.306550,-2960.823768,-1149.143247
2926.457537,-9474.636058,-3701.029710,-842.705048
2926.457874,-10214.842000,-2072.576638,-229.828649
2926.458211,-10288.862594,-1628.453072,536.266849
2926.458549,-11029.068536,888.247130,995.924147
2926.458886,-10955.047942,148.041188,919.314598
2926.459223,-11769.274478,74.020594,1149.143247
2926.459560,-11621.233289,-444.123565,2221.676944
2926.459897,-9622.677246,-518.144159,1455.581446
2926.460234,-9400.615463,518.144159,2528.115143
2926.460571,-10066.800811,-518.144159,2374.896044
2926.460909,-9696.697840,740.205942,919.314598
2926.461246,-10066.800811,1406.391290,1225.752797
2926.461583,-9400.615463,2886.803174,0.000000
2926.461920,-9252.574275,2590.720797,-612.876398
2926.462257,-10807.006753,1110.308913,-919.314598
2926.462594,-10288.862594,1036.288319,-459.657299
2926.462932,-8882.471304,-592.164754,-995.924147
2926.463269,-8438.347739,74.020594,-229.828649
2926.463606,-8438.347739,-1406.391290,306.438199
2926.463943,-9030.512492,-1332.370696,459.657299
2926.464280,-9622.677246,-740.205942,1302.362347
2926.464617,-9474.636058,0.000000,1532.190996
2926.464954,-10066.800811,1332.370696,306.438199
2926.465292,-10807.006753,888.247130,-536.266849
2926.465629,-11769.274478,-962.267725,-1225.752797
2926.465966,-10881.027347,-1554.432478,0.000000
2926.466303,-9104.533087,-444.123565,919.314598
2926.466640,-9548.656652,-592.164754,2374.896044
2926.466977,-9918.759623,-1628.453072,1838.629195
2926.467315,-10955.047942,-1258.350101,1455.581446
2926.467652,-11547.212695,-370.102971,2298.286494
2926.467989,-10214.842000,1110.308913,1225.752797
2926.468326,-11399.171507,1554.432478,306.438199
2926.468663,-11473.192101,-444.123565,-1225.752797
2926.469000,-10658.965565,-444.123565,-2757.943793
2926.469338,-9622.677246,-1628.453072,-1302.362347
2926.469675,-8068.244768,-888.247130,-1532.190996
2926.470012,-8586.388927,-2072.576638,-1072.533697
2926.470349,-9844.739029,-2368.659014,-1149.143247
2926.470686,-9844.739029,-1332.370696,-383.047749
2926.471023,-10066.800811,592.164754,1072.533697
2926.471360,-9770.718434,1258.350101,306.438199
2926.471698,-10510.924376,296.082377,459.657299
2926.472035,-11399.171507,74.020594,0.000000
2926.472372,-10214.842000,370.102971,-536.266849
2926.472709,-9474.636058,-148.041188,0.000000
2926.473046,-8882.471304,-74.020594,536.266849
2926.473383,-9104.533087,-444.123565,1072.533697
2926.473721,-9844.739029,740.205942,1685.410096
2926.474058,-9770.718434,1702.473667,3524.039291
2926.474395,-8882.471304,3182.885551,2145.067394
2926.474732,-10140.821405,3182.885551,2145.067394
2926.475069,-11843.295072,3108.864956,842.705048
2926.475406,-12287.418637,1406.391290,0.000000
2926.475744,-10288.862594,1480.411884,0.000000
2926.476081,-8512.368333,296.082377,-995.924147
2926.476418,-8438.347739,-888.247130,-306.438199
2926.476755,-8364.327145,-2516.700203,-689.485948
2926.477092,-9104.533087,-2220.617826,0.000000
2926.477429,-8956.491898,-592.164754,1149.143247
2926.477766,-9326.594869,74.020594,-612.876398
2926.478104,-11029.068536,-1184.329507,0.000000
2926.478441,-12213.398043,-1924.535449,-1225.752797
2926.478778,-10955.047942,-1924.535449,-306.438199
2926.479115,-9252.574275,-2294.638420,76.609550
2926.479452,-8882.471304,-2590.720797,153.219100
2926.479789,-9474.636058,-4219.173869,689.485948
2926.480127,-10510.924376,-3923.091493,766.095498
2926.480464,-9696.697840,-2220.617826,2145.067394
2926.480801,-9918.759623,148.041188,1225.752797
2926.481138,-11621.233289,222.061783,1608.800546
2926.481475,-12435.459826,-888.247130,536.266849
2926.481812,-11547.212695,-518.144159,0.000000
2926.482150,-9918.759623,-296.082377,995.924147
2926.482487,-8808.450710,-296.082377,-766.095498
2926.482824,-9474.636058,-1258.350101,229.828649
2926.483161,-9844.739029,-2442.679609,-76.609550
2926.483498,-9474.636058,-1332.370696,0.000000
2926.483835,-9104.533087,222.061783,995.924147
2926.484172,-9622.677246,1332.370696,459.657299
2926.484510,-10584.944971,962.267725,-766.095498
2926.484847,-11843.295072,-296.082377,-1838.629195
2926.485184,-10955.047942,518.144159,-766.095498
2926.485521,-9178.553681,-296.082377,76.609550
2926.485858,-9030.512492,-148.041188,-229.828649
2926.486195,-9030.512492,-592.164754,306.438199
2926.486533,-9622.677246,-1184.329507,536.266849
2926.486870,-9104.533087,148.041188,2374.896044
2926.487207,-9770.718434,1628.453072,2145.067394
2926.487544,-10807.006753,3034.844362,1762.019645
2926.487881,-12139.377449,1924.535449,383.047749
2926.488218,-12361.439231,1924.535449,-306.438199
2926.488555,-9474.636058,814.226536,229.828649
2926.488893,-8290.306550,74.020594,-153.219100
2926.489230,-8290.306550,-666.185348,0.000000
2926.489567,-8956.491898,-1850.514855,-1608.800546
2926.489904,-9548.656652,-1184.329507,0.000000
2926.490241,-9104.533087,-740.205942,919.314598
2926.490578,-9400.615463,1702.473667,612.876398
2926.490916,-11103.089130,592.164754,-306.438199
2926.491253,-12435.459826,-370.102971,-1685.410096
2926.491590,-11547.212695,-666.185348,-1149.143247
2926.491927,-9548.656652,-1628.453072,-1838.629195
2926.492264,-8956.491898,-2442.679609,-1072.533697
2926.492601,-9326.594869,-3552.988522,-689.485948
2926.492939,-10140.821405,-3627.009116,-306.438199
2926.493276,-9548.656652,-2664.741391,995.924147
2926.493613,-9178.553681,-222.061783,1225.752797
2926.493950,-10881.027347,592.164754,2145.067394
2926.494287,-12583.501014,74.020594,1991.848295
2926.494624,-12361.439231,296.082377,919.314598
2926.494961,-10955.047942,444.123565,2451.505594
2926.495299,-9178.553681,666.185348,1762.019645
2926.495636,-9622.677246,-518.144159,1608.800546
2926.495973,-10436.903782,-1480.411884,1455.581446
2926.496310,-9474.636058,814.226536,842.705048
2926.496647,-9178.553681,1480.411884,2068.457845
2926.496984,-8956.491898,3034.844362,766.095498
2926.497322,-9548.656652,2368.659014,0.000000
2926.497659,-11251.130318,2220.617826,-766.095498
2926.497996,-10584.944971,1998.556043,-766.095498
2926.498333,-9252.574275,1110.308913,-229.828649
2926.498670,-8586.388927,962.267725,-766.095498
2926.499007,-9030.512492,-1332.370696,-383.047749
2926.499345,-9474.636058,-1776.494261,-995.924147
2926.499682,-9326.594869,-888.247130,1991.848295
2926.500019,-9104.533087,222.061783,2451.505594
2926.500356,-9918.759623,1036.288319,1225.752797
2926.500693,-11769.274478,444.123565,229.828649
2926.501030,-12213.398043,222.061783,-383.047749
2926.501367,-10288.862594,-222.061783,383.047749
2926.501705,-9400.615463,222.061783,0.000000
2926.502042,-9696.697840,-518.144159,-689.485948
2926.502379,-9696.697840,-1850.514855,-459.657299
2926.502716,-9918.759623,-1776.494261,0.000000
2926.503053,-9252.574275,-1480.411884,1455.581446
2926.503390,-9326.594869,296.082377,1378.971896
2926.503728,-10955.047942,0.000000,1149.143247
2926.504065,-12583.501014,-296.082377,0.000000
2926.504402,-11399.171507,-370.102971,-1149.143247
2926.504739,-10510.924376,-1184.329507,-306.438199
2926.505076,-10140.821405,-1480.411884,-1072.533697
2926.505413,-9474.636058,-2886.803174,-1762.019645
2926.505751,-9252.574275,-3775.050304,-2374.896044
2926.506088,-8364.327145,-3701.029710,0.000000
2926.506425,-7920.203579,-2072.576638,612.876398
2926.506762,-9844.739029,-518.144159,919.314598
2926.507099,-11769.274478,-740.205942,536.266849
2926.507436,-11843.295072,0.000000,0.000000
2926.507773,-11547.212695,-962.267725,1762.019645
2926.508111,-9844.739029,-296.082377,919.314598
2926.508448,-9400.615463,-740.205942,1455.581446
2926.508785,-9326.594869,-1776.494261,1838.629195
2926.509122,-9104.533087,0.000000,1302.362347
2926.509459,-8956.491898,592.164754,2911.162892
2926.509796,-9178.553681,1406.391290,1532.190996
2926.510134,-9474.636058,2294.638420,1762.019645
2926.510471,-10955.047942,2664.741391,229.828649
2926.510808,-11399.171507,2812.782580,0.000000
2926.511145,-10436.903782,2516.700203,-306.438199
2926.511483,-9696.697840,1036.288319,-919.314598
2926.511820,-9770.718434,-222.061783,-766.095498
2926.512157,-9400.615463,-2294.638420,-1225.752797
2926.512494,-9252.574275,-2368.659014,0.000000
2926.512832,-7624.121203,-1924.535449,459.657299
2926.513169,-8660.409521,-222.061783,612.876398
2926.513506,-9622.677246,0.000000,76.609550
2926.513844,-11991.336260,1258.350101,-536.266849
2926.514181,-11473.192101,518.144159,-919.314598
2926.514518,-10881.027347,222.061783,-1762.019645
2926.514855,-10214.842000,-962.267725,-612.876398
2926.515193,-9696.697840,-2072.576638,-229.828649
2926.515530,-9474.636058,-2368.659014,1149.143247
2926.515867,-9178.553681,-2368.659014,3064.381992
2926.516205,-9474.636058,0.000000,2145.067394
2926.516542,-11103.089130,592.164754,2681.334243
2926.516879,-11769.274478,296.082377,1608.800546
2926.517217,-11695.253884,1184.329507,1225.752797
2926.517554,-11177.109724,1036.288319,1072.533697
2926.517891,-10584.944971,1628.453072,-1302.362347
2926.518228,-8956.491898,-296.082377,-1378.971896
2926.518566,-8808.450710,-1702.473667,-1378.971896
2926.518903,-8512.368333,-1776.494261,-76.609550
2926.519240,-8660.409521,-1110.308913,0.000000
2926.519578,-9548.656652,592.164754,229.828649
2926.519915,-10288.862594,222.061783,-306.438199
2926.520252,-10510.924376,222.061783,-383.047749
2926.520589,-10510.924376,148.041188,689.485948
2926.520927,-10436.903782,0.000000,689.485948
2926.521264,-9992.780217,592.164754,536.266849
2926.521601,-10140.821405,-370.102971,-612.876398
2926.521939,-9178.553681,-1332.370696,-689.485948
2926.522276,-8956.491898,-1628.453072,1225.752797
2926.522613,-8364.327145,148.041188,1991.848295
2926.522950,-9252.574275,592.164754,1991.848295
2926.523288,-10436.903782,1110.308913,1302.362347
2926.523625,-11473.192101,2516.700203,1225.752797
2926.523962,-12139.377449,1628.453072,1532.190996
2926.524300,-11473.192101,1480.411884,-229.828649
2926.524637,-9474.636058,-222.061783,-995.924147
2926.524974,-9696.697840,-1184.329507,-459.657299
2926.525312,-8660.409521,-1554.432478,0.000000
2926.525649,-9178.553681,-2072.576638,842.705048
2926.525986,-8290.306550,-148.041188,76.609550
2926.526323,-10066.800811,0.000000,-536.266849
2926.526661,-11843.295072,0.000000,-1378.971896
2926.526998,-11029.068536,-814.226536,-1532.190996
2926.527335,-10214.842000,-1924.535449,-1838.629195
2926.527673,-10288.862594,-1702.473667,-1532.190996
2926.528010,-9030.512492,-3256.906145,-1149.143247
2926.528347,-10140.821405,-3256.906145,-459.657299
2926.528684,-9178.553681,-3997.112087,919.314598
2926.529022,-8290.306550,-1998.556043,1225.752797
2926.529359,-10140.821405,-1110.308913,2221.676944
2926.529696,-11547.212695,-592.164754,1838.629195
2926.530034,-12139.377449,296.082377,1915.238745
2926.530371,-11769.274478,518.144159,1532.190996
2926.530708,-10362.883188,1258.350101,383.047749
2926.531045,-9474.636058,444.123565,229.828649
2926.531383,-9844.739029,-962.267725,229.828649
2926.531720,-9178.553681,-962.267725,-689.485948
2926.532057,-8660.409521,0.000000,1302.362347
2926.532395,-9474.636058,1406.391290,1149.143247
2926.532732,-9844.739029,1406.391290,766.095498
2926.533069,-11103.089130,1258.350101,459.657299
2926.533406,-10881.027347,1406.391290,383.047749
2926.533744,-10066.800811,1184.329507,-306.438199
2926.534081,-9474.636058,1406.391290,-1072.533697
2926.534418,-9474.636058,-370.102971,-1532.190996
2926.534756,-9104.533087,-2072.576638,-1838.629195
2926.535093,-8956.491898,-1184.329507,-153.219100
2926.535430,-7994.224174,-444.123565,536.266849
2926.535768,-8734.430116,444.123565,919.314598
2926.536105,-9696.697840,-370.102971,842.705048
2926.536442,-11251.130318,518.144159,1455.581446
2926.536779,-11843.295072,296.082377,2528.115143
2926.537117,-10807.006753,962.267725,1455.581446
2926.537454,-10807.006753,518.144159,1762.019645
2926.537791,-10214.842000,-370.102971,0.000000
2926.538129,-9474.636058,-1110.308913,76.609550
2926.538466,-9104.533087,-1184.329507,1149.143247
2926.538803,-8512.368333,592.164754,76.609550
2926.539140,-10140.821405,814.226536,0.000000
2926.539478,-11695.253884,740.205942,-1225.752797
2926.539815,-11029.068536,0.000000,-919.314598
2926.540152,-10881.027347,148.041188,-76.609550
2926.540490,-10658.965565,74.020594,-306.438199
2926.540827,-9770.718434,-962.267725,-1225.752797
2926.541164,-10066.800811,-2738.761985,-1225.752797
2926.541501,-9770.718434,-3182.885551,383.047749
2926.541839,-9548.656652,-1702.473667,842.705048
2926.542176,-9918.759623,-740.205942,1455.581446
2926.542513,-10214.842000,-518.144159,153.219100
2926.542851,-11325.150913,296.082377,-383.047749
2926.543188,-11251.130318,1258.350101,919.314598
2926.543525,-9622.677246,666.185348,0.000000
2926.543863,-10214.842000,370.102971,1532.190996
2926.544200,-10658.965565,-1332.370696,459.657299
2926.544537,-9474.636058,-666.185348,1455.581446
2926.544874,-7846.182985,-962.267725,2911.162892
2926.545212,-7994.224174,1776.494261,2451.505594
2926.545549,-9474.636058,740.205942,2528.115143
2926.545886,-10584.944971,888.247130,1685.410096
2926.546224,-11547.212695,2072.576638,689.485948
2926.546561,-11103.089130,2368.659014,-76.609550
2926.546898,-9918.759623,1406.391290,-1685.410096
2926.547235,-9770.718434,-370.102971,-842.705048
2926.547573,-9252.574275,-1776.494261,-2068.457845
2926.547910,-7920.203579,-1998.556043,-1378.971896
2926.548247,-8068.244768,-1702.473667,-1149.143247
2926.548585,-9326.594869,-1406.391290,-689.485948
2926.548922,-11103.089130,-1554.432478,-383.047749
2926.549259,-12435.459826,-1406.391290,76.609550
2926.549596,-11547.212695,-592.164754,229.828649
2926.549934,-10436.903782,-222.061783,229.828649
2926.550271,-10140.821405,-518.144159,459.657299
2926.550608,-10288.862594,-2664.741391,-306.438199
2926.550946,-10732.986159,-2738.761985,153.219100
2926.551283,-10066.800811,-2294.638420,1302.362347
2926.551620,-9178.553681,-740.205942,306.438199
2926.551958,-9548.656652,0.000000,383.047749
2926.552295,-10658.965565,-740.205942,153.219100
2926.552632,-10955.047942,222.061783,995.924147
2926.552969,-10436.903782,74.020594,1302.362347
2926.553307,-9844.739029,1332.370696,153.219100
2926.553644,-10140.821405,-592.164754,-612.876398
2926.553981,-10066.800811,-1702.473667,-842.705048
2926.554319,-9178.553681,-2220.617826,76.609550
2926.554656,-8290.306550,-962.267725,536.266849
2926.554993,-8364.327145,592.164754,306.438199
2926.555330,-10066.800811,-592.164754,-306.438199
2926.555668,-10881.027347,0.000000,-459.657299
2926.556005,-10584.944971,-222.061783,229.828649
2926.556342,-10214.842000,814.226536,689.485948
2926.556680,-10140.821405,296.082377,0.000000
2926.557017,-10288.862594,-740.205942,0.000000
2926.557354,-9400.615463,-740.205942,153.219100
2926.557691,-8660.409521,74.020594,1685.410096
2926.558029,-9178.553681,1184.329507,1608.800546
2926.558366,-11029.068536,1406.391290,1685.410096
2926.558703,-11769.274478,814.226536,919.314598
2926.559041,-11177.109724,1924.535449,1532.190996
2926.559378,-9622.677246,1406.391290,1149.143247
2926.559715,-9696.697840,2368.659014,842.705048
2926.560052,-9992.780217,222.061783,612.876398
2926.560390,-10510.924376,-888.247130,-1225.752797
2926.560727,-9696.697840,-518.144159,-689.485948
2926.561064,-8956.491898,-370.102971,-306.438199
2926.561402,-8364.327145,222.061783,-612.876398
2926.561739,-10140.821405,-814.226536,-1149.143247
2926.562076,-10732.986159,0.000000,-995.924147
2926.562414,-9918.759623,-740.205942,-842.705048
2926.562751,-9548.656652,-518.144159,229.828649
2926.563088,-10066.800811,-740.205942,842.705048
2926.563425,-11029.068536,-2220.617826,-459.657299
2926.563763,-11177.109724,-2072.576638,-306.438199
2926.564100,-9474.636058,-2368.659014,1225.752797
2926.564437,-8956.491898,-962.267725,919.314598
2926.564775,-9474.636058,-1184.329507,1149.143247
2926.565112,-10881.027347,0.000000,1532.190996
2926.565449,-11695.253884,-74.020594,1838.629195
2926.565786,-10584.944971,592.164754,1991.848295
2926.566124,-10362.883188,1924.535449,1225.752797
2926.566461,-11177.109724,962.267725,1149.143247
2926.566798,-11399.171507,0.000000,-306.438199
2926.567136,-9770.718434,0.000000,-536.266849
2926.567473,-8660.409521,814.226536,766.095498
2926.567810,-9252.574275,1480.411884,229.828649
2926.568147,-10140.821405,-74.020594,0.000000
2926.568485,-10436.903782,222.061783,-383.047749
2926.568822,-9918.759623,592.164754,766.095498
2926.569159,-9474.636058,666.185348,-76.609550
2926.569497,-9474.636058,1184.329507,-383.047749
2926.569834,-10066.800811,-1258.350101,-766.095498
2926.570171,-10288.862594,-1406.391290,-1532.190996
2926.570509,-9030.512492,-1628.453072,0.000000
2926.570846,-8956.491898,-962.267725,0.000000
2926.571183,-9474.636058,-1258.350101,76.609550
2926.571520,-10807.006753,-1776.494261,229.828649
2926.571858,-10510.924376,-1036.288319,153.219100
2926.572195,-9992.780217,-1554.432478,1378.971896
2926.572532,-9622.677246,-518.144159,689.485948
2926.572870,-9992.780217,-888.247130,1149.143247
2926.573207,-10658.965565,-1628.453072,612.876398
2926.573544,-9918.759623,-1554.432478,919.314598
2926.573881,-10288.862594,-518.144159,1302.362347
2926.574219,-10140.821405,-370.102971,0.000000
2926.574556,-10362.883188,-1184.329507,-383.047749
2926.574893,-10955.047942,-1258.350101,-1072.533697
2926.575231,-9844.739029,-222.061783,229.828649
2926.575568,-9770.718434,-666.185348,0.000000
2926.575905,-10362.883188,-666.185348,-459.657299
2926.576242,-10066.800811,-444.123565,-1838.629195
2926.576580,-11251.130318,-1406.391290,-842.705048
2926.576917,-10584.944971,-2072.576638,612.876398
2926.577254,-9474.636058,-1406.391290,766.095498
2926.577592,-9992.780217,-592.164754,1302.362347
2926.577929,-10658.965565,-1480.411884,1149.143247
2926.578266,-10214.842000,-1332.370696,1149.143247
2926.578603,-9770.718434,-814.226536,2374.896044
2926.578941,-8956.491898,0.000000,1532.190996
2926.579278,-9622.677246,148.041188,1378.971896
2926.579615,-10214.842000,148.041188,0.000000
2926.579953,-9326.594869,814.226536,536.266849
2926.580290,-8586.388927,1480.411884,842.705048
2926.580627,-8956.491898,2368.659014,536.266849
2926.580965,-9622.677246,1480.411884,459.657299
2926.581302,-10510.924376,1332.370696,0.000000
2926.581639,-10066.800811,1258.350101,612.876398
2926.581976,-9474.636058,666.185348,229.828649
2926.582314,-9548.656652,1480.411884,612.876398
2926.582651,-10288.862594,888.247130,0.000000
2926.582988,-9992.780217,-296.082377,-1532.190996
2926.583326,-9844.739029,0.000000,-919.314598
2926.583663,-9696.697840,148.041188,-1608.800546
2926.584000,-9770.718434,0.000000,-1225.752797
2926.584337,-10214.842000,-740.205942,-1455.581446
2926.584675,-10658.965565,-370.102971,-1378.971896
2926.585012,-10436.903782,-814.226536,-612.876398
2926.585349,-9548.656652,-370.102971,0.000000
2926.585687,-10214.842000,-962.267725,1225.752797
2926.586024,-11029.068536,-1924.535449,1378.971896
2926.586361,-10510.924376,-666.185348,1762.019645
2926.586698,-10732.986159,-962.267725,2145.067394
2926.587036,-10955.047942,-370.102971,1685.410096
2926.587373,-9844.739029,-666.185348,995.924147
2926.587710,-10807.006753,-666.185348,919.314598
2926.588048,-9474.636058,-370.102971,76.609550
2926.588385,-9326.594869,-296.082377,-383.047749
2926.588722,-9178.553681,518.144159,-153.219100
2926.589060,-9178.553681,-148.041188,-1072.533697
2926.589397,-10436.903782,74.020594,-1072.533697
2926.589734,-9992.780217,-222.061783,-536.266849
2926.590071,-9326.594869,222.061783,-689.485948
2926.590409,-10140.821405,814.226536,0.000000
2926.590746,-10658.965565,-1480.411884,0.000000
2926.591083,-10732.986159,-1036.288319,995.924147
2926.591421,-9844.739029,-1480.411884,1532.190996
2926.591758,-9696.697840,370.102971,1532.190996
2926.592095,-9770.718434,0.000000,1838.629195
2926.592432,-10436.903782,-592.164754,153.219100
2926.592770,-10140.821405,0.000000,1378.971896
2926.593107,-9770.718434,-74.020594,1302.362347
2926.593444,-9548.656652,1924.535449,919.314598
2926.593782,-10140.821405,518.144159,306.438199
2926.594119,-10955.047942,222.061783,459.657299
2926.594456,-10140.821405,0.000000,1455.581446
2926.594793,-9918.759623,-444.123565,2145.067394
2926.595131,-9104.533087,666.185348,1378.971896
2926.595468,-9622.677246,-1184.329507,1378.971896
2926.595805,-10510.924376,0.000000,536.266849
2926.596143,-9474.636058,-592.164754,-766.095498
2926.596480,-9548.656652,-814.226536,0.000000
2926.596817,-9326.594869,0.000000,-1149.143247
2926.597155,-9770.718434,-1702.473667,-2374.896044
2926.597492,-10807.006753,-888.247130,-2298.286494
2926.597829,-9474.636058,-1998.556043,-1762.019645
2926.598166,-9474.636058,-1480.411884,-1302.362347
2926.598504,-10140.821405,-1924.535449,-153.219100
2926.598841,-10214.842000,-2368.659014,-689.485948
2926.599178,-11103.089130,-2072.576638,0.000000
2926.599516,-10807.006753,-1850.514855,1072.533697
2926.599853,-10288.862594,-222.061783,76.609550
2926.600190,-10955.047942,-1036.288319,766.095498
2926.600527,-11399.171507,-370.102971,0.000000
2926.600865,-10436.903782,-666.185348,0.000000
2926.601202,-10214.842000,-444.123565,1225.752797
2926.601539,-9104.533087,592.164754,1685.410096
2926.601877,-9622.677246,888.247130,1608.800546
2926.602214,-10436.903782,888.247130,76.609550
2926.602551,-10584.944971,222.061783,459.657299
2926.602888,-10214.842000,666.185348,766.095498
2926.603226,-9400.615463,1332.370696,153.219100
2926.603563,-9252.574275,666.185348,76.609550
2926.603900,-10362.883188,0.000000,-536.266849
2926.604238,-9474.636058,-666.185348,-689.485948
2926.604575,-8586.388927,444.123565,-1225.752797
2926.604912,-8364.327145,-296.082377,-689.485948
2926.605249,-9104.533087,148.041188,0.000000
2926.605587,-10732.986159,-370.102971,-229.828649
2926.605924,-10066.800811,222.061783,995.924147
2926.606261,-10140.821405,1406.391290,842.705048
2926.606599,-10362.883188,0.000000,1072.533697
2926.606936,-10881.027347,-370.102971,1149.143247
2926.607273,-10955.047942,-1924.535449,2374.896044
2926.607611,-10584.944971,-888.247130,2528.115143
2926.607948,-9178.553681,-296.082377,1378.971896
2926.608285,-9622.677246,-296.082377,2451.505594
2926.608622,-10288.862594,0.000000,995.924147
2926.608960,-10658.965565,518.144159,1302.362347
2926.609297,-11251.130318,1924.535449,536.266849
2926.609634,-10732.986159,1628.453072,-766.095498
2926.609972,-11177.109724,518.144159,-612.876398
2926.610309,-10658.965565,-814.226536,-2298.286494
2926.610646,-9918.759623,-1776.494261,76.609550
2926.610983,-9770.718434,-1258.350101,459.657299
2926.611321,-9178.553681,-1184.329507,536.266849
2926.611658,-9178.553681,-666.185348,-689.485948
2926.611995,-10436.903782,-1480.411884,-459.657299
2926.612333,-10436.903782,-1110.308913,76.609550
2926.612670,-9474.636058,222.061783,-153.219100
2926.613007,-10140.821405,222.061783,536.266849
2926.613344,-10807.006753,-296.082377,0.000000
2926.613682,-10288.862594,-1036.288319,-536.266849
2926.614019,-9474.636058,-1110.308913,306.438199
2926.614356,-9400.615463,-444.123565,1378.971896
2926.614693,-9030.512492,-666.185348,2145.067394
2926.615031,-10214.842000,148.041188,1455.581446
2926.615368,-10214.842000,444.123565,2298.286494
2926.615705,-9992.780217,1628.453072,2374.896044
2926.616042,-10362.883188,2516.700203,1455.581446
2926.616380,-10881.027347,1776.494261,306.438199
2926.616717,-11547.212695,1258.350101,-306.438199
2926.617054,-10066.800811,148.041188,-689.485948
2926.617391,-9178.553681,-74.020594,-536.266849
2926.617729,-8290.306550,0.000000,-689.485948
2926.618066,-8956.491898,-1332.370696,-919.314598
2926.618403,-9844.739029,-1628.453072,-919.314598
2926.618740,-9548.656652,-962.267725,-612.876398
2926.619078,-10362.883188,148.041188,-612.876398
2926.619415,-11029.068536,-444.123565,-536.266849
2926.619752,-11029.068536,-1998.556043,-2145.067394
2926.620089,-11621.233289,-1998.556043,-919.314598
2926.620427,-10214.842000,-2738.761985,-536.266849
2926.620764,-8512.368333,-2368.659014,306.438199
2926.621101,-9104.533087,-3034.844362,1608.800546
2926.621438,-9844.739029,-3256.906145,1378.971896
2926.621776,-10510.924376,-1628.453072,2145.067394
2926.622113,-11103.089130,-518.144159,2298.286494
2926.622450,-11029.068536,1258.350101,383.047749
2926.622788,-10807.006753,74.020594,-306.438199
2926.623125,-11843.295072,-296.082377,459.657299
2926.623462,-10362.883188,-1258.350101,153.219100
2926.623799,-9178.553681,-518.144159,0.000000
2926.624137,-8290.306550,-592.164754,153.219100
2926.624474,-8734.430116,-1480.411884,536.266849
2926.624811,-9918.759623,-444.123565,459.657299
2926.625148,-10140.821405,814.226536,842.705048
2926.625486,-10288.862594,1332.370696,536.266849
2926.625823,-10732.986159,2072.576638,-383.047749
2926.626160,-11621.233289,74.020594,-1302.362347
2926.626497,-11103.089130,148.041188,-612.876398
2926.626835,-9178.553681,-1332.370696,459.657299
2926.627172,-8512.368333,-148.041188,459.657299
2926.627509,-8364.327145,-740.205942,1149.143247
2926.627846,-9622.677246,-740.205942,842.705048
2926.628184,-10288.862594,370.102971,2911.162892
2926.628521,-10140.821405,1628.453072,2451.505594
2926.628858,-10584.944971,4441.235652,1608.800546
2926.629195,-11695.253884,1998.556043,536.266849
2926.629533,-11917.315666,1850.514855,-306.438199
2926.629870,-10362.883188,296.082377,229.828649
2926.630207,-9400.615463,0.000000,842.705048
2926.630544,-8290.306550,444.123565,612.876398
2926.630882,-9030.512492,-1184.329507,-306.438199
2926.631219,-9474.636058,-296.082377,-842.705048
2926.631556,-9104.533087,-518.144159,153.219100
2926.631893,-9844.739029,1998.556043,153.219100
2926.632231,-10510.924376,1258.350101,-1302.362347
2926.632568,-11991.336260,296.082377,-2145.067394
2926.632905,-11695.253884,-296.082377,-2528.115143
2926.633243,-9918.759623,-1480.411884,-1762.019645
2926.633580,-9030.512492,-1554.432478,-1302.362347
2926.633917,-9178.553681,-2960.823768,-153.219100
2926.634254,-9844.739029,-3552.988522,-229.828649
2926.634592,-10214.842000,-2220.617826,919.314598
2926.634929,-10436.903782,-962.267725,2068.457845
2926.635266,-10658.965565,518.144159,1072.533697
2926.635603,-11399.171507,-518.144159,995.924147
2926.635941,-12065.356855,148.041188,306.438199
2926.636278,-11103.089130,0.000000,1455.581446
2926.636615,-9400.615463,-370.102971,1225.752797
2926.636952,-8734.430116,-296.082377,1149.143247
2926.637290,-9474.636058,-1480.411884,1532.190996
2926.637627,-9992.780217,-888.247130,536.266849
2926.637964,-9548.656652,0.000000,2298.286494
2926.638301,-8956.491898,1924.535449,766.095498
2926.638639,-9622.677246,1628.453072,459.657299
2926.638976,-10807.006753,962.267725,-842.705048
2926.639313,-11103.089130,518.144159,-1378.971896
2926.639650,-10288.862594,-444.123565,-459.657299
2926.639988,-8734.430116,-296.082377,-842.705048
2926.640325,-7772.162391,-1850.514855,-766.095498
2926.640662,-9178.553681,-1850.514855,0.000000
2926.640999,-9474.636058,-2294.638420,842.705048
2926.641337,-8660.409521,0.000000,1302.362347
2926.641674,-9622.677246,1110.308913,1072.533697
2926.642011,-11399.171507,296.082377,919.314598
2926.642348,-11991.336260,-814.226536,-383.047749
2926.642686,-11399.171507,-962.267725,612.876398
2926.643023,-9770.718434,-444.123565,1608.800546
2926.643360,-8882.471304,-962.267725,995.924147
2926.643697,-9622.677246,-1628.453072,1149.143247
2926.644035,-10732.986159,-1998.556043,1225.752797
2926.644372,-9474.636058,-888.247130,2374.896044
2926.644709,-9326.594869,1184.329507,1915.238745
2926.645047,-11177.109724,2072.576638,1072.533697
2926.645384,-11843.295072,296.082377,-612.876398
2926.645721,-11991.336260,0.000000,-1608.800546
2926.646058,-10362.883188,-1036.288319,-1072.533697
2926.646396,-9030.512492,-888.247130,-1455.581446
2926.646733,-8956.491898,-2368.659014,-612.876398
2926.647070,-9770.718434,-2812.782580,-2145.067394
2926.647407,-8660.409521,-2590.720797,-536.266849
2926.647745,-9104.533087,-1184.329507,689.485948
2926.648082,-8808.450710,296.082377,229.828649
2926.648419,-10436.903782,0.000000,612.876398
2926.648756,-11991.336260,74.020594,153.219100
2926.649094,-11251.130318,-296.082377,0.000000
2926.649431,-9992.780217,0.000000,919.314598
2926.649768,-9474.636058,-592.164754,1302.362347
2926.650105,-9474.636058,-1332.370696,1455.581446
2926.650443,-10066.800811,-370.102971,689.485948
2926.650780,-9400.615463,740.205942,2681.334243
2926.651117,-9622.677246,1776.494261,1915.238745
2926.651454,-10140.821405,3182.885551,1762.019645
2926.651792,-11769.274478,2886.803174,-229.828649
2926.652129,-12287.418637,2368.659014,-612.876398
2926.652466,-10955.047942,2220.617826,-919.314598
2926.652803,-9844.739029,1480.411884,-689.485948
2926.653141,-8956.491898,444.123565,-306.438199
2926.653478,-9326.594869,-1110.308913,-1378.971896
2926.653815,-9474.636058,-518.144159,-919.314598
2926.654152,-8216.285956,-740.205942,0.000000
2926.654490,-8290.306550,740.205942,-766.095498
2926.654827,-10066.800811,-444.123565,0.000000
2926.655164,-11621.233289,-296.082377,-1072.533697
2926.655502,-11325.150913,-1110.308913,0.000000
2926.655839,-10140.821405,-1036.288319,153.219100
2926.656176,-8882.471304,-962.267725,-612.876398
2926.656513,-9992.780217,-3182.885551,612.876398
2926.656851,-9770.718434,-3701.029710,1072.533697
2926.657188,-8512.368333,-2294.638420,2068.457845
2926.657525,-9030.512492,-296.082377,2681.334243
2926.657862,-10658.965565,1184.329507,1532.190996
2926.658200,-12139.377449,666.185348,153.219100
2926.658537,-13101.645173,888.247130,0.000000
2926.658874,-11177.109724,1184.329507,612.876398
2926.659211,-10066.800811,1110.308913,-76.609550
2926.659549,-9918.759623,-296.082377,0.000000
2926.659886,-9548.656652,-2368.659014,-612.876398
2926.660223,-9696.697840,-1480.411884,306.438199
2926.660560,-8956.491898,-148.041188,1225.752797
2926.660898,-8882.471304,1110.308913,153.219100
2926.661235,-10288.862594,1184.329507,0.000000
2926.661572,-11769.274478,296.082377,-842.705048
2926.661909,-11695.253884,814.226536,0.000000
2926.662247,-10436.903782,-444.123565,842.705048
2926.662584,-9252.574275,-370.102971,536.266849
2926.662921,-8882.471304,-2368.659014,-306.438199
2926.663258,-8882.471304,-2294.638420,766.095498
2926.663596,-7698.141797,-888.247130,2068.457845
2926.663933,-7772.162391,-222.061783,2604.724693
2926.664270,-9252.574275,2220.617826,2145.067394
2926.664607,-11251.130318,1776.494261,1378.971896
2926.664945,-12509.480420,1924.535449,-383.047749
2926.665282,-11103.089130,1258.350101,0.000000
2926.665619,-10362.883188,888.247130,0.000000
2926.665956,-9030.512492,0.000000,76.609550
2926.666294,-8734.430116,-1850.514855,-1378.971896
2926.666631,-8808.450710,-1924.535449,-306.438199
2926.666968,-8808.450710,-1702.473667,536.266849
2926.667306,-9030.512492,296.082377,229.828649
2926.667643,-11695.253884,518.144159,153.219100
2926.667980,-12361.439231,444.123565,-2145.067394
2926.668317,-12139.377449,0.000000,-2298.286494
2926.668655,-10955.047942,-1628.453072,-1915.238745
2926.668992,-10214.842000,-1110.308913,-1455.581446
2926.669329,-9992.780217,-3330.926739,-919.314598
2926.669666,-10288.862594,-4293.194464,-1608.800546
2926.670004,-8956.491898,-3775.050304,153.219100
2926.670341,-9474.636058,-2664.741391,1991.848295
2926.670678,-9474.636058,-1184.329507,1915.238745
2926.671015,-10807.006753,-592.164754,1685.410096
2926.671353,-12435.459826,296.082377,1532.190996
2926.671690,-11251.130318,592.164754,689.485948
2926.672027,-10510.924376,518.144159,766.095498
2926.672364,-9252.574275,-518.144159,612.876398
2926.672702,-8512.368333,-1702.473667,1378.971896
2926.673039,-8586.388927,-1110.308913,1072.533697
2926.673376,-8882.471304,0.000000,2911.162892
2926.673713,-8882.471304,1332.370696,766.095498
2926.674051,-9104.533087,1850.514855,612.876398
2926.674388,-10658.965565,2072.576638,-459.657299
2926.674725,-11103.089130,2442.679609,-229.828649
2926.675062,-10658.965565,1998.556043,-1225.752797
2926.675400,-10066.800811,1702.473667,-842.705048
2926.675737,-9918.759623,-222.061783,-612.876398
2926.676074,-9770.718434,-1110.308913,-919.314598
2926.676411,-10066.800811,-962.267725,1455.581446
2926.676749,-8956.491898,148.041188,1838.629195
2926.677086,-9548.656652,1406.391290,1685.410096
2926.677423,-10510.924376,666.185348,1762.019645
2926.677761,-11769.274478,1776.494261,766.095498
2926.678098,-11843.295072,518.144159,1838.629195
2926.678435,-11251.130318,592.164754,995.924147
2926.678772,-9548.656652,0.000000,0.000000
2926.679110,-9252.574275,-740.205942,0.000000
2926.679447,-9252.574275,-1110.308913,0.000000
2926.679784,-8438.347739,-1258.350101,536.266849
2926.680121,-8808.450710,222.061783,536.266849
2926.680459,-9844.739029,296.082377,76.609550
2926.680796,-11103.089130,148.041188,-459.657299
2926.681133,-11029.068536,0.000000,-612.876398
2926.681470,-10362.883188,-888.247130,-919.314598
2926.681808,-10066.800811,-444.123565,-1608.800546
2926.682145,-9622.677246,-1480.411884,-1915.238745
2926.682482,-9548.656652,-2664.741391,-2451.505594
2926.682819,-9622.677246,-3034.844362,-766.095498
2926.683157,-9474.636058,-2368.659014,-229.828649
2926.683494,-9326.594869,-518.144159,0.000000
2926.683831,-10807.006753,-444.123565,689.485948
2926.684168,-11843.295072,0.000000,306.438199
2926.684506,-11473.192101,0.000000,842.705048
2926.684843,-11029.068536,-148.041188,383.047749
2926.685180,-10732.986159,0.000000,1455.581446
2926.685517,-11177.109724,-814.226536,1608.800546
2926.685855,-9622.677246,-1036.288319,1149.143247
2926.686192,-8882.471304,-444.123565,2757.943793
2926.686529,-9030.512492,444.123565,3140.991542
2926.686866,-9178.553681,666.185348,1991.848295
2926.687204,-10584.944971,1998.556043,1149.143247
2926.687541,-11473.192101,2220.617826,0.000000
2926.687878,-10584.944971,1036.288319,-612.876398
2926.688215,-9844.739029,740.205942,-689.485948
2926.688553,-8512.368333,-148.041188,-229.828649
2926.688890,-8882.471304,-1036.288319,-995.924147
2926.689227,-8882.471304,-1998.556043,-689.485948
2926.689565,-7994.224174,-2072.576638,-689.485948
2926.689902,-9178.553681,-222.061783,229.828649
2926.690239,-10140.821405,-888.247130,153.219100
2926.690576,-10955.047942,-296.082377,-612.876398
2926.690914,-11547.212695,-296.082377,0.000000
2926.691251,-10807.006753,-666.185348,-536.266849
2926.691588,-9548.656652,0.000000,0.000000
2926.691925,-10584.944971,-1332.370696,536.266849
2926.692263,-11325.150913,-2368.659014,536.266849
2926.692600,-9918.759623,-1850.514855,1225.752797
2926.692937,-9844.739029,-296.082377,2068.457845
2926.693274,-9992.780217,592.164754,2068.457845
2926.693612,-10955.047942,222.061783,76.609550
2926.693949,-11917.315666,370.102971,612.876398
2926.694286,-11325.150913,148.041188,919.314598
2926.694623,-9992.780217,888.247130,-306.438199
2926.694961,-9474.636058,-370.102971,-306.438199
2926.695298,-9474.636058,-1702.473667,-842.705048
2926.695635,-9326.594869,-2368.659014,-1072.533697
2926.695972,-8586.388927,-1332.370696,0.000000
2926.696310,-8734.430116,888.247130,612.876398
2926.696647,-9474.636058,444.123565,0.000000
2926.696984,-11621.233289,0.000000,-689.485948
2926.697321,-11325.150913,666.185348,-536.266849
2926.697659,-10288.862594,518.144159,0.000000
2926.697996,-9992.780217,222.061783,612.876398
2926.698333,-9844.739029,-740.205942,0.000000
2926.698670,-9992.780217,-1258.350101,0.000000
2926.699008,-9104.533087,-740.205942,1991.848295
2926.699345,-9326.594869,148.041188,2604.724693
2926.699682,-9696.697840,1998.556043,2681.334243
2926.700020,-10881.027347,1258.350101,1685.410096
2926.700357,-11621.233289,2664.741391,383.047749
2926.700694,-11029.068536,1776.494261,306.438199
2926.701031,-10881.027347,2072.576638,612.876398
2926.701369,-9696.697840,740.205942,383.047749
2926.701706,-9844.739029,222.061783,-459.657299
2926.702043,-9252.574275,-1110.308913,-689.485948
2926.702380,-8216.285956,-1628.453072,-536.266849
2926.702718,-8438.347739,74.020594,153.219100
2926.703055,-9474.636058,-518.144159,0.000000
2926.703392,-10362.883188,-222.061783,-1072.533697
2926.703729,-10584.944971,-962.267725,-383.047749
2926.704067,-10584.944971,-1110.308913,0.000000
2926.704404,-9992.780217,-666.185348,-612.876398
2926.704741,-10066.800811,-2368.659014,-766.095498
2926.705078,-10881.027347,-2886.803174,-612.876398
2926.705416,-9400.615463,-3849.070898,229.828649
2926.705753,-9326.594869,-1998.556043,919.314598
2926.706090,-9400.615463,-1406.391290,766.095498
2926.706427,-10288.862594,-1110.308913,1149.143247
2926.706765,-11843.295072,222.061783,1149.143247
2926.707102,-10881.027347,370.102971,1225.752797
2926.707439,-10510.924376,1110.308913,1608.800546
2926.707776,-11325.150913,222.061783,1685.410096
2926.708114,-10881.027347,-1184.329507,459.657299
2926.708451,-9992.780217,-740.205942,536.266849
2926.708788,-9326.594869,-814.226536,1608.800546
2926.709125,-9104.533087,444.123565,0.000000
2926.709463,-9474.636058,74.020594,229.828649
2926.709800,-9770.718434,148.041188,-229.828649
2926.710137,-10066.800811,592.164754,-383.047749
2926.710475,-10658.965565,1184.329507,-919.314598
2926.710812,-10214.842000,1258.350101,-1685.410096
