#time,accel_x,accel_y,accel_z
2913.617869,-8956.491898,-1184.329507,-306.438199
2913.618207,-8512.368333,-1702.473667,-153.219100
2913.618544,-8808.450710,-1332.370696,383.047749
2913.618882,-9104.533087,-1258.350101,-842.705048
2913.619220,-8882.471304,148.041188,-1455.581446
2913.619558,-9474.636058,1998.556043,-1378.971896
2913.619896,-11029.068536,1776.494261,-1608.800546
2913.620233,-11325.150913,1702.473667,-2451.505594
2913.620571,-11103.089130,-296.082377,-3370.820191
2913.620909,-10140.821405,-1110.308913,-2298.286494
2913.621247,-8882.471304,-2664.741391,-1302.362347
2913.621585,-8364.327145,-3701.029710,-459.657299
2913.621922,-8512.368333,-4441.235652,76.609550
2913.622260,-8882.471304,-3330.926739,-306.438199
2913.622598,-11547.212695,-2368.659014,-459.657299
2913.622936,-13175.665768,-1702.473667,-1378.971896
2913.623274,-12361.439231,-444.123565,-2834.553343
2913.623611,-11769.274478,-1110.308913,-2528.115143
2913.623949,-10955.047942,-1850.514855,-2604.724693
2913.624287,-8734.430116,-3330.926739,-2145.067394
2913.624625,-9030.512492,-4515.256246,-995.924147
2913.624963,-8734.430116,-3701.029710,-383.047749
2913.625300,-9622.677246,-3849.070898,-76.609550
2913.625638,-10658.965565,-2812.782580,-76.609550
2913.625976,-11103.089130,-1702.473667,-995.924147
2913.626314,-10955.047942,-666.185348,-766.095498
2913.626652,-10658.965565,74.020594,-1991.848295
2913.626989,-9992.780217,-888.247130,-3140.991542
2913.627327,-9770.718434,-1924.535449,-3524.039291
2913.627665,-9326.594869,-2960.823768,-4290.134789
2913.628003,-9400.615463,-3404.947333,-4443.353888
2913.628341,-9104.533087,-4367.215058,-4673.182538
2913.628678,-8068.244768,-4811.338623,-3830.477490
2913.629016,-7846.182985,-4737.318029,-2834.553343
2913.629354,-8882.471304,-3701.029710,-1762.019645
2913.629692,-10066.800811,-1702.473667,-766.095498
2913.630030,-11769.274478,-1036.288319,-2221.676944
2913.630367,-11843.295072,-740.205942,-3064.381992
2913.630705,-11325.150913,-2368.659014,-3064.381992
2913.631043,-9770.718434,-3997.112087,-1685.410096
2913.631381,-8660.409521,-3923.091493,153.219100
2913.631719,-8808.450710,-4737.318029,1149.143247
2913.632056,-9548.656652,-3552.988522,612.876398
2913.632394,-10584.944971,-2664.741391,-1991.848295
2913.632732,-11103.089130,-3404.947333,-3217.601092
2913.633070,-11547.212695,-3627.009116,-2528.115143
2913.633408,-9992.780217,-2886.803174,-2374.896044
2913.633745,-9178.553681,-1776.494261,-1762.019645
2913.634083,-8956.491898,-1998.556043,-2451.505594
2913.634421,-9770.718434,-3330.926739,-2298.286494
2913.634759,-10658.965565,-4737.318029,-842.705048
2913.635097,-10362.883188,-4441.235652,-76.609550
2913.635434,-10510.924376,-3849.070898,0.000000
2913.635772,-10807.006753,-4441.235652,-1685.410096
2913.636110,-10288.862594,-5847.626942,-2987.772442
2913.636448,-10288.862594,-6513.812290,-2451.505594
2913.636786,-9400.615463,-4737.318029,-2834.553343
2913.637123,-8068.244768,-3701.029710,-2528.115143
2913.637461,-9030.512492,-3182.885551,-1762.019645
2913.637799,-10362.883188,-2886.803174,-842.705048
2913.638137,-11325.150913,-962.267725,-306.438199
2913.638475,-11251.130318,148.041188,0.000000
2913.638812,-10807.006753,-666.185348,459.657299
2913.639150,-11843.295072,-1776.494261,1455.581446
2913.639488,-11843.295072,-1406.391290,229.828649
2913.639825,-9326.594869,-1406.391290,0.000000
2913.640163,-8290.306550,-1554.432478,229.828649
2913.640500,-9622.677246,-740.205942,0.000000
2913.640838,-9474.636058,1628.453072,-4290.134789
2913.641176,-8734.430116,1924.535449,-4979.620737
2913.641513,-9104.533087,1850.514855,-2528.115143
2913.641851,-10288.862594,740.205942,-2221.676944
2913.642188,-10881.027347,1628.453072,-3140.991542
2913.642526,-9918.759623,296.082377,-1762.019645
2913.642864,-9178.553681,-1332.370696,0.000000
2913.643201,-8068.244768,-1998.556043,0.000000
2913.643539,-9696.697840,-2220.617826,383.047749
2913.643876,-10362.883188,-1554.432478,-766.095498
2913.644214,-10066.800811,-888.247130,-3447.429741
2913.644552,-10436.903782,-1184.329507,-2681.334243
2913.644889,-8956.491898,-296.082377,-2451.505594
2913.645227,-9030.512492,-518.144159,-995.924147
2913.645565,-10510.924376,444.123565,-689.485948
2913.645902,-11473.192101,296.082377,-1378.971896
2913.646240,-11399.171507,-888.247130,0.000000
2913.646577,-10658.965565,-1480.411884,1225.752797
2913.646915,-10436.903782,-1184.329507,1991.848295
2913.647253,-11621.233289,-1110.308913,153.219100
2913.647590,-10732.986159,-1998.556043,-1455.581446
2913.647928,-8956.491898,-2664.741391,-1225.752797
2913.648265,-8586.388927,-1924.535449,-153.219100
2913.648603,-10584.944971,-370.102971,-459.657299
2913.648941,-9696.697840,74.020594,-1915.238745
2913.649278,-10732.986159,0.000000,-1915.238745
2913.649616,-10362.883188,-1258.350101,-2068.457845
2913.649953,-9770.718434,-2664.741391,-383.047749
2913.650291,-9326.594869,-2738.761985,2298.286494
2913.650629,-9844.739029,-2886.803174,2374.896044
2913.650966,-10510.924376,-2072.576638,919.314598
2913.651304,-9844.739029,-2072.576638,-153.219100
2913.651641,-9474.636058,-2294.638420,919.314598
2913.651979,-8734.430116,-2590.720797,1455.581446
2913.652317,-10214.842000,0.000000,1685.410096
2913.652654,-10140.821405,1406.391290,842.705048
2913.652992,-9770.718434,1258.350101,842.705048
2913.653329,-10732.986159,1406.391290,1455.581446
2913.653667,-11103.089130,962.267725,1991.848295
2913.654005,-11325.150913,1036.288319,2451.505594
2913.654342,-9918.759623,370.102971,2451.505594
2913.654680,-10732.986159,-148.041188,1302.362347
2913.655018,-9918.759623,592.164754,0.000000
2913.655355,-10214.842000,-1036.288319,-459.657299
2913.655693,-9178.553681,-740.205942,-766.095498
2913.656030,-9252.574275,-148.041188,-2221.676944
2913.656368,-8660.409521,0.000000,-1991.848295
2913.656706,-9474.636058,-370.102971,-2374.896044
2913.657043,-9696.697840,-1406.391290,-2451.505594
2913.657381,-10140.821405,-1850.514855,-1302.362347
2913.657718,-9696.697840,-2516.700203,-229.828649
2913.658056,-9770.718434,-2516.700203,459.657299
2913.658394,-10214.842000,-4145.153275,0.000000
2913.658731,-9252.574275,-4293.194464,-1149.143247
2913.659069,-9474.636058,-4367.215058,229.828649
2913.659406,-10140.821405,-3108.864956,536.266849
2913.659744,-9474.636058,-666.185348,-306.438199
2913.660082,-11177.109724,-444.123565,-383.047749
2913.660419,-11473.192101,592.164754,-383.047749
2913.660757,-11103.089130,666.185348,-229.828649
2913.661094,-12287.418637,444.123565,1838.629195
2913.661432,-11325.150913,592.164754,612.876398
2913.661770,-10362.883188,-592.164754,1149.143247
2913.662107,-11029.068536,-592.164754,919.314598
2913.662445,-9252.574275,-1332.370696,-459.657299
2913.662783,-9770.718434,-740.205942,0.000000
2913.663120,-8808.450710,0.000000,-995.924147
2913.663458,-8438.347739,888.247130,-842.705048
2913.663795,-10362.883188,2516.700203,-229.828649
2913.664133,-10140.821405,2220.617826,-1149.143247
2913.664471,-10214.842000,296.082377,153.219100
2913.664808,-10288.862594,518.144159,842.705048
2913.665146,-9178.553681,74.020594,2911.162892
2913.665483,-10066.800811,0.000000,2757.943793
2913.665821,-8734.430116,-1332.370696,1532.190996
2913.666159,-9178.553681,-2220.617826,2145.067394
2913.666496,-9696.697840,-370.102971,2145.067394
2913.666834,-8216.285956,1406.391290,1072.533697
2913.667171,-10658.965565,1776.494261,2451.505594
2913.667509,-10807.006753,3997.112087,689.485948
2913.667847,-10066.800811,2960.823768,-306.438199
2913.668184,-11917.315666,3034.844362,1532.190996
2913.668522,-10510.924376,1924.535449,1302.362347
2913.668859,-10881.027347,740.205942,1378.971896
2913.669197,-11325.150913,0.000000,689.485948
2913.669535,-9326.594869,-2516.700203,-612.876398
2913.669872,-10288.862594,-2368.659014,459.657299
2913.670210,-8660.409521,-2072.576638,-1685.410096
2913.670547,-8290.306550,-962.267725,-1225.752797
2913.670885,-10288.862594,74.020594,-1608.800546
2913.671223,-9622.677246,-518.144159,-3447.429741
2913.671560,-10807.006753,-370.102971,-1608.800546
2913.671898,-10955.047942,-666.185348,306.438199
2913.672236,-10362.883188,-666.185348,306.438199
2913.672573,-11695.253884,-2072.576638,0.000000
2913.672911,-10881.027347,-3627.009116,-229.828649
2913.673248,-9548.656652,-5921.647536,306.438199
2913.673586,-9252.574275,-4589.276840,995.924147
2913.673924,-7698.141797,-3108.864956,1149.143247
2913.674261,-9400.615463,-1258.350101,1378.971896
2913.674599,-9918.759623,148.041188,229.828649
2913.674936,-9992.780217,2442.679609,0.000000
2913.675274,-12361.439231,2812.782580,2068.457845
2913.675612,-11621.233289,3404.947333,1991.848295
2913.675949,-12509.480420,1998.556043,1302.362347
2913.676287,-11917.315666,592.164754,76.609550
2913.676624,-9178.553681,-2294.638420,-919.314598
2913.676962,-8364.327145,-3330.926739,919.314598
2913.677300,-7328.038826,-3330.926739,459.657299
2913.677637,-7105.977043,-2220.617826,-459.657299
2913.677975,-8956.491898,-518.144159,-919.314598
2913.678312,-9252.574275,1036.288319,-2068.457845
2913.678650,-11029.068536,3034.844362,-229.828649
2913.678988,-12139.377449,2664.741391,0.000000
2913.679325,-11251.130318,2442.679609,-612.876398
2913.679663,-11991.336260,-296.082377,0.000000
2913.680000,-9992.780217,-3330.926739,1225.752797
2913.680338,-8882.471304,-5477.523971,3064.381992
2913.680676,-9104.533087,-5477.523971,3370.820191
2913.681013,-7624.121203,-3997.112087,1915.238745
2913.681351,-9178.553681,-2738.761985,306.438199
2913.681689,-9770.718434,518.144159,-1149.143247
2913.682026,-9770.718434,1924.535449,-1149.143247
2913.682364,-11843.295072,4219.173869,1378.971896
2913.682701,-12435.459826,3404.947333,-229.828649
2913.683039,-12657.521608,1924.535449,-612.876398
2913.683377,-11843.295072,-740.205942,-306.438199
2913.683714,-9918.759623,-4145.153275,1455.581446
2913.684052,-9400.615463,-5033.400406,2911.162892
2913.684389,-7698.141797,-5403.503377,1608.800546
2913.684727,-7476.080014,-3997.112087,-306.438199
2913.685065,-9326.594869,-1554.432478,-2068.457845
2913.685402,-8956.491898,444.123565,-3447.429741
2913.685740,-11029.068536,2368.659014,-1302.362347
2913.686077,-12213.398043,3182.885551,-1378.971896
2913.686415,-11769.274478,2516.700203,-1302.362347
2913.686753,-11917.315666,666.185348,-536.266849
2913.687090,-9844.739029,-1702.473667,1302.362347
2913.687428,-9548.656652,-4071.132681,3677.258390
2913.687765,-9844.739029,-4663.297435,5286.058936
2913.688103,-7476.080014,-3330.926739,2681.334243
2913.688441,-8734.430116,-1258.350101,766.095498
2913.688778,-9474.636058,1998.556043,-383.047749
2913.689116,-9252.574275,4441.235652,-612.876398
2913.689454,-12361.439231,6513.812290,995.924147
2913.689791,-12731.542202,7698.141797,-842.705048
2913.690129,-12657.521608,5403.503377,-2068.457845
2913.690466,-12139.377449,2590.720797,-1532.190996
2913.690804,-9474.636058,-1850.514855,766.095498
2913.691142,-7550.100608,-3404.947333,3447.429741
2913.691479,-6587.832884,-4145.153275,2681.334243
2913.691817,-7402.059420,-3627.009116,1608.800546
2913.692154,-9030.512492,-962.267725,-766.095498
2913.692492,-9252.574275,888.247130,-1838.629195
2913.692830,-11177.109724,3330.926739,-919.314598
2913.693167,-10881.027347,4145.153275,-2528.115143
2913.693505,-11695.253884,3775.050304,-2068.457845
2913.693842,-12213.398043,888.247130,0.000000
2913.694180,-10288.862594,-2590.720797,612.876398
2913.694518,-9474.636058,-5773.606348,2221.676944
2913.694855,-8660.409521,-6069.688724,2451.505594
2913.695193,-8142.265362,-5995.668130,2757.943793
2913.695530,-9918.759623,-4219.173869,2528.115143
2913.695868,-9400.615463,-1332.370696,153.219100
2913.696206,-9474.636058,1628.453072,-536.266849
2913.696543,-12065.356855,3997.112087,0.000000
2913.696881,-12583.501014,5403.503377,-1225.752797
2913.697218,-13471.748144,2812.782580,-383.047749
2913.697556,-12139.377449,74.020594,-76.609550
2913.697894,-9178.553681,-3034.844362,459.657299
2913.698231,-9474.636058,-3849.070898,2757.943793
2913.698569,-8438.347739,-4959.379811,2374.896044
2913.698907,-7846.182985,-5255.462188,-612.876398
2913.699244,-8660.409521,-1924.535449,-2068.457845
2913.699582,-8660.409521,-740.205942,-2528.115143
2913.699919,-9844.739029,2516.700203,-612.876398
2913.700257,-11547.212695,4071.132681,-459.657299
2913.700595,-11917.315666,4145.153275,-1378.971896
2913.700932,-12065.356855,1850.514855,-1072.533697
2913.701270,-10732.986159,-1036.288319,689.485948
2913.701607,-9104.533087,-3256.906145,3600.648841
2913.701945,-8364.327145,-5477.523971,4596.572988
2913.702283,-7179.997637,-4737.318029,4290.134789
2913.702620,-8734.430116,-3256.906145,2834.553343
2913.702958,-8734.430116,0.000000,842.705048
2913.703295,-9326.594869,3256.906145,-1072.533697
2913.703633,-11917.315666,6143.709319,-306.438199
2913.703971,-12509.480420,6809.894666,-1838.629195
2913.704308,-13027.624579,5107.421000,-3370.820191
2913.704646,-11991.336260,1702.473667,-2451.505594
2913.704983,-9622.677246,-1406.391290,0.000000
2913.705321,-9030.512492,-4367.215058,3677.258390
2913.705659,-9178.553681,-5033.400406,2987.772442
2913.705996,-8068.244768,-5477.523971,766.095498
2913.706334,-9622.677246,-4589.276840,-612.876398
2913.706671,-8882.471304,-2368.659014,-1608.800546
2913.707009,-9548.656652,888.247130,-1225.752797
2913.707347,-9992.780217,4145.153275,-2068.457845
2913.707684,-11621.233289,4515.256246,-2604.724693
2913.708022,-13323.706956,1998.556043,-2068.457845
2913.708360,-11621.233289,-1332.370696,-766.095498
2913.708697,-9770.718434,-3034.844362,2681.334243
2913.709035,-9696.697840,-5255.462188,4366.744339
2913.709372,-8364.327145,-5773.606348,3830.477490
2913.709710,-8808.450710,-5033.400406,3217.601092
2913.710048,-8142.265362,-2294.638420,1455.581446
2913.710385,-8586.388927,1036.288319,-383.047749
2913.710723,-10732.986159,4959.379811,-612.876398
2913.711060,-11103.089130,8142.265362,-1302.362347
2913.711398,-14434.015869,6439.791695,-995.924147
2913.711736,-12657.521608,3256.906145,-2757.943793
2913.712073,-9622.677246,740.205942,-1378.971896
2913.712411,-8808.450710,-888.247130,3370.820191
2913.712748,-8216.285956,-3997.112087,3217.601092
2913.713086,-7920.203579,-3701.029710,2987.772442
2913.713424,-8512.368333,-2812.782580,-383.047749
2913.713761,-8438.347739,-1110.308913,-1608.800546
2913.714099,-10066.800811,2442.679609,-842.705048
2913.714436,-10140.821405,5255.462188,-1072.533697
2913.714774,-11177.109724,5921.647536,-2834.553343
2913.715112,-11769.274478,4811.338623,-2911.162892
2913.715449,-10881.027347,1850.514855,-1532.190996
2913.715787,-9992.780217,-2368.659014,1532.190996
2913.716124,-9252.574275,-3849.070898,4673.182538
2913.716462,-8882.471304,-4737.318029,5439.278036
2913.716800,-9252.574275,-5107.421000,3370.820191
2913.717137,-8290.306550,-3849.070898,612.876398
2913.717475,-9770.718434,-666.185348,306.438199
2913.717813,-9474.636058,2812.782580,-536.266849
2913.718150,-10510.924376,6143.709319,-1915.238745
2913.718488,-13471.748144,5699.585753,-2604.724693
2913.718825,-12731.542202,2886.803174,-3907.087040
2913.719163,-10807.006753,-222.061783,-1455.581446
2913.719501,-9770.718434,-3256.906145,2298.286494
2913.719838,-9400.615463,-4737.318029,4060.306139
2913.720176,-9178.553681,-6513.812290,2298.286494
2913.720513,-8586.388927,-5625.565159,306.438199
2913.720851,-8586.388927,-4515.256246,-536.266849
2913.721189,-9622.677246,-1406.391290,153.219100
2913.721526,-10066.800811,2590.720797,-1915.238745
2913.721864,-11547.212695,4367.215058,-2145.067394
2913.722201,-13175.665768,3775.050304,-2757.943793
2913.722539,-10807.006753,1702.473667,-1608.800546
2913.722877,-9918.759623,-1554.432478,1838.629195
2913.723214,-9844.739029,-3404.947333,3677.258390
2913.723552,-9474.636058,-3701.029710,3140.991542
2913.723889,-9030.512492,-4515.256246,3753.867940
2913.724227,-8882.471304,-3627.009116,2757.943793
2913.724565,-7105.977043,-1924.535449,2757.943793
2913.724902,-8882.471304,3552.988522,0.000000
2913.725240,-9696.697840,7031.956449,-1685.410096
2913.725578,-13175.665768,7624.121203,-1991.848295
2913.725915,-13175.665768,6217.729913,-3600.648841
2913.726253,-10807.006753,2442.679609,-3217.601092
2913.726590,-9918.759623,-444.123565,-536.266849
2913.726928,-8512.368333,-2960.823768,2604.724693
2913.727266,-8142.265362,-5403.503377,2757.943793
2913.727603,-7624.121203,-5255.462188,612.876398
2913.727941,-6883.915261,-5033.400406,-306.438199
2913.728278,-9400.615463,-1850.514855,0.000000
2913.728616,-9992.780217,1998.556043,-1378.971896
2913.728954,-10732.986159,3330.926739,-3064.381992
2913.729291,-12361.439231,3849.070898,-2374.896044
2913.729629,-11325.150913,2294.638420,-1455.581446
2913.729966,-11547.212695,-1480.411884,1455.581446
2913.730304,-10362.883188,-3552.988522,2757.943793
2913.730642,-9770.718434,-4663.297435,3907.087040
2913.730979,-10288.862594,-5329.482782,3524.039291
2913.731317,-8438.347739,-5477.523971,2298.286494
2913.731654,-8586.388927,-3997.112087,2221.676944
2913.731992,-9548.656652,518.144159,153.219100
2913.732330,-9252.574275,4959.379811,-2145.067394
2913.732667,-12509.480420,6809.894666,-1915.238745
2913.733005,-14063.912898,4737.318029,-2451.505594
2913.733342,-12065.356855,2220.617826,-2145.067394
2913.733680,-11029.068536,370.102971,612.876398
2913.734018,-9844.739029,-2072.576638,2681.334243
2913.734355,-9474.636058,-4811.338623,3294.210641
2913.734693,-8068.244768,-5403.503377,1685.410096
2913.735031,-6883.915261,-4737.318029,1455.581446
2913.735368,-8512.368333,-1628.453072,842.705048
2913.735706,-8290.306550,2442.679609,-689.485948
2913.736043,-9844.739029,5255.462188,-1532.190996
2913.736381,-12731.542202,6513.812290,-2145.067394
2913.736719,-11769.274478,5181.441594,-3447.429741
2913.737056,-11547.212695,2220.617826,0.000000
2913.737394,-9992.780217,-814.226536,3907.087040
2913.737731,-8660.409521,-2294.638420,5745.716235
2913.738069,-9178.553681,-3997.112087,5362.668486
2913.738407,-7624.121203,-4293.194464,4060.306139
2913.738744,-8438.347739,-3182.885551,3370.820191
2913.739082,-9844.739029,814.226536,1455.581446
2913.739419,-9178.553681,5403.503377,-1915.238745
2913.739757,-12287.418637,7328.038826,-1838.629195
2913.740095,-13915.871710,6809.894666,-4519.963438
2913.740433,-10955.047942,3997.112087,-5669.106685
2913.740770,-10955.047942,592.164754,-2528.115143
2913.741107,-9696.697840,-2812.782580,1685.410096
2913.741445,-9326.594869,-4737.318029,2604.724693
2913.741782,-8956.491898,-5921.647536,1225.752797
2913.742120,-7550.100608,-7402.059420,-153.219100
2913.742457,-8660.409521,-4959.379811,1532.190996
2913.742794,-9770.718434,-518.144159,306.438199
2913.743132,-10066.800811,3330.926739,-2528.115143
2913.743469,-11695.253884,4145.153275,-4366.744339
2913.743807,-12805.562797,3108.864956,-3370.820191
2913.744144,-12435.459826,888.247130,-766.095498
2913.744481,-9844.739029,-1702.473667,2374.896044
2913.744819,-9622.677246,-3552.988522,3447.429741
2913.745156,-9696.697840,-5107.421000,4366.744339
2913.745493,-9252.574275,-5847.626942,4136.915689
2913.745831,-8216.285956,-5329.482782,4136.915689
2913.746168,-7920.203579,-1776.494261,3064.381992
2913.746506,-8512.368333,3701.029710,0.000000
2913.746843,-12287.418637,6809.894666,-2068.457845
2913.747180,-13619.789333,7550.100608,-3370.820191
2913.747518,-11843.295072,5107.421000,-4213.525239
2913.747855,-10510.924376,2220.617826,-1838.629195
2913.748192,-9252.574275,0.000000,459.657299
2913.748530,-9030.512492,-2960.823768,2681.334243
2913.748867,-8586.388927,-4885.359217,1915.238745
2913.749205,-6439.791695,-6291.750507,2145.067394
2913.749542,-8438.347739,-4441.235652,3524.039291
2913.749879,-9844.739029,-592.164754,2604.724693
2913.750217,-9474.636058,3256.906145,-1378.971896
2913.750554,-11621.233289,5255.462188,-2068.457845
2913.750891,-12805.562797,4737.318029,-2987.772442
2913.751229,-11325.150913,2442.679609,-2757.943793
2913.751566,-9844.739029,0.000000,76.609550
2913.751904,-9844.739029,-3108.864956,3907.087040
2913.752241,-9474.636058,-4071.132681,3294.210641
2913.752578,-8586.388927,-5625.565159,3370.820191
2913.752916,-8512.368333,-6365.771101,4290.134789
2913.753253,-9252.574275,-3330.926739,2451.505594
2913.753591,-9474.636058,1628.453072,-459.657299
2913.753928,-10658.965565,4885.359217,-2374.896044
2913.754265,-11917.315666,5477.523971,-3907.087040
2913.754603,-12361.439231,3478.967927,-4290.134789
2913.754940,-11547.212695,1480.411884,-2681.334243
2913.755277,-10066.800811,-1036.288319,-229.828649
2913.755615,-10436.903782,-3330.926739,2298.286494
2913.755952,-9770.718434,-3627.009116,76.609550
2913.756290,-8364.327145,-7105.977043,1455.581446
2913.756627,-8586.388927,-6735.874072,1991.848295
2913.756964,-7254.018232,-2368.659014,1149.143247
2913.757302,-9326.594869,1850.514855,0.000000
2913.757639,-12139.377449,5033.400406,-2451.505594
2913.757976,-12361.439231,4367.215058,-4213.525239
2913.758314,-12065.356855,3404.947333,-2451.505594
2913.758651,-10288.862594,888.247130,383.047749
2913.758989,-8956.491898,-518.144159,2145.067394
2913.759326,-9548.656652,-2294.638420,3524.039291
2913.759663,-8808.450710,-3997.112087,4673.182538
2913.760001,-8808.450710,-4663.297435,5439.278036
2913.760338,-8364.327145,-1776.494261,4519.963438
2913.760675,-8512.368333,2220.617826,1378.971896
2913.761013,-10510.924376,5181.441594,-766.095498
2913.761350,-11843.295072,6291.750507,-2298.286494
2913.761688,-11917.315666,5477.523971,-3677.258390
2913.762025,-10436.903782,4145.153275,-3370.820191
2913.762362,-9548.656652,1184.329507,-2145.067394
2913.762700,-10881.027347,-1628.453072,1378.971896
2913.763037,-9918.759623,-3997.112087,1302.362347
2913.763375,-7698.141797,-6069.688724,689.485948
2913.763712,-7550.100608,-5773.606348,2451.505594
2913.764049,-8512.368333,-3478.967927,2068.457845
2913.764387,-10362.883188,962.267725,306.438199
2913.764724,-11769.274478,2442.679609,-1915.238745
2913.765061,-11029.068536,4367.215058,-3370.820191
2913.765399,-12879.583391,2146.597232,-1225.752797
2913.765736,-11325.150913,814.226536,919.314598
2913.766074,-10214.842000,-1110.308913,1991.848295
2913.766411,-10658.965565,-3330.926739,2757.943793
2913.766748,-9844.739029,-4663.297435,2987.772442
2913.767086,-8808.450710,-4885.359217,3217.601092
2913.767423,-9030.512492,-3997.112087,2451.505594
2913.767760,-8734.430116,0.000000,-459.657299
2913.768098,-9992.780217,3256.906145,-1915.238745
2913.768435,-11325.150913,5033.400406,-2604.724693
2913.768773,-11103.089130,3552.988522,-2221.676944
2913.769110,-10732.986159,2590.720797,-1378.971896
2913.769447,-9918.759623,370.102971,-306.438199
2913.769785,-10658.965565,-1924.535449,1608.800546
2913.770122,-10436.903782,-3330.926739,1991.848295
2913.770459,-8512.368333,-5995.668130,2451.505594
2913.770797,-7846.182985,-5403.503377,2451.505594
2913.771134,-7402.059420,-2294.638420,1762.019645
2913.771472,-8882.471304,1332.370696,-383.047749
2913.771809,-10510.924376,3478.967927,-2834.553343
2913.772146,-11177.109724,4071.132681,-3370.820191
2913.772484,-11843.295072,3775.050304,-1378.971896
2913.772821,-11473.192101,2368.659014,0.000000
2913.773159,-10732.986159,814.226536,2374.896044
2913.773496,-10732.986159,-2146.597232,3600.648841
2913.773833,-8956.491898,-3923.091493,3830.477490
2913.774171,-8734.430116,-4663.297435,4443.353888
2913.774508,-9326.594869,-2368.659014,4060.306139
2913.774845,-9030.512492,444.123565,0.000000
2913.775183,-10881.027347,3108.864956,-2528.115143
2913.775520,-10807.006753,4367.215058,-4213.525239
2913.775858,-10436.903782,3923.091493,-4366.744339
2913.776195,-10510.924376,3034.844362,-2681.334243
2913.776532,-9992.780217,370.102971,-1378.971896
2913.776870,-11399.171507,-1924.535449,153.219100
2913.777207,-11029.068536,-4589.276840,536.266849
2913.777544,-8956.491898,-6957.935855,536.266849
2913.777882,-7550.100608,-7105.977043,2451.505594
2913.778219,-7920.203579,-4737.318029,2911.162892
2913.778557,-8734.430116,-1554.432478,-76.609550
2913.778894,-10362.883188,814.226536,-2757.943793
2913.779231,-11103.089130,2072.576638,-2221.676944
2913.779569,-13027.624579,3034.844362,-995.924147
2913.779906,-11621.233289,2738.761985,459.657299
2913.780243,-11325.150913,0.000000,1455.581446
2913.780581,-11621.233289,-2516.700203,2757.943793
2913.780918,-10214.842000,-3404.947333,4136.915689
2913.781256,-9474.636058,-4441.235652,5592.497135
2913.781593,-8586.388927,-2590.720797,3753.867940
2913.781930,-8512.368333,-592.164754,919.314598
2913.782268,-9844.739029,2960.823768,-1302.362347
2913.782605,-9844.739029,3775.050304,-2374.896044
2913.782942,-10881.027347,4219.173869,-1532.190996
2913.783280,-11547.212695,4663.297435,-2757.943793
2913.783617,-10732.986159,3108.864956,-2221.676944
2913.783955,-11325.150913,0.000000,-229.828649
2913.784292,-9622.677246,-2812.782580,919.314598
2913.784629,-7846.182985,-5625.565159,2145.067394
2913.784967,-7105.977043,-4885.359217,3064.381992
2913.785304,-7550.100608,-4293.194464,2911.162892
2913.785642,-8660.409521,-296.082377,612.876398
2913.785979,-10066.800811,2072.576638,-2451.505594
2913.786316,-10658.965565,3256.906145,-2681.334243
2913.786654,-12065.356855,3701.029710,-1838.629195
2913.786991,-11843.295072,3182.885551,-1225.752797
2913.787328,-11769.274478,74.020594,76.609550
2913.787666,-11103.089130,-2072.576638,1532.190996
2913.788003,-9548.656652,-3997.112087,2911.162892
2913.788341,-9622.677246,-4515.256246,4213.525239
2913.788678,-8956.491898,-4219.173869,3677.258390
2913.789015,-8734.430116,-2294.638420,536.266849
2913.789353,-10658.965565,814.226536,-1762.019645
2913.789690,-10214.842000,2886.803174,-3524.039291
2913.790027,-11325.150913,2886.803174,-2298.286494
2913.790365,-11621.233289,3330.926739,-3140.991542
2913.790702,-10362.883188,1110.308913,-2681.334243
2913.791040,-11177.109724,-1480.411884,229.828649
2913.791377,-9696.697840,-3182.885551,536.266849
2913.791714,-9178.553681,-5477.523971,2221.676944
2913.792052,-9400.615463,-5255.462188,3370.820191
2913.792389,-7846.182985,-3997.112087,1991.848295
2913.792726,-9104.533087,-1332.370696,995.924147
2913.793064,-9918.759623,888.247130,-1608.800546
2913.793401,-9474.636058,2664.741391,-2604.724693
2913.793739,-12139.377449,4145.153275,-306.438199
2913.794076,-11843.295072,4219.173869,-383.047749
2913.794413,-10658.965565,1776.494261,153.219100
2913.794751,-10658.965565,-74.020594,2374.896044
2913.795088,-9252.574275,-1332.370696,3524.039291
2913.795426,-9622.677246,-2664.741391,5286.058936
2913.795763,-8290.306550,-2368.659014,3677.258390
2913.796100,-8438.347739,-962.267725,1608.800546
2913.796438,-10732.986159,1702.473667,612.876398
2913.796775,-10066.800811,3849.070898,-2604.724693
2913.797112,-11399.171507,3701.029710,-1608.800546
2913.797450,-11917.315666,4737.318029,-3064.381992
2913.797787,-9622.677246,2516.700203,-3217.601092
2913.798125,-10955.047942,-74.020594,-1762.019645
2913.798462,-9622.677246,-2886.803174,0.000000
2913.798799,-8438.347739,-4811.338623,2068.457845
2913.799137,-8882.471304,-5477.523971,2451.505594
2913.799474,-8068.244768,-4737.318029,1532.190996
2913.799811,-10288.862594,-2590.720797,1532.190996
2913.800149,-10807.006753,-814.226536,-1991.848295
2913.800486,-9400.615463,148.041188,-2451.505594
2913.800824,-10807.006753,1554.432478,-1532.190996
2913.801161,-10288.862594,1998.556043,-1838.629195
2913.801498,-10732.986159,222.061783,0.000000
2913.801836,-11621.233289,-1850.514855,1455.581446
2913.802173,-9844.739029,-3256.906145,2068.457845
2913.802510,-10288.862594,-3775.050304,4826.401637
2913.802848,-10288.862594,-3034.844362,4826.401637
2913.803185,-9474.636058,-2220.617826,1838.629195
2913.803523,-10288.862594,-370.102971,-1378.971896
2913.803860,-9178.553681,370.102971,-3294.210641
2913.804197,-9696.697840,1850.514855,-1608.800546
2913.804535,-9548.656652,1998.556043,-1685.410096
2913.804872,-9326.594869,1776.494261,-2834.553343
2913.805210,-10807.006753,0.000000,-1225.752797
2913.805547,-10436.903782,-1036.288319,-306.438199
2913.805884,-10214.842000,-3108.864956,1378.971896
2913.806222,-9918.759623,-3034.844362,3600.648841
2913.806559,-8290.306550,-3997.112087,3370.820191
2913.806896,-9622.677246,-2146.597232,2604.724693
2913.807234,-9696.697840,-740.205942,919.314598
2913.807571,-9548.656652,1628.453072,-306.438199
2913.807909,-11029.068536,2812.782580,-459.657299
2913.808246,-10732.986159,3775.050304,-1149.143247
2913.808583,-11473.192101,2960.823768,-76.609550
2913.808921,-12065.356855,740.205942,229.828649
2913.809258,-9474.636058,-444.123565,995.924147
2913.809595,-9696.697840,-2442.679609,3907.087040
2913.809933,-9622.677246,-2220.617826,5209.449386
2913.810270,-9104.533087,-2368.659014,2145.067394
2913.810608,-10881.027347,-518.144159,229.828649
2913.810945,-9474.636058,370.102971,-1915.238745
2913.811282,-9252.574275,592.164754,-2145.067394
2913.811620,-10066.800811,1628.453072,-2528.115143
2913.811957,-9178.553681,1258.350101,-4213.525239
2913.812294,-9992.780217,222.061783,-2374.896044
2913.812632,-10362.883188,-1776.494261,-1762.019645
2913.812969,-9992.780217,-3182.885551,459.657299
2913.813307,-9770.718434,-4367.215058,1762.019645
2913.813644,-8808.450710,-4219.173869,1225.752797
2913.813981,-10288.862594,-3552.988522,1762.019645
2913.814319,-9992.780217,-2146.597232,0.000000
2913.814656,-9474.636058,-1110.308913,-306.438199
2913.814993,-10881.027347,518.144159,0.000000
2913.815331,-10214.842000,2368.659014,-459.657299
2913.815668,-11547.212695,2220.617826,689.485948
2913.816006,-12139.377449,888.247130,1149.143247
2913.816343,-10584.944971,-222.061783,919.314598
2913.816680,-11399.171507,-592.164754,3294.210641
2913.817018,-10732.986159,-740.205942,3217.601092
2913.817355,-9178.553681,-444.123565,1225.752797
2913.817693,-9770.718434,296.082377,76.609550
2913.818030,-8290.306550,1110.308913,-1225.752797
2913.818367,-9474.636058,1554.432478,-229.828649
2913.818705,-10066.800811,2886.803174,-1302.362347
2913.819042,-9252.574275,2516.700203,-2757.943793
2913.819379,-10955.047942,2738.761985,-1225.752797
2913.819717,-9992.780217,1258.350101,-766.095498
2913.820054,-8808.450710,-1258.350101,1149.143247
2913.820392,-9770.718434,-1480.411884,3447.429741
2913.820729,-8142.265362,-2516.700203,2528.115143
2913.821066,-9252.574275,-1110.308913,1685.410096
2913.821404,-10066.800811,-370.102971,306.438199
2913.821741,-10066.800811,0.000000,0.000000
2913.822078,-10288.862594,222.061783,-153.219100
2913.822416,-9474.636058,2368.659014,-995.924147
2913.822753,-10436.903782,1998.556043,0.000000
2913.823091,-11325.150913,1480.411884,229.828649
2913.823428,-10288.862594,666.185348,383.047749
2913.823765,-11769.274478,-296.082377,2604.724693
2913.824103,-11103.089130,-444.123565,2528.115143
2913.824440,-10214.842000,-2072.576638,1838.629195
2913.824777,-11251.130318,-2146.597232,1302.362347
2913.825115,-8734.430116,-2220.617826,-995.924147
2913.825452,-9548.656652,-1702.473667,-995.924147
2913.825790,-9548.656652,-296.082377,-1532.190996
2913.826127,-8512.368333,592.164754,-2834.553343
2913.826464,-10436.903782,-370.102971,-1838.629195
2913.826802,-10214.842000,-740.205942,-2834.553343
2913.827139,-9622.677246,-2516.700203,612.876398
2913.827477,-10807.006753,-3034.844362,2528.115143
2913.827814,-8808.450710,-3108.864956,1378.971896
2913.828151,-10214.842000,-2294.638420,2068.457845
2913.828489,-11029.068536,-2294.638420,1225.752797
2913.828826,-10214.842000,-2072.576638,1072.533697
2913.829163,-10066.800811,-444.123565,306.438199
2913.829501,-8438.347739,666.185348,-383.047749
2913.829838,-9474.636058,1776.494261,842.705048
2913.830176,-10955.047942,1258.350101,459.657299
2913.830513,-10732.986159,1702.473667,0.000000
2913.830850,-11325.150913,1184.329507,1072.533697
2913.831188,-10807.006753,1480.411884,2528.115143
2913.831525,-10140.821405,222.061783,1915.238745
2913.831862,-10362.883188,0.000000,1915.238745
2913.832200,-9030.512492,-74.020594,-919.314598
2913.832537,-9770.718434,-1110.308913,0.000000
2913.832875,-9030.512492,518.144159,-1225.752797
2913.833212,-7846.182985,74.020594,-1915.238745
2913.833549,-10807.006753,1110.308913,-1378.971896
2913.833887,-9400.615463,148.041188,-2757.943793
2913.834224,-9548.656652,-444.123565,-1455.581446
2913.834561,-9918.759623,-1924.535449,1685.410096
2913.834899,-9474.636058,-1258.350101,842.705048
2913.835236,-10362.883188,-2442.679609,842.705048
2913.835574,-10584.944971,-2442.679609,-612.876398
2913.835911,-9178.553681,-3552.988522,766.095498
2913.836248,-10066.800811,-2368.659014,1685.410096
2913.836586,-8364.327145,-1110.308913,612.876398
2913.836923,-9992.780217,0.000000,1302.362347
2913.837261,-11695.253884,1258.350101,1762.019645
2913.837598,-11177.109724,1036.288319,459.657299
2913.837935,-12139.377449,814.226536,1915.238745
2913.838273,-11621.233289,962.267725,2145.067394
2913.838610,-10881.027347,0.000000,1378.971896
2913.838948,-10955.047942,-1406.391290,306.438199
2913.839285,-8882.471304,-1776.494261,0.000000
2913.839622,-9474.636058,-2072.576638,0.000000
2913.839960,-9326.594869,0.000000,-919.314598
2913.840297,-8364.327145,74.020594,-1838.629195
2913.840635,-10214.842000,296.082377,-1378.971896
2913.840972,-9474.636058,814.226536,-1302.362347
2913.841309,-10584.944971,740.205942,383.047749
2913.841647,-10955.047942,1480.411884,1302.362347
2913.841984,-10584.944971,444.123565,1608.800546
2913.842322,-11251.130318,1036.288319,1991.848295
2913.842659,-9992.780217,-888.247130,995.924147
2913.842997,-9474.636058,-1110.308913,2145.067394
2913.843334,-9178.553681,-888.247130,1072.533697
2913.843671,-7994.224174,592.164754,612.876398
2913.844009,-9474.636058,2664.741391,306.438199
2913.844346,-10140.821405,3627.009116,-383.047749
2913.844684,-9992.780217,3256.906145,-306.438199
2913.845021,-11769.274478,3627.009116,1378.971896
2913.845359,-11769.274478,2960.823768,2528.115143
2913.845696,-10584.944971,1776.494261,1838.629195
2913.846033,-9918.759623,0.000000,919.314598
2913.846371,-9252.574275,-2516.700203,1225.752797
2913.846708,-9252.574275,-2960.823768,459.657299
2913.847046,-7772.162391,-1332.370696,-1225.752797
2913.847383,-8364.327145,-740.205942,-2528.115143
2913.847721,-8956.491898,0.000000,-2757.943793
2913.848058,-9326.594869,222.061783,-4290.134789
2913.848395,-9992.780217,148.041188,-1608.800546
2913.848733,-10658.965565,222.061783,766.095498
2913.849070,-11251.130318,-370.102971,2221.676944
2913.849408,-11843.295072,-1406.391290,1378.971896
2913.849745,-10658.965565,-3701.029710,766.095498
2913.850082,-10881.027347,-5329.482782,2451.505594
2913.850420,-9548.656652,-4441.235652,2145.067394
2913.850757,-8512.368333,-2738.761985,612.876398
2913.851095,-8956.491898,-444.123565,0.000000
2913.851432,-9844.739029,1332.370696,-2145.067394
2913.851770,-10214.842000,2220.617826,-1149.143247
2913.852107,-11695.253884,2146.597232,919.314598
2913.852444,-10807.006753,3404.947333,1455.581446
2913.852782,-12065.356855,1850.514855,1225.752797
2913.853119,-12287.418637,0.000000,1455.581446
2913.853457,-10436.903782,-2442.679609,689.485948
2913.853794,-9104.533087,-2960.823768,2298.286494
2913.854132,-7550.100608,-2146.597232,842.705048
2913.854469,-6809.894666,-2294.638420,-1608.800546
2913.854806,-8438.347739,-592.164754,-2374.896044
2913.855144,-8068.244768,296.082377,-2221.676944
2913.855481,-10362.883188,1628.453072,-459.657299
2913.855819,-10807.006753,3034.844362,0.000000
2913.856156,-10955.047942,2590.720797,76.609550
2913.856494,-11769.274478,814.226536,995.924147
2913.856831,-11473.192101,-2072.576638,1072.533697
2913.857168,-9696.697840,-4589.276840,3753.867940
2913.857506,-9178.553681,-4219.173869,3524.039291
2913.857843,-8512.368333,-3404.947333,1762.019645
2913.858181,-9474.636058,-1480.411884,0.000000
2913.858518,-9030.512492,0.000000,-1838.629195
2913.858855,-8882.471304,2368.659014,-842.705048
2913.859193,-11547.212695,3182.885551,919.314598
2913.859530,-12213.398043,4071.132681,76.609550
2913.859868,-13249.686362,3404.947333,0.000000
2913.860205,-13175.665768,-148.041188,-919.314598
2913.860543,-9918.759623,-2960.823768,1608.800546
2913.860880,-9622.677246,-4737.318029,2987.772442
2913.861217,-8142.265362,-4515.256246,1608.800546
2913.861555,-7476.080014,-3849.070898,-1762.019645
2913.861892,-8290.306550,-1998.556043,-2834.553343
2913.862230,-8142.265362,-444.123565,-4136.915689
2913.862567,-9844.739029,1554.432478,-1302.362347
2913.862905,-11473.192101,3330.926739,-995.924147
2913.863242,-10510.924376,2368.659014,-1608.800546
2913.863579,-11991.336260,740.205942,306.438199
2913.863917,-11029.068536,-1776.494261,2604.724693
2913.864254,-11029.068536,-3552.988522,5056.230287
2913.864592,-9992.780217,-3478.967927,4673.182538
2913.864929,-7698.141797,-2738.761985,2298.286494
2913.865266,-7772.162391,-1406.391290,919.314598
2913.865604,-7772.162391,1036.288319,-536.266849
2913.865941,-8364.327145,4441.235652,459.657299
2913.866279,-11325.150913,5847.626942,-766.095498
2913.866616,-11917.315666,7105.977043,-1532.190996
2913.866954,-14063.912898,5403.503377,-1608.800546
2913.867291,-13175.665768,2886.803174,-689.485948
2913.867628,-9548.656652,-814.226536,1302.362347
2913.867966,-8586.388927,-3108.864956,3677.258390
2913.868303,-7328.038826,-3182.885551,3830.477490
2913.868641,-7624.121203,-3034.844362,1762.019645
2913.868978,-9178.553681,-962.267725,-1225.752797
2913.869316,-8364.327145,444.123565,-3370.820191
2913.869653,-10436.903782,2664.741391,-1378.971896
2913.869990,-11473.192101,4885.359217,-2451.505594
2913.870328,-10362.883188,3997.112087,-3217.601092
2913.870665,-11695.253884,1258.350101,-153.219100
2913.871003,-11325.150913,-2294.638420,1302.362347
2913.871340,-10214.842000,-4219.173869,3907.087040
2913.871678,-10140.821405,-4145.153275,4749.792088
2913.872015,-9326.594869,-5477.523971,3983.696590
2913.872352,-8438.347739,-3627.009116,1225.752797
2913.872690,-8068.244768,-1628.453072,-1149.143247
2913.873027,-8290.306550,962.267725,-76.609550
2913.873365,-10288.862594,3552.988522,459.657299
2913.873702,-12139.377449,5625.565159,-1072.533697
2913.874039,-13619.789333,3775.050304,-2374.896044
2913.874377,-13101.645173,666.185348,-1302.362347
2913.874714,-10658.965565,-2590.720797,1302.362347
2913.875052,-9474.636058,-3775.050304,3907.087040
2913.875389,-8216.285956,-5033.400406,2987.772442
2913.875727,-7402.059420,-4589.276840,612.876398
2913.876064,-8734.430116,-3034.844362,-1838.629195
2913.876401,-8216.285956,-814.226536,-2145.067394
2913.876739,-9400.615463,962.267725,-842.705048
2913.877076,-11103.089130,4737.318029,-2145.067394
2913.877414,-11843.295072,4441.235652,-2757.943793
2913.877751,-11991.336260,1998.556043,-1302.362347
2913.878089,-10955.047942,-1110.308913,1302.362347
2913.878426,-10732.986159,-3108.864956,4366.744339
2913.878763,-9474.636058,-3627.009116,5515.887586
2913.879101,-7846.182985,-5477.523971,4290.134789
2913.879438,-8438.347739,-3404.947333,2604.724693
2913.879776,-7402.059420,-1332.370696,0.000000
2913.880113,-7328.038826,1702.473667,-612.876398
2913.880451,-9844.739029,4737.318029,0.000000
2913.880788,-11695.253884,6291.750507,-2298.286494
2913.881125,-13101.645173,5181.441594,-3600.648841
2913.881463,-12805.562797,1850.514855,-2298.286494
2913.881800,-10955.047942,-1406.391290,1225.752797
2913.882138,-9992.780217,-3997.112087,3830.477490
2913.882475,-9252.574275,-4071.132681,3600.648841
2913.882812,-9030.512492,-5625.565159,995.924147
2913.883150,-9548.656652,-4441.235652,-1608.800546
2913.883487,-8068.244768,-3552.988522,-2528.115143
2913.883825,-9252.574275,-444.123565,-1378.971896
2913.884162,-9400.615463,3701.029710,-3524.039291
2913.884500,-10658.965565,3775.050304,-4519.963438
2913.884837,-13027.624579,2442.679609,-2528.115143
2913.885174,-11695.253884,-1036.288319,-612.876398
2913.885512,-11621.233289,-2886.803174,3217.601092
2913.885849,-10732.986159,-4663.297435,4903.011187
2913.886187,-9770.718434,-5847.626942,5669.106685
2913.886524,-9326.594869,-5329.482782,4826.401637
2913.886862,-7328.038826,-2886.803174,0.000000
2913.887199,-6957.935855,0.000000,0.000000
2913.887536,-9252.574275,3552.988522,-536.266849
2913.887874,-10362.883188,6291.750507,-2451.505594
2913.888211,-13249.686362,6883.915261,-3983.696590
2913.888549,-12731.542202,4367.215058,-4673.182538
2913.888886,-9696.697840,2664.741391,-2451.505594
2913.889223,-9474.636058,-1480.411884,1991.848295
2913.889561,-9030.512492,-2442.679609,3447.429741
2913.889898,-7920.203579,-2812.782580,4519.963438
2913.890236,-9252.574275,-3849.070898,2221.676944
2913.890573,-9252.574275,-2368.659014,612.876398
2913.890911,-9474.636058,296.082377,-536.266849
2913.891248,-9548.656652,4737.318029,-1302.362347
2913.891585,-11547.212695,4885.359217,-1608.800546
2913.891923,-12805.562797,6217.729913,-1915.238745
2913.892260,-11399.171507,1850.514855,-2757.943793
2913.892598,-11177.109724,-222.061783,306.438199
2913.892935,-10066.800811,-2590.720797,4060.306139
2913.893273,-9030.512492,-4293.194464,5286.058936
2913.893610,-8882.471304,-4737.318029,4060.306139
2913.893947,-7772.162391,-4145.153275,2145.067394
2913.894285,-8586.388927,-814.226536,1072.533697
2913.894622,-9770.718434,2072.576638,0.000000
2913.894960,-9178.553681,5551.544565,-2451.505594
2913.895297,-12065.356855,5773.606348,-2834.553343
2913.895635,-12953.603985,4663.297435,-3447.429741
2913.895972,-11177.109724,888.247130,-2834.553343
2913.896309,-11251.130318,-1702.473667,1838.629195
2913.896647,-10066.800811,-4737.318029,3447.429741
2913.896984,-8512.368333,-5625.565159,1915.238745
2913.897322,-8290.306550,-5625.565159,1915.238745
2913.897659,-8586.388927,-4737.318029,1149.143247
2913.897996,-9474.636058,-2368.659014,1762.019645
2913.898334,-9770.718434,2072.576638,-1685.410096
2913.898671,-10584.944971,4811.338623,-3983.696590
2913.899009,-12731.542202,4441.235652,-3524.039291
2913.899346,-11695.253884,2294.638420,-2145.067394
2913.899684,-10658.965565,-666.185348,1072.533697
2913.900021,-10510.924376,-1850.514855,4366.744339
2913.900358,-9992.780217,-4219.173869,5056.230287
2913.900696,-9696.697840,-4515.256246,4060.306139
2913.901033,-9252.574275,-4441.235652,4596.572988
2913.901371,-7698.141797,-2368.659014,2834.553343
2913.901708,-7846.182985,1850.514855,689.485948
2913.902046,-9178.553681,4737.318029,-2145.067394
2913.902383,-11399.171507,6809.894666,-1838.629195
2913.902720,-12361.439231,5921.647536,-4596.572988
2913.903058,-10955.047942,3404.947333,-4366.744339
2913.903395,-11251.130318,-888.247130,-1762.019645
2913.903733,-9770.718434,-3552.988522,2145.067394
2913.904070,-7994.224174,-5699.585753,2451.505594
2913.904408,-7476.080014,-6439.791695,2145.067394
2913.904745,-7698.141797,-6883.915261,919.314598
2913.905082,-9548.656652,-3404.947333,1762.019645
2913.905420,-9992.780217,296.082377,-229.828649
2913.905757,-10066.800811,3701.029710,-3064.381992
2913.906095,-11917.315666,4515.256246,-3677.258390
2913.906432,-12213.398043,2368.659014,-3524.039291
2913.906769,-11251.130318,-148.041188,-1532.190996
2913.907107,-10658.965565,-2294.638420,2221.676944
2913.907444,-10510.924376,-4293.194464,3294.210641
2913.907782,-9918.759623,-5773.606348,3140.991542
2913.908119,-9696.697840,-6439.791695,3370.820191
2913.908457,-8808.450710,-5477.523971,3140.991542
2913.908794,-8586.388927,-888.247130,919.314598
2913.909131,-8586.388927,2664.741391,-1915.238745
2913.909469,-11251.130318,5773.606348,-2298.286494
2913.909806,-12435.459826,4959.379811,-3370.820191
2913.910144,-11843.295072,3701.029710,-3370.820191
2913.910481,-11695.253884,0.000000,-1455.581446
2913.910819,-10807.006753,-2146.597232,1225.752797
2913.911156,-9326.594869,-4737.318029,3447.429741
2913.911493,-8068.244768,-5477.523971,2604.724693
2913.911831,-7179.997637,-5773.606348,3217.601092
2913.912168,-8364.327145,-3627.009116,2451.505594
2913.912506,-7994.224174,814.226536,153.219100
2913.912843,-8660.409521,4441.235652,-1991.848295
2913.913180,-12065.356855,6735.874072,-2451.505594
2913.913518,-12731.542202,5403.503377,-3524.039291
2913.913855,-11917.315666,3701.029710,-1685.410096
2913.914193,-11251.130318,1258.350101,842.705048
2913.914530,-9770.718434,-2146.597232,4596.572988
2913.914868,-9252.574275,-3034.844362,5439.278036
2913.915205,-7994.224174,-4885.359217,7048.078582
2913.915542,-8660.409521,-3701.029710,5209.449386
2913.915880,-9622.677246,0.000000,1378.971896
2913.916217,-8660.409521,3849.070898,-2145.067394
2913.916555,-10510.924376,6587.832884,-2145.067394
2913.916892,-13175.665768,6883.915261,-2604.724693
2913.917230,-11917.315666,5255.462188,-5592.497135
2913.917567,-10658.965565,2368.659014,-3447.429741
2913.917904,-10658.965565,-1554.432478,76.609550
2913.918242,-10807.006753,-4071.132681,3447.429741
2913.918579,-8512.368333,-6143.709319,1302.362347
2913.918917,-7476.080014,-7328.038826,612.876398
2913.919254,-9400.615463,-5847.626942,2145.067394
2913.919592,-8660.409521,-1628.453072,1149.143247
2913.919929,-9252.574275,2294.638420,-1072.533697
2913.920266,-11621.233289,4515.256246,-3983.696590
2913.920604,-11769.274478,3701.029710,-5209.449386
2913.920941,-12509.480420,1406.391290,-1991.848295
2913.921279,-10510.924376,-814.226536,1532.190996
2913.921616,-9696.697840,-2738.761985,3294.210641
2913.921953,-10510.924376,-4589.276840,4060.306139
2913.922291,-9326.594869,-5107.421000,3294.210641
2913.922628,-8734.430116,-5477.523971,4749.792088
2913.922966,-9474.636058,-1702.473667,3907.087040
2913.923303,-8290.306550,2368.659014,-229.828649
2913.923641,-10881.027347,5995.668130,-2911.162892
2913.923978,-12953.603985,6957.935855,-3907.087040
2913.924315,-11695.253884,4663.297435,-4826.401637
2913.924653,-10288.862594,1924.535449,-3524.039291
2913.924990,-8956.491898,-592.164754,-306.438199
2913.925328,-9622.677246,-3849.070898,2681.334243
2913.925665,-8808.450710,-5477.523971,2374.896044
2913.926003,-7254.018232,-5921.647536,3600.648841
2913.926340,-9400.615463,-5255.462188,4213.525239
2913.926677,-9104.533087,-1554.432478,1991.848295
2913.927015,-9178.553681,1924.535449,-612.876398
2913.927352,-11399.171507,4441.235652,-1608.800546
2913.927690,-11621.233289,3775.050304,-3983.696590
2913.928027,-11325.150913,2442.679609,-2987.772442
2913.928365,-10362.883188,296.082377,-995.924147
2913.928702,-10214.842000,-1776.494261,2221.676944
2913.929039,-9770.718434,-4441.235652,3370.820191
2913.929377,-9400.615463,-5773.606348,3064.381992
2913.929714,-9178.553681,-6143.709319,3830.477490
2913.930052,-10066.800811,-3775.050304,3140.991542
2913.930389,-8882.471304,74.020594,229.828649
2913.930726,-10732.986159,2886.803174,-1608.800546
2913.931064,-11103.089130,4367.215058,-3830.477490
2913.931401,-10881.027347,3701.029710,-4596.572988
2913.931739,-11843.295072,1776.494261,-2834.553343
2913.932076,-10807.006753,-814.226536,-459.657299
2913.932414,-10066.800811,-3923.091493,536.266849
2913.932751,-10584.944971,-4811.338623,1685.410096
2913.933088,-9400.615463,-6661.853478,2757.943793
2913.933426,-9104.533087,-6513.812290,2681.334243
2913.933763,-8660.409521,-3256.906145,1838.629195
2913.934101,-9178.553681,592.164754,536.266849
2913.934438,-10732.986159,3552.988522,-1685.410096
2913.934776,-11621.233289,4441.235652,-2911.162892
2913.935113,-11621.233289,4071.132681,-1608.800546
2913.935450,-11029.068536,2886.803174,-76.609550
2913.935788,-10066.800811,666.185348,2681.334243
2913.936125,-10732.986159,-1332.370696,3370.820191
2913.936463,-9474.636058,-3552.988522,4290.134789
2913.936800,-8808.450710,-3849.070898,5515.887586
2913.937137,-8734.430116,-2442.679609,4136.915689
2913.937475,-7698.141797,1110.308913,1532.190996
2913.937812,-8882.471304,4071.132681,-1532.190996
2913.938150,-10214.842000,6513.812290,-4213.525239
2913.938487,-10881.027347,6439.791695,-5056.230287
2913.938825,-12213.398043,5107.421000,-4060.306139
2913.939162,-10288.862594,2442.679609,-3447.429741
2913.939499,-10732.986159,-1258.350101,-995.924147
2913.939837,-10362.883188,-3627.009116,1608.800546
2913.940174,-8364.327145,-6365.771101,3600.648841
2913.940511,-8808.450710,-5995.668130,4673.182538
2913.940848,-8364.327145,-3775.050304,2681.334243
2913.941186,-9400.615463,-666.185348,995.924147
2913.941523,-11769.274478,3108.864956,-1608.800546
2913.941860,-11251.130318,3775.050304,-3677.258390
2913.942197,-11843.295072,2590.720797,-2681.334243
2913.942535,-11251.130318,2516.700203,-1608.800546
2913.942872,-10436.903782,592.164754,612.876398
2913.943209,-10807.006753,-2664.741391,1991.848295
2913.943546,-9622.677246,-5403.503377,2145.067394
2913.943884,-9622.677246,-6069.688724,4060.306139
2913.944221,-9030.512492,-4515.256246,3677.258390
2913.944558,-8586.388927,-1628.453072,2528.115143
2913.944895,-10214.842000,1184.329507,0.000000
2913.945233,-10584.944971,4737.318029,-2834.553343
2913.945570,-11251.130318,5181.441594,-4136.915689
2913.945907,-11917.315666,3997.112087,-2604.724693
2913.946245,-10732.986159,1406.391290,-2145.067394
2913.946582,-10658.965565,-1184.329507,-306.438199
2913.946919,-9548.656652,-3849.070898,306.438199
2913.947256,-8586.388927,-6587.832884,2374.896044
2913.947594,-8586.388927,-6217.729913,4366.744339
2913.947931,-7179.997637,-3997.112087,3370.820191
2913.948268,-7476.080014,-1036.288319,2221.676944
2913.948605,-10658.965565,2590.720797,995.924147
2913.948943,-10807.006753,4811.338623,-2374.896044
2913.949280,-11991.336260,4737.318029,-1838.629195
2913.949617,-11473.192101,4737.318029,-459.657299
2913.949954,-10807.006753,1850.514855,459.657299
2913.950292,-10807.006753,-666.185348,1455.581446
2913.950629,-9400.615463,-3256.906145,2681.334243
2913.950966,-8438.347739,-4737.318029,3830.477490
2913.951303,-9252.574275,-3923.091493,4060.306139
2913.951641,-8956.491898,-1184.329507,1991.848295
2913.951978,-10510.924376,1332.370696,536.266849
2913.952315,-10436.903782,4071.132681,-2681.334243
2913.952653,-10955.047942,4811.338623,-3217.601092
2913.952990,-12139.377449,3997.112087,-3140.991542
2913.953327,-10362.883188,2738.761985,-4443.353888
2913.953664,-10658.965565,-1332.370696,-1762.019645
2913.954002,-11177.109724,-4515.256246,76.609550
2913.954339,-8364.327145,-7254.018232,1685.410096
2913.954676,-8364.327145,-7698.141797,4826.401637
2913.955013,-7476.080014,-6735.874072,2298.286494
2913.955351,-8438.347739,-3923.091493,995.924147
2913.955688,-10362.883188,0.000000,-766.095498
2913.956025,-9844.739029,2220.617826,-2604.724693
2913.956362,-12287.418637,3256.906145,-1762.019645
2913.956700,-11843.295072,2738.761985,-2221.676944
2913.957037,-10584.944971,1110.308913,-766.095498
2913.957374,-11325.150913,-1702.473667,1915.238745
2913.957711,-9770.718434,-4145.153275,2528.115143
2913.958049,-9326.594869,-4737.318029,3677.258390
2913.958386,-9474.636058,-3849.070898,4826.401637
2913.958723,-8438.347739,-1702.473667,3370.820191
2913.959061,-8956.491898,1184.329507,995.924147
2913.959398,-10288.862594,4071.132681,-2221.676944
2913.959735,-11103.089130,5773.606348,-4060.306139
2913.960072,-12583.501014,5921.647536,-3830.477490
2913.960410,-11029.068536,4515.256246,-3753.867940
2913.960747,-10658.965565,1110.308913,-2451.505594
2913.961084,-10288.862594,-1850.514855,-383.047749
2913.961421,-8290.306550,-4441.235652,2298.286494
2913.961759,-7698.141797,-5107.421000,4366.744339
2913.962096,-7105.977043,-5033.400406,4060.306139
2913.962433,-8364.327145,-1776.494261,4060.306139
2913.962770,-10807.006753,1628.453072,1149.143247
2913.963108,-10807.006753,4219.173869,-842.705048
2913.963445,-12287.418637,5033.400406,-1378.971896
2913.963782,-11325.150913,5033.400406,-2068.457845
2913.964119,-9844.739029,2886.803174,-1991.848295
2913.964457,-10658.965565,-296.082377,229.828649
2913.964794,-9548.656652,-2664.741391,1838.629195
2913.965131,-8734.430116,-3923.091493,3600.648841
2913.965468,-9474.636058,-3701.029710,3907.087040
2913.965806,-8438.347739,-2368.659014,1838.629195
2913.966143,-10362.883188,74.020594,919.314598
2913.966480,-10510.924376,2442.679609,-1302.362347
2913.966818,-10362.883188,4219.173869,-2528.115143
2913.967155,-12435.459826,4737.318029,-2604.724693
2913.967492,-11473.192101,3108.864956,-3064.381992
2913.967829,-11325.150913,-592.164754,-2145.067394
2913.968167,-11177.109724,-2146.597232,153.219100
2913.968504,-9252.574275,-5847.626942,1915.238745
2913.968841,-8216.285956,-5699.585753,4290.134789
2913.969178,-7772.162391,-5329.482782,3294.210641
2913.969516,-8734.430116,-2664.741391,2451.505594
2913.969853,-10436.903782,74.020594,689.485948
2913.970190,-10658.965565,1924.535449,-1072.533697
2913.970527,-11843.295072,4293.194464,-1608.800546
2913.970865,-10732.986159,4515.256246,-2528.115143
2913.971202,-10066.800811,3330.926739,0.000000
2913.971539,-10584.944971,740.205942,766.095498
2913.971876,-9844.739029,-1850.514855,2068.457845
2913.972214,-9548.656652,-2516.700203,3983.696590
2913.972551,-9178.553681,-2516.700203,3983.696590
2913.972888,-8364.327145,-1850.514855,3370.820191
2913.973226,-9844.739029,-222.061783,1532.190996
2913.973563,-9104.533087,2590.720797,-1838.629195
2913.973900,-10066.800811,3997.112087,-3140.991542
2913.974237,-11399.171507,5477.523971,-4213.525239
2913.974575,-10066.800811,3775.050304,-5286.058936
2913.974912,-10510.924376,1480.411884,-3907.087040
2913.975249,-9918.759623,-1924.535449,-1532.190996
2913.975586,-9474.636058,-4367.215058,1532.190996
2913.975924,-9178.553681,-5329.482782,3830.477490
2913.976261,-8956.491898,-5477.523971,4519.963438
2913.976598,-9178.553681,-3849.070898,3600.648841
2913.976935,-10214.842000,-2072.576638,383.047749
2913.977273,-10288.862594,-148.041188,0.000000
2913.977610,-10955.047942,1998.556043,-689.485948
2913.977947,-9992.780217,2072.576638,-2757.943793
2913.978284,-11103.089130,2220.617826,-1532.190996
2913.978622,-11399.171507,-592.164754,-1378.971896
2913.978959,-10288.862594,-2368.659014,536.266849
2913.979296,-9918.759623,-4515.256246,3370.820191
2913.979634,-9252.574275,-4515.256246,3370.820191
2913.979971,-8882.471304,-3404.947333,3600.648841
2913.980308,-10732.986159,-2812.782580,2068.457845
2913.980645,-10066.800811,-444.123565,-306.438199
2913.980983,-10658.965565,1850.514855,-1532.190996
2913.981320,-11177.109724,3552.988522,-2374.896044
2913.981657,-10288.862594,3182.885551,-3753.867940
2913.981994,-11473.192101,1258.350101,-2451.505594
2913.982332,-10436.903782,-666.185348,-2451.505594
2913.982669,-9252.574275,-2886.803174,0.000000
2913.983006,-10140.821405,-3552.988522,3294.210641
2913.983343,-8290.306550,-4293.194464,3140.991542
2913.983681,-8956.491898,-2812.782580,4060.306139
2913.984018,-9622.677246,-962.267725,2757.943793
2913.984355,-9252.574275,1406.391290,1378.971896
2913.984692,-10955.047942,3182.885551,536.266849
2913.985030,-10510.924376,5181.441594,-1455.581446
2913.985367,-11325.150913,4145.153275,-766.095498
2913.985704,-11029.068536,3330.926739,-536.266849
2913.986042,-9252.574275,1184.329507,689.485948
2913.986379,-9474.636058,-222.061783,2451.505594
2913.986716,-8660.409521,-1332.370696,2834.553343
2913.987053,-8660.409521,-1258.350101,2681.334243
2913.987391,-10584.944971,-1110.308913,1838.629195
2913.987728,-10066.800811,592.164754,0.000000
2913.988065,-10066.800811,1924.535449,-1455.581446
2913.988402,-10732.986159,3330.926739,-2221.676944
2913.988740,-9622.677246,3923.091493,-3370.820191
2913.989077,-11029.068536,592.164754,-2911.162892
2913.989414,-9770.718434,0.000000,-3140.991542
2913.989751,-9770.718434,-2812.782580,-689.485948
2913.990089,-11103.089130,-3182.885551,2068.457845
2913.990426,-8512.368333,-4367.215058,1685.410096
2913.990763,-9548.656652,-3849.070898,2298.286494
2913.991100,-9844.739029,-2664.741391,1378.971896
2913.991438,-9474.636058,-1850.514855,689.485948
2913.991775,-11843.295072,888.247130,1302.362347
2913.992112,-10658.965565,2072.576638,-689.485948
2913.992449,-10955.047942,2220.617826,0.000000
2913.992787,-11695.253884,1184.329507,612.876398
2913.993124,-10436.903782,0.000000,1302.362347
2913.993461,-10584.944971,-1480.411884,2451.505594
2913.993799,-9474.636058,-1332.370696,2834.553343
2913.994136,-9178.553681,-1332.370696,2145.067394
2913.994473,-10510.924376,-740.205942,689.485948
2913.994810,-9252.574275,148.041188,-459.657299
2913.995148,-9548.656652,1036.288319,-689.485948
2913.995485,-10140.821405,3034.844362,-2374.896044
2913.995822,-9770.718434,3478.967927,-2911.162892
2913.996159,-11251.130318,1924.535449,-2145.067394
2913.996497,-10066.800811,814.226536,-1072.533697
2913.996834,-9696.697840,-888.247130,842.705048
2913.997171,-9770.718434,-1480.411884,2681.334243
2913.997508,-8438.347739,-2072.576638,2834.553343
2913.997846,-9844.739029,-2368.659014,3370.820191
2913.998183,-10066.800811,-814.226536,919.314598
2913.998520,-9844.739029,-888.247130,153.219100
2913.998857,-11177.109724,1036.288319,0.000000
2913.999195,-9548.656652,1702.473667,-1915.238745
2913.999532,-9474.636058,1776.494261,-919.314598
2913.999869,-10140.821405,1480.411884,0.000000
2914.000207,-9400.615463,0.000000,0.000000
2914.000544,-11029.068536,-1036.288319,1991.848295
2914.000881,-10807.006753,-2294.638420,2068.457845
2914.001218,-9696.697840,-1850.514855,1378.971896
2914.001556,-11103.089130,-2294.638420,919.314598
2914.001893,-9474.636058,-2294.638420,-153.219100
2914.002230,-9178.553681,-1998.556043,-1378.971896
2914.002567,-9770.718434,-74.020594,-2374.896044
2914.002905,-8660.409521,518.144159,-3370.820191
2914.003242,-10732.986159,-148.041188,-3140.991542
2914.003579,-10955.047942,-296.082377,-2221.676944
2914.003916,-10881.027347,-2294.638420,-766.095498
2914.004254,-10955.047942,-2072.576638,1685.410096
2914.004591,-9474.636058,-3552.988522,2298.286494
2914.004928,-10288.862594,-2738.761985,2604.724693
2914.005265,-10214.842000,-3182.885551,2451.505594
2914.005603,-10214.842000,-2294.638420,1838.629195
2914.005940,-11103.089130,-518.144159,1072.533697
2914.006277,-9474.636058,1110.308913,-689.485948
2914.006615,-9178.553681,1628.453072,0.000000
2914.006952,-9918.759623,2294.638420,0.000000
2914.007289,-9474.636058,1850.514855,536.266849
2914.007626,-10955.047942,1554.432478,1378.971896
2914.007964,-10214.842000,740.205942,1455.581446
2914.008301,-10658.965565,1184.329507,2528.115143
2914.008638,-11399.171507,444.123565,1455.581446
2914.008975,-8882.471304,-444.123565,76.609550
2914.009313,-8438.347739,-592.164754,919.314598
2914.009650,-8882.471304,888.247130,76.609550
2914.009987,-8660.409521,2146.597232,-2145.067394
2914.010324,-10584.944971,1258.350101,-2221.676944
2914.010662,-9770.718434,1332.370696,-1991.848295
2914.010999,-9992.780217,-148.041188,-995.924147
2914.011336,-10584.944971,0.000000,1225.752797
2914.011673,-9104.533087,-518.144159,1302.362347
2914.012011,-10288.862594,-2072.576638,2221.676944
2914.012348,-10436.903782,-2146.597232,919.314598
2914.012685,-10362.883188,-2664.741391,1685.410096
2914.013023,-10732.986159,-1184.329507,2298.286494
2914.013360,-8734.430116,-370.102971,76.609550
2914.013697,-9918.759623,1332.370696,612.876398
2914.014034,-10732.986159,1628.453072,0.000000
2914.014372,-10510.924376,1776.494261,-1302.362347
2914.014709,-11843.295072,962.267725,0.000000
2914.015046,-10732.986159,666.185348,229.828649
2914.015383,-10807.006753,-518.144159,842.705048
2914.015721,-10732.986159,-1480.411884,153.219100
2914.016058,-8808.450710,-1924.535449,0.000000
2914.016395,-10066.800811,-2960.823768,1072.533697
2914.016732,-9474.636058,-1480.411884,-76.609550
2914.017070,-8364.327145,0.000000,-1225.752797
2914.017407,-10732.986159,444.123565,-919.314598
2914.017744,-9548.656652,0.000000,-1225.752797
2914.018081,-10066.800811,-74.020594,-383.047749
2914.018419,-11029.068536,370.102971,1455.581446
2914.018756,-9622.677246,0.000000,1149.143247
2914.019093,-11103.089130,-962.267725,689.485948
2914.019430,-9918.759623,-1480.411884,919.314598
2914.019768,-9622.677246,-2294.638420,1149.143247
2914.020105,-9548.656652,-1110.308913,2145.067394
2914.020442,-7624.121203,0.000000,995.924147
2914.020780,-8956.491898,962.267725,1532.190996
2914.021117,-10066.800811,2886.803174,612.876398
2914.021454,-10510.924376,2738.761985,536.266849
2914.021791,-12583.501014,3256.906145,1302.362347
2914.022129,-11769.274478,2294.638420,1455.581446
2914.022466,-11325.150913,2516.700203,1302.362347
2914.022803,-11103.089130,222.061783,153.219100
2914.023140,-9474.636058,-2220.617826,-229.828649
2914.023478,-9400.615463,-3849.070898,536.266849
2914.023815,-8364.327145,-2368.659014,-536.266849
2914.024152,-7476.080014,-888.247130,-1685.410096
2914.024489,-9548.656652,-444.123565,-1685.410096
2914.024827,-9548.656652,0.000000,-2374.896044
2914.025164,-10288.862594,222.061783,-1302.362347
2914.025501,-11547.212695,1036.288319,-383.047749
2914.025838,-11251.130318,-74.020594,0.000000
2914.026176,-12065.356855,-1924.535449,766.095498
2914.026513,-10510.924376,-4219.173869,1378.971896
2914.026850,-9178.553681,-5107.421000,1838.629195
2914.027188,-9030.512492,-4441.235652,2834.553343
2914.027525,-8290.306550,-3627.009116,1302.362347
2914.027862,-8956.491898,-1702.473667,383.047749
2914.028199,-9918.759623,592.164754,-995.924147
2914.028537,-9770.718434,2146.597232,-689.485948
2914.028874,-11473.192101,2886.803174,153.219100
2914.029211,-11769.274478,3627.009116,229.828649
2914.029548,-11547.212695,2590.720797,-536.266849
2914.029886,-11473.192101,518.144159,-306.438199
2914.030223,-10955.047942,-1776.494261,536.266849
2914.030560,-10214.842000,-3330.926739,1455.581446
2914.030897,-8586.388927,-2738.761985,0.000000
2914.031235,-6439.791695,-2146.597232,-459.657299
2914.031572,-8586.388927,-740.205942,-1302.362347
2914.031909,-8216.285956,0.000000,-1225.752797
2914.032246,-9844.739029,1998.556043,-995.924147
2914.032584,-11399.171507,3775.050304,-689.485948
2914.032921,-11473.192101,3775.050304,-1302.362347
2914.033258,-12879.583391,1406.391290,-153.219100
2914.033596,-11029.068536,-1554.432478,842.705048
2914.033933,-9474.636058,-3182.885551,3140.991542
2914.034270,-8882.471304,-3034.844362,4136.915689
2914.034607,-7846.182985,-3552.988522,3753.867940
2914.034945,-8734.430116,-1406.391290,1608.800546
2914.035282,-8956.491898,592.164754,229.828649
2914.035619,-9474.636058,2072.576638,0.000000
2914.035956,-11399.171507,4219.173869,306.438199
2914.036294,-11843.295072,5181.441594,0.000000
2914.036631,-11547.212695,3923.091493,-1608.800546
2914.036968,-11917.315666,296.082377,-1991.848295
2914.037305,-11029.068536,-2220.617826,689.485948
2914.037643,-9770.718434,-4219.173869,1302.362347
2914.037980,-8364.327145,-4219.173869,1302.362347
2914.038317,-7772.162391,-3923.091493,153.219100
2914.038654,-9030.512492,-2738.761985,-842.705048
2914.038992,-8586.388927,-814.226536,-1225.752797
2914.039329,-10140.821405,1554.432478,0.000000
2914.039666,-11547.212695,4367.215058,-689.485948
2914.040004,-12139.377449,3627.009116,-1455.581446
2914.040341,-13397.727550,1406.391290,-995.924147
2914.040678,-11547.212695,-1628.453072,0.000000
2914.041015,-9992.780217,-3034.844362,3447.429741
2914.041353,-9474.636058,-3627.009116,3753.867940
2914.041690,-8068.244768,-3330.926739,2298.286494
2914.042027,-8142.265362,-2664.741391,2451.505594
2914.042364,-7624.121203,148.041188,1149.143247
2914.042702,-8364.327145,3330.926739,0.000000
2914.043039,-11103.089130,6217.729913,-383.047749
2914.043376,-12139.377449,7031.956449,-2528.115143
2914.043713,-13101.645173,5403.503377,-2987.772442
2914.044051,-12065.356855,2368.659014,-2528.115143
2914.044388,-9400.615463,-1776.494261,-1149.143247
2914.044725,-9326.594869,-4293.194464,1991.848295
2914.045062,-7105.977043,-4885.359217,2757.943793
2914.045399,-6587.832884,-4737.318029,2221.676944
2914.045737,-8142.265362,-3330.926739,842.705048
2914.046074,-8734.430116,-444.123565,-995.924147
2914.046411,-10732.986159,1554.432478,-1455.581446
2914.046748,-11843.295072,4367.215058,-1225.752797
2914.047086,-11991.336260,3775.050304,-2757.943793
2914.047423,-12583.501014,1332.370696,-3064.381992
2914.047760,-10807.006753,-1480.411884,-2451.505594
2914.048097,-10584.944971,-4885.359217,1685.410096
2914.048435,-9918.759623,-5107.421000,3140.991542
2914.048772,-7624.121203,-6365.771101,3140.991542
2914.049109,-9326.594869,-5995.668130,3753.867940
2914.049446,-8660.409521,-3627.009116,1378.971896
2914.049784,-8660.409521,0.000000,153.219100
2914.050121,-11251.130318,3552.988522,229.828649
2914.050458,-11917.315666,4737.318029,-383.047749
2914.050795,-13841.851115,4293.194464,-842.705048
2914.051133,-13989.892304,592.164754,-1532.190996
2914.051470,-10436.903782,-2294.638420,-1991.848295
2914.051807,-10584.944971,-4293.194464,2374.896044
2914.052144,-8512.368333,-5625.565159,3524.039291
2914.052482,-5477.523971,-5921.647536,1991.848295
2914.052819,-7846.182985,-4293.194464,76.609550
2914.053156,-7105.977043,-1998.556043,-1225.752797
2914.053493,-9178.553681,1702.473667,-306.438199
2914.053831,-11325.150913,5329.482782,229.828649
2914.054168,-12435.459826,5477.523971,-1991.848295
2914.054505,-13619.789333,3182.885551,-2451.505594
2914.054842,-11547.212695,0.000000,-1302.362347
2914.055180,-9918.759623,-2220.617826,3217.601092
2914.055517,-9400.615463,-3627.009116,5209.449386
2914.055854,-7254.018232,-4811.338623,4596.572988
2914.056191,-8512.368333,-3701.029710,4596.572988
2914.056529,-8438.347739,-740.205942,1455.581446
2914.056866,-8290.306550,2516.700203,0.000000
2914.057203,-11103.089130,6143.709319,0.000000
2914.057540,-11991.336260,7994.224174,-1991.848295
2914.057878,-13693.809927,6513.812290,-3294.210641
2914.058215,-11991.336260,3627.009116,-4596.572988
2914.058552,-9918.759623,296.082377,-2451.505594
2914.058889,-10881.027347,-3182.885551,689.485948
2914.059227,-8660.409521,-4811.338623,1915.238745
2914.059564,-7105.977043,-5773.606348,1532.190996
2914.059901,-8512.368333,-5625.565159,1838.629195
2914.060238,-7698.141797,-3256.906145,0.000000
2914.060576,-9400.615463,0.000000,612.876398
2914.060913,-11399.171507,4293.194464,-1608.800546
2914.061250,-11621.233289,4663.297435,-4060.306139
2914.061587,-13915.871710,3701.029710,-3600.648841
2914.061925,-11695.253884,444.123565,-1762.019645
2914.062262,-9992.780217,-3478.967927,229.828649
2914.062599,-9696.697840,-3997.112087,3140.991542
2914.062936,-8808.450710,-4367.215058,4136.915689
2914.063274,-8586.388927,-5329.482782,3524.039291
2914.063611,-9178.553681,-3478.967927,2987.772442
2914.063948,-8438.347739,-370.102971,3753.867940
2914.064285,-10732.986159,4441.235652,1608.800546
2914.064623,-10658.965565,7105.977043,-1302.362347
2914.064960,-12583.501014,6439.791695,-2681.334243
2914.065297,-13397.727550,3849.070898,-2451.505594
2914.065634,-10807.006753,1480.411884,-1991.848295
2914.065972,-10584.944971,-1776.494261,-383.047749
2914.066309,-9030.512492,-3997.112087,1838.629195
2914.066646,-6883.915261,-4737.318029,3983.696590
2914.066983,-7105.977043,-4885.359217,2221.676944
2914.067321,-7328.038826,-3182.885551,2145.067394
2914.067658,-9030.512492,0.000000,1225.752797
2914.067995,-10510.924376,4367.215058,-229.828649
2914.068332,-11621.233289,6365.771101,-1608.800546
2914.068670,-13619.789333,5477.523971,-1762.019645
2914.069007,-11399.171507,1110.308913,-2451.505594
2914.069344,-10214.842000,-1184.329507,0.000000
2914.069681,-9918.759623,-3182.885551,3140.991542
2914.070019,-8142.265362,-5699.585753,4136.915689
2914.070356,-8512.368333,-5551.544565,3907.087040
2914.070693,-7846.182985,-4663.297435,2221.676944
2914.071030,-7772.162391,-2146.597232,2221.676944
2914.071368,-10214.842000,2516.700203,383.047749
2914.071705,-10732.986159,5477.523971,-1762.019645
2914.072042,-13027.624579,5551.544565,-2911.162892
2914.072379,-13619.789333,4515.256246,-3907.087040
2914.072717,-11103.089130,518.144159,-3447.429741
2914.073054,-12287.418637,-3552.988522,-766.095498
2914.073391,-9474.636058,-5107.421000,1991.848295
2914.073728,-7994.224174,-6809.894666,1532.190996
2914.074066,-8216.285956,-7105.977043,995.924147
2914.074403,-7994.224174,-5995.668130,-153.219100
2914.074740,-9844.739029,-2368.659014,459.657299
2914.075077,-9918.759623,2812.782580,-1608.800546
2914.075415,-10066.800811,5033.400406,-2911.162892
2914.075752,-13323.706956,4515.256246,-2374.896044
2914.076089,-12139.377449,1702.473667,-2451.505594
2914.076426,-10732.986159,-1184.329507,536.266849
2914.076764,-11103.089130,-3108.864956,4136.915689
2914.077101,-9178.553681,-4367.215058,4979.620737
2914.077438,-8734.430116,-5033.400406,4443.353888
2914.077775,-8068.244768,-4219.173869,3370.820191
2914.078113,-6809.894666,-1258.350101,2681.334243
2914.078450,-9178.553681,3775.050304,1532.190996
2914.078787,-9770.718434,7179.997637,-2298.286494
2914.079124,-12139.377449,7920.203579,-3907.087040
2914.079462,-13101.645173,6513.812290,-4290.134789
2914.079799,-10732.986159,3404.947333,-3370.820191
2914.080136,-10066.800811,-296.082377,-1225.752797
2914.080473,-9252.574275,-3182.885551,2145.067394
2914.080811,-8290.306550,-5107.421000,2987.772442
2914.081148,-7920.203579,-5551.544565,2528.115143
2914.081485,-7476.080014,-4219.173869,2528.115143
2914.081822,-9474.636058,-1924.535449,2221.676944
2914.082160,-10436.903782,2664.741391,-536.266849
2914.082497,-9918.759623,5255.462188,-2221.676944
2914.082834,-12731.542202,5181.441594,-1302.362347
2914.083171,-11399.171507,2442.679609,-2757.943793
2914.083509,-11103.089130,-148.041188,-1532.190996
2914.083846,-11621.233289,-2738.761985,1532.190996
2914.084183,-10140.821405,-4737.318029,3830.477490
2914.084520,-9844.739029,-5773.606348,3830.477490
2914.084858,-8586.388927,-5921.647536,2221.676944
2914.085195,-8068.244768,-4885.359217,2911.162892
2914.085532,-9178.553681,-444.123565,2145.067394
2914.085869,-8956.491898,4071.132681,-842.705048
2914.086207,-10807.006753,6217.729913,-2221.676944
2914.086544,-13323.706956,4885.359217,-3140.991542
2914.086881,-12287.418637,2664.741391,-3983.696590
2914.087218,-11843.295072,-666.185348,-842.705048
2914.087556,-11029.068536,-3256.906145,1455.581446
2914.087893,-8586.388927,-5329.482782,2528.115143
2914.088230,-7994.224174,-6291.750507,2221.676944
2914.088567,-7920.203579,-5255.462188,2374.896044
2914.088905,-7994.224174,-3775.050304,1838.629195
2914.089242,-8660.409521,1776.494261,383.047749
2914.089579,-10066.800811,5033.400406,-1149.143247
2914.089916,-12509.480420,6809.894666,-2068.457845
2914.090254,-12731.542202,4737.318029,-3064.381992
2914.090591,-11991.336260,2072.576638,-995.924147
2914.090928,-10732.986159,740.205942,1838.629195
2914.091265,-9992.780217,-2442.679609,3370.820191
2914.091603,-9548.656652,-3627.009116,4136.915689
2914.091940,-7698.141797,-5107.421000,3753.867940
2914.092277,-7031.956449,-2886.803174,3600.648841
2914.092614,-9252.574275,814.226536,2528.115143
2914.092952,-8956.491898,5107.421000,-842.705048
2914.093289,-10732.986159,7476.080014,-3294.210641
2914.093626,-13471.748144,6587.832884,-3447.429741
2914.093963,-11547.212695,4219.173869,-4979.620737
2914.094301,-11547.212695,1480.411884,-3753.867940
2914.094638,-10955.047942,-2738.761985,-842.705048
2914.094975,-9178.553681,-4811.338623,1378.971896
2914.095312,-8438.347739,-7624.121203,1991.848295
2914.095650,-7179.997637,-7698.141797,1685.410096
2914.095987,-7550.100608,-6809.894666,1685.410096
2914.096324,-9400.615463,-2294.638420,995.924147
2914.096661,-9252.574275,2590.720797,-1378.971896
2914.096999,-11251.130318,4663.297435,-2528.115143
2914.097336,-12805.562797,3627.009116,-2451.505594
2914.097673,-12657.521608,296.082377,-1455.581446
2914.098010,-12065.356855,-962.267725,995.924147
2914.098348,-11621.233289,-3997.112087,3524.039291
2914.098685,-10214.842000,-4663.297435,3677.258390
2914.099022,-8364.327145,-6513.812290,3907.087040
2914.099359,-7698.141797,-5921.647536,3370.820191
2914.099697,-8364.327145,-2368.659014,3370.820191
2914.100034,-8438.347739,2294.638420,0.000000
2914.100371,-10436.903782,6217.729913,-2221.676944
2914.100708,-12509.480420,6513.812290,-4060.306139
2914.101046,-12879.583391,6069.688724,-3677.258390
2914.101383,-12509.480420,2146.597232,-2757.943793
2914.101720,-9844.739029,296.082377,-689.485948
2914.102057,-9622.677246,-3701.029710,1762.019645
2914.102395,-8734.430116,-4885.359217,3447.429741
2914.102732,-6365.771101,-6883.915261,2911.162892
2914.103069,-8068.244768,-5551.544565,4443.353888
2914.103406,-7920.203579,-1332.370696,2221.676944
2914.103744,-8660.409521,3256.906145,-76.609550
2914.104081,-11325.150913,6735.874072,-1991.848295
2914.104418,-11917.315666,5403.503377,-3830.477490
2914.104755,-11843.295072,4145.153275,-3140.991542
2914.105093,-10807.006753,2590.720797,-1072.533697
2914.105430,-10955.047942,-1036.288319,1149.143247
2914.105767,-10510.924376,-3182.885551,3370.820191
2914.106104,-9104.533087,-5107.421000,3217.601092
2914.106442,-8068.244768,-6291.750507,4596.572988
2914.106779,-8660.409521,-2886.803174,3064.381992
2914.107116,-8142.265362,1036.288319,1072.533697
2914.107453,-10362.883188,4959.379811,-1838.629195
2914.107791,-11991.336260,6069.688724,-3447.429741
2914.108128,-13397.727550,4885.359217,-4213.525239
2914.108465,-12657.521608,2294.638420,-4443.353888
2914.108802,-10510.924376,518.144159,-2451.505594
2914.109140,-11177.109724,-4441.235652,-919.314598
2914.109477,-9918.759623,-6291.750507,689.485948
2914.109814,-6587.832884,-7624.121203,1991.848295
2914.110151,-7698.141797,-7105.977043,3830.477490
2914.110489,-8142.265362,-3997.112087,2068.457845
2914.110826,-8512.368333,296.082377,612.876398
2914.111163,-11251.130318,4441.235652,-766.095498
2914.111500,-12361.439231,4737.318029,-2757.943793
2914.111838,-13767.830521,3849.070898,-1072.533697
2914.112175,-11621.233289,2294.638420,-536.266849
2914.112512,-9992.780217,-296.082377,2068.457845
2914.112849,-10881.027347,-2220.617826,3753.867940
2914.113187,-9178.553681,-4219.173869,3753.867940
2914.113524,-7772.162391,-5773.606348,3830.477490
2914.113861,-8290.306550,-2812.782580,4290.134789
2914.114198,-6883.915261,1480.411884,1915.238745
2914.114536,-9030.512492,4589.276840,-842.705048
2914.114873,-11103.089130,7402.059420,-3140.991542
2914.115210,-12583.501014,6809.894666,-3830.477490
2914.115547,-13249.686362,5329.482782,-3983.696590
2914.115885,-10955.047942,2220.617826,-3217.601092
2914.116222,-10955.047942,-1258.350101,76.609550
2914.116559,-9844.739029,-4737.318029,1915.238745
2914.116896,-7476.080014,-7105.977043,2911.162892
2914.117233,-6883.915261,-6809.894666,4903.011187
2914.117571,-7772.162391,-3552.988522,2911.162892
2914.117908,-8586.388927,-74.020594,536.266849
2914.118245,-11399.171507,3701.029710,-1685.410096
2914.118582,-11769.274478,4959.379811,-3370.820191
2914.118920,-12657.521608,3478.967927,-2681.334243
2914.119257,-10732.986159,2442.679609,-2451.505594
2914.119594,-10288.862594,-296.082377,-383.047749
2914.119931,-11103.089130,-2960.823768,2528.115143
2914.120269,-9696.697840,-5699.585753,2757.943793
2914.120606,-8734.430116,-7105.977043,4290.134789
2914.120943,-9030.512492,-5847.626942,3983.696590
2914.121280,-7994.224174,-2664.741391,2374.896044
2914.121618,-9474.636058,962.267725,0.000000
2914.121955,-10214.842000,3552.988522,-2221.676944
2914.122292,-11325.150913,3997.112087,-3294.210641
2914.122629,-13175.665768,3404.947333,-2987.772442
2914.122967,-11473.192101,1628.453072,-3677.258390
2914.123304,-11251.130318,-1480.411884,-1762.019645
2914.123641,-11325.150913,-4145.153275,612.876398
2914.123978,-8734.430116,-6217.729913,2451.505594
2914.124316,-8142.265362,-6439.791695,3677.258390
2914.124653,-7105.977043,-4293.194464,2681.334243
2914.124990,-7698.141797,-1110.308913,2604.724693
2914.125327,-10362.883188,2960.823768,536.266849
2914.125665,-10732.986159,4737.318029,-1532.190996
2914.126002,-13323.706956,5477.523971,-995.924147
2914.126339,-12583.501014,5033.400406,-1455.581446
2914.126676,-11399.171507,3256.906145,-689.485948
2914.127014,-11621.233289,74.020594,1072.533697
2914.127351,-8956.491898,-2886.803174,1762.019645
2914.127688,-6809.894666,-4737.318029,4290.134789
2914.128025,-7179.997637,-4145.153275,4979.620737
2914.128363,-6809.894666,-592.164754,2987.772442
2914.128700,-9400.615463,2072.576638,689.485948
2914.129037,-10584.944971,5181.441594,-2221.676944
2914.129374,-11695.253884,6291.750507,-3447.429741
2914.129712,-12805.562797,5847.626942,-3677.258390
2914.130049,-10732.986159,3182.885551,-4290.134789
2914.130386,-10214.842000,-666.185348,-2757.943793
2914.130723,-10584.944971,-3775.050304,-919.314598
2914.131061,-8956.491898,-6365.771101,1455.581446
2914.131398,-8734.430116,-6735.874072,3907.087040
2914.131735,-7476.080014,-5773.606348,3370.820191
2914.132072,-8660.409521,-3330.926739,2451.505594
2914.132410,-10955.047942,888.247130,229.828649
2914.132747,-10436.903782,3034.844362,-1991.848295
2914.133084,-12435.459826,4145.153275,-1302.362347
2914.133421,-12657.521608,3404.947333,-1838.629195
2914.133759,-11769.274478,1554.432478,-153.219100
2914.134096,-12361.439231,-740.205942,1072.533697
2914.134433,-10214.842000,-4145.153275,2298.286494
2914.134770,-8882.471304,-4515.256246,4366.744339
2914.135108,-8290.306550,-4663.297435,4519.963438
2914.135445,-7624.121203,-2886.803174,2681.334243
2914.135782,-8956.491898,0.000000,612.876398
2914.136119,-9622.677246,3404.947333,-842.705048
2914.136457,-10732.986159,5773.606348,-2528.115143
2914.136794,-13545.768739,5403.503377,-3217.601092
2914.137131,-11547.212695,4441.235652,-4673.182538
2914.137468,-11325.150913,962.267725,-2911.162892
2914.137806,-10288.862594,-1998.556043,-459.657299
2914.138143,-7920.203579,-4959.379811,2298.286494
2914.138480,-7105.977043,-5107.421000,4979.620737
2914.138817,-6661.853478,-4663.297435,4290.134789
2914.139155,-8364.327145,-2072.576638,3447.429741
2914.139492,-10214.842000,1850.514855,1302.362347
2914.139829,-10584.944971,3552.988522,-842.705048
2914.140166,-12657.521608,5625.565159,-1685.410096
2914.140504,-11325.150913,4811.338623,-2987.772442
2914.140841,-10436.903782,3034.844362,-2221.676944
2914.141178,-11177.109724,0.000000,-842.705048
2914.141515,-9844.739029,-2442.679609,689.485948
2914.141853,-9030.512492,-4737.318029,3524.039291
2914.142190,-8364.327145,-4589.276840,3677.258390
2914.142527,-7772.162391,-2960.823768,3217.601092
2914.142865,-10658.965565,-888.247130,1455.581446
2914.143202,-9918.759623,1924.535449,-1685.410096
2914.143539,-10214.842000,3034.844362,-2834.553343
2914.143876,-12583.501014,3701.029710,-2987.772442
2914.144214,-10066.800811,2368.659014,-4903.011187
2914.144551,-10658.965565,-1258.350101,-3447.429741
2914.144888,-11029.068536,-4145.153275,-1225.752797
2914.145226,-9030.512492,-5403.503377,1532.190996
2914.145563,-9770.718434,-6439.791695,4213.525239
2914.145900,-7846.182985,-6365.771101,3294.210641
2914.146237,-8956.491898,-4367.215058,2987.772442
2914.146575,-10140.821405,-1554.432478,2451.505594
2914.146912,-9696.697840,1480.411884,-153.219100
2914.147249,-12213.398043,3552.988522,306.438199
2914.147586,-11843.295072,4293.194464,-1608.800546
2914.147924,-10658.965565,2368.659014,-1225.752797
2914.148261,-11991.336260,962.267725,383.047749
2914.148598,-10214.842000,0.000000,1532.190996
2914.148936,-9178.553681,-2738.761985,2681.334243
2914.149273,-9474.636058,-2960.823768,3064.381992
2914.149610,-7624.121203,-740.205942,3524.039291
2914.149947,-9474.636058,1184.329507,1762.019645
2914.150285,-9548.656652,2960.823768,-612.876398
2914.150622,-10066.800811,3997.112087,-2451.505594
2914.150959,-11843.295072,5403.503377,-2987.772442
2914.151297,-10436.903782,4441.235652,-3447.429741
2914.151634,-10732.986159,1480.411884,-2757.943793
2914.151971,-10140.821405,-740.205942,-995.924147
2914.152308,-8438.347739,-3923.091493,0.000000
2914.152646,-8808.450710,-4663.297435,3524.039291
2914.152983,-7624.121203,-3997.112087,3370.820191
2914.153320,-8364.327145,-2442.679609,2374.896044
2914.153658,-10584.944971,-666.185348,766.095498
2914.153995,-9474.636058,1406.391290,-1072.533697
2914.154332,-11251.130318,2812.782580,-1072.533697
2914.154669,-10658.965565,2664.741391,-1378.971896
2914.155007,-10140.821405,1998.556043,-995.924147
2914.155344,-12139.377449,592.164754,-459.657299
2914.155681,-11473.192101,-1924.535449,536.266849
2914.156019,-10436.903782,-3701.029710,2298.286494
2914.156356,-9622.677246,-3627.009116,3753.867940
2914.156693,-8882.471304,-3627.009116,3140.991542
2914.157030,-10362.883188,-1480.411884,766.095498
2914.157368,-9918.759623,-222.061783,-689.485948
2914.157705,-9992.780217,1776.494261,-1991.848295
2914.158042,-11251.130318,2664.741391,-2145.067394
2914.158380,-10807.006753,1998.556043,-2681.334243
2914.158717,-10807.006753,222.061783,-1532.190996
2914.159054,-10658.965565,-1850.514855,-76.609550
2914.159391,-10066.800811,-3330.926739,1838.629195
2914.159729,-9918.759623,-4145.153275,3370.820191
2914.160066,-8364.327145,-3849.070898,2834.553343
2914.160403,-9104.533087,-2812.782580,3064.381992
2914.160740,-9030.512492,-444.123565,1608.800546
2914.161078,-8512.368333,1110.308913,689.485948
2914.161415,-10732.986159,3627.009116,153.219100
2914.161752,-10510.924376,4071.132681,-2068.457845
2914.162090,-11325.150913,3997.112087,-1378.971896
2914.162427,-11103.089130,2812.782580,0.000000
2914.162764,-9844.739029,74.020594,689.485948
2914.163101,-9844.739029,-1036.288319,3370.820191
2914.163439,-8364.327145,-1554.432478,3217.601092
2914.163776,-8142.265362,-1184.329507,2757.943793
2914.164113,-10362.883188,148.041188,1072.533697
2914.164451,-9844.739029,1332.370696,-995.924147
2914.164788,-10436.903782,1924.535449,-2374.896044
2914.165125,-10510.924376,3330.926739,-3140.991542
2914.165462,-8734.430116,2590.720797,-3677.258390
2914.165800,-10362.883188,444.123565,-2757.943793
2914.166137,-10362.883188,-888.247130,-1685.410096
2914.166474,-10807.006753,-3478.967927,-306.438199
2914.166812,-10955.047942,-3775.050304,1378.971896
2914.167149,-9474.636058,-4367.215058,2145.067394
2914.167486,-9326.594869,-4737.318029,1991.848295
2914.167823,-8586.388927,-3701.029710,229.828649
2914.168161,-9252.574275,-1850.514855,76.609550
2914.168498,-10658.965565,740.205942,-153.219100
2914.168835,-10362.883188,1702.473667,-1149.143247
2914.169173,-11621.233289,1480.411884,-536.266849
2914.169510,-12213.398043,444.123565,-306.438199
2914.169847,-10510.924376,-1258.350101,766.095498
2914.170184,-10288.862594,-2220.617826,2757.943793
2914.170522,-10436.903782,-2590.720797,3294.210641
2914.170859,-9548.656652,-1554.432478,2451.505594
2914.171196,-10214.842000,-1258.350101,919.314598
2914.171534,-9252.574275,0.000000,-536.266849
2914.171871,-9844.739029,444.123565,-689.485948
2914.172208,-10214.842000,2812.782580,-1532.190996
2914.172545,-9326.594869,2368.659014,-2757.943793
2914.172883,-11029.068536,1332.370696,-1915.238745
2914.173220,-9844.739029,0.000000,-1455.581446
2914.173557,-9400.615463,-1184.329507,536.266849
2914.173895,-10066.800811,-2220.617826,2604.724693
2914.174232,-8882.471304,-2072.576638,3140.991542
2914.174569,-9030.512492,-2072.576638,2911.162892
2914.174906,-9104.533087,-370.102971,1762.019645
2914.175244,-9474.636058,-666.185348,1838.629195
2914.175581,-10510.924376,1998.556043,842.705048
2914.175918,-9770.718434,2664.741391,-1378.971896
2914.176255,-10436.903782,2664.741391,306.438199
2914.176593,-10362.883188,1776.494261,-536.266849
2914.176930,-9770.718434,962.267725,-459.657299
2914.177267,-10807.006753,-740.205942,1532.190996
2914.177605,-9770.718434,-1332.370696,919.314598
2914.177942,-9104.533087,-1258.350101,1762.019645
2914.178279,-10955.047942,-1776.494261,995.924147
2914.178616,-9474.636058,-888.247130,-459.657299
2914.178954,-10288.862594,-1258.350101,-995.924147
2914.179291,-10436.903782,370.102971,-1225.752797
2914.179628,-9326.594869,814.226536,-1991.848295
2914.179966,-11325.150913,370.102971,-1685.410096
2914.180303,-10881.027347,-962.267725,-1838.629195
2914.180640,-10732.986159,-2220.617826,-1532.190996
2914.180977,-11695.253884,-1850.514855,1072.533697
2914.181315,-9104.533087,-2886.803174,919.314598
2914.181652,-9844.739029,-3552.988522,1685.410096
2914.181989,-10362.883188,-3330.926739,689.485948
2914.182327,-9030.512492,-2368.659014,766.095498
2914.182664,-10288.862594,0.000000,1455.581446
2914.183001,-9696.697840,962.267725,536.266849
2914.183338,-9992.780217,1480.411884,229.828649
2914.183676,-11325.150913,2368.659014,383.047749
2914.184013,-10140.821405,2294.638420,306.438199
2914.184350,-11029.068536,1110.308913,1915.238745
2914.184688,-10288.862594,1332.370696,1302.362347
2914.185025,-9400.615463,1776.494261,995.924147
2914.185362,-10362.883188,0.000000,612.876398
2914.185699,-7920.203579,-592.164754,-306.438199
2914.186037,-8882.471304,0.000000,0.000000
2914.186374,-9696.697840,1110.308913,-536.266849
2914.186711,-8142.265362,2146.597232,-2221.676944
2914.187049,-10881.027347,1110.308913,-995.924147
2914.187386,-9992.780217,1998.556043,-1762.019645
2914.187723,-9548.656652,-296.082377,0.000000
2914.188060,-11251.130318,0.000000,1378.971896
2914.188398,-9252.574275,-1110.308913,1302.362347
2914.188735,-10510.924376,-1850.514855,2068.457845
2914.189072,-10584.944971,-2516.700203,1608.800546
2914.189409,-8808.450710,-3034.844362,1149.143247
2914.189747,-10066.800811,-962.267725,1225.752797
2914.190084,-9104.533087,-740.205942,-153.219100
2914.190421,-9474.636058,370.102971,0.000000
2914.190759,-10362.883188,592.164754,-612.876398
2914.191096,-10436.903782,444.123565,0.000000
2914.191433,-11991.336260,518.144159,1072.533697
2914.191770,-11251.130318,-740.205942,1378.971896
2914.192108,-10288.862594,-1406.391290,919.314598
2914.192445,-10584.944971,-2220.617826,995.924147
2914.192782,-9696.697840,-2590.720797,766.095498
2914.193120,-10214.842000,-3404.947333,459.657299
2914.193457,-9178.553681,-1332.370696,-995.924147
2914.193794,-8734.430116,-814.226536,-1455.581446
2914.194131,-10732.986159,0.000000,-1455.581446
2914.194469,-9400.615463,-592.164754,-2451.505594
2914.194806,-10214.842000,-592.164754,-919.314598
2914.195143,-10807.006753,0.000000,1608.800546
2914.195481,-10066.800811,518.144159,689.485948
2914.195818,-11621.233289,-666.185348,1455.581446
2914.196155,-11029.068536,-1480.411884,1455.581446
2914.196492,-9548.656652,-2516.700203,2145.067394
2914.196830,-10066.800811,-1332.370696,2681.334243
2914.197167,-7920.203579,-370.102971,1762.019645
2914.197504,-8364.327145,1258.350101,1685.410096
2914.197842,-9252.574275,2886.803174,0.000000
2914.198179,-9474.636058,3701.029710,-995.924147
2914.198516,-11843.295072,3775.050304,76.609550
2914.198853,-11325.150913,2442.679609,383.047749
2914.199191,-10362.883188,2886.803174,0.000000
2914.199528,-10807.006753,222.061783,-612.876398
2914.199865,-9548.656652,-1702.473667,689.485948
2914.200203,-9252.574275,-3182.885551,76.609550
2914.200540,-8586.388927,-1554.432478,-383.047749
2914.200877,-7254.018232,-1110.308913,-995.924147
2914.201214,-9844.739029,-1036.288319,-1072.533697
2914.201552,-9696.697840,222.061783,-1915.238745
2914.201889,-11029.068536,518.144159,-919.314598
2914.202226,-12139.377449,1406.391290,0.000000
2914.202563,-11399.171507,814.226536,-306.438199
2914.202901,-12731.542202,-666.185348,-612.876398
2914.203238,-11103.089130,-2886.803174,459.657299
2914.203575,-10362.883188,-4367.215058,2068.457845
2914.203913,-9844.739029,-4145.153275,2068.457845
2914.204250,-7846.182985,-3034.844362,306.438199
2914.204587,-9326.594869,-1406.391290,1455.581446
2914.204924,-9474.636058,0.000000,1455.581446
2914.205262,-9474.636058,1924.535449,459.657299
2914.205599,-12065.356855,3330.926739,1072.533697
2914.205936,-11843.295072,3404.947333,76.609550
2914.206274,-11399.171507,1998.556043,-306.438199
2914.206611,-12139.377449,296.082377,306.438199
2914.206948,-9622.677246,-2072.576638,536.266849
2914.207285,-8956.491898,-2886.803174,1072.533697
2914.207623,-8142.265362,-2960.823768,536.266849
2914.207960,-6883.915261,-1998.556043,-383.047749
2914.208297,-8290.306550,-1480.411884,-306.438199
2914.208635,-8068.244768,592.164754,-842.705048
2914.208972,-9770.718434,1554.432478,-306.438199
2914.209309,-12213.398043,3923.091493,536.266849
2914.209646,-11843.295072,4071.132681,-612.876398
2914.209984,-12435.459826,1850.514855,-689.485948
2914.210321,-11473.192101,-962.267725,383.047749
2914.210658,-9474.636058,-3478.967927,2298.286494
2914.210996,-8808.450710,-2368.659014,3447.429741
2914.211333,-7772.162391,-2664.741391,3294.210641
2914.211670,-9474.636058,-1480.411884,2374.896044
2914.212007,-10214.842000,-296.082377,0.000000
2914.212345,-9474.636058,2442.679609,-306.438199
2914.212682,-11029.068536,4367.215058,0.000000
2914.213019,-11103.089130,4219.173869,-1608.800546
2914.213357,-11325.150913,2812.782580,-2451.505594
2914.213694,-12657.521608,222.061783,-1915.238745
2914.214031,-10362.883188,-2294.638420,-842.705048
2914.214368,-9770.718434,-4811.338623,689.485948
2914.214706,-8882.471304,-4811.338623,1762.019645
2914.215043,-7031.956449,-4589.276840,459.657299
2914.215380,-8734.430116,-4219.173869,-306.438199
2914.215717,-7698.141797,-2146.597232,-1302.362347
2914.216055,-9548.656652,370.102971,-689.485948
2914.216392,-11843.295072,3108.864956,-1225.752797
2914.216729,-11769.274478,3330.926739,-2834.553343
2914.217067,-12879.583391,1406.391290,-1915.238745
2914.217404,-12361.439231,-1480.411884,-229.828649
2914.217741,-9844.739029,-3552.988522,1915.238745
2914.218078,-9252.574275,-3997.112087,3600.648841
2914.218416,-8586.388927,-4293.194464,3370.820191
2914.218753,-8882.471304,-2738.761985,3370.820191
2914.219090,-8438.347739,-1480.411884,2681.334243
2914.219428,-8364.327145,1850.514855,2451.505594
2914.219765,-10510.924376,5329.482782,612.876398
2914.220102,-11843.295072,7031.956449,-2681.334243
2914.220439,-12953.603985,6143.709319,-2757.943793
2914.220777,-12805.562797,2738.761985,-2834.553343
2914.221114,-9770.718434,148.041188,-1378.971896
2914.221451,-8882.471304,-2812.782580,76.609550
2914.221789,-6809.894666,-4367.215058,1838.629195
2914.222126,-5773.606348,-4663.297435,2528.115143
2914.222463,-7772.162391,-2886.803174,2757.943793
2914.222800,-8734.430116,-1258.350101,1072.533697
2914.223138,-10436.903782,1628.453072,842.705048
2914.223475,-11547.212695,4589.276840,-536.266849
2914.223812,-11917.315666,4663.297435,-1532.190996
2914.224150,-12879.583391,2442.679609,-2528.115143
2914.224487,-11177.109724,-888.247130,-995.924147
2914.224824,-10214.842000,-2664.741391,995.924147
2914.225161,-9326.594869,-4145.153275,2681.334243
2914.225499,-8512.368333,-5107.421000,2068.457845
2914.225836,-8882.471304,-4737.318029,1991.848295
2914.226173,-9252.574275,-2738.761985,1455.581446
2914.226511,-9030.512492,370.102971,1838.629195
2914.226848,-10362.883188,4145.153275,229.828649
2914.227185,-12139.377449,5625.565159,-1685.410096
2914.227522,-13989.892304,4293.194464,-3140.991542
2914.227860,-12879.583391,740.205942,-2374.896044
2914.228197,-11029.068536,-1776.494261,0.000000
2914.228534,-9622.677246,-4441.235652,1149.143247
2914.228871,-7994.224174,-4071.132681,919.314598
2914.229209,-7254.018232,-5403.503377,0.000000
2914.229546,-8734.430116,-4367.215058,-383.047749
2914.229883,-7624.121203,-2294.638420,-383.047749
2914.230221,-9474.636058,518.144159,76.609550
2914.230558,-10584.944971,4441.235652,-1532.190996
2914.230895,-11399.171507,5181.441594,-2757.943793
2914.231232,-13471.748144,2368.659014,-919.314598
2914.231570,-11621.233289,0.000000,-612.876398
2914.231907,-10510.924376,-2294.638420,2834.553343
2914.232244,-9622.677246,-2960.823768,4213.525239
2914.232582,-7994.224174,-4145.153275,3983.696590
2914.232919,-8956.491898,-2886.803174,4443.353888
2914.233256,-8290.306550,-1554.432478,2528.115143
2914.233593,-7550.100608,1406.391290,1072.533697
2914.233931,-9992.780217,5329.482782,0.000000
2914.234268,-11325.150913,7328.038826,-2757.943793
2914.234605,-12361.439231,5551.544565,-3370.820191
2914.234943,-12361.439231,3552.988522,-2604.724693
2914.235280,-11177.109724,0.000000,-459.657299
2914.235617,-10510.924376,-2812.782580,1225.752797
2914.235954,-8438.347739,-4441.235652,1762.019645
2914.236292,-8586.388927,-5403.503377,2681.334243
2914.236629,-8808.450710,-6069.688724,689.485948
2914.236966,-6809.894666,-3923.091493,-612.876398
2914.237304,-8142.265362,-888.247130,0.000000
2914.237641,-9474.636058,3775.050304,-1378.971896
2914.237978,-10732.986159,4367.215058,-3830.477490
2914.238315,-13619.789333,3256.906145,-3830.477490
2914.238653,-12583.501014,-222.061783,-2221.676944
2914.238990,-11547.212695,-3552.988522,1838.629195
2914.239327,-10288.862594,-3256.906145,4443.353888
2914.239665,-9178.553681,-5181.441594,3907.087040
2914.240002,-9326.594869,-4959.379811,3907.087040
2914.240339,-8438.347739,-4367.215058,2221.676944
2914.240676,-8142.265362,-962.267725,1991.848295
2914.241014,-10066.800811,3552.988522,536.266849
2914.241351,-10807.006753,7031.956449,-2451.505594
2914.241688,-12361.439231,6143.709319,-3600.648841
2914.242026,-13101.645173,3997.112087,-3064.381992
2914.242363,-10955.047942,1998.556043,-1225.752797
2914.242700,-11325.150913,-1036.288319,842.705048
2914.243037,-9918.759623,-3182.885551,2451.505594
2914.243375,-8512.368333,-5255.462188,2451.505594
2914.243712,-8660.409521,-4737.318029,1532.190996
2914.244049,-6809.894666,-3552.988522,1149.143247
2914.244387,-7031.956449,-888.247130,536.266849
2914.244724,-9252.574275,4071.132681,-1915.238745
2914.245061,-10288.862594,6291.750507,-3447.429741
2914.245399,-12583.501014,4811.338623,-3370.820191
2914.245736,-11843.295072,3182.885551,-2528.115143
2914.246073,-11769.274478,-666.185348,306.438199
2914.246411,-10436.903782,-1924.535449,3064.381992
2914.246748,-8586.388927,-3997.112087,4443.353888
2914.247085,-8808.450710,-4737.318029,5209.449386
2914.247422,-8068.244768,-4293.194464,3370.820191
2914.247760,-7179.997637,-1998.556043,2298.286494
2914.248097,-9622.677246,2590.720797,842.705048
2914.248434,-10288.862594,5403.503377,-2757.943793
2914.248772,-12805.562797,6809.894666,-3217.601092
2914.249109,-13323.706956,4441.235652,-4366.744339
2914.249446,-10140.821405,1110.308913,-3600.648841
2914.249784,-11547.212695,-2146.597232,229.828649
2914.250121,-10807.006753,-3997.112087,2451.505594
2914.250458,-9252.574275,-6069.688724,2298.286494
2914.250796,-9622.677246,-7105.977043,1532.190996
2914.251133,-7105.977043,-6587.832884,1149.143247
2914.251470,-7994.224174,-3849.070898,1608.800546
2914.251808,-9400.615463,1110.308913,1149.143247
2914.252145,-10436.903782,4589.276840,-1225.752797
2914.252482,-13027.624579,4737.318029,-2221.676944
2914.252819,-12731.542202,2812.782580,-2987.772442
2914.253157,-12287.418637,444.123565,-842.705048
2914.253494,-11769.274478,-1702.473667,2451.505594
2914.253831,-9400.615463,-3478.967927,3524.039291
2914.254169,-8956.491898,-3849.070898,3753.867940
2914.254506,-7772.162391,-4811.338623,3140.991542
2914.254843,-6291.750507,-3034.844362,3524.039291
2914.255181,-7698.141797,1628.453072,2528.115143
2914.255518,-8586.388927,6291.750507,-766.095498
2914.255855,-11769.274478,8142.265362,-2604.724693
2914.256193,-13693.809927,6439.791695,-3677.258390
2914.256530,-12213.398043,4441.235652,-3983.696590
2914.256867,-11473.192101,1628.453072,-1532.190996
2914.257205,-9696.697840,-1702.473667,689.485948
2914.257542,-7846.182985,-4663.297435,1608.800546
2914.257879,-7698.141797,-6143.709319,2834.553343
2914.258217,-6513.812290,-5699.585753,2068.457845
2914.258554,-7698.141797,-3552.988522,1915.238745
2914.258891,-9252.574275,1184.329507,0.000000
2914.259228,-10066.800811,4737.318029,-2221.676944
2914.259566,-13249.686362,5847.626942,-2221.676944
2914.259903,-12361.439231,3997.112087,-4596.572988
2914.260240,-11621.233289,1110.308913,-2757.943793
2914.260578,-12361.439231,-962.267725,1149.143247
2914.260915,-10362.883188,-3775.050304,3217.601092
2914.261252,-9918.759623,-5403.503377,3140.991542
2914.261590,-9178.553681,-6439.791695,2451.505594
2914.261927,-7550.100608,-6513.812290,2987.772442
2914.262264,-8142.265362,-2368.659014,1838.629195
2914.262602,-7772.162391,2294.638420,-153.219100
2914.262939,-11399.171507,5033.400406,-1838.629195
2914.263276,-12805.562797,4737.318029,-4060.306139
2914.263614,-12509.480420,3552.988522,-4443.353888
2914.263951,-13323.706956,0.000000,-1838.629195
2914.264288,-11399.171507,-2294.638420,153.219100
2914.264625,-9104.533087,-5699.585753,1991.848295
2914.264963,-8290.306550,-5551.544565,3064.381992
2914.265300,-7179.997637,-8068.244768,2757.943793
2914.265637,-7698.141797,-6069.688724,3140.991542
2914.265975,-7476.080014,-592.164754,1455.581446
2914.266312,-9030.512492,3627.009116,0.000000
2914.266649,-13471.748144,5773.606348,-1838.629195
2914.266987,-13027.624579,5921.647536,-4060.306139
2914.267324,-13249.686362,3775.050304,-1915.238745
2914.267661,-11917.315666,1110.308913,1378.971896
2914.267999,-9548.656652,-1480.411884,2911.162892
2914.268336,-8808.450710,-2960.823768,5056.230287
2914.268673,-8216.285956,-4515.256246,4979.620737
2914.269011,-7550.100608,-4811.338623,5056.230287
2914.269348,-7624.121203,-592.164754,3753.867940
2914.269685,-7550.100608,3552.988522,919.314598
2914.270022,-11325.150913,7031.956449,-1608.800546
2914.270360,-12435.459826,7772.162391,-3140.991542
2914.270697,-12065.356855,5995.668130,-5439.278036
2914.271034,-11695.253884,3034.844362,-4903.011187
2914.271372,-10658.965565,-222.061783,-2681.334243
2914.271709,-9326.594869,-3108.864956,76.609550
2914.272046,-8142.265362,-6661.853478,612.876398
2914.272384,-6069.688724,-7402.059420,383.047749
2914.272721,-7105.977043,-6883.915261,3600.648841
2914.273058,-8438.347739,-3330.926739,2987.772442
2914.273396,-8734.430116,1184.329507,842.705048
2914.273733,-12213.398043,4663.297435,-1838.629195
2914.274070,-13027.624579,4515.256246,-3907.087040
2914.274408,-13545.768739,1776.494261,-3217.601092
2914.274745,-12361.439231,1036.288319,-383.047749
2914.275082,-10066.800811,-1850.514855,1302.362347
2914.275420,-10066.800811,-4663.297435,2145.067394
2914.275757,-9548.656652,-5995.668130,2451.505594
2914.276094,-7179.997637,-6069.688724,2757.943793
2914.276431,-8660.409521,-3034.844362,2911.162892
2914.276769,-7402.059420,0.000000,1225.752797
2914.277106,-10066.800811,3923.091493,-689.485948
2914.277443,-11843.295072,5625.565159,-2451.505594
2914.277781,-11769.274478,4441.235652,-4519.963438
2914.278118,-14137.933492,3256.906145,-2374.896044
2914.278455,-11991.336260,444.123565,-459.657299
2914.278793,-9844.739029,-1406.391290,689.485948
2914.279130,-9474.636058,-5255.462188,1838.629195
2914.279467,-6883.915261,-6661.853478,2681.334243
2914.279805,-7254.018232,-5921.647536,3294.210641
2914.280142,-7031.956449,-2516.700203,2987.772442
2914.280479,-7994.224174,1554.432478,1149.143247
2914.280817,-11251.130318,4737.318029,-1838.629195
2914.281154,-11769.274478,5921.647536,-3830.477490
2914.281491,-13249.686362,5255.462188,-2145.067394
2914.281828,-12435.459826,3330.926739,-383.047749
2914.282166,-10214.842000,814.226536,383.047749
2914.282503,-10510.924376,-1332.370696,3140.991542
2914.282840,-9474.636058,-5033.400406,3983.696590
2914.283178,-7846.182985,-6365.771101,5439.278036
2914.283515,-7402.059420,-3923.091493,3600.648841
2914.283852,-7031.956449,-296.082377,2834.553343
2914.284190,-10214.842000,3775.050304,0.000000
2914.284527,-10362.883188,4737.318029,-2374.896044
2914.284864,-12287.418637,4367.215058,-4979.620737
2914.285202,-13397.727550,4293.194464,-5209.449386
2914.285539,-11251.130318,1850.514855,-3907.087040
2914.285876,-10955.047942,-3404.947333,-1378.971896
2914.286214,-10214.842000,-5033.400406,306.438199
2914.286551,-7105.977043,-7920.203579,1149.143247
2914.286888,-7624.121203,-7920.203579,3677.258390
2914.287226,-7402.059420,-5625.565159,3983.696590
2914.287563,-8586.388927,-1850.514855,2757.943793
2914.287900,-11251.130318,2590.720797,153.219100
2914.288237,-12213.398043,4515.256246,-2757.943793
2914.288575,-13693.809927,3849.070898,-2068.457845
2914.288912,-12731.542202,2886.803174,-842.705048
2914.289249,-11325.150913,1258.350101,229.828649
2914.289587,-11103.089130,-1628.453072,1149.143247
2914.289924,-9104.533087,-3478.967927,1455.581446
2914.290261,-7179.997637,-6143.709319,3524.039291
2914.290599,-7624.121203,-4367.215058,5515.887586
2914.290936,-6809.894666,-592.164754,3600.648841
2914.291273,-9104.533087,3256.906145,995.924147
2914.291611,-11621.233289,6143.709319,-2834.553343
2914.291948,-12583.501014,6143.709319,-4060.306139
2914.292285,-13101.645173,6143.709319,-3830.477490
2914.292623,-11103.089130,3923.091493,-3524.039291
2914.292960,-10066.800811,0.000000,-2451.505594
2914.293297,-8882.471304,-2664.741391,-612.876398
2914.293634,-7105.977043,-6439.791695,1302.362347
2914.293972,-7328.038826,-7105.977043,4060.306139
2914.294309,-6883.915261,-5181.441594,3830.477490
2914.294646,-7550.100608,-962.267725,2834.553343
2914.294984,-10732.986159,3552.988522,0.000000
2914.295321,-12287.418637,4367.215058,-2298.286494
2914.295658,-13323.706956,4441.235652,-2145.067394
2914.295996,-12879.583391,3701.029710,-1685.410096
2914.296333,-11843.295072,962.267725,0.000000
2914.296670,-11399.171507,-1184.329507,153.219100
2914.297008,-9474.636058,-4515.256246,1149.143247
2914.297345,-8364.327145,-6513.812290,3064.381992
2914.297682,-7105.977043,-5625.565159,3064.381992
2914.298020,-7031.956449,-3478.967927,2298.286494
2914.298357,-9326.594869,-296.082377,1302.362347
2914.298694,-9992.780217,2590.720797,-1225.752797
2914.299031,-11843.295072,4293.194464,-2528.115143
2914.299369,-14211.954086,3701.029710,-2145.067394
2914.299706,-11917.315666,1850.514855,-2298.286494
2914.300043,-11621.233289,-888.247130,0.000000
2914.300381,-11547.212695,-3552.988522,842.705048
2914.300718,-9178.553681,-6365.771101,2068.457845
2914.301055,-8660.409521,-7476.080014,3907.087040
2914.301393,-6365.771101,-4737.318029,4136.915689
2914.301730,-6587.832884,-2960.823768,2451.505594
2914.302067,-10362.883188,1628.453072,995.924147
2914.302405,-10807.006753,4293.194464,-2068.457845
2914.302742,-12879.583391,5255.462188,-2298.286494
2914.303079,-13249.686362,5329.482782,-2068.457845
2914.303417,-11917.315666,3552.988522,-612.876398
2914.303754,-11843.295072,666.185348,1455.581446
2914.304091,-8956.491898,-2368.659014,1915.238745
2914.304429,-7476.080014,-4737.318029,4290.134789
2914.304766,-7698.141797,-3404.947333,4826.401637
2914.305103,-6661.853478,-1184.329507,4136.915689
2914.305440,-9178.553681,1998.556043,842.705048
2914.305778,-9992.780217,3997.112087,-2681.334243
2914.306115,-11103.089130,5921.647536,-4596.572988
2914.306452,-12435.459826,5699.585753,-4903.011187
2914.306790,-10807.006753,3701.029710,-4826.401637
2914.307127,-10436.903782,-296.082377,-3140.991542
2914.307464,-10807.006753,-3404.947333,-1915.238745
2914.307802,-8068.244768,-6365.771101,612.876398
2914.308139,-8882.471304,-7328.038826,4290.134789
2914.308476,-8364.327145,-5699.585753,4060.306139
2914.308814,-8660.409521,-3330.926739,2681.334243
2914.309151,-11177.109724,0.000000,612.876398
2914.309488,-10436.903782,1776.494261,-1762.019645
2914.309826,-12509.480420,3478.967927,-1302.362347
2914.310163,-12065.356855,3330.926739,-1838.629195
2914.310500,-11103.089130,1110.308913,-1532.190996
2914.310837,-12509.480420,-962.267725,76.609550
2914.311175,-10955.047942,-3775.050304,1302.362347
2914.311512,-9326.594869,-5107.421000,2834.553343
2914.311849,-8956.491898,-5107.421000,4519.963438
2914.312187,-7994.224174,-2886.803174,2834.553343
2914.312524,-9252.574275,-740.205942,1991.848295
2914.312861,-9844.739029,1628.453072,0.000000
2914.313199,-10436.903782,3256.906145,-1838.629195
2914.313536,-11473.192101,4145.153275,-2987.772442
2914.313873,-11325.150913,4293.194464,-2834.553343
2914.314211,-11473.192101,1406.391290,-2451.505594
2914.314548,-10362.883188,-2294.638420,-1532.190996
2914.314885,-7772.162391,-4441.235652,612.876398
2914.315223,-7994.224174,-5033.400406,4903.011187
2914.315560,-7179.997637,-3997.112087,4826.401637
2914.315897,-7772.162391,-1850.514855,3140.991542
2914.316235,-10658.965565,1480.411884,1991.848295
2914.316572,-10510.924376,4071.132681,-766.095498
2914.316909,-12139.377449,5033.400406,-1378.971896
2914.317246,-12287.418637,6217.729913,-1838.629195
2914.317584,-11177.109724,3997.112087,-1302.362347
2914.317921,-11991.336260,1332.370696,0.000000
2914.318258,-9770.718434,-1628.453072,459.657299
2914.318596,-8586.388927,-3552.988522,3524.039291
2914.318933,-8364.327145,-3256.906145,3677.258390
2914.319270,-6883.915261,-2146.597232,2221.676944
2914.319608,-9474.636058,-296.082377,1149.143247
2914.319945,-10066.800811,1480.411884,-995.924147
2914.320282,-9992.780217,2590.720797,-3217.601092
2914.320620,-11917.315666,3182.885551,-3677.258390
2914.320957,-10732.986159,2886.803174,-2834.553343
2914.321294,-11399.171507,-1258.350101,-3524.039291
2914.321632,-10955.047942,-2812.782580,-1608.800546
2914.321969,-8956.491898,-5847.626942,766.095498
2914.322306,-9104.533087,-6735.874072,2298.286494
2914.322643,-8438.347739,-5255.462188,2681.334243
2914.322981,-8956.491898,-3997.112087,1915.238745
2914.323318,-9548.656652,-1554.432478,1072.533697
2914.323655,-9844.739029,666.185348,0.000000
2914.323993,-11991.336260,3034.844362,-229.828649
2914.324330,-11695.253884,2960.823768,-1532.190996
2914.324667,-11843.295072,1850.514855,-919.314598
2914.325005,-12657.521608,592.164754,306.438199
2914.325342,-10807.006753,-1776.494261,1532.190996
2914.325679,-9400.615463,-3997.112087,3064.381992
2914.326017,-9252.574275,-2664.741391,3447.429741
2914.326354,-7624.121203,-2146.597232,3140.991542
2914.326691,-9400.615463,-962.267725,1915.238745
2914.327029,-8734.430116,1184.329507,-153.219100
2914.327366,-9474.636058,3552.988522,-1532.190996
2914.327703,-11473.192101,5033.400406,-2451.505594
2914.328040,-11177.109724,4515.256246,-3983.696590
2914.328378,-11695.253884,2442.679609,-2834.553343
2914.328715,-10955.047942,-296.082377,-919.314598
2914.329052,-8586.388927,-3182.885551,306.438199
2914.329390,-8882.471304,-3849.070898,3753.867940
2914.329727,-7994.224174,-3182.885551,4290.134789
2914.330064,-8216.285956,-2220.617826,3600.648841
2914.330402,-9992.780217,0.000000,536.266849
2914.330739,-9400.615463,1406.391290,-1225.752797
2914.331076,-10436.903782,3182.885551,-306.438199
2914.331414,-10658.965565,4663.297435,-766.095498
2914.331751,-11473.192101,3182.885551,-1225.752797
2914.332088,-12805.562797,2072.576638,-766.095498
2914.332426,-11029.068536,-666.185348,-536.266849
2914.332763,-9844.739029,-2960.823768,2604.724693
2914.333100,-8512.368333,-3997.112087,3677.258390
2914.333438,-7402.059420,-3256.906145,2911.162892
2914.333775,-9400.615463,-2664.741391,995.924147
2914.334112,-9474.636058,-1406.391290,-1532.190996
2914.334449,-9844.739029,740.205942,-1608.800546
2914.334787,-11399.171507,2368.659014,-2145.067394
2914.335124,-10362.883188,2664.741391,-3217.601092
2914.335461,-11547.212695,296.082377,-2834.553343
2914.335799,-11991.336260,-962.267725,-1225.752797
2914.336136,-9770.718434,-3923.091493,306.438199
2914.336473,-10288.862594,-3849.070898,2757.943793
2914.336811,-8882.471304,-3923.091493,3524.039291
2914.337148,-8734.430116,-3923.091493,2757.943793
2914.337485,-9696.697840,-1702.473667,2604.724693
2914.337823,-9178.553681,-148.041188,1455.581446
2914.338160,-11029.068536,2442.679609,995.924147
2914.338497,-11843.295072,3701.029710,-1225.752797
2914.338835,-11325.150913,3256.906145,-1455.581446
2914.339172,-12139.377449,2886.803174,0.000000
2914.339509,-10140.821405,962.267725,612.876398
2914.339846,-9326.594869,-1480.411884,2221.676944
2914.340184,-8364.327145,-1850.514855,2911.162892
2914.340521,-7402.059420,-1776.494261,2834.553343
2914.340858,-8882.471304,-962.267725,1915.238745
2914.341196,-8660.409521,148.041188,536.266849
2914.341533,-9696.697840,1406.391290,-689.485948
2914.341871,-11251.130318,3108.864956,-2451.505594
2914.342208,-9770.718434,3182.885551,-3447.429741
2914.342545,-10881.027347,1036.288319,-2451.505594
2914.342883,-10584.944971,0.000000,-1685.410096
2914.343220,-9474.636058,-2146.597232,-1915.238745
2914.343558,-10658.965565,-3034.844362,1225.752797
2914.343895,-9104.533087,-4145.153275,1455.581446
2914.344232,-8660.409521,-3849.070898,1608.800546
2914.344570,-10066.800811,-2516.700203,1762.019645
2914.344907,-9400.615463,-1332.370696,766.095498
2914.345244,-10955.047942,444.123565,536.266849
2914.345582,-10955.047942,2294.638420,-536.266849
2914.345919,-11103.089130,2146.597232,-995.924147
2914.346257,-13101.645173,1554.432478,153.219100
2914.346594,-11399.171507,-518.144159,-153.219100
2914.346931,-10362.883188,-1702.473667,1072.533697
2914.347269,-9770.718434,-2812.782580,2374.896044
2914.347606,-8068.244768,-2590.720797,1915.238745
2914.347944,-9548.656652,-1998.556043,612.876398
2914.348281,-9770.718434,-592.164754,-612.876398
2914.348618,-9474.636058,0.000000,-1149.143247
2914.348956,-10362.883188,888.247130,-1991.848295
2914.349293,-9474.636058,2294.638420,-2681.334243
2914.349631,-10807.006753,1036.288319,-1762.019645
2914.349968,-10584.944971,296.082377,-919.314598
2914.350305,-9992.780217,-888.247130,536.266849
2914.350643,-10510.924376,-1628.453072,2451.505594
2914.350980,-9030.512492,-2072.576638,3294.210641
2914.351317,-9252.574275,-2368.659014,2911.162892
2914.351655,-9326.594869,-1184.329507,2451.505594
2914.351992,-8882.471304,-1110.308913,2068.457845
2914.352330,-10066.800811,2220.617826,1608.800546
2914.352667,-10214.842000,2886.803174,-383.047749
2914.353004,-10584.944971,3923.091493,-1455.581446
2914.353342,-11621.233289,3627.009116,-1302.362347
2914.353679,-10584.944971,2146.597232,0.000000
2914.354017,-10214.842000,666.185348,1532.190996
2914.354354,-9548.656652,-666.185348,1455.581446
2914.354691,-9326.594869,-1628.453072,2221.676944
2914.355029,-9918.759623,-592.164754,1608.800546
2914.355366,-9992.780217,-1480.411884,536.266849
2914.355703,-9622.677246,-444.123565,-919.314598
2914.356041,-9474.636058,962.267725,-2221.676944
2914.356378,-9844.739029,1406.391290,-2451.505594
2914.356716,-10807.006753,444.123565,-2987.772442
2914.357053,-10807.006753,222.061783,-2298.286494
2914.357390,-10807.006753,-1184.329507,-383.047749
2914.357728,-11177.109724,-1924.535449,229.828649
2914.358065,-9844.739029,-1702.473667,1378.971896
2914.358403,-10436.903782,-3330.926739,1915.238745
2914.358740,-10140.821405,-2146.597232,1302.362347
2914.359077,-9326.594869,-2812.782580,995.924147
2914.359415,-9696.697840,-740.205942,1762.019645
2914.359752,-9178.553681,148.041188,919.314598
2914.360089,-10288.862594,1036.288319,1072.533697
2914.360427,-11103.089130,1998.556043,76.609550
2914.360764,-10140.821405,1332.370696,0.000000
2914.361102,-11547.212695,1036.288319,2298.286494
2914.361439,-10732.986159,222.061783,1455.581446
2914.361776,-9474.636058,296.082377,1378.971896
2914.362114,-10140.821405,-1110.308913,383.047749
2914.362451,-8216.285956,-1258.350101,0.000000
2914.362789,-8586.388927,-1554.432478,536.266849
2914.363126,-9252.574275,0.000000,-76.609550
2914.363463,-8586.388927,1110.308913,-2298.286494
2914.363801,-10955.047942,1702.473667,-1915.238745
2914.364138,-11325.150913,2072.576638,-1762.019645
2914.364475,-10955.047942,444.123565,-536.266849
2914.364813,-10807.006753,370.102971,842.705048
2914.365150,-9326.594869,-814.226536,1455.581446
2914.365488,-10732.986159,-2146.597232,1838.629195
2914.365825,-10436.903782,-2886.803174,1762.019645
2914.366162,-8956.491898,-2812.782580,1685.410096
2914.366500,-9918.759623,-1258.350101,2145.067394
2914.366837,-8956.491898,0.000000,-76.609550
2914.367175,-9770.718434,518.144159,76.609550
2914.367512,-11399.171507,2146.597232,-612.876398
2914.367849,-9770.718434,888.247130,-919.314598
2914.368187,-11621.233289,962.267725,689.485948
2914.368524,-10658.965565,0.000000,306.438199
2914.368861,-10066.800811,-666.185348,612.876398
2914.369199,-10510.924376,-1554.432478,306.438199
2914.369536,-9178.553681,-3256.906145,-842.705048
2914.369874,-9252.574275,-3256.906145,459.657299
2914.370211,-9474.636058,-2516.700203,-995.924147
2914.370548,-7402.059420,-444.123565,-2451.505594
2914.370886,-10362.883188,0.000000,-1532.190996
2914.371223,-11029.068536,666.185348,-1225.752797
2914.371561,-10436.903782,-444.123565,-1225.752797
2914.371898,-11843.295072,74.020594,1225.752797
2914.372235,-9622.677246,296.082377,919.314598
2914.372573,-11251.130318,-962.267725,1225.752797
2914.372910,-11473.192101,-1850.514855,1072.533697
2914.373247,-9252.574275,-3404.947333,1915.238745
2914.373585,-9696.697840,-2072.576638,3370.820191
2914.373922,-7476.080014,-666.185348,2451.505594
2914.374260,-7920.203579,1184.329507,1991.848295
2914.374597,-10362.883188,1702.473667,1149.143247
2914.374934,-10066.800811,3552.988522,0.000000
2914.375272,-11251.130318,2886.803174,536.266849
2914.375609,-11029.068536,3182.885551,919.314598
2914.375947,-9992.780217,2516.700203,76.609550
2914.376284,-11251.130318,444.123565,536.266849
2914.376621,-8882.471304,-1702.473667,459.657299
2914.376959,-9178.553681,-3034.844362,1302.362347
2914.377296,-8956.491898,-2590.720797,229.828649
2914.377633,-7179.997637,-740.205942,-1608.800546
2914.377971,-9474.636058,-148.041188,-1532.190996
2914.378308,-9844.739029,666.185348,-1608.800546
2914.378646,-10066.800811,1332.370696,-995.924147
2914.378983,-12065.356855,814.226536,0.000000
2914.379320,-11177.109724,2220.617826,-766.095498
2914.379658,-11917.315666,0.000000,-612.876398
2914.379995,-12287.418637,-1702.473667,153.219100
2914.380333,-10214.842000,-4071.132681,536.266849
2914.380670,-9622.677246,-3182.885551,2298.286494
2914.381007,-7772.162391,-2368.659014,1455.581446
2914.381345,-8364.327145,-1258.350101,766.095498
2914.381682,-10140.821405,592.164754,306.438199
2914.382020,-9844.739029,2072.576638,-229.828649
2914.382357,-11621.233289,3478.967927,229.828649
2914.382694,-11547.212695,3627.009116,-536.266849
2914.383032,-11473.192101,2072.576638,-306.438199
2914.383369,-11547.212695,222.061783,-383.047749
2914.383706,-10066.800811,-1406.391290,76.609550
2914.384044,-9252.574275,-3404.947333,766.095498
2914.384381,-7698.141797,-3627.009116,76.609550
2914.384719,-6365.771101,-2294.638420,-383.047749
2914.385056,-9030.512492,-1924.535449,459.657299
2914.385393,-8364.327145,444.123565,-612.876398
2914.385731,-9696.697840,1554.432478,-459.657299
2914.386068,-12509.480420,4441.235652,1149.143247
2914.386406,-12213.398043,4441.235652,-536.266849
2914.386743,-13397.727550,1850.514855,-306.438199
2914.387080,-11177.109724,-962.267725,1072.533697
2914.387418,-9104.533087,-3775.050304,2451.505594
2914.387755,-8734.430116,-3330.926739,4519.963438
2914.388092,-7698.141797,-2368.659014,3370.820191
2914.388430,-8216.285956,-1554.432478,2145.067394
2914.388767,-10066.800811,444.123565,306.438199
2914.389105,-9474.636058,1924.535449,-306.438199
2914.389442,-10732.986159,3997.112087,536.266849
2914.389779,-11103.089130,4293.194464,-689.485948
2914.390117,-11621.233289,2590.720797,-2068.457845
2914.390454,-11621.233289,74.020594,-1838.629195
2914.390792,-9992.780217,-3034.844362,-612.876398
2914.391129,-9104.533087,-4737.318029,689.485948
2914.391466,-8142.265362,-5033.400406,1072.533697
2914.391804,-7179.997637,-4219.173869,842.705048
2914.392141,-8734.430116,-3478.967927,-689.485948
2914.392478,-8956.491898,-1628.453072,-383.047749
2914.392816,-10140.821405,148.041188,0.000000
2914.393153,-12139.377449,2590.720797,-995.924147
2914.393491,-11843.295072,3034.844362,-1991.848295
2914.393828,-13397.727550,740.205942,-1149.143247
2914.394165,-12287.418637,-1554.432478,0.000000
2914.394503,-9770.718434,-3923.091493,1685.410096
2914.394840,-10066.800811,-3404.947333,2757.943793
2914.395178,-7772.162391,-3923.091493,2068.457845
2914.395515,-8734.430116,-2812.782580,1991.848295
2914.395852,-9252.574275,-962.267725,1915.238745
2914.396190,-7994.224174,1702.473667,1608.800546
2914.396527,-10140.821405,4885.359217,536.266849
2914.396864,-12509.480420,5773.606348,-2374.896044
2914.397202,-12731.542202,4885.359217,-3064.381992
2914.397539,-12435.459826,1554.432478,-2451.505594
2914.397877,-9548.656652,-1776.494261,-459.657299
2914.398214,-8660.409521,-3701.029710,1149.143247
2914.398551,-7550.100608,-4293.194464,1378.971896
2914.398889,-5921.647536,-3997.112087,842.705048
2914.399226,-7402.059420,-2442.679609,536.266849
2914.399564,-8512.368333,-296.082377,536.266849
2914.399901,-10214.842000,1554.432478,153.219100
2914.400238,-12065.356855,4811.338623,-1455.581446
2914.400576,-12213.398043,5329.482782,-2451.505594
2914.400913,-13619.789333,2442.679609,-1915.238745
2914.401250,-11917.315666,-740.205942,0.000000
2914.401588,-9696.697840,-3552.988522,1225.752797
2914.401925,-9548.656652,-4219.173869,3294.210641
2914.402263,-7698.141797,-3775.050304,2298.286494
2914.402600,-8734.430116,-3404.947333,2528.115143
2914.402937,-9474.636058,-2294.638420,1838.629195
2914.403275,-7846.182985,518.144159,919.314598
2914.403612,-10362.883188,3701.029710,919.314598
2914.403950,-11399.171507,5551.544565,-842.705048
2914.404287,-13249.686362,4441.235652,-2757.943793
2914.404624,-13915.871710,1702.473667,-1455.581446
2914.404962,-11843.295072,-1258.350101,-383.047749
2914.405299,-10362.883188,-3775.050304,1072.533697
2914.405636,-8364.327145,-5107.421000,1302.362347
2914.405974,-6513.812290,-5033.400406,612.876398
2914.406311,-7179.997637,-4663.297435,919.314598
2914.406649,-7105.977043,-2442.679609,842.705048
2914.406986,-8660.409521,888.247130,919.314598
2914.407323,-11843.295072,4885.359217,-153.219100
2914.407661,-12435.459826,5921.647536,-2068.457845
2914.407998,-13989.892304,3552.988522,-2068.457845
2914.408336,-12361.439231,1554.432478,612.876398
2914.408673,-10732.986159,-1850.514855,2528.115143
2914.409010,-9400.615463,-1998.556043,3983.696590
2914.409348,-7550.100608,-3627.009116,3217.601092
2914.409685,-7698.141797,-3330.926739,2987.772442
2914.410022,-7402.059420,-2368.659014,2528.115143
2914.410360,-7328.038826,1110.308913,2374.896044
2914.410697,-9844.739029,5033.400406,919.314598
2914.411035,-11399.171507,7624.121203,-2987.772442
2914.411372,-13101.645173,7105.977043,-4060.306139
2914.411709,-14582.057057,3849.070898,-2987.772442
2914.412047,-11325.150913,814.226536,-1762.019645
2914.412384,-9474.636058,-3108.864956,-459.657299
2914.412722,-8068.244768,-4811.338623,306.438199
2914.413059,-5773.606348,-5773.606348,1072.533697
2914.413396,-7179.997637,-5107.421000,689.485948
2914.413734,-7328.038826,-3552.988522,306.438199
2914.414071,-9178.553681,-370.102971,-306.438199
2914.414408,-11103.089130,3330.926739,-2221.676944
2914.414746,-12213.398043,4959.379811,-3753.867940
2914.415083,-13989.892304,3997.112087,-2528.115143
2914.415421,-13249.686362,-740.205942,-1608.800546
2914.415758,-11103.089130,-3330.926739,1149.143247
2914.416095,-9622.677246,-3627.009116,2068.457845
2914.416433,-8512.368333,-5329.482782,4060.306139
2914.416770,-8660.409521,-6143.709319,2451.505594
2914.417108,-7698.141797,-4737.318029,459.657299
2914.417445,-7698.141797,-2664.741391,1915.238745
2914.417782,-9400.615463,2590.720797,2298.286494
2914.418120,-10362.883188,5551.544565,-536.266849
2914.418457,-13545.768739,5181.441594,-3370.820191
2914.418795,-14730.098246,3108.864956,-3064.381992
2914.419132,-12361.439231,-370.102971,-612.876398
2914.419469,-10955.047942,-2442.679609,2451.505594
2914.419807,-8364.327145,-4515.256246,1532.190996
2914.420144,-7254.018232,-5625.565159,1149.143247
2914.420481,-7772.162391,-6217.729913,1302.362347
2914.420819,-5773.606348,-3997.112087,1302.362347
2914.421156,-6957.935855,-592.164754,2528.115143
2914.421494,-10140.821405,4219.173869,919.314598
2914.421831,-12139.377449,6365.771101,-2451.505594
2914.422168,-15396.283594,6143.709319,-3217.601092
2914.422506,-13989.892304,3108.864956,-1455.581446
2914.422843,-11547.212695,0.000000,1838.629195
2914.423181,-9918.759623,-1998.556043,3447.429741
2914.423518,-7772.162391,-4219.173869,3907.087040
2914.423855,-7254.018232,-4811.338623,4366.744339
2914.424193,-7105.977043,-3330.926739,2374.896044
2914.424530,-6439.791695,-1110.308913,1608.800546
2914.424867,-9770.718434,3108.864956,306.438199
2914.425205,-10510.924376,6291.750507,-1915.238745
2914.425542,-11843.295072,7254.018232,-3140.991542
2914.425880,-13619.789333,5551.544565,-4979.620737
2914.426217,-11769.274478,2146.597232,-2451.505594
2914.426554,-11473.192101,-1332.370696,-306.438199
2914.426892,-9696.697840,-2960.823768,919.314598
2914.427229,-8364.327145,-5255.462188,689.485948
2914.427567,-7698.141797,-6661.853478,-842.705048
2914.427904,-5773.606348,-5699.585753,766.095498
2914.428241,-8068.244768,-2886.803174,1685.410096
2914.428579,-9104.533087,1776.494261,76.609550
2914.428916,-10510.924376,4737.318029,-3217.601092
2914.429253,-15026.180623,4885.359217,-2911.162892
2914.429591,-14508.036463,2812.782580,-1991.848295
2914.429928,-13249.686362,-814.226536,1685.410096
2914.430266,-11399.171507,-1924.535449,4060.306139
2914.430603,-8364.327145,-4219.173869,2987.772442
