#time,accel_x,accel_y,accel_z
2868.532923,-9474.636058,1110.308913,-2298.286494
2868.533260,-9400.615463,518.144159,-1762.019645
2868.533598,-9474.636058,-814.226536,-1072.533697
2868.533936,-9548.656652,-1184.329507,-1685.410096
2868.534274,-8512.368333,-1924.535449,-1838.629195
2868.534612,-8882.471304,-1850.514855,-766.095498
2868.534950,-9104.533087,-2664.741391,-1149.143247
2868.535287,-7846.182985,-1332.370696,-919.314598
2868.535625,-9474.636058,-1036.288319,-689.485948
2868.535963,-11473.192101,-444.123565,-1532.190996
2868.536301,-11769.274478,-1110.308913,-1302.362347
2868.536639,-11769.274478,-1702.473667,-1532.190996
2868.536977,-9844.739029,-2516.700203,-919.314598
2868.537314,-9844.739029,-1924.535449,-153.219100
2868.537652,-10140.821405,-3108.864956,1072.533697
2868.537990,-10658.965565,-2960.823768,306.438199
2868.538328,-10881.027347,-2146.597232,229.828649
2868.538666,-11547.212695,-1406.391290,76.609550
2868.539004,-11621.233289,-814.226536,-306.438199
2868.539341,-11029.068536,-148.041188,-1225.752797
2868.539679,-10658.965565,-444.123565,-1762.019645
2868.540017,-10066.800811,-518.144159,-2145.067394
2868.540355,-10066.800811,-1480.411884,-2145.067394
2868.540693,-9770.718434,-2220.617826,-2298.286494
2868.541031,-9474.636058,-2738.761985,-2681.334243
2868.541368,-9548.656652,-3478.967927,-3140.991542
2868.541706,-9400.615463,-2960.823768,-3677.258390
2868.542044,-8808.450710,-3478.967927,-5056.230287
2868.542382,-8364.327145,-3849.070898,-4979.620737
2868.542720,-8734.430116,-4515.256246,-4673.182538
2868.543058,-8142.265362,-4219.173869,-3524.039291
2868.543395,-8734.430116,-2738.761985,-2604.724693
2868.543733,-9474.636058,-2590.720797,-1991.848295
2868.544071,-10362.883188,-2220.617826,-2528.115143
2868.544409,-11251.130318,-2812.782580,-3140.991542
2868.544747,-10881.027347,-3108.864956,-2757.943793
2868.545084,-10140.821405,-4441.235652,-2451.505594
2868.545422,-9252.574275,-5033.400406,-1608.800546
2868.545760,-9178.553681,-4145.153275,-383.047749
2868.546098,-9400.615463,-3108.864956,-383.047749
2868.546436,-10140.821405,-814.226536,-995.924147
2868.546774,-11843.295072,0.000000,-2681.334243
2868.547111,-12065.356855,0.000000,-3907.087040
2868.547449,-12583.501014,-1702.473667,-3753.867940
2868.547787,-10955.047942,-2886.803174,-2451.505594
2868.548125,-8882.471304,-3182.885551,-1838.629195
2868.548463,-8586.388927,-3997.112087,-612.876398
2868.548801,-9548.656652,-5255.462188,-1455.581446
2868.549138,-9326.594869,-6291.750507,-1302.362347
2868.549476,-9104.533087,-5773.606348,-76.609550
2868.549814,-8882.471304,-3997.112087,229.828649
2868.550152,-9992.780217,-2072.576638,536.266849
2868.550490,-11177.109724,-1258.350101,-612.876398
2868.550828,-11325.150913,-1924.535449,-1762.019645
2868.551165,-11029.068536,-3034.844362,-1149.143247
2868.551503,-9474.636058,-3330.926739,0.000000
2868.551841,-9326.594869,-3775.050304,1762.019645
2868.552179,-8882.471304,-3775.050304,2298.286494
2868.552517,-8882.471304,-3108.864956,2221.676944
2868.552854,-10584.944971,-2072.576638,2221.676944
2868.553192,-11325.150913,592.164754,919.314598
2868.553529,-11029.068536,1850.514855,-306.438199
2868.553867,-10955.047942,2146.597232,-536.266849
2868.554204,-10881.027347,2442.679609,383.047749
2868.554542,-12435.459826,1776.494261,1225.752797
2868.554879,-11029.068536,2072.576638,306.438199
2868.555217,-8364.327145,2146.597232,-612.876398
2868.555554,-9104.533087,-148.041188,1455.581446
2868.555892,-9844.739029,-814.226536,995.924147
2868.556229,-10436.903782,148.041188,1455.581446
2868.556567,-10066.800811,2738.761985,-76.609550
2868.556904,-9030.512492,2294.638420,-2681.334243
2868.557242,-9844.739029,1554.432478,-1991.848295
2868.557579,-10436.903782,1184.329507,-1225.752797
2868.557917,-10288.862594,2220.617826,-536.266849
2868.558254,-7624.121203,2294.638420,0.000000
2868.558592,-8364.327145,-148.041188,536.266849
2868.558929,-10436.903782,-444.123565,1072.533697
2868.559267,-10436.903782,-740.205942,153.219100
2868.559604,-9474.636058,1184.329507,1149.143247
2868.559942,-9104.533087,1184.329507,842.705048
2868.560279,-11769.274478,666.185348,153.219100
2868.560616,-12583.501014,1998.556043,-2451.505594
2868.560954,-9548.656652,814.226536,-3677.258390
2868.561291,-7476.080014,888.247130,-1302.362347
2868.561629,-9474.636058,-444.123565,459.657299
2868.561966,-11029.068536,74.020594,-229.828649
2868.562304,-9844.739029,740.205942,-1225.752797
2868.562641,-9696.697840,74.020594,-766.095498
2868.562979,-11103.089130,-1702.473667,383.047749
2868.563316,-13027.624579,-1850.514855,-612.876398
2868.563654,-10881.027347,-1850.514855,-1149.143247
2868.563991,-8216.285956,-1702.473667,-689.485948
2868.564329,-8364.327145,-3330.926739,459.657299
2868.564666,-10658.965565,-2220.617826,536.266849
2868.565004,-10881.027347,-1480.411884,-612.876398
2868.565341,-9770.718434,-1406.391290,-229.828649
2868.565679,-10214.842000,-2146.597232,612.876398
2868.566016,-11547.212695,-1998.556043,2374.896044
2868.566354,-10807.006753,-1258.350101,2987.772442
2868.566691,-9030.512492,-1554.432478,2298.286494
2868.567029,-9104.533087,-1998.556043,3064.381992
2868.567366,-11621.233289,-518.144159,3753.867940
2868.567704,-10732.986159,666.185348,2145.067394
2868.568041,-9400.615463,444.123565,689.485948
2868.568379,-9178.553681,-222.061783,842.705048
2868.568716,-10807.006753,-518.144159,229.828649
2868.569054,-10362.883188,740.205942,306.438199
2868.569391,-7920.203579,0.000000,-306.438199
2868.569729,-7920.203579,-1628.453072,536.266849
2868.570066,-10658.965565,-666.185348,1302.362347
2868.570404,-11399.171507,-666.185348,0.000000
2868.570741,-8734.430116,-444.123565,-1608.800546
2868.571079,-8586.388927,-3108.864956,-612.876398
2868.571416,-10214.842000,-2368.659014,-383.047749
2868.571754,-10288.862594,-1702.473667,-995.924147
2868.572091,-9252.574275,-1776.494261,-612.876398
2868.572429,-8364.327145,-2812.782580,229.828649
2868.572766,-11251.130318,-2072.576638,612.876398
2868.573104,-11991.336260,-222.061783,842.705048
2868.573441,-10362.883188,-518.144159,0.000000
2868.573779,-9622.677246,-2368.659014,229.828649
2868.574116,-11325.150913,-2146.597232,306.438199
2868.574453,-11029.068536,-592.164754,1072.533697
2868.574791,-9474.636058,-370.102971,383.047749
2868.575128,-8956.491898,-962.267725,-76.609550
2868.575466,-11325.150913,-74.020594,-229.828649
2868.575803,-11547.212695,1628.453072,-1532.190996
2868.576141,-9696.697840,1480.411884,-2145.067394
2868.576478,-9548.656652,-444.123565,-2221.676944
2868.576816,-10140.821405,-962.267725,-1072.533697
2868.577153,-10658.965565,-444.123565,-995.924147
2868.577491,-8586.388927,0.000000,-1225.752797
2868.577828,-8142.265362,-666.185348,0.000000
2868.578166,-10732.986159,-962.267725,76.609550
2868.578503,-11251.130318,1110.308913,0.000000
2868.578841,-9474.636058,1998.556043,76.609550
2868.579178,-9918.759623,222.061783,995.924147
2868.579516,-10955.047942,-296.082377,842.705048
2868.579853,-10732.986159,592.164754,766.095498
2868.580191,-8734.430116,1184.329507,2757.943793
2868.580528,-8512.368333,0.000000,3447.429741
2868.580866,-10436.903782,518.144159,3294.210641
2868.581203,-11547.212695,2294.638420,2681.334243
2868.581541,-9918.759623,3627.009116,1455.581446
2868.581878,-10214.842000,2368.659014,612.876398
2868.582216,-11621.233289,1998.556043,1072.533697
2868.582553,-10955.047942,2664.741391,-229.828649
2868.582891,-8882.471304,2664.741391,153.219100
2868.583228,-8956.491898,1258.350101,1149.143247
2868.583566,-9992.780217,-518.144159,306.438199
2868.583903,-10732.986159,740.205942,76.609550
2868.584241,-9474.636058,1702.473667,459.657299
2868.584578,-10066.800811,-666.185348,0.000000
2868.584916,-11177.109724,-2368.659014,-536.266849
2868.585253,-11325.150913,-2146.597232,-612.876398
2868.585591,-8586.388927,-1184.329507,0.000000
2868.585928,-8142.265362,-1924.535449,306.438199
2868.586266,-9992.780217,-3034.844362,536.266849
2868.586603,-10955.047942,-1850.514855,-383.047749
2868.586941,-9844.739029,-1110.308913,-76.609550
2868.587278,-9992.780217,-1998.556043,76.609550
2868.587616,-11177.109724,-2812.782580,612.876398
2868.587953,-11399.171507,-1998.556043,1072.533697
2868.588290,-9474.636058,-1332.370696,995.924147
2868.588628,-8586.388927,-1628.453072,1455.581446
2868.588965,-10288.862594,-1702.473667,1762.019645
2868.589303,-11769.274478,-370.102971,842.705048
2868.589640,-10658.965565,1110.308913,383.047749
2868.589978,-10066.800811,592.164754,-612.876398
2868.590315,-10955.047942,-1036.288319,-995.924147
2868.590653,-10732.986159,-1184.329507,-1225.752797
2868.590990,-9474.636058,0.000000,76.609550
2868.591328,-8142.265362,-888.247130,-383.047749
2868.591665,-9400.615463,-1554.432478,-689.485948
2868.592003,-11029.068536,-1110.308913,-1072.533697
2868.592340,-10362.883188,-814.226536,-689.485948
2868.592678,-8734.430116,-1110.308913,-306.438199
2868.593015,-9400.615463,-2368.659014,0.000000
2868.593353,-10732.986159,-1480.411884,459.657299
2868.593690,-9474.636058,-592.164754,76.609550
2868.594028,-8512.368333,-814.226536,1302.362347
2868.594365,-9918.759623,-1776.494261,1991.848295
2868.594703,-11547.212695,-666.185348,1455.581446
2868.595040,-10658.965565,592.164754,1455.581446
2868.595378,-9622.677246,148.041188,919.314598
2868.595715,-9918.759623,-1628.453072,689.485948
2868.596053,-10807.006753,-1184.329507,306.438199
2868.596390,-9474.636058,-444.123565,383.047749
2868.596728,-8068.244768,-370.102971,383.047749
2868.597065,-9696.697840,-1036.288319,995.924147
2868.597403,-11399.171507,296.082377,153.219100
2868.597740,-11251.130318,1036.288319,-383.047749
2868.598078,-9844.739029,0.000000,0.000000
2868.598415,-10140.821405,-1480.411884,-229.828649
2868.598753,-11547.212695,-1036.288319,0.000000
2868.599090,-9992.780217,-1332.370696,-766.095498
2868.599428,-7772.162391,-2368.659014,-612.876398
2868.599765,-9326.594869,-2590.720797,306.438199
2868.600103,-10881.027347,-1480.411884,689.485948
2868.600440,-10658.965565,814.226536,0.000000
2868.600778,-9696.697840,222.061783,-459.657299
2868.601115,-11029.068536,-1184.329507,459.657299
2868.601453,-11177.109724,-666.185348,536.266849
2868.601790,-10066.800811,814.226536,1455.581446
2868.602127,-8512.368333,444.123565,2374.896044
2868.602465,-8882.471304,-296.082377,2451.505594
2868.602802,-11399.171507,1628.453072,1915.238745
2868.603140,-11177.109724,2664.741391,766.095498
2868.603477,-9474.636058,2664.741391,0.000000
2868.603815,-9844.739029,592.164754,383.047749
2868.604152,-11029.068536,2368.659014,153.219100
2868.604490,-9770.718434,2072.576638,-306.438199
2868.604827,-7994.224174,1184.329507,-536.266849
2868.605165,-8586.388927,74.020594,306.438199
2868.605502,-10881.027347,1184.329507,766.095498
2868.605840,-10140.821405,1998.556043,0.000000
2868.606177,-8956.491898,1628.453072,-1378.971896
2868.606515,-9844.739029,-888.247130,-612.876398
2868.606852,-11399.171507,-888.247130,-459.657299
2868.607190,-10362.883188,-370.102971,-919.314598
2868.607527,-8364.327145,-444.123565,459.657299
2868.607865,-9030.512492,-1480.411884,1302.362347
2868.608202,-10955.047942,-2072.576638,383.047749
2868.608540,-11103.089130,0.000000,306.438199
2868.608877,-10214.842000,-148.041188,1072.533697
2868.609215,-10362.883188,-1406.391290,689.485948
2868.609552,-11695.253884,-1036.288319,1072.533697
2868.609890,-11103.089130,0.000000,1302.362347
2868.610227,-9252.574275,-666.185348,612.876398
2868.610565,-9844.739029,-1702.473667,1455.581446
2868.610902,-11177.109724,-1332.370696,1225.752797
2868.611240,-10807.006753,-370.102971,0.000000
2868.611577,-8956.491898,222.061783,-612.876398
2868.611915,-9992.780217,-1702.473667,-383.047749
2868.612252,-11103.089130,-1702.473667,-689.485948
2868.612590,-9918.759623,-888.247130,-2221.676944
2868.612927,-8808.450710,-370.102971,-536.266849
2868.613265,-8438.347739,-2368.659014,-995.924147
2868.613602,-9548.656652,-2738.761985,-459.657299
2868.613940,-10658.965565,-1110.308913,153.219100
2868.614277,-9030.512492,74.020594,306.438199
2868.614615,-10066.800811,-1184.329507,229.828649
2868.614952,-11621.233289,-1850.514855,153.219100
2868.615290,-10214.842000,-370.102971,536.266849
2868.615627,-8882.471304,-74.020594,1915.238745
2868.615964,-8956.491898,-1110.308913,2298.286494
2868.616302,-9918.759623,-370.102971,2221.676944
2868.616639,-11325.150913,2072.576638,1608.800546
2868.616977,-9474.636058,2220.617826,0.000000
2868.617314,-9770.718434,1628.453072,153.219100
2868.617652,-11473.192101,148.041188,459.657299
2868.617989,-10066.800811,888.247130,-536.266849
2868.618327,-8882.471304,1480.411884,-76.609550
2868.618664,-8882.471304,0.000000,-229.828649
2868.619002,-9992.780217,-962.267725,0.000000
2868.619339,-10658.965565,0.000000,-689.485948
2868.619677,-8586.388927,148.041188,-306.438199
2868.620014,-8586.388927,-518.144159,-689.485948
2868.620352,-11103.089130,-2146.597232,-1072.533697
2868.620689,-11251.130318,-1554.432478,-919.314598
2868.621027,-8956.491898,-1110.308913,-919.314598
2868.621364,-8660.409521,-2146.597232,0.000000
2868.621702,-10732.986159,-2146.597232,1225.752797
2868.622039,-10955.047942,-740.205942,-306.438199
2868.622377,-9548.656652,0.000000,0.000000
2868.622714,-10214.842000,-1184.329507,306.438199
2868.623052,-12065.356855,-1628.453072,919.314598
2868.623389,-12065.356855,0.000000,459.657299
2868.623727,-9474.636058,222.061783,1378.971896
2868.624064,-8808.450710,0.000000,1915.238745
2868.624402,-10362.883188,-296.082377,1915.238745
2868.624739,-11991.336260,1702.473667,1378.971896
2868.625077,-10362.883188,1776.494261,919.314598
2868.625414,-9770.718434,1406.391290,536.266849
2868.625752,-10510.924376,962.267725,153.219100
2868.626089,-11251.130318,1776.494261,-306.438199
2868.626427,-9030.512492,1406.391290,-689.485948
2868.626764,-8512.368333,0.000000,0.000000
2868.627102,-9326.594869,0.000000,459.657299
2868.627439,-10362.883188,888.247130,0.000000
2868.627777,-9104.533087,1554.432478,76.609550
2868.628114,-8364.327145,74.020594,0.000000
2868.628452,-10510.924376,0.000000,612.876398
2868.628789,-11325.150913,222.061783,-459.657299
2868.629127,-8364.327145,740.205942,0.000000
2868.629464,-7994.224174,0.000000,1225.752797
2868.629801,-9622.677246,-370.102971,1608.800546
2868.630139,-11251.130318,1332.370696,1608.800546
2868.630476,-10658.965565,1776.494261,689.485948
2868.630814,-9844.739029,962.267725,536.266849
2868.631151,-11325.150913,148.041188,766.095498
2868.631489,-11695.253884,962.267725,306.438199
2868.631826,-9548.656652,592.164754,-76.609550
2868.632164,-8660.409521,-666.185348,536.266849
2868.632501,-9918.759623,-592.164754,612.876398
2868.632839,-11547.212695,148.041188,383.047749
2868.633176,-10288.862594,1184.329507,-383.047749
2868.633514,-9918.759623,0.000000,-1072.533697
2868.633851,-11473.192101,-2294.638420,-1685.410096
2868.634189,-11029.068536,-1036.288319,-2298.286494
2868.634526,-9252.574275,-1776.494261,-1455.581446
2868.634864,-7402.059420,-2960.823768,-612.876398
2868.635201,-8882.471304,-3552.988522,-383.047749
2868.635539,-11177.109724,-2664.741391,689.485948
2868.635876,-9252.574275,-962.267725,0.000000
2868.636214,-8734.430116,-1554.432478,612.876398
2868.636551,-11251.130318,-2220.617826,1378.971896
2868.636889,-11473.192101,-1332.370696,842.705048
2868.637226,-10362.883188,0.000000,1762.019645
2868.637564,-9252.574275,-1184.329507,2374.896044
2868.637901,-9696.697840,-1628.453072,2451.505594
2868.638239,-11621.233289,296.082377,2145.067394
2868.638576,-10658.965565,1924.535449,1149.143247
2868.638914,-9474.636058,1850.514855,306.438199
2868.639251,-10658.965565,0.000000,-306.438199
2868.639589,-11399.171507,592.164754,0.000000
2868.639926,-9770.718434,1036.288319,-229.828649
2868.640264,-8068.244768,444.123565,536.266849
2868.640601,-9252.574275,0.000000,842.705048
2868.640939,-10288.862594,-296.082377,383.047749
2868.641276,-10066.800811,1998.556043,-459.657299
2868.641614,-9030.512492,888.247130,0.000000
2868.641951,-9622.677246,-740.205942,76.609550
2868.642289,-11177.109724,-1036.288319,-459.657299
2868.642626,-10140.821405,0.000000,-612.876398
2868.642963,-7994.224174,-1184.329507,-459.657299
2868.643301,-9030.512492,-2590.720797,536.266849
2868.643638,-10288.862594,-2590.720797,1072.533697
2868.643976,-10214.842000,222.061783,306.438199
2868.644313,-9178.553681,0.000000,995.924147
2868.644651,-11251.130318,-1036.288319,459.657299
2868.644988,-11991.336260,-1332.370696,0.000000
2868.645326,-10362.883188,518.144159,306.438199
2868.645663,-8586.388927,444.123565,1455.581446
2868.646001,-10066.800811,-518.144159,842.705048
2868.646338,-11325.150913,-370.102971,536.266849
2868.646676,-11029.068536,1332.370696,-919.314598
2868.647013,-8808.450710,888.247130,-1149.143247
2868.647351,-10510.924376,148.041188,0.000000
2868.647688,-11695.253884,74.020594,-1302.362347
2868.648026,-10436.903782,148.041188,-1991.848295
2868.648363,-8734.430116,222.061783,-842.705048
2868.648701,-9030.512492,-1998.556043,0.000000
2868.649038,-10732.986159,-1110.308913,1455.581446
2868.649376,-10066.800811,148.041188,612.876398
2868.649713,-8808.450710,814.226536,766.095498
2868.650051,-10584.944971,0.000000,536.266849
2868.650388,-12287.418637,-1480.411884,76.609550
2868.650726,-9844.739029,222.061783,689.485948
2868.651063,-8068.244768,0.000000,1302.362347
2868.651401,-8364.327145,0.000000,2451.505594
2868.651738,-10140.821405,0.000000,2221.676944
2868.652076,-10362.883188,1924.535449,1762.019645
2868.652413,-9104.533087,2220.617826,1072.533697
2868.652751,-9474.636058,1184.329507,1072.533697
2868.653088,-11547.212695,1480.411884,1072.533697
2868.653426,-11177.109724,1554.432478,536.266849
2868.653763,-8586.388927,1184.329507,306.438199
2868.654100,-8660.409521,0.000000,459.657299
2868.654438,-10807.006753,-518.144159,919.314598
2868.654775,-9992.780217,1110.308913,-229.828649
2868.655112,-8882.471304,740.205942,-1149.143247
2868.655450,-10436.903782,-518.144159,-995.924147
2868.655787,-12139.377449,-1850.514855,-1915.238745
2868.656124,-10807.006753,-1850.514855,-1455.581446
2868.656461,-8586.388927,-1850.514855,-612.876398
2868.656799,-8586.388927,-1998.556043,1072.533697
2868.657136,-10807.006753,-2516.700203,1072.533697
2868.657473,-11399.171507,-740.205942,153.219100
2868.657811,-9696.697840,-1184.329507,229.828649
2868.658148,-9992.780217,-2220.617826,1302.362347
2868.658485,-11843.295072,-1924.535449,1149.143247
2868.658823,-11029.068536,-888.247130,306.438199
2868.659160,-9252.574275,-814.226536,306.438199
2868.659497,-8438.347739,-1406.391290,766.095498
2868.659834,-9992.780217,-1480.411884,1455.581446
2868.660172,-11029.068536,1036.288319,1302.362347
2868.660509,-9696.697840,888.247130,-919.314598
2868.660846,-9992.780217,666.185348,-1072.533697
2868.661184,-11473.192101,-518.144159,-1378.971896
2868.661521,-10436.903782,148.041188,-1225.752797
2868.661858,-8068.244768,0.000000,-995.924147
2868.662196,-7772.162391,-1110.308913,306.438199
2868.662533,-9326.594869,-1110.308913,-536.266849
2868.662870,-10658.965565,592.164754,-306.438199
2868.663207,-9770.718434,814.226536,0.000000
2868.663545,-9474.636058,-518.144159,536.266849
2868.663882,-11325.150913,-740.205942,919.314598
2868.664219,-10881.027347,1036.288319,306.438199
2868.664557,-9104.533087,0.000000,459.657299
2868.664894,-8068.244768,-740.205942,1685.410096
2868.665231,-10436.903782,-814.226536,2528.115143
2868.665568,-10955.047942,1480.411884,2374.896044
2868.665906,-10584.944971,1628.453072,766.095498
2868.666243,-10066.800811,444.123565,153.219100
2868.666580,-11399.171507,-592.164754,153.219100
2868.666918,-10658.965565,0.000000,689.485948
2868.667255,-8956.491898,74.020594,689.485948
2868.667592,-8068.244768,-444.123565,536.266849
2868.667930,-10066.800811,-518.144159,842.705048
2868.668267,-11251.130318,0.000000,-689.485948
2868.668604,-9548.656652,1036.288319,-995.924147
2868.668941,-9326.594869,0.000000,-153.219100
2868.669279,-10881.027347,-1480.411884,-536.266849
2868.669616,-11029.068536,-518.144159,-1378.971896
2868.669953,-9178.553681,-1036.288319,-1225.752797
2868.670291,-8364.327145,-2294.638420,153.219100
2868.670628,-9918.759623,-2738.761985,1149.143247
2868.670965,-11325.150913,-888.247130,1455.581446
2868.671303,-10362.883188,518.144159,0.000000
2868.671640,-9992.780217,-666.185348,0.000000
2868.671977,-11621.233289,-1480.411884,536.266849
2868.672314,-11621.233289,-1036.288319,536.266849
2868.672652,-9252.574275,592.164754,1378.971896
2868.672989,-8734.430116,0.000000,2374.896044
2868.673326,-10288.862594,0.000000,1838.629195
2868.673664,-11177.109724,1554.432478,919.314598
2868.674001,-10732.986159,2442.679609,766.095498
2868.674338,-9770.718434,1702.473667,306.438199
2868.674676,-10436.903782,370.102971,229.828649
2868.675013,-11103.089130,1110.308913,459.657299
2868.675350,-8734.430116,1332.370696,153.219100
2868.675687,-7772.162391,370.102971,459.657299
2868.676025,-9252.574275,-370.102971,766.095498
2868.676362,-10584.944971,888.247130,153.219100
2868.676699,-9622.677246,2368.659014,-842.705048
2868.677037,-9178.553681,222.061783,-1915.238745
2868.677374,-10510.924376,-1332.370696,-1838.629195
2868.677711,-11399.171507,-1332.370696,-1302.362347
2868.678048,-8734.430116,-444.123565,-383.047749
2868.678386,-7105.977043,-1332.370696,229.828649
2868.678723,-9548.656652,-2146.597232,919.314598
2868.679060,-11621.233289,-1332.370696,766.095498
2868.679398,-10362.883188,-74.020594,536.266849
2868.679735,-10288.862594,74.020594,1838.629195
2868.680072,-11695.253884,-1184.329507,1378.971896
2868.680410,-11917.315666,-444.123565,536.266849
2868.680747,-10214.842000,0.000000,536.266849
2868.681084,-9104.533087,-814.226536,1225.752797
2868.681421,-9548.656652,-1332.370696,919.314598
2868.681759,-11251.130318,-740.205942,766.095498
2868.682096,-10807.006753,740.205942,-766.095498
2868.682433,-9474.636058,-148.041188,-2068.457845
2868.682771,-10732.986159,-1702.473667,-1378.971896
2868.683108,-11177.109724,-2738.761985,-1072.533697
2868.683445,-8586.388927,-1036.288319,-1072.533697
2868.683783,-7105.977043,-1628.453072,-842.705048
2868.684120,-8956.491898,-2072.576638,383.047749
2868.684457,-11399.171507,-2072.576638,766.095498
2868.684794,-10510.924376,-370.102971,0.000000
2868.685132,-9030.512492,-740.205942,612.876398
2868.685469,-10362.883188,-1554.432478,995.924147
2868.685806,-11621.233289,-1406.391290,1149.143247
2868.686144,-9474.636058,-296.082377,306.438199
2868.686481,-8068.244768,-1406.391290,1991.848295
2868.686818,-9326.594869,-740.205942,2911.162892
2868.687155,-10955.047942,148.041188,2145.067394
2868.687493,-11325.150913,2738.761985,1302.362347
2868.687830,-10066.800811,2368.659014,689.485948
2868.688167,-10510.924376,0.000000,-459.657299
2868.688505,-11843.295072,1110.308913,0.000000
2868.688842,-10066.800811,962.267725,76.609550
2868.689179,-7698.141797,1110.308913,306.438199
2868.689517,-8734.430116,-444.123565,-306.438199
2868.689854,-11399.171507,222.061783,-842.705048
2868.690191,-10807.006753,962.267725,-842.705048
2868.690528,-9252.574275,0.000000,-1149.143247
2868.690866,-9326.594869,-1184.329507,-919.314598
2868.691203,-10807.006753,-2294.638420,-1149.143247
2868.691540,-9474.636058,-370.102971,-995.924147
2868.691878,-8142.265362,-2368.659014,0.000000
2868.692215,-9252.574275,-2442.679609,1225.752797
2868.692552,-10807.006753,-1554.432478,229.828649
2868.692890,-11029.068536,74.020594,0.000000
2868.693227,-9326.594869,-740.205942,0.000000
2868.693564,-10362.883188,-2516.700203,0.000000
2868.693901,-11843.295072,-2590.720797,842.705048
2868.694239,-10140.821405,-148.041188,76.609550
2868.694576,-9104.533087,-592.164754,1762.019645
2868.694913,-9400.615463,-592.164754,1991.848295
2868.695251,-11103.089130,518.144159,995.924147
2868.695588,-11991.336260,1998.556043,1072.533697
2868.695925,-10288.862594,1406.391290,-229.828649
2868.696263,-10140.821405,444.123565,0.000000
2868.696600,-11251.130318,296.082377,612.876398
2868.696937,-9918.759623,962.267725,76.609550
2868.697274,-8586.388927,370.102971,689.485948
2868.697612,-9474.636058,-1184.329507,842.705048
2868.697949,-10436.903782,222.061783,459.657299
2868.698286,-10362.883188,888.247130,0.000000
2868.698624,-9104.533087,1406.391290,-612.876398
2868.698961,-9252.574275,-1184.329507,-842.705048
2868.699298,-10807.006753,-1480.411884,-383.047749
2868.699635,-9696.697840,-148.041188,-229.828649
2868.699973,-7698.141797,0.000000,536.266849
2868.700310,-8512.368333,-592.164754,1532.190996
2868.700647,-11029.068536,-666.185348,1532.190996
2868.700985,-10807.006753,1258.350101,842.705048
2868.701322,-9696.697840,740.205942,612.876398
2868.701659,-10066.800811,0.000000,1532.190996
2868.701997,-11399.171507,-592.164754,919.314598
2868.702334,-10584.944971,74.020594,459.657299
2868.702671,-8512.368333,0.000000,612.876398
2868.703008,-8660.409521,-1184.329507,612.876398
2868.703346,-10807.006753,-296.082377,689.485948
2868.703683,-11251.130318,0.000000,-383.047749
2868.704020,-9992.780217,1184.329507,-1838.629195
2868.704358,-9844.739029,-1702.473667,-1762.019645
2868.704695,-11769.274478,-3034.844362,-1532.190996
2868.705032,-10436.903782,-2442.679609,-2068.457845
2868.705370,-8364.327145,-2368.659014,-1762.019645
2868.705707,-8438.347739,-2812.782580,0.000000
2868.706044,-10807.006753,-3256.906145,-689.485948
2868.706381,-11399.171507,-1924.535449,-459.657299
2868.706719,-10066.800811,-666.185348,-612.876398
2868.707056,-9474.636058,-2368.659014,383.047749
2868.707393,-11399.171507,-2220.617826,1302.362347
2868.707731,-10732.986159,-1702.473667,1072.533697
2868.708068,-8956.491898,-370.102971,1838.629195
2868.708405,-8956.491898,-1110.308913,3524.039291
2868.708742,-10436.903782,-740.205942,3140.991542
2868.709080,-11325.150913,1480.411884,2145.067394
2868.709417,-10436.903782,1850.514855,842.705048
2868.709754,-9770.718434,962.267725,0.000000
2868.710092,-11399.171507,-444.123565,76.609550
2868.710429,-10584.944971,148.041188,229.828649
2868.710766,-7476.080014,1258.350101,-229.828649
2868.711104,-7698.141797,814.226536,306.438199
2868.711441,-9918.759623,740.205942,-536.266849
2868.711778,-10732.986159,666.185348,-1072.533697
2868.712115,-9770.718434,2146.597232,-1302.362347
2868.712453,-9178.553681,370.102971,-612.876398
2868.712790,-10807.006753,-370.102971,-153.219100
2868.713127,-10658.965565,-592.164754,-306.438199
2868.713465,-8882.471304,222.061783,153.219100
2868.713802,-8142.265362,-1554.432478,689.485948
2868.714139,-9918.759623,-1480.411884,842.705048
2868.714477,-11103.089130,-592.164754,1149.143247
2868.714814,-9918.759623,1110.308913,383.047749
2868.715151,-9474.636058,148.041188,-76.609550
2868.715488,-12287.418637,-1110.308913,536.266849
2868.715826,-11547.212695,-888.247130,0.000000
2868.716163,-8882.471304,0.000000,0.000000
2868.716500,-8142.265362,-666.185348,1378.971896
2868.716838,-10214.842000,-296.082377,842.705048
2868.717175,-11843.295072,0.000000,-536.266849
2868.717512,-10436.903782,444.123565,-1225.752797
2868.717850,-9104.533087,74.020594,-689.485948
2868.718187,-10807.006753,-1110.308913,0.000000
2868.718524,-10955.047942,-962.267725,-689.485948
2868.718861,-8808.450710,-888.247130,153.219100
2868.719199,-8216.285956,-1258.350101,306.438199
2868.719536,-9548.656652,-2072.576638,306.438199
2868.719873,-11251.130318,-444.123565,919.314598
2868.720211,-10214.842000,444.123565,383.047749
2868.720548,-9474.636058,-370.102971,0.000000
2868.720885,-10584.944971,-1776.494261,153.219100
2868.721222,-11251.130318,-1628.453072,536.266849
2868.721560,-9400.615463,-518.144159,919.314598
2868.721897,-7698.141797,-666.185348,1762.019645
2868.722234,-9770.718434,-148.041188,2374.896044
2868.722572,-11547.212695,888.247130,1532.190996
2868.722909,-10732.986159,1776.494261,306.438199
2868.723246,-9770.718434,1702.473667,995.924147
2868.723584,-10436.903782,296.082377,1149.143247
2868.723921,-11251.130318,1258.350101,1149.143247
2868.724258,-9770.718434,1332.370696,306.438199
2868.724595,-8142.265362,1184.329507,459.657299
2868.724933,-9104.533087,-518.144159,612.876398
2868.725270,-11473.192101,814.226536,306.438199
2868.725607,-10288.862594,1480.411884,-1149.143247
2868.725945,-9548.656652,-518.144159,-1838.629195
2868.726282,-10362.883188,-2220.617826,-1455.581446
2868.726619,-10584.944971,-2294.638420,-1608.800546
2868.726957,-8882.471304,-1258.350101,-766.095498
2868.727294,-8216.285956,-2294.638420,0.000000
2868.727631,-9548.656652,-2516.700203,153.219100
2868.727968,-11473.192101,-1554.432478,-153.219100
2868.728306,-10807.006753,-740.205942,0.000000
2868.728643,-9918.759623,-1258.350101,229.828649
2868.728980,-10881.027347,-2294.638420,995.924147
2868.729318,-11325.150913,-2072.576638,383.047749
2868.729655,-10140.821405,-888.247130,459.657299
2868.729992,-9178.553681,-888.247130,1915.238745
2868.730329,-10140.821405,-2072.576638,2068.457845
2868.730667,-11325.150913,0.000000,1915.238745
2868.731004,-11473.192101,1702.473667,612.876398
2868.731341,-10584.944971,1110.308913,-1378.971896
2868.731679,-10288.862594,-370.102971,-1149.143247
2868.732016,-10807.006753,-888.247130,-306.438199
2868.732353,-9178.553681,-222.061783,0.000000
2868.732691,-7624.121203,-296.082377,229.828649
2868.733028,-9178.553681,-592.164754,0.000000
2868.733365,-11399.171507,-296.082377,-383.047749
2868.733702,-9696.697840,222.061783,-1072.533697
2868.734040,-8956.491898,444.123565,0.000000
2868.734377,-9178.553681,-1406.391290,1378.971896
2868.734714,-10510.924376,-444.123565,842.705048
2868.735052,-9474.636058,296.082377,229.828649
2868.735389,-8216.285956,74.020594,1072.533697
2868.735726,-9252.574275,0.000000,2451.505594
2868.736064,-11177.109724,0.000000,2987.772442
2868.736401,-10881.027347,2738.761985,2145.067394
2868.736738,-10362.883188,1998.556043,1302.362347
2868.737075,-10881.027347,444.123565,842.705048
2868.737413,-11399.171507,-222.061783,459.657299
2868.737750,-10510.924376,592.164754,459.657299
2868.738087,-8586.388927,888.247130,459.657299
2868.738425,-8808.450710,0.000000,0.000000
2868.738762,-10955.047942,370.102971,-383.047749
2868.739099,-10881.027347,666.185348,-1072.533697
2868.739437,-9252.574275,1258.350101,-919.314598
2868.739774,-9992.780217,-370.102971,-766.095498
2868.740111,-11695.253884,-888.247130,-1072.533697
2868.740448,-10288.862594,-1036.288319,-1378.971896
2868.740786,-8290.306550,-1406.391290,-766.095498
2868.741123,-9178.553681,-2812.782580,1149.143247
2868.741460,-10214.842000,-2368.659014,1149.143247
2868.741798,-10807.006753,-666.185348,919.314598
2868.742135,-10066.800811,-370.102971,76.609550
2868.742472,-10140.821405,-1628.453072,-153.219100
2868.742809,-11547.212695,-2072.576638,153.219100
2868.743147,-10584.944971,-1184.329507,1149.143247
2868.743484,-7698.141797,-148.041188,383.047749
2868.743821,-8660.409521,-962.267725,1532.190996
2868.744159,-11029.068536,370.102971,1378.971896
2868.744496,-11325.150913,1184.329507,766.095498
2868.744833,-9992.780217,1406.391290,229.828649
2868.745171,-9474.636058,1628.453072,0.000000
2868.745508,-11029.068536,222.061783,383.047749
2868.745845,-10658.965565,962.267725,153.219100
2868.746182,-8068.244768,814.226536,0.000000
2868.746520,-8660.409521,0.000000,1225.752797
2868.746857,-10807.006753,370.102971,842.705048
2868.747194,-10807.006753,1184.329507,0.000000
2868.747532,-9474.636058,2146.597232,-459.657299
2868.747869,-9252.574275,-444.123565,-919.314598
2868.748206,-10732.986159,-1628.453072,-919.314598
2868.748544,-11029.068536,-962.267725,-229.828649
2868.748881,-8364.327145,-666.185348,536.266849
2868.749218,-8364.327145,-2072.576638,0.000000
2868.749555,-10066.800811,-1554.432478,919.314598
2868.749893,-10881.027347,-814.226536,612.876398
2868.750230,-9252.574275,-666.185348,766.095498
2868.750567,-9548.656652,-740.205942,766.095498
2868.750905,-11547.212695,-962.267725,1149.143247
2868.751242,-11251.130318,74.020594,842.705048
2868.751579,-9696.697840,0.000000,689.485948
2868.751916,-9252.574275,-1184.329507,1378.971896
2868.752254,-9918.759623,-1036.288319,1838.629195
2868.752591,-11177.109724,666.185348,689.485948
2868.752928,-10362.883188,1258.350101,-536.266849
2868.753266,-9770.718434,-740.205942,-1608.800546
2868.753603,-11325.150913,-1258.350101,-1302.362347
2868.753940,-11399.171507,-740.205942,-766.095498
2868.754278,-8808.450710,0.000000,-1685.410096
2868.754615,-8068.244768,-1850.514855,-1072.533697
2868.754952,-10362.883188,-2220.617826,76.609550
2868.755289,-11103.089130,-1184.329507,0.000000
2868.755626,-9548.656652,-296.082377,76.609550
2868.755963,-9474.636058,-1258.350101,383.047749
2868.756300,-10658.965565,-1110.308913,842.705048
2868.756638,-11473.192101,-814.226536,689.485948
2868.756975,-8956.491898,0.000000,919.314598
2868.757312,-8364.327145,-1184.329507,2451.505594
2868.757649,-10066.800811,-296.082377,3294.210641
2868.757987,-10658.965565,1628.453072,1915.238745
2868.758324,-9918.759623,2368.659014,689.485948
2868.758661,-9474.636058,1406.391290,689.485948
2868.758998,-10732.986159,0.000000,536.266849
2868.759336,-11177.109724,1480.411884,383.047749
2868.759673,-9326.594869,1850.514855,459.657299
2868.760010,-8290.306550,962.267725,-459.657299
2868.760347,-10214.842000,-444.123565,-306.438199
2868.760684,-11473.192101,1110.308913,-459.657299
2868.761022,-9770.718434,1184.329507,-1072.533697
2868.761359,-9030.512492,296.082377,-1302.362347
2868.761696,-9992.780217,-962.267725,-842.705048
2868.762033,-11029.068536,-888.247130,-1149.143247
2868.762371,-9252.574275,-296.082377,-1225.752797
2868.762708,-8364.327145,-1480.411884,459.657299
2868.763045,-10658.965565,-1850.514855,1991.848295
2868.763382,-11473.192101,-444.123565,842.705048
2868.763720,-10140.821405,518.144159,383.047749
2868.764057,-9992.780217,-666.185348,306.438199
2868.764394,-11251.130318,-2516.700203,1378.971896
2868.764731,-11547.212695,-1554.432478,919.314598
2868.765069,-9400.615463,-74.020594,-153.219100
2868.765406,-8216.285956,-518.144159,1149.143247
2868.765743,-9992.780217,-1258.350101,1532.190996
2868.766080,-11177.109724,0.000000,612.876398
2868.766418,-10214.842000,1332.370696,76.609550
2868.766755,-9400.615463,814.226536,536.266849
2868.767092,-10584.944971,-148.041188,76.609550
2868.767429,-11547.212695,370.102971,383.047749
2868.767766,-9474.636058,296.082377,-536.266849
2868.768104,-7698.141797,-518.144159,0.000000
2868.768441,-9326.594869,-1110.308913,1072.533697
2868.768778,-10214.842000,-148.041188,153.219100
2868.769115,-9918.759623,962.267725,0.000000
2868.769453,-9326.594869,518.144159,0.000000
2868.769790,-10732.986159,-1110.308913,-612.876398
2868.770127,-11917.315666,-74.020594,-229.828649
2868.770464,-10140.821405,0.000000,-383.047749
2868.770802,-7846.182985,74.020594,229.828649
2868.771139,-9474.636058,-1110.308913,1378.971896
2868.771476,-10732.986159,0.000000,2145.067394
2868.771813,-10510.924376,518.144159,1072.533697
2868.772151,-9622.677246,1184.329507,1072.533697
2868.772488,-10881.027347,592.164754,1149.143247
2868.772825,-12583.501014,444.123565,1149.143247
2868.773162,-10140.821405,592.164754,153.219100
2868.773500,-7846.182985,444.123565,1149.143247
2868.773837,-8882.471304,-1332.370696,1608.800546
2868.774174,-10066.800811,370.102971,842.705048
2868.774511,-10881.027347,592.164754,229.828649
2868.774848,-9474.636058,444.123565,-1072.533697
2868.775186,-10140.821405,-888.247130,-766.095498
2868.775523,-12509.480420,-1554.432478,-536.266849
2868.775860,-10214.842000,-888.247130,-2068.457845
2868.776197,-7476.080014,-1998.556043,-1608.800546
2868.776535,-8660.409521,-3034.844362,0.000000
2868.776872,-11103.089130,-1850.514855,229.828649
2868.777209,-11547.212695,-296.082377,-842.705048
2868.777546,-9326.594869,-888.247130,-1302.362347
2868.777884,-9696.697840,-1332.370696,0.000000
2868.778221,-12139.377449,-1776.494261,1762.019645
2868.778558,-10732.986159,-592.164754,1149.143247
2868.778895,-8438.347739,-740.205942,1302.362347
2868.779233,-9696.697840,-814.226536,2604.724693
2868.779570,-11029.068536,740.205942,3140.991542
2868.779907,-10807.006753,2368.659014,1378.971896
2868.780244,-9474.636058,1702.473667,919.314598
2868.780581,-9844.739029,592.164754,-229.828649
2868.780919,-11695.253884,888.247130,-306.438199
2868.781256,-10288.862594,814.226536,-1302.362347
2868.781593,-7254.018232,518.144159,-1532.190996
2868.781930,-7402.059420,-518.144159,-229.828649
2868.782268,-10510.924376,222.061783,0.000000
2868.782605,-10658.965565,1702.473667,-1608.800546
2868.782942,-8808.450710,740.205942,-1685.410096
2868.783279,-9474.636058,0.000000,-76.609550
2868.783617,-11843.295072,-1036.288319,536.266849
2868.783954,-11325.150913,222.061783,-459.657299
2868.784291,-8364.327145,-148.041188,-306.438199
2868.784628,-8660.409521,-2146.597232,1762.019645
2868.784966,-10807.006753,-1702.473667,2834.553343
2868.785303,-11177.109724,444.123565,2221.676944
2868.785640,-9622.677246,222.061783,995.924147
2868.785977,-10214.842000,-888.247130,306.438199
2868.786315,-12065.356855,-1184.329507,1762.019645
2868.786652,-11103.089130,814.226536,536.266849
2868.786989,-8290.306550,74.020594,76.609550
2868.787326,-8956.491898,-444.123565,842.705048
2868.787663,-10881.027347,-296.082377,919.314598
2868.788001,-11473.192101,1406.391290,229.828649
2868.788338,-9696.697840,1258.350101,-766.095498
2868.788675,-8882.471304,-370.102971,-1072.533697
2868.789012,-11843.295072,-592.164754,612.876398
2868.789350,-11843.295072,-518.144159,-995.924147
2868.789687,-8216.285956,-592.164754,-1762.019645
2868.790024,-7920.203579,-1776.494261,0.000000
2868.790361,-10140.821405,-1924.535449,1532.190996
2868.790699,-10732.986159,74.020594,689.485948
2868.791036,-9326.594869,740.205942,-383.047749
2868.791373,-9474.636058,-888.247130,-995.924147
2868.791710,-11177.109724,-1776.494261,306.438199
2868.792048,-11399.171507,0.000000,1149.143247
2868.792385,-8660.409521,-370.102971,536.266849
2868.792722,-8068.244768,-592.164754,1532.190996
2868.793059,-10807.006753,-444.123565,2221.676944
2868.793397,-11843.295072,1702.473667,1532.190996
2868.793734,-9104.533087,1554.432478,0.000000
2868.794071,-8956.491898,1332.370696,383.047749
2868.794408,-11251.130318,148.041188,1455.581446
2868.794745,-11103.089130,1702.473667,229.828649
2868.795083,-8660.409521,1184.329507,-612.876398
2868.795420,-8660.409521,592.164754,0.000000
2868.795757,-10066.800811,-444.123565,612.876398
2868.796094,-11103.089130,1110.308913,-383.047749
2868.796432,-9104.533087,1110.308913,-1302.362347
2868.796769,-9252.574275,-518.144159,-1532.190996
2868.797106,-10881.027347,-2590.720797,-1225.752797
2868.797443,-10955.047942,-1850.514855,-1225.752797
2868.797781,-8438.347739,-1184.329507,-1225.752797
2868.798118,-8068.244768,-2738.761985,-153.219100
2868.798455,-10362.883188,-2072.576638,383.047749
2868.798792,-11843.295072,-962.267725,0.000000
2868.799130,-10288.862594,0.000000,-229.828649
2868.799467,-9474.636058,-1332.370696,0.000000
2868.799804,-11621.233289,-1628.453072,1455.581446
2868.800141,-12139.377449,-1184.329507,1608.800546
2868.800479,-9474.636058,-888.247130,766.095498
2868.800816,-8512.368333,-962.267725,1378.971896
2868.801153,-10436.903782,-962.267725,3140.991542
2868.801490,-11695.253884,814.226536,1991.848295
2868.801827,-9992.780217,2146.597232,76.609550
2868.802165,-9622.677246,1110.308913,383.047749
2868.802502,-11103.089130,-518.144159,0.000000
2868.802839,-11547.212695,296.082377,612.876398
2868.803176,-9030.512492,148.041188,-306.438199
2868.803514,-7624.121203,-592.164754,229.828649
2868.803851,-9400.615463,-814.226536,306.438199
2868.804188,-10807.006753,-518.144159,-229.828649
2868.804525,-9104.533087,592.164754,-1072.533697
2868.804863,-8290.306550,-740.205942,-842.705048
2868.805200,-10436.903782,-962.267725,383.047749
2868.805537,-11325.150913,-666.185348,0.000000
2868.805874,-9178.553681,-296.082377,-383.047749
2868.806212,-7476.080014,-666.185348,1685.410096
2868.806549,-9622.677246,-666.185348,2451.505594
2868.806886,-11843.295072,592.164754,2911.162892
2868.807223,-10881.027347,2072.576638,995.924147
2868.807561,-9548.656652,888.247130,459.657299
2868.807898,-11769.274478,222.061783,1072.533697
2868.808235,-12287.418637,296.082377,536.266849
2868.808572,-9918.759623,888.247130,0.000000
2868.808909,-7698.141797,0.000000,-76.609550
2868.809247,-9622.677246,-148.041188,306.438199
2868.809584,-11769.274478,444.123565,0.000000
2868.809921,-10732.986159,962.267725,-1608.800546
2868.810258,-8956.491898,-74.020594,-1762.019645
2868.810596,-10436.903782,-1480.411884,-383.047749
2868.810933,-11917.315666,-962.267725,0.000000
2868.811270,-9252.574275,-2368.659014,-1838.629195
2868.811607,-7846.182985,-2664.741391,-766.095498
2868.811945,-9252.574275,-3256.906145,459.657299
2868.812282,-10807.006753,-1850.514855,1455.581446
2868.812619,-9770.718434,-370.102971,-995.924147
2868.812956,-8956.491898,-1628.453072,-766.095498
2868.813294,-10584.944971,-2516.700203,76.609550
2868.813631,-11325.150913,-2368.659014,842.705048
2868.813968,-10362.883188,-296.082377,1302.362347
2868.814305,-7772.162391,-740.205942,1608.800546
2868.814642,-9844.739029,-370.102971,2221.676944
2868.814980,-11917.315666,666.185348,2604.724693
2868.815317,-11325.150913,2220.617826,919.314598
2868.815654,-9992.780217,1554.432478,383.047749
2868.815991,-10658.965565,592.164754,0.000000
2868.816329,-11251.130318,1110.308913,459.657299
2868.816666,-10140.821405,1776.494261,153.219100
2868.817003,-7920.203579,518.144159,-153.219100
2868.817340,-9178.553681,296.082377,766.095498
2868.817678,-11103.089130,1110.308913,766.095498
2868.818015,-10658.965565,2294.638420,-612.876398
2868.818352,-9030.512492,962.267725,-1149.143247
2868.818689,-9918.759623,-1628.453072,0.000000
2868.819027,-10732.986159,-1702.473667,0.000000
2868.819364,-9918.759623,-740.205942,536.266849
2868.819701,-7772.162391,-740.205942,153.219100
2868.820038,-8660.409521,-1998.556043,306.438199
2868.820376,-10807.006753,-1258.350101,1072.533697
2868.820713,-10436.903782,0.000000,229.828649
2868.821050,-8956.491898,-814.226536,229.828649
2868.821387,-10066.800811,-1480.411884,612.876398
2868.821724,-11547.212695,-1258.350101,1532.190996
2868.822062,-10214.842000,0.000000,689.485948
2868.822399,-8364.327145,-370.102971,0.000000
2868.822736,-10288.862594,-518.144159,1532.190996
2868.823073,-11695.253884,296.082377,1532.190996
2868.823411,-11399.171507,2294.638420,-153.219100
2868.823748,-9844.739029,666.185348,-1532.190996
2868.824085,-10362.883188,-222.061783,-1302.362347
2868.824422,-11621.233289,-1702.473667,-459.657299
2868.824760,-10807.006753,-518.144159,-383.047749
2868.825097,-8068.244768,-222.061783,-1302.362347
2868.825434,-9104.533087,-1850.514855,0.000000
2868.825771,-11547.212695,-1776.494261,689.485948
2868.826109,-10436.903782,-296.082377,-459.657299
2868.826446,-9474.636058,0.000000,153.219100
2868.826783,-9770.718434,-962.267725,153.219100
2868.827120,-11029.068536,-1702.473667,536.266849
2868.827458,-10436.903782,-444.123565,919.314598
2868.827795,-7920.203579,-592.164754,842.705048
2868.828132,-8364.327145,-1036.288319,2374.896044
2868.828469,-10436.903782,148.041188,3064.381992
2868.828806,-10881.027347,1776.494261,1608.800546
2868.829144,-9326.594869,1628.453072,0.000000
2868.829481,-9030.512492,1036.288319,766.095498
2868.829818,-11103.089130,0.000000,1225.752797
2868.830155,-10362.883188,1258.350101,689.485948
2868.830493,-8290.306550,1702.473667,0.000000
2868.830830,-8512.368333,1184.329507,0.000000
2868.831167,-11547.212695,148.041188,612.876398
2868.831504,-11547.212695,1776.494261,-689.485948
2868.831842,-9474.636058,740.205942,-2145.067394
2868.832179,-9474.636058,-370.102971,-1225.752797
2868.832516,-10955.047942,-2146.597232,-919.314598
2868.832853,-10732.986159,-1554.432478,-1072.533697
2868.833191,-8586.388927,-1850.514855,-842.705048
2868.833528,-8586.388927,-2072.576638,919.314598
2868.833865,-11399.171507,-1998.556043,919.314598
2868.834202,-11399.171507,0.000000,306.438199
2868.834540,-10214.842000,-666.185348,-459.657299
2868.834877,-9770.718434,-2072.576638,536.266849
2868.835214,-11103.089130,-2072.576638,1455.581446
2868.835551,-11325.150913,-1480.411884,1455.581446
2868.835888,-8660.409521,-1184.329507,612.876398
2868.836226,-8216.285956,-1480.411884,1302.362347
2868.836563,-11103.089130,-1184.329507,2145.067394
2868.836900,-10955.047942,814.226536,766.095498
2868.837237,-9622.677246,444.123565,-459.657299
2868.837575,-9474.636058,0.000000,-76.609550
2868.837912,-10214.842000,-296.082377,0.000000
2868.838249,-10881.027347,148.041188,76.609550
2868.838586,-8586.388927,-74.020594,-766.095498
2868.838924,-7994.224174,-518.144159,229.828649
2868.839261,-10955.047942,0.000000,1072.533697
2868.839598,-11473.192101,1036.288319,229.828649
2868.839935,-9770.718434,1184.329507,-612.876398
2868.840273,-9326.594869,-888.247130,0.000000
2868.840610,-10955.047942,-1258.350101,1072.533697
2868.840947,-11177.109724,-370.102971,1302.362347
2868.841284,-8808.450710,-444.123565,229.828649
2868.841621,-7550.100608,-222.061783,1378.971896
2868.841959,-10140.821405,0.000000,2221.676944
2868.842296,-11843.295072,1702.473667,1838.629195
2868.842633,-9992.780217,1628.453072,0.000000
2868.842970,-9548.656652,740.205942,76.609550
2868.843308,-11473.192101,74.020594,919.314598
2868.843645,-11473.192101,0.000000,536.266849
2868.843982,-8882.471304,296.082377,-383.047749
2868.844319,-7698.141797,-1184.329507,229.828649
2868.844657,-10066.800811,-148.041188,919.314598
2868.844994,-11029.068536,888.247130,-459.657299
2868.845331,-10214.842000,814.226536,-1149.143247
2868.845668,-9770.718434,-518.144159,-2068.457845
2868.846006,-11473.192101,-1850.514855,-995.924147
2868.846343,-11325.150913,-1110.308913,-689.485948
2868.846680,-9178.553681,-962.267725,-1915.238745
2868.847017,-7698.141797,-2516.700203,-919.314598
2868.847355,-9992.780217,-3034.844362,306.438199
2868.847692,-11695.253884,-1554.432478,0.000000
2868.848029,-10362.883188,-296.082377,-995.924147
2868.848366,-9770.718434,-1776.494261,-766.095498
2868.848703,-10881.027347,-2072.576638,229.828649
2868.849041,-11769.274478,-1332.370696,919.314598
2868.849378,-9474.636058,0.000000,1072.533697
2868.849715,-8068.244768,-962.267725,1225.752797
2868.850052,-10436.903782,-296.082377,2757.943793
2868.850390,-11843.295072,1332.370696,2145.067394
2868.850727,-10658.965565,2442.679609,306.438199
2868.851064,-9474.636058,1258.350101,0.000000
2868.851401,-10584.944971,0.000000,76.609550
2868.851739,-10881.027347,666.185348,536.266849
2868.852076,-8364.327145,1036.288319,-306.438199
2868.852413,-7105.977043,296.082377,76.609550
2868.852750,-9474.636058,-444.123565,459.657299
2868.853088,-11029.068536,666.185348,76.609550
2868.853425,-9622.677246,1776.494261,-919.314598
2868.853762,-8364.327145,0.000000,-1072.533697
2868.854099,-10362.883188,-814.226536,919.314598
2868.854437,-11695.253884,-1480.411884,842.705048
2868.854774,-9474.636058,-222.061783,536.266849
2868.855111,-8290.306550,-1110.308913,536.266849
2868.855448,-10066.800811,-2294.638420,2068.457845
2868.855785,-11473.192101,-1258.350101,2298.286494
2868.856123,-10584.944971,148.041188,689.485948
2868.856460,-9548.656652,-296.082377,306.438199
2868.856797,-10732.986159,-1480.411884,383.047749
2868.857134,-12435.459826,-1332.370696,1149.143247
2868.857472,-9622.677246,0.000000,153.219100
2868.857809,-8808.450710,-222.061783,153.219100
2868.858146,-10214.842000,-814.226536,1149.143247
2868.858483,-11399.171507,-592.164754,383.047749
2868.858821,-10955.047942,740.205942,-459.657299
2868.859158,-9104.533087,-444.123565,-1302.362347
2868.859495,-9844.739029,-1332.370696,-842.705048
2868.859832,-11695.253884,-1406.391290,-689.485948
2868.860170,-9844.739029,-1184.329507,-1685.410096
2868.860507,-7624.121203,-740.205942,-2145.067394
2868.860844,-8512.368333,-2072.576638,-459.657299
2868.861181,-11473.192101,-1628.453072,1149.143247
2868.861519,-9770.718434,0.000000,-689.485948
2868.861856,-9326.594869,0.000000,-995.924147
2868.862193,-10436.903782,-1406.391290,306.438199
2868.862530,-11251.130318,-1702.473667,0.000000
2868.862868,-10066.800811,0.000000,766.095498
2868.863205,-7994.224174,0.000000,1378.971896
2868.863542,-9104.533087,-370.102971,1991.848295
2868.863879,-11769.274478,888.247130,2068.457845
2868.864217,-11399.171507,2886.803174,995.924147
2868.864554,-9400.615463,2368.659014,-383.047749
2868.864891,-9844.739029,1184.329507,536.266849
2868.865228,-11399.171507,1184.329507,536.266849
2868.865566,-10288.862594,1776.494261,0.000000
2868.865903,-7846.182985,1110.308913,-612.876398
2868.866240,-8734.430116,0.000000,383.047749
2868.866577,-11325.150913,740.205942,995.924147
2868.866915,-10732.986159,1406.391290,-689.485948
2868.867252,-9252.574275,592.164754,-1608.800546
2868.867589,-9326.594869,-962.267725,-995.924147
2868.867926,-10955.047942,-1850.514855,229.828649
2868.868263,-9844.739029,-1850.514855,536.266849
2868.868601,-7550.100608,-1850.514855,0.000000
2868.868938,-9252.574275,-2072.576638,1302.362347
2868.869275,-11399.171507,-1258.350101,1455.581446
2868.869612,-11251.130318,-592.164754,306.438199
2868.869950,-10140.821405,-592.164754,842.705048
2868.870287,-9918.759623,-2220.617826,1302.362347
2868.870624,-11843.295072,-1184.329507,2145.067394
2868.870961,-11399.171507,-740.205942,1455.581446
2868.871299,-8882.471304,-962.267725,536.266849
2868.871636,-8882.471304,-1332.370696,1378.971896
2868.871973,-11547.212695,0.000000,2681.334243
2868.872310,-11621.233289,888.247130,689.485948
2868.872648,-9844.739029,666.185348,-842.705048
2868.872985,-9696.697840,-296.082377,0.000000
2868.873322,-11399.171507,-592.164754,306.438199
2868.873659,-10140.821405,74.020594,-306.438199
2868.873997,-8660.409521,370.102971,-689.485948
2868.874334,-8512.368333,-962.267725,-229.828649
2868.874671,-10510.924376,148.041188,229.828649
2868.875008,-11177.109724,148.041188,-689.485948
2868.875346,-8660.409521,518.144159,-919.314598
2868.875683,-9104.533087,-1258.350101,0.000000
2868.876020,-11103.089130,-1110.308913,459.657299
2868.876357,-10584.944971,0.000000,76.609550
2868.876695,-8660.409521,0.000000,-383.047749
2868.877032,-8068.244768,-1184.329507,536.266849
2868.877369,-10658.965565,0.000000,1685.410096
2868.877706,-11399.171507,1776.494261,1532.190996
2868.878044,-9104.533087,1702.473667,-76.609550
2868.878381,-9770.718434,962.267725,0.000000
2868.878718,-11843.295072,148.041188,612.876398
2868.879055,-11621.233289,666.185348,153.219100
2868.879393,-9104.533087,1036.288319,-612.876398
2868.879730,-7994.224174,-518.144159,0.000000
2868.880067,-10288.862594,0.000000,689.485948
2868.880404,-11103.089130,518.144159,-383.047749
2868.880742,-9770.718434,666.185348,-766.095498
2868.881079,-9474.636058,-444.123565,-842.705048
2868.881416,-11473.192101,-1110.308913,-536.266849
2868.881753,-11325.150913,-148.041188,-919.314598
2868.882091,-8660.409521,-1110.308913,-1838.629195
2868.882428,-8216.285956,-2886.803174,-306.438199
2868.882765,-10584.944971,-2442.679609,766.095498
2868.883102,-10658.965565,-1184.329507,306.438199
2868.883439,-9474.636058,0.000000,-383.047749
2868.883777,-9622.677246,-1998.556043,306.438199
2868.884114,-11843.295072,-2664.741391,1225.752797
2868.884451,-11177.109724,-2146.597232,2068.457845
2868.884788,-8808.450710,-518.144159,2451.505594
2868.885126,-8438.347739,-962.267725,2834.553343
2868.885463,-11177.109724,-370.102971,3217.601092
2868.885800,-11621.233289,962.267725,2145.067394
2868.886137,-9844.739029,1628.453072,995.924147
2868.886475,-9474.636058,1332.370696,459.657299
2868.886812,-11325.150913,222.061783,459.657299
2868.887149,-11029.068536,1036.288319,-383.047749
2868.887486,-8882.471304,1258.350101,-995.924147
2868.887824,-8068.244768,296.082377,-306.438199
2868.888161,-9548.656652,-814.226536,306.438199
2868.888498,-10955.047942,814.226536,229.828649
2868.888835,-9400.615463,1998.556043,-766.095498
2868.889173,-8956.491898,370.102971,-1149.143247
2868.889510,-10807.006753,-518.144159,229.828649
2868.889847,-11769.274478,-148.041188,-306.438199
2868.890184,-9474.636058,370.102971,-383.047749
2868.890522,-7920.203579,-888.247130,459.657299
2868.890859,-10288.862594,-1332.370696,1608.800546
2868.891196,-11695.253884,-1036.288319,1685.410096
2868.891533,-9992.780217,0.000000,459.657299
2868.891871,-8512.368333,-370.102971,536.266849
2868.892208,-10584.944971,-1406.391290,1532.190996
2868.892545,-11695.253884,0.000000,1072.533697
2868.892882,-9770.718434,148.041188,0.000000
2868.893220,-8586.388927,-666.185348,689.485948
2868.893557,-10214.842000,-962.267725,1455.581446
2868.893894,-12287.418637,296.082377,919.314598
2868.894231,-9918.759623,1480.411884,-995.924147
2868.894569,-9326.594869,0.000000,-1302.362347
2868.894906,-10807.006753,-1110.308913,-1072.533697
2868.895243,-11547.212695,-666.185348,-1149.143247
2868.895580,-10066.800811,-962.267725,-1225.752797
2868.895918,-7846.182985,-1110.308913,-1915.238745
2868.896255,-9178.553681,-2294.638420,-383.047749
2868.896592,-11473.192101,-888.247130,306.438199
2868.896929,-9474.636058,-296.082377,-995.924147
2868.897266,-9252.574275,-222.061783,-76.609550
2868.897604,-11103.089130,-1110.308913,1072.533697
2868.897941,-11917.315666,-962.267725,1072.533697
2868.898278,-10436.903782,74.020594,842.705048
2868.898615,-8142.265362,-1628.453072,1225.752797
2868.898953,-8956.491898,-592.164754,2911.162892
2868.899290,-10955.047942,444.123565,2911.162892
2868.899627,-10436.903782,2220.617826,1225.752797
2868.899964,-8734.430116,1258.350101,76.609550
2868.900302,-10881.027347,148.041188,842.705048
2868.900639,-11843.295072,1702.473667,383.047749
2868.900976,-9622.677246,814.226536,-383.047749
2868.901313,-7476.080014,740.205942,-536.266849
2868.901651,-8808.450710,-888.247130,689.485948
2868.901988,-10584.944971,444.123565,536.266849
2868.902325,-9918.759623,518.144159,-1149.143247
2868.902662,-9104.533087,0.000000,-1532.190996
2868.903000,-9918.759623,-1406.391290,-306.438199
2868.903337,-11251.130318,-1184.329507,-766.095498
2868.903674,-9770.718434,-1628.453072,-536.266849
2868.904011,-8068.244768,-1924.535449,-1225.752797
2868.904349,-9400.615463,-3552.988522,1072.533697
2868.904686,-11399.171507,-740.205942,842.705048
2868.905023,-10584.944971,0.000000,0.000000
2868.905360,-9770.718434,-888.247130,383.047749
2868.905698,-10955.047942,-2220.617826,766.095498
2868.906035,-12213.398043,-1258.350101,1302.362347
2868.906372,-10955.047942,-296.082377,1378.971896
2868.906709,-8660.409521,-666.185348,766.095498
2868.907047,-9400.615463,-1406.391290,1302.362347
2868.907384,-12065.356855,0.000000,2145.067394
2868.907721,-10807.006753,1332.370696,459.657299
2868.908058,-9252.574275,814.226536,0.000000
2868.908396,-10140.821405,296.082377,689.485948
2868.908733,-11177.109724,0.000000,-153.219100
2868.909070,-10436.903782,1036.288319,-383.047749
2868.909407,-8290.306550,0.000000,-919.314598
2868.909745,-8956.491898,-1332.370696,0.000000
2868.910082,-10362.883188,0.000000,766.095498
2868.910419,-9844.739029,222.061783,-536.266849
2868.910756,-8290.306550,814.226536,-689.485948
2868.911093,-9548.656652,-1332.370696,153.219100
2868.911431,-11177.109724,-666.185348,689.485948
2868.911768,-9844.739029,296.082377,-229.828649
2868.912105,-7994.224174,518.144159,153.219100
2868.912442,-8882.471304,-888.247130,1378.971896
2868.912780,-10584.944971,-296.082377,2221.676944
2868.913117,-10658.965565,2516.700203,1532.190996
2868.913454,-9400.615463,2072.576638,536.266849
2868.913791,-10214.842000,740.205942,612.876398
2868.914129,-11843.295072,1406.391290,919.314598
2868.914466,-11843.295072,1258.350101,459.657299
2868.914803,-8734.430116,592.164754,-76.609550
2868.915140,-8882.471304,-666.185348,229.828649
2868.915478,-11103.089130,-222.061783,1455.581446
2868.915815,-9918.759623,666.185348,-612.876398
2868.916152,-8808.450710,370.102971,-1685.410096
2868.916489,-10140.821405,-592.164754,-1149.143247
2868.916827,-12065.356855,-1554.432478,-1608.800546
2868.917164,-11399.171507,-962.267725,-1532.190996
2868.917501,-8142.265362,-1628.453072,-2145.067394
2868.917838,-8068.244768,-2442.679609,-612.876398
2868.918176,-10288.862594,-2812.782580,995.924147
2868.918513,-10881.027347,-1332.370696,153.219100
2868.918850,-9178.553681,-962.267725,-383.047749
2868.919187,-10436.903782,-2146.597232,536.266849
2868.919525,-11547.212695,-2220.617826,1149.143247
2868.919862,-11029.068536,-1776.494261,1915.238745
2868.920199,-8734.430116,-740.205942,2068.457845
2868.920536,-8660.409521,-1184.329507,2145.067394
2868.920874,-11251.130318,-370.102971,2528.115143
2868.921211,-11621.233289,740.205942,1915.238745
2868.921548,-9252.574275,1628.453072,383.047749
2868.921885,-10214.842000,1332.370696,0.000000
2868.922223,-11843.295072,740.205942,919.314598
2868.922560,-10732.986159,888.247130,-612.876398
2868.922897,-8290.306550,592.164754,-1225.752797
2868.923234,-7920.203579,148.041188,0.000000
2868.923572,-9696.697840,-444.123565,536.266849
2868.923909,-11029.068536,1332.370696,153.219100
2868.924246,-9400.615463,1480.411884,-383.047749
2868.924583,-9326.594869,-222.061783,-306.438199
2868.924920,-10955.047942,-444.123565,995.924147
2868.925258,-11325.150913,0.000000,459.657299
2868.925595,-8882.471304,0.000000,76.609550
2868.925932,-8438.347739,-1554.432478,306.438199
2868.926269,-10066.800811,-2072.576638,1378.971896
2868.926607,-10807.006753,0.000000,1149.143247
2868.926944,-9030.512492,0.000000,-306.438199
2868.927281,-9252.574275,-592.164754,-459.657299
2868.927618,-11029.068536,-1184.329507,0.000000
2868.927956,-11695.253884,-148.041188,536.266849
2868.928293,-9030.512492,-296.082377,153.219100
2868.928630,-8290.306550,-888.247130,536.266849
2868.928967,-10807.006753,-148.041188,1762.019645
2868.929305,-11843.295072,740.205942,229.828649
2868.929642,-10066.800811,1184.329507,-842.705048
2868.929979,-9252.574275,-296.082377,-919.314598
2868.930316,-11251.130318,-1258.350101,0.000000
2868.930654,-11473.192101,-74.020594,-689.485948
2868.930991,-9696.697840,-740.205942,-1225.752797
2868.931328,-8216.285956,-1776.494261,-1302.362347
2868.931665,-9918.759623,-1998.556043,0.000000
2868.932003,-10807.006753,-148.041188,459.657299
2868.932340,-9696.697840,0.000000,153.219100
2868.932677,-9770.718434,-1036.288319,-383.047749
2868.933014,-11621.233289,-1480.411884,689.485948
2868.933352,-11547.212695,-740.205942,995.924147
2868.933689,-9030.512492,-296.082377,842.705048
2868.934026,-7994.224174,-666.185348,1838.629195
2868.934363,-9770.718434,0.000000,2528.115143
2868.934701,-11177.109724,1406.391290,1455.581446
2868.935038,-9918.759623,1998.556043,459.657299
2868.935375,-9326.594869,1258.350101,459.657299
2868.935712,-10807.006753,518.144159,1072.533697
2868.936050,-11177.109724,2220.617826,842.705048
2868.936387,-8882.471304,1850.514855,229.828649
2868.936724,-7994.224174,444.123565,459.657299
2868.937061,-9696.697840,-814.226536,1072.533697
2868.937399,-11103.089130,1184.329507,842.705048
2868.937736,-10362.883188,1628.453072,-229.828649
2868.938073,-9992.780217,296.082377,-1378.971896
2868.938410,-10066.800811,-1184.329507,-1915.238745
2868.938747,-10436.903782,-1554.432478,-1378.971896
2868.939085,-9326.594869,-1480.411884,-1225.752797
2868.939422,-8068.244768,-1702.473667,-383.047749
2868.939759,-9548.656652,-2072.576638,459.657299
2868.940096,-11473.192101,-1110.308913,0.000000
2868.940434,-10658.965565,-592.164754,-306.438199
2868.940771,-10288.862594,-592.164754,0.000000
2868.941108,-11769.274478,-2294.638420,1302.362347
2868.941445,-11103.089130,-962.267725,1378.971896
2868.941783,-9770.718434,-518.144159,842.705048
2868.942120,-8808.450710,-1480.411884,1072.533697
2868.942457,-9400.615463,-1776.494261,1225.752797
2868.942794,-11547.212695,0.000000,2068.457845
2868.943132,-10732.986159,1110.308913,536.266849
2868.943469,-9474.636058,814.226536,-1302.362347
2868.943806,-10955.047942,-740.205942,-1072.533697
2868.944143,-11399.171507,-296.082377,-153.219100
2868.944481,-9178.553681,-296.082377,-689.485948
2868.944818,-7698.141797,-296.082377,-766.095498
2868.945155,-9400.615463,-888.247130,-76.609550
2868.945492,-11473.192101,222.061783,-76.609550
2868.945830,-10288.862594,74.020594,-689.485948
2868.946167,-8586.388927,148.041188,-536.266849
2868.946504,-10214.842000,-962.267725,842.705048
2868.946841,-11103.089130,-370.102971,1302.362347
2868.947179,-9992.780217,222.061783,306.438199
2868.947516,-8142.265362,0.000000,766.095498
2868.947853,-9548.656652,-592.164754,2604.724693
2868.948190,-11325.150913,148.041188,3140.991542
2868.948528,-10510.924376,1998.556043,1685.410096
2868.948865,-9326.594869,1702.473667,536.266849
2868.949202,-10510.924376,962.267725,0.000000
2868.949539,-11843.295072,370.102971,536.266849
2868.949877,-10066.800811,370.102971,0.000000
2868.950214,-7698.141797,0.000000,0.000000
2868.950551,-9104.533087,-296.082377,306.438199
2868.950888,-10807.006753,-222.061783,306.438199
2868.951226,-9844.739029,-592.164754,-1149.143247
2868.951563,-8586.388927,222.061783,-995.924147
2868.951900,-10362.883188,-1258.350101,-306.438199
2868.952237,-11991.336260,-1036.288319,-153.219100
2868.952574,-10362.883188,-1184.329507,-1608.800546
2868.952912,-8660.409521,-1850.514855,-842.705048
2868.953249,-9252.574275,-2664.741391,0.000000
2868.953586,-10732.986159,-2220.617826,766.095498
2868.953923,-11399.171507,-222.061783,76.609550
2868.954261,-9622.677246,-444.123565,-1149.143247
2868.954598,-10955.047942,-2146.597232,-383.047749
2868.954935,-12287.418637,-2368.659014,153.219100
2868.955272,-10510.924376,-1554.432478,995.924147
2868.955610,-8512.368333,-888.247130,1762.019645
2868.955947,-8956.491898,-740.205942,1838.629195
2868.956284,-11103.089130,74.020594,2451.505594
2868.956621,-11695.253884,1628.453072,1225.752797
2868.956959,-9400.615463,1110.308913,0.000000
2868.957296,-10066.800811,1036.288319,689.485948
2868.957633,-11177.109724,962.267725,919.314598
2868.957970,-9770.718434,1258.350101,-383.047749
2868.958307,-7920.203579,222.061783,153.219100
2868.958645,-8216.285956,-740.205942,995.924147
2868.958982,-9992.780217,74.020594,919.314598
2868.959319,-10510.924376,1702.473667,0.000000
2868.959656,-8808.450710,814.226536,-1455.581446
2868.959993,-9400.615463,-666.185348,-1225.752797
2868.960330,-11177.109724,-1110.308913,-612.876398
2868.960667,-10362.883188,-148.041188,-612.876398
2868.961005,-7846.182985,74.020594,-536.266849
2868.961342,-8660.409521,-1554.432478,76.609550
2868.961679,-11399.171507,-666.185348,1762.019645
2868.962016,-11547.212695,518.144159,995.924147
2868.962353,-10288.862594,74.020594,459.657299
2868.962690,-10362.883188,-1110.308913,1149.143247
2868.963027,-11621.233289,-740.205942,1915.238745
2868.963365,-11103.089130,444.123565,1225.752797
2868.963702,-9178.553681,-444.123565,995.924147
2868.964039,-9474.636058,-1184.329507,1149.143247
2868.964376,-11177.109724,-666.185348,1378.971896
2868.964713,-11177.109724,1258.350101,536.266849
2868.965050,-9622.677246,444.123565,-1685.410096
2868.965388,-9548.656652,-1258.350101,-1762.019645
2868.965725,-10807.006753,-2368.659014,-459.657299
2868.966062,-10214.842000,-1184.329507,-1378.971896
2868.966399,-7994.224174,-1332.370696,-1532.190996
2868.966736,-8068.244768,-2368.659014,-1378.971896
2868.967073,-9474.636058,-2368.659014,-153.219100
2868.967410,-11103.089130,-814.226536,229.828649
2868.967748,-9474.636058,-518.144159,-612.876398
2868.968085,-9548.656652,-1480.411884,0.000000
2868.968422,-11547.212695,-1258.350101,1608.800546
2868.968759,-10881.027347,-888.247130,1608.800546
2868.969096,-9326.594869,-296.082377,1455.581446
2868.969433,-9622.677246,-1184.329507,2528.115143
2868.969771,-10881.027347,-296.082377,2451.505594
2868.970108,-11251.130318,1924.535449,1532.190996
2868.970445,-9696.697840,2664.741391,459.657299
2868.970782,-9992.780217,1776.494261,-842.705048
2868.971119,-11473.192101,444.123565,0.000000
2868.971456,-10288.862594,1258.350101,153.219100
2868.971793,-8512.368333,1480.411884,-229.828649
2868.972131,-8290.306550,1036.288319,612.876398
2868.972468,-9474.636058,518.144159,536.266849
2868.972805,-11325.150913,1406.391290,76.609550
2868.973142,-10436.903782,1258.350101,-536.266849
2868.973479,-9770.718434,-222.061783,-766.095498
2868.973816,-10807.006753,-1998.556043,229.828649
2868.974154,-9474.636058,-740.205942,229.828649
2868.974491,-8586.388927,-1998.556043,306.438199
2868.974828,-7476.080014,-2664.741391,459.657299
2868.975165,-9696.697840,-1776.494261,842.705048
2868.975502,-11843.295072,-666.185348,919.314598
2868.975839,-10066.800811,148.041188,-842.705048
2868.976176,-9474.636058,-1406.391290,-1072.533697
2868.976514,-11843.295072,-2146.597232,536.266849
2868.976851,-10807.006753,-1776.494261,995.924147
2868.977188,-9030.512492,-814.226536,919.314598
2868.977525,-8808.450710,-814.226536,612.876398
2868.977862,-10362.883188,-296.082377,995.924147
2868.978199,-12731.542202,740.205942,842.705048
2868.978536,-10584.944971,740.205942,-536.266849
2868.978874,-9622.677246,814.226536,0.000000
2868.979211,-11251.130318,-74.020594,0.000000
2868.979548,-10658.965565,0.000000,0.000000
2868.979885,-9252.574275,0.000000,-459.657299
2868.980222,-8734.430116,-296.082377,153.219100
2868.980559,-10214.842000,-592.164754,536.266849
2868.980897,-11103.089130,-148.041188,76.609550
2868.981234,-9696.697840,666.185348,-689.485948
2868.981571,-8956.491898,-666.185348,-919.314598
2868.981908,-10214.842000,-1406.391290,-536.266849
2868.982245,-10658.965565,-962.267725,0.000000
2868.982582,-8956.491898,-592.164754,153.219100
2868.982919,-6957.935855,-666.185348,383.047749
2868.983257,-9474.636058,-296.082377,1072.533697
2868.983594,-11177.109724,370.102971,1991.848295
2868.983931,-10140.821405,2442.679609,766.095498
2868.984268,-9030.512492,814.226536,766.095498
2868.984605,-10732.986159,1184.329507,919.314598
2868.984942,-11843.295072,518.144159,1302.362347
2868.985280,-10436.903782,1036.288319,612.876398
2868.985617,-8068.244768,0.000000,536.266849
2868.985954,-10140.821405,-148.041188,1072.533697
2868.986291,-11473.192101,370.102971,1072.533697
2868.986628,-10066.800811,592.164754,-766.095498
2868.986965,-8882.471304,-592.164754,-1149.143247
2868.987302,-11177.109724,-1554.432478,-1302.362347
2868.987640,-11695.253884,-1184.329507,-1378.971896
2868.987977,-10140.821405,-1850.514855,-1378.971896
2868.988314,-8290.306550,-1776.494261,-536.266849
2868.988651,-8956.491898,-2664.741391,0.000000
2868.988988,-11621.233289,-1480.411884,766.095498
2868.989325,-10881.027347,-740.205942,-153.219100
2868.989663,-9400.615463,-1924.535449,-766.095498
2868.990000,-10584.944971,-2294.638420,459.657299
2868.990337,-11621.233289,-2220.617826,1455.581446
2868.990674,-9548.656652,-666.185348,1915.238745
2868.991011,-8216.285956,-1628.453072,2374.896044
2868.991348,-9400.615463,-1184.329507,2528.115143
2868.991685,-11177.109724,592.164754,2451.505594
2868.992023,-11177.109724,1776.494261,2145.067394
2868.992360,-9844.739029,1110.308913,0.000000
2868.992697,-10510.924376,148.041188,-229.828649
2868.993034,-11473.192101,962.267725,0.000000
2868.993371,-9474.636058,740.205942,-306.438199
2868.993708,-7476.080014,592.164754,-536.266849
2868.994046,-8956.491898,592.164754,-229.828649
2868.994383,-11399.171507,814.226536,76.609550
2868.994720,-10881.027347,2294.638420,-1455.581446
2868.995057,-9474.636058,1554.432478,-1915.238745
2868.995394,-9844.739029,-444.123565,0.000000
2868.995731,-10584.944971,-148.041188,383.047749
2868.996068,-9696.697840,666.185348,229.828649
2868.996406,-8438.347739,666.185348,383.047749
2868.996743,-9252.574275,-1332.370696,919.314598
2868.997080,-11399.171507,-592.164754,1455.581446
2868.997417,-9992.780217,592.164754,306.438199
2868.997754,-8956.491898,962.267725,0.000000
2868.998091,-10362.883188,-1332.370696,0.000000
2868.998428,-10955.047942,-1184.329507,-536.266849
2868.998766,-9400.615463,-370.102971,76.609550
2868.999103,-7994.224174,-666.185348,689.485948
2868.999440,-8660.409521,-962.267725,306.438199
2868.999777,-11843.295072,-222.061783,919.314598
2869.000114,-11621.233289,1036.288319,153.219100
2869.000451,-9844.739029,148.041188,-995.924147
2869.000789,-10510.924376,-740.205942,0.000000
2869.001126,-11695.253884,-1702.473667,229.828649
2869.001463,-9844.739029,-444.123565,-612.876398
2869.001800,-8808.450710,-1110.308913,-689.485948
2869.002137,-9252.574275,-2738.761985,153.219100
2869.002474,-10807.006753,-2146.597232,612.876398
2869.002811,-10807.006753,-814.226536,536.266849
2869.003149,-10140.821405,74.020594,0.000000
2869.003486,-10436.903782,-1702.473667,-153.219100
2869.003823,-11917.315666,-2146.597232,919.314598
2869.004160,-10140.821405,-962.267725,1302.362347
2869.004497,-8290.306550,-592.164754,1838.629195
2869.004834,-8734.430116,-1036.288319,2374.896044
2869.005172,-11695.253884,296.082377,1838.629195
2869.005509,-11251.130318,1554.432478,1225.752797
2869.005846,-8956.491898,1776.494261,76.609550
2869.006183,-9030.512492,370.102971,612.876398
2869.006520,-11029.068536,518.144159,1072.533697
2869.006857,-9844.739029,1184.329507,153.219100
2869.007194,-7994.224174,962.267725,-383.047749
2869.007532,-8290.306550,296.082377,842.705048
2869.007869,-10436.903782,518.144159,1302.362347
2869.008206,-11177.109724,1776.494261,-153.219100
2869.008543,-9622.677246,1332.370696,-1608.800546
2869.008880,-9844.739029,0.000000,-1532.190996
2869.009217,-11103.089130,-2368.659014,-1838.629195
2869.009555,-10214.842000,-1776.494261,-689.485948
2869.009892,-7476.080014,-2294.638420,-689.485948
2869.010229,-7772.162391,-2368.659014,-76.609550
2869.010566,-11399.171507,-1406.391290,0.000000
2869.010903,-11917.315666,-1110.308913,0.000000
2869.011240,-10140.821405,-592.164754,-383.047749
2869.011577,-10362.883188,-1332.370696,536.266849
2869.011915,-12139.377449,-1184.329507,1532.190996
2869.012252,-11473.192101,-962.267725,1378.971896
2869.012589,-9400.615463,-888.247130,1302.362347
2869.012926,-9030.512492,-1554.432478,1762.019645
2869.013263,-11473.192101,-1184.329507,1991.848295
2869.013600,-11769.274478,444.123565,995.924147
2869.013937,-9992.780217,444.123565,-689.485948
2869.014275,-9252.574275,296.082377,-995.924147
2869.014612,-10955.047942,-1036.288319,-1072.533697
2869.014949,-10436.903782,-370.102971,-766.095498
2869.015286,-8142.265362,-666.185348,-1149.143247
2869.015623,-7846.182985,-814.226536,-689.485948
2869.015960,-10510.924376,-518.144159,0.000000
2869.016298,-11029.068536,370.102971,-383.047749
2869.016635,-9696.697840,296.082377,-383.047749
2869.016972,-9104.533087,-666.185348,-229.828649
2869.017309,-10288.862594,-666.185348,1225.752797
2869.017646,-10955.047942,74.020594,1302.362347
2869.017983,-8734.430116,222.061783,0.000000
2869.018320,-8586.388927,0.000000,1302.362347
2869.018658,-10436.903782,296.082377,2451.505594
2869.018995,-11325.150913,2294.638420,2298.286494
2869.019332,-9696.697840,2812.782580,459.657299
2869.019669,-9548.656652,1924.535449,536.266849
2869.020006,-11251.130318,1406.391290,612.876398
2869.020343,-11695.253884,962.267725,1149.143247
2869.020681,-9696.697840,2368.659014,383.047749
2869.021018,-8512.368333,296.082377,76.609550
2869.021355,-9918.759623,296.082377,383.047749
2869.021692,-10807.006753,444.123565,0.000000
2869.022029,-9548.656652,444.123565,-536.266849
2869.022366,-8586.388927,-666.185348,-536.266849
2869.022703,-10584.944971,-962.267725,-153.219100
2869.023041,-11325.150913,-296.082377,-383.047749
2869.023378,-9178.553681,-888.247130,-1608.800546
2869.023715,-8808.450710,-2442.679609,229.828649
2869.024052,-9622.677246,-2442.679609,842.705048
2869.024389,-11177.109724,-1702.473667,1685.410096
2869.024726,-9770.718434,-740.205942,76.609550
2869.025064,-9326.594869,-1702.473667,-766.095498
2869.025401,-11251.130318,-2738.761985,383.047749
2869.025738,-11843.295072,-2886.803174,995.924147
2869.026075,-9104.533087,-444.123565,995.924147
2869.026412,-8956.491898,-962.267725,1378.971896
2869.026749,-10362.883188,-518.144159,1762.019645
2869.027086,-11399.171507,222.061783,842.705048
2869.027424,-10955.047942,1406.391290,536.266849
2869.027761,-9770.718434,740.205942,536.266849
2869.028098,-10955.047942,-296.082377,306.438199
2869.028435,-11621.233289,1332.370696,842.705048
2869.028772,-9326.594869,296.082377,-766.095498
2869.029109,-8142.265362,148.041188,0.000000
2869.029446,-9400.615463,-592.164754,842.705048
2869.029784,-10807.006753,222.061783,1072.533697
2869.030121,-10140.821405,1776.494261,-689.485948
2869.030458,-8956.491898,518.144159,-1991.848295
2869.030795,-9844.739029,-1184.329507,-689.485948
2869.031132,-10510.924376,-2072.576638,-229.828649
2869.031469,-8882.471304,222.061783,0.000000
2869.031807,-7402.059420,-962.267725,0.000000
2869.032144,-9400.615463,-1702.473667,306.438199
2869.032481,-11251.130318,-962.267725,306.438199
2869.032818,-10510.924376,0.000000,689.485948
2869.033155,-8586.388927,0.000000,0.000000
2869.033492,-10140.821405,-1184.329507,612.876398
2869.033829,-12213.398043,-148.041188,1072.533697
2869.034167,-9400.615463,740.205942,383.047749
2869.034504,-9252.574275,-962.267725,1072.533697
2869.034841,-10140.821405,-592.164754,1149.143247
2869.035178,-11621.233289,-370.102971,1302.362347
2869.035515,-11399.171507,1776.494261,766.095498
2869.035852,-9326.594869,444.123565,-1225.752797
2869.036190,-10658.965565,-1036.288319,-689.485948
2869.036527,-12509.480420,-1184.329507,0.000000
2869.036864,-9770.718434,-1480.411884,-1838.629195
2869.037201,-8290.306550,-962.267725,-1378.971896
2869.037538,-9252.574275,-2368.659014,-766.095498
2869.037875,-10881.027347,-1184.329507,-306.438199
2869.038212,-10362.883188,-962.267725,-229.828649
2869.038550,-8734.430116,-666.185348,-689.485948
2869.038887,-9548.656652,-1480.411884,995.924147
2869.039224,-11843.295072,-1110.308913,1378.971896
2869.039561,-10362.883188,-666.185348,1762.019645
2869.039898,-8290.306550,-1258.350101,1685.410096
2869.040235,-9104.533087,-444.123565,3753.867940
2869.040573,-10955.047942,666.185348,3524.039291
2869.040910,-10214.842000,2590.720797,2681.334243
2869.041247,-9178.553681,1924.535449,306.438199
2869.041584,-10140.821405,1184.329507,153.219100
2869.041921,-11325.150913,1702.473667,0.000000
2869.042258,-9918.759623,1850.514855,0.000000
2869.042595,-7698.141797,1702.473667,-383.047749
2869.042933,-8216.285956,814.226536,0.000000
2869.043270,-10807.006753,1776.494261,229.828649
2869.043607,-11251.130318,1628.453072,-536.266849
2869.043944,-9992.780217,1480.411884,-1608.800546
2869.044281,-9992.780217,296.082377,-766.095498
2869.044618,-12213.398043,-370.102971,-153.219100
2869.044955,-10140.821405,-592.164754,-1302.362347
2869.045293,-7698.141797,-1702.473667,-689.485948
2869.045630,-8364.327145,-2368.659014,1149.143247
2869.045967,-10807.006753,-1036.288319,1149.143247
2869.046304,-11325.150913,-518.144159,536.266849
2869.046641,-10066.800811,0.000000,-229.828649
2869.046978,-10362.883188,-2294.638420,0.000000
2869.047316,-12065.356855,-1480.411884,1225.752797
2869.047653,-10510.924376,-814.226536,689.485948
2869.047990,-8216.285956,-1184.329507,995.924147
2869.048327,-8512.368333,-1480.411884,1149.143247
2869.048664,-10881.027347,-1110.308913,689.485948
2869.049001,-11547.212695,148.041188,229.828649
2869.049338,-9844.739029,-222.061783,-612.876398
2869.049676,-9474.636058,-444.123565,-383.047749
2869.050013,-10881.027347,-592.164754,306.438199
2869.050350,-10584.944971,0.000000,0.000000
2869.050687,-8808.450710,-518.144159,-612.876398
2869.051024,-9474.636058,-1480.411884,689.485948
2869.051361,-10807.006753,-740.205942,766.095498
2869.051699,-11177.109724,148.041188,-76.609550
2869.052036,-9770.718434,592.164754,0.000000
2869.052373,-9548.656652,-1554.432478,-459.657299
2869.052710,-11547.212695,-888.247130,306.438199
2869.053047,-10732.986159,-370.102971,0.000000
2869.053384,-8734.430116,0.000000,-229.828649
2869.053721,-8438.347739,-1702.473667,536.266849
2869.054059,-10436.903782,-444.123565,1302.362347
2869.054396,-11029.068536,888.247130,2068.457845
2869.054733,-9326.594869,1702.473667,612.876398
2869.055070,-9178.553681,740.205942,766.095498
2869.055407,-11399.171507,518.144159,1685.410096
2869.055744,-10658.965565,1184.329507,1149.143247
2869.056082,-8882.471304,666.185348,689.485948
2869.056419,-8882.471304,-444.123565,766.095498
2869.056756,-9844.739029,-370.102971,766.095498
2869.057093,-10436.903782,592.164754,306.438199
2869.057430,-9326.594869,1258.350101,-766.095498
2869.057767,-9400.615463,-592.164754,-1608.800546
2869.058104,-11547.212695,-2072.576638,-1225.752797
2869.058442,-10658.965565,-592.164754,-1838.629195
2869.058779,-8142.265362,-962.267725,-2068.457845
2869.059116,-8512.368333,-2146.597232,-612.876398
2869.059453,-10140.821405,-2072.576638,-229.828649
2869.059790,-11843.295072,-592.164754,0.000000
2869.060128,-10066.800811,-518.144159,-1302.362347
2869.060465,-9474.636058,-1258.350101,-1225.752797
2869.060802,-11843.295072,-2146.597232,689.485948
2869.061139,-11547.212695,-1406.391290,1302.362347
2869.061476,-8882.471304,-592.164754,1302.362347
2869.061814,-8882.471304,-814.226536,2298.286494
2869.062151,-10658.965565,-518.144159,2911.162892
2869.062488,-11177.109724,592.164754,2451.505594
2869.062825,-10436.903782,2294.638420,1532.190996
2869.063162,-10066.800811,1184.329507,536.266849
2869.063500,-11547.212695,-148.041188,459.657299
2869.063837,-11103.089130,1036.288319,0.000000
2869.064174,-9104.533087,518.144159,-383.047749
2869.064511,-7402.059420,222.061783,0.000000
2869.064848,-9104.533087,-518.144159,76.609550
2869.065186,-10955.047942,518.144159,153.219100
2869.065523,-8956.491898,814.226536,-1378.971896
2869.065860,-8808.450710,0.000000,-1225.752797
2869.066197,-10732.986159,-962.267725,536.266849
2869.066534,-11029.068536,-148.041188,536.266849
2869.066872,-9104.533087,296.082377,306.438199
2869.067209,-8290.306550,-148.041188,612.876398
2869.067546,-10510.924376,-666.185348,1685.410096
2869.067883,-11769.274478,74.020594,1685.410096
2869.068220,-9992.780217,740.205942,536.266849
2869.068558,-9474.636058,518.144159,306.438199
2869.068895,-11769.274478,-518.144159,536.266849
2869.069232,-11843.295072,-370.102971,459.657299
2869.069569,-9252.574275,0.000000,612.876398
2869.069906,-7994.224174,-666.185348,306.438199
2869.070244,-10066.800811,-592.164754,459.657299
2869.070581,-11917.315666,518.144159,0.000000
2869.070918,-10732.986159,962.267725,-536.266849
2869.071255,-9252.574275,-222.061783,-2145.067394
2869.071592,-10140.821405,-1480.411884,-229.828649
2869.071930,-11399.171507,-1110.308913,-383.047749
2869.072267,-9326.594869,-1628.453072,-2068.457845
2869.072604,-7254.018232,-2072.576638,-1838.629195
2869.072941,-9474.636058,-2146.597232,229.828649
2869.073278,-11029.068536,-1258.350101,459.657299
2869.073615,-9696.697840,-740.205942,-536.266849
2869.073953,-9326.594869,-888.247130,-536.266849
2869.074290,-11029.068536,-2146.597232,612.876398
2869.074627,-11695.253884,-1406.391290,1302.362347
2869.074964,-9622.677246,-666.185348,1762.019645
2869.075301,-8438.347739,-1258.350101,2681.334243
2869.075639,-9992.780217,-296.082377,2681.334243
2869.075976,-11991.336260,444.123565,2604.724693
2869.076313,-10807.006753,2072.576638,995.924147
2869.076650,-9178.553681,1554.432478,0.000000
2869.076987,-10362.883188,592.164754,919.314598
2869.077325,-11325.150913,2146.597232,766.095498
2869.077662,-9992.780217,2146.597232,153.219100
2869.077999,-8290.306550,370.102971,383.047749
2869.078336,-8956.491898,518.144159,1378.971896
2869.078673,-10881.027347,1406.391290,1685.410096
2869.079011,-10658.965565,1554.432478,0.000000
2869.079348,-9474.636058,518.144159,-1072.533697
2869.079685,-10436.903782,-1258.350101,-76.609550
2869.080022,-10955.047942,-1406.391290,0.000000
2869.080359,-9326.594869,-888.247130,-995.924147
2869.080697,-7402.059420,-1702.473667,-919.314598
2869.081034,-8586.388927,-2886.803174,229.828649
2869.081371,-10140.821405,-1776.494261,-306.438199
2869.081708,-10510.924376,-666.185348,-766.095498
2869.082045,-9474.636058,-1184.329507,-612.876398
2869.082383,-10288.862594,-1850.514855,153.219100
2869.082720,-11843.295072,-814.226536,919.314598
2869.083057,-10955.047942,-740.205942,1225.752797
2869.083394,-8512.368333,-1332.370696,0.000000
2869.083731,-9252.574275,-2368.659014,2145.067394
2869.084069,-11399.171507,296.082377,1915.238745
2869.084406,-11621.233289,1628.453072,306.438199
2869.084743,-10362.883188,518.144159,-1302.362347
2869.085080,-10881.027347,222.061783,-1915.238745
2869.085417,-11991.336260,-1110.308913,0.000000
2869.085755,-10288.862594,-74.020594,-689.485948
2869.086092,-7476.080014,-370.102971,-1455.581446
2869.086429,-9178.553681,-1480.411884,0.000000
2869.086766,-11177.109724,-592.164754,0.000000
2869.087103,-11029.068536,0.000000,-1072.533697
2869.087441,-9400.615463,0.000000,-536.266849
2869.087778,-9474.636058,-1850.514855,612.876398
2869.088115,-11325.150913,-1184.329507,1072.533697
2869.088452,-9992.780217,-148.041188,229.828649
2869.088789,-7476.080014,-370.102971,689.485948
2869.089127,-8512.368333,-1702.473667,2298.286494
2869.089464,-10584.944971,-370.102971,3370.820191
2869.089801,-10140.821405,1850.514855,2374.896044
2869.090138,-8808.450710,1480.411884,919.314598
2869.090475,-10140.821405,666.185348,1378.971896
2869.090813,-11769.274478,0.000000,1685.410096
2869.091150,-10214.842000,814.226536,995.924147
2869.091487,-7772.162391,814.226536,689.485948
2869.091824,-9030.512492,0.000000,306.438199
2869.092161,-11399.171507,444.123565,459.657299
2869.092499,-11399.171507,592.164754,-842.705048
2869.092836,-9474.636058,444.123565,-1991.848295
2869.093173,-9474.636058,-518.144159,-1838.629195
2869.093510,-11843.295072,-888.247130,-995.924147
2869.093847,-11473.192101,-666.185348,-1225.752797
2869.094185,-8956.491898,-1036.288319,-2221.676944
2869.094522,-8956.491898,-2220.617826,0.000000
2869.094859,-11177.109724,-1850.514855,1149.143247
2869.095196,-11177.109724,-370.102971,306.438199
2869.095533,-9696.697840,-444.123565,-919.314598
2869.095871,-10362.883188,-2072.576638,-612.876398
2869.096208,-12139.377449,-2072.576638,383.047749
2869.096545,-11251.130318,-1480.411884,1455.581446
2869.096882,-7698.141797,-666.185348,306.438199
2869.097219,-7698.141797,-1406.391290,1762.019645
2869.097557,-10510.924376,-592.164754,1838.629195
2869.097894,-10807.006753,962.267725,459.657299
2869.098231,-9622.677246,1480.411884,153.219100
2869.098568,-9548.656652,814.226536,0.000000
2869.098905,-11399.171507,592.164754,459.657299
2869.099243,-11029.068536,1332.370696,76.609550
2869.099580,-8216.285956,814.226536,536.266849
2869.099917,-7550.100608,0.000000,536.266849
2869.100254,-10362.883188,222.061783,1149.143247
2869.100591,-11843.295072,2072.576638,76.609550
2869.100929,-9770.718434,1924.535449,-1455.581446
2869.101266,-9474.636058,148.041188,-1532.190996
2869.101603,-11399.171507,-888.247130,153.219100
2869.101940,-11177.109724,-222.061783,842.705048
2869.102277,-8142.265362,0.000000,-306.438199
2869.102615,-7698.141797,-666.185348,995.924147
2869.102952,-10732.986159,-518.144159,1532.190996
2869.103289,-11843.295072,222.061783,766.095498
2869.103626,-10362.883188,74.020594,76.609550
2869.103963,-9474.636058,-296.082377,229.828649
2869.104300,-10955.047942,-1554.432478,1072.533697
2869.104638,-10955.047942,-592.164754,1378.971896
2869.104975,-8216.285956,-592.164754,0.000000
2869.105312,-7698.141797,-1776.494261,1455.581446
2869.105649,-9918.759623,-1554.432478,1685.410096
2869.105986,-11177.109724,592.164754,1072.533697
2869.106324,-10807.006753,592.164754,-383.047749
2869.106661,-9622.677246,-666.185348,-1838.629195
2869.106998,-10881.027347,-1924.535449,-766.095498
2869.107335,-11177.109724,-1184.329507,-306.438199
2869.107672,-8734.430116,-1110.308913,-1838.629195
2869.108010,-7772.162391,-2368.659014,-1762.019645
2869.108347,-10362.883188,-2812.782580,0.000000
2869.108684,-11621.233289,-1554.432478,-383.047749
2869.109021,-10362.883188,-814.226536,-766.095498
2869.109358,-9474.636058,-1258.350101,-459.657299
2869.109696,-11103.089130,-1776.494261,459.657299
2869.110033,-11843.295072,-74.020594,1225.752797
2869.110370,-9770.718434,0.000000,612.876398
2869.110707,-8364.327145,-962.267725,1762.019645
2869.111044,-10362.883188,-666.185348,3294.210641
2869.111382,-11769.274478,1628.453072,2987.772442
2869.111719,-10807.006753,2220.617826,1072.533697
2869.112056,-9104.533087,1184.329507,842.705048
2869.112393,-10362.883188,222.061783,919.314598
2869.112730,-11473.192101,1184.329507,1149.143247
2869.113068,-8660.409521,1850.514855,-383.047749
2869.113405,-7105.977043,1110.308913,-229.828649
2869.113742,-9400.615463,0.000000,612.876398
2869.114079,-10288.862594,1776.494261,-612.876398
2869.114416,-10140.821405,1406.391290,-1532.190996
2869.114754,-8734.430116,888.247130,-1915.238745
2869.115091,-9844.739029,-962.267725,-1225.752797
2869.115428,-11843.295072,-1110.308913,-612.876398
2869.115765,-8660.409521,-888.247130,-1838.629195
2869.116102,-7550.100608,-1776.494261,0.000000
2869.116440,-9474.636058,-2072.576638,1149.143247
2869.116777,-11029.068536,-962.267725,842.705048
2869.117114,-10955.047942,296.082377,0.000000
2869.117451,-10140.821405,-740.205942,-306.438199
2869.117788,-11769.274478,-1406.391290,842.705048
2869.118126,-12731.542202,-1258.350101,1608.800546
2869.118463,-10140.821405,-296.082377,1149.143247
2869.118800,-7920.203579,-888.247130,1685.410096
2869.119137,-10584.944971,-1332.370696,2068.457845
2869.119474,-11843.295072,-444.123565,1532.190996
2869.119812,-10881.027347,1110.308913,76.609550
2869.120149,-9696.697840,296.082377,-842.705048
2869.120486,-10658.965565,-814.226536,-766.095498
2869.120823,-11547.212695,-814.226536,-306.438199
2869.121160,-9178.553681,-592.164754,-689.485948
2869.121498,-7031.956449,-888.247130,-612.876398
2869.121835,-9104.533087,-1184.329507,306.438199
2869.122172,-11325.150913,-444.123565,766.095498
2869.122509,-10214.842000,518.144159,-919.314598
2869.122846,-8512.368333,0.000000,-842.705048
2869.123184,-10362.883188,-518.144159,842.705048
2869.123521,-11695.253884,-1110.308913,1225.752797
2869.123858,-9400.615463,222.061783,0.000000
2869.124195,-7031.956449,0.000000,689.485948
2869.124532,-9400.615463,-370.102971,2451.505594
2869.124870,-11843.295072,888.247130,2221.676944
2869.125207,-10881.027347,2220.617826,1072.533697
2869.125544,-8956.491898,2220.617826,766.095498
2869.125881,-10066.800811,1184.329507,919.314598
2869.126218,-12139.377449,666.185348,1915.238745
2869.126556,-10140.821405,1702.473667,306.438199
2869.126893,-7254.018232,74.020594,-153.219100
2869.127230,-9474.636058,0.000000,1455.581446
2869.127567,-11399.171507,0.000000,919.314598
2869.127904,-10807.006753,962.267725,-459.657299
2869.128242,-8512.368333,0.000000,-1378.971896
2869.128579,-9400.615463,-1702.473667,-1532.190996
2869.128916,-11547.212695,-1702.473667,-766.095498
2869.129253,-10140.821405,-1998.556043,-1685.410096
2869.129590,-7105.977043,-2072.576638,-1455.581446
2869.129928,-8956.491898,-3034.844362,-306.438199
2869.130265,-11843.295072,-2886.803174,0.000000
2869.130602,-11473.192101,-1480.411884,-842.705048
2869.130939,-9696.697840,-1554.432478,-1149.143247
2869.131276,-9622.677246,-2516.700203,-689.485948
2869.131614,-11621.233289,-3034.844362,229.828649
2869.131951,-11103.089130,-1110.308913,995.924147
2869.132288,-8586.388927,-1628.453072,459.657299
2869.132625,-9474.636058,-1258.350101,1838.629195
2869.132962,-11325.150913,-518.144159,2451.505594
2869.133300,-11473.192101,1332.370696,1685.410096
2869.133637,-9548.656652,518.144159,536.266849
2869.133974,-10140.821405,592.164754,995.924147
2869.134311,-12139.377449,296.082377,1455.581446
2869.134648,-10881.027347,1110.308913,612.876398
2869.134985,-7550.100608,592.164754,-306.438199
2869.135323,-8068.244768,0.000000,306.438199
2869.135660,-10214.842000,0.000000,306.438199
2869.135997,-10807.006753,1628.453072,-1149.143247
2869.136334,-8438.347739,592.164754,-1762.019645
2869.136671,-8290.306550,-592.164754,-1072.533697
2869.137009,-10955.047942,-592.164754,459.657299
2869.137346,-10584.944971,518.144159,229.828649
2869.137683,-8216.285956,296.082377,0.000000
2869.138020,-8660.409521,-1184.329507,1149.143247
2869.138357,-10140.821405,0.000000,1838.629195
2869.138695,-10955.047942,740.205942,1532.190996
2869.139032,-9992.780217,1184.329507,766.095498
2869.139369,-9992.780217,-740.205942,459.657299
2869.139706,-12139.377449,-296.082377,766.095498
2869.140043,-11029.068536,888.247130,612.876398
2869.140381,-8512.368333,444.123565,0.000000
2869.140718,-8882.471304,-444.123565,919.314598
2869.141055,-11325.150913,-444.123565,995.924147
2869.141392,-11547.212695,888.247130,0.000000
2869.141729,-10362.883188,814.226536,-1302.362347
2869.142067,-9770.718434,-592.164754,-383.047749
2869.142404,-11029.068536,-1406.391290,-689.485948
2869.142741,-11029.068536,-740.205942,-919.314598
2869.143078,-8882.471304,-1258.350101,-1378.971896
2869.143415,-8586.388927,-3034.844362,-995.924147
2869.143753,-10214.842000,-2664.741391,153.219100
2869.144090,-10807.006753,-1258.350101,229.828649
2869.144427,-9030.512492,-370.102971,-1072.533697
2869.144764,-9326.594869,-1924.535449,-306.438199
2869.145101,-11399.171507,-2368.659014,459.657299
2869.145439,-10510.924376,-1406.391290,919.314598
2869.145776,-8660.409521,-592.164754,1685.410096
2869.146113,-8734.430116,-592.164754,2145.067394
2869.146450,-10955.047942,-74.020594,2681.334243
2869.146787,-11695.253884,1332.370696,2298.286494
2869.147125,-9622.677246,2072.576638,919.314598
2869.147462,-9474.636058,1480.411884,459.657299
2869.147799,-11695.253884,814.226536,1149.143247
2869.148136,-11325.150913,1480.411884,306.438199
2869.148473,-9178.553681,1998.556043,-229.828649
2869.148811,-7920.203579,962.267725,76.609550
2869.149148,-9844.739029,518.144159,919.314598
2869.149485,-10807.006753,1332.370696,536.266849
2869.149822,-9622.677246,1406.391290,-689.485948
2869.150159,-9474.636058,666.185348,-1532.190996
2869.150497,-11399.171507,-1110.308913,-1072.533697
2869.150834,-11251.130318,-370.102971,-383.047749
2869.151171,-7920.203579,-888.247130,-1455.581446
2869.151508,-7328.038826,-1480.411884,-842.705048
2869.151845,-9992.780217,-2220.617826,919.314598
2869.152183,-10955.047942,-1776.494261,0.000000
2869.152520,-9474.636058,-592.164754,-612.876398
2869.152857,-9178.553681,-1702.473667,229.828649
2869.153194,-11399.171507,-962.267725,689.485948
2869.153531,-11399.171507,-1036.288319,306.438199
2869.153869,-10436.903782,74.020594,229.828649
2869.154206,-8438.347739,-1702.473667,612.876398
2869.154543,-10288.862594,-1406.391290,1302.362347
2869.154880,-11399.171507,-222.061783,1072.533697
2869.155217,-9844.739029,370.102971,0.000000
2869.155555,-9770.718434,74.020594,-306.438199
2869.155892,-11917.315666,-888.247130,-766.095498
2869.156229,-11695.253884,-222.061783,-229.828649
2869.156566,-9770.718434,0.000000,-1149.143247
2869.156903,-7994.224174,-518.144159,-229.828649
2869.157241,-9844.739029,-740.205942,76.609550
2869.157578,-11843.295072,-370.102971,76.609550
2869.157915,-9770.718434,0.000000,-689.485948
2869.158253,-8660.409521,0.000000,306.438199
2869.158590,-10881.027347,-592.164754,1378.971896
2869.158927,-11621.233289,-370.102971,766.095498
2869.159264,-9548.656652,0.000000,459.657299
2869.159602,-7920.203579,-888.247130,1532.190996
2869.159939,-9178.553681,-888.247130,2987.772442
2869.160276,-10362.883188,740.205942,2757.943793
2869.160613,-9622.677246,2146.597232,1455.581446
2869.160951,-9252.574275,1184.329507,1072.533697
2869.161288,-10584.944971,888.247130,689.485948
2869.161625,-11325.150913,1036.288319,612.876398
2869.161962,-9992.780217,1924.535449,383.047749
2869.162300,-7698.141797,444.123565,-229.828649
2869.162637,-9844.739029,592.164754,536.266849
2869.162974,-11399.171507,296.082377,229.828649
2869.163312,-9918.759623,740.205942,-1378.971896
2869.163649,-8882.471304,-814.226536,-766.095498
2869.163986,-9992.780217,-740.205942,-766.095498
2869.164323,-11843.295072,-370.102971,-766.095498
2869.164661,-10584.944971,-1258.350101,-1455.581446
2869.164998,-8438.347739,-1258.350101,-1685.410096
2869.165335,-10214.842000,-3034.844362,459.657299
2869.165672,-11325.150913,-1258.350101,766.095498
2869.166010,-10214.842000,-222.061783,-995.924147
2869.166347,-9918.759623,-962.267725,-612.876398
2869.166684,-10955.047942,-2516.700203,0.000000
2869.167021,-11917.315666,-2442.679609,766.095498
2869.167359,-10214.842000,-962.267725,995.924147
2869.167696,-8586.388927,-1332.370696,1302.362347
2869.168033,-9474.636058,-1110.308913,2145.067394
2869.168371,-11399.171507,-74.020594,2068.457845
2869.168708,-10732.986159,1258.350101,1455.581446
2869.169045,-9474.636058,740.205942,306.438199
2869.169382,-10140.821405,444.123565,995.924147
2869.169720,-11325.150913,666.185348,383.047749
2869.170057,-9918.759623,814.226536,-612.876398
2869.170394,-8068.244768,444.123565,-536.266849
2869.170731,-8586.388927,-370.102971,-153.219100
2869.171069,-10288.862594,518.144159,536.266849
2869.171406,-9918.759623,1924.535449,-766.095498
2869.171743,-8882.471304,592.164754,-1915.238745
2869.172080,-10066.800811,-740.205942,-766.095498
2869.172418,-11325.150913,-740.205942,-306.438199
2869.172755,-10362.883188,740.205942,229.828649
2869.173092,-8068.244768,148.041188,153.219100
2869.173430,-9400.615463,-592.164754,1225.752797
2869.173767,-11325.150913,-296.082377,1302.362347
2869.174104,-10807.006753,1184.329507,1072.533697
2869.174441,-9622.677246,740.205942,919.314598
2869.174779,-10584.944971,-592.164754,919.314598
2869.175116,-11399.171507,0.000000,612.876398
2869.175453,-10436.903782,74.020594,306.438199
2869.175790,-8438.347739,-370.102971,383.047749
2869.176128,-8956.491898,-1776.494261,919.314598
2869.176465,-11029.068536,-1406.391290,1378.971896
2869.176802,-10140.821405,1258.350101,0.000000
2869.177139,-9252.574275,518.144159,-1608.800546
2869.177477,-10436.903782,-1036.288319,-995.924147
2869.177814,-11399.171507,-1850.514855,-842.705048
2869.178151,-10510.924376,-1184.329507,-842.705048
2869.178489,-8142.265362,-1332.370696,-1532.190996
2869.178826,-8364.327145,-3182.885551,-842.705048
2869.179163,-10955.047942,-2590.720797,306.438199
2869.179500,-10658.965565,-2072.576638,0.000000
2869.179838,-8956.491898,-740.205942,-229.828649
2869.180175,-10066.800811,-1554.432478,459.657299
2869.180512,-12065.356855,-962.267725,1378.971896
2869.180849,-10881.027347,-888.247130,1149.143247
2869.181187,-9252.574275,-888.247130,995.924147
2869.181524,-9252.574275,-888.247130,2681.334243
2869.181861,-11399.171507,0.000000,3140.991542
2869.182198,-11103.089130,1998.556043,1915.238745
2869.182536,-9252.574275,1480.411884,153.219100
2869.182873,-9770.718434,1036.288319,612.876398
2869.183210,-11695.253884,740.205942,383.047749
2869.183548,-10436.903782,1184.329507,153.219100
2869.183885,-7772.162391,1628.453072,-229.828649
2869.184222,-7624.121203,148.041188,383.047749
2869.184559,-10362.883188,444.123565,1072.533697
2869.184897,-10066.800811,1110.308913,0.000000
2869.185234,-8882.471304,1184.329507,-229.828649
2869.185571,-9696.697840,740.205942,-459.657299
2869.185908,-11103.089130,-296.082377,-612.876398
2869.186246,-10955.047942,0.000000,-536.266849
2869.186583,-8512.368333,-1184.329507,-1302.362347
2869.186920,-7772.162391,-2220.617826,0.000000
2869.187257,-10140.821405,-1702.473667,919.314598
2869.187595,-10140.821405,-370.102971,0.000000
2869.187932,-9178.553681,0.000000,-1302.362347
2869.188269,-10362.883188,-888.247130,229.828649
2869.188606,-12065.356855,-592.164754,76.609550
2869.188944,-12139.377449,-518.144159,612.876398
2869.189281,-9474.636058,0.000000,536.266849
2869.189618,-8734.430116,-1258.350101,919.314598
2869.189956,-10807.006753,-592.164754,1915.238745
2869.190293,-11399.171507,222.061783,1225.752797
2869.190630,-9696.697840,222.061783,-459.657299
2869.190967,-10214.842000,-148.041188,-306.438199
2869.191305,-11325.150913,-74.020594,-459.657299
2869.191642,-11399.171507,0.000000,-459.657299
2869.191979,-9400.615463,-370.102971,-1149.143247
2869.192316,-7920.203579,-1554.432478,-536.266849
2869.192654,-9918.759623,-1184.329507,612.876398
2869.192991,-10584.944971,-296.082377,229.828649
2869.193328,-9400.615463,148.041188,-766.095498
2869.193665,-9474.636058,-1184.329507,-612.876398
2869.194003,-10807.006753,-592.164754,612.876398
2869.194340,-12139.377449,-814.226536,995.924147
2869.194677,-8290.306550,-518.144159,0.000000
2869.195015,-7328.038826,-1036.288319,1225.752797
2869.195352,-10214.842000,-1184.329507,3294.210641
2869.195689,-10436.903782,814.226536,2451.505594
2869.196026,-9770.718434,1776.494261,1149.143247
2869.196364,-9696.697840,1110.308913,1378.971896
2869.196701,-10436.903782,814.226536,1532.190996
2869.197038,-11473.192101,1258.350101,1762.019645
2869.197375,-9474.636058,1480.411884,612.876398
2869.197713,-8290.306550,222.061783,153.219100
2869.198050,-10214.842000,296.082377,995.924147
2869.198387,-10807.006753,814.226536,229.828649
2869.198724,-9548.656652,1332.370696,-919.314598
2869.199062,-9622.677246,-296.082377,-1608.800546
2869.199399,-10436.903782,-1480.411884,-1685.410096
2869.199736,-10732.986159,-1184.329507,-1838.629195
2869.200074,-9326.594869,-1480.411884,-1455.581446
2869.200411,-7846.182985,-1776.494261,-995.924147
2869.200748,-9992.780217,-2664.741391,0.000000
2869.201085,-11399.171507,-1554.432478,153.219100
2869.201423,-9992.780217,-592.164754,-1225.752797
2869.201760,-9770.718434,-962.267725,-383.047749
2869.202097,-11177.109724,-2146.597232,689.485948
2869.202434,-11473.192101,-2072.576638,536.266849
2869.202772,-9918.759623,-814.226536,1072.533697
2869.203109,-9252.574275,-1554.432478,1762.019645
2869.203446,-10066.800811,-1850.514855,2068.457845
2869.203783,-11029.068536,0.000000,1532.190996
2869.204121,-9992.780217,1480.411884,1072.533697
2869.204458,-9548.656652,962.267725,229.828649
2869.204795,-11177.109724,0.000000,-153.219100
2869.205133,-11843.295072,592.164754,-306.438199
2869.205470,-9326.594869,1184.329507,-766.095498
2869.205807,-7476.080014,296.082377,-459.657299
2869.206144,-9178.553681,-962.267725,153.219100
2869.206482,-10658.965565,444.123565,229.828649
2869.206819,-9474.636058,1036.288319,-612.876398
2869.207156,-9400.615463,148.041188,-383.047749
2869.207493,-9770.718434,-1184.329507,689.485948
2869.207831,-11547.212695,-74.020594,1225.752797
2869.208168,-9918.759623,370.102971,536.266849
2869.208505,-7994.224174,-518.144159,229.828649
2869.208842,-9326.594869,-666.185348,1991.848295
2869.209180,-10955.047942,-592.164754,1838.629195
2869.209517,-9992.780217,1184.329507,995.924147
2869.209854,-9696.697840,1110.308913,459.657299
2869.210192,-11399.171507,-592.164754,0.000000
2869.210529,-12139.377449,0.000000,0.000000
2869.210866,-9622.677246,0.000000,0.000000
2869.211203,-7624.121203,-222.061783,0.000000
2869.211541,-8586.388927,-1480.411884,689.485948
2869.211878,-11251.130318,-222.061783,1455.581446
2869.212215,-10510.924376,444.123565,-612.876398
2869.212552,-9252.574275,518.144159,-766.095498
2869.212890,-10807.006753,-666.185348,0.000000
2869.213227,-12139.377449,-740.205942,-76.609550
2869.213564,-10066.800811,-962.267725,-995.924147
2869.213901,-8068.244768,-1184.329507,-1455.581446
2869.214239,-8734.430116,-2812.782580,0.000000
2869.214576,-10732.986159,-1998.556043,229.828649
2869.214913,-10436.903782,-888.247130,-612.876398
2869.215251,-9622.677246,-222.061783,-1072.533697
2869.215588,-10584.944971,-1554.432478,-536.266849
2869.215925,-12213.398043,-1480.411884,153.219100
2869.216262,-10140.821405,-888.247130,612.876398
2869.216600,-8290.306550,-592.164754,1455.581446
2869.216937,-8660.409521,-888.247130,3064.381992
2869.217274,-11103.089130,370.102971,2528.115143
2869.217611,-11177.109724,1924.535449,1915.238745
2869.217949,-9622.677246,1036.288319,842.705048
2869.218286,-9992.780217,1406.391290,766.095498
2869.218623,-11769.274478,1332.370696,842.705048
2869.218960,-10658.965565,1850.514855,229.828649
2869.219298,-7772.162391,1258.350101,-612.876398
2869.219635,-8364.327145,0.000000,459.657299
2869.219972,-10066.800811,1332.370696,766.095498
2869.220309,-10066.800811,1702.473667,-842.705048
2869.220647,-9252.574275,1628.453072,-1149.143247
2869.220984,-10066.800811,-370.102971,-1455.581446
2869.221321,-11843.295072,-740.205942,-1072.533697
2869.221659,-10362.883188,-518.144159,-612.876398
2869.221996,-7920.203579,-888.247130,-459.657299
2869.222333,-8142.265362,-1998.556043,229.828649
2869.222670,-10584.944971,-1998.556043,995.924147
2869.223008,-10955.047942,-444.123565,229.828649
2869.223345,-9326.594869,-666.185348,0.000000
2869.223682,-9622.677246,-1776.494261,842.705048
2869.224019,-11991.336260,-1110.308913,1378.971896
2869.224357,-11399.171507,-296.082377,1149.143247
2869.224694,-9178.553681,-888.247130,995.924147
2869.225031,-8956.491898,-2146.597232,1762.019645
2869.225368,-10732.986159,-1036.288319,2451.505594
2869.225706,-11621.233289,1110.308913,1302.362347
2869.226043,-10140.821405,148.041188,-383.047749
2869.226380,-10362.883188,-962.267725,-1532.190996
2869.226718,-11769.274478,-1850.514855,-536.266849
2869.227055,-10362.883188,-740.205942,-995.924147
2869.227392,-8290.306550,-888.247130,-842.705048
2869.227729,-8512.368333,-1628.453072,-612.876398
2869.228067,-10732.986159,-962.267725,-536.266849
2869.228404,-11695.253884,222.061783,-306.438199
2869.228741,-9918.759623,74.020594,-612.876398
2869.229078,-9548.656652,-1184.329507,0.000000
2869.229416,-11399.171507,-666.185348,1532.190996
2869.229753,-11103.089130,-148.041188,1302.362347
2869.230090,-7994.224174,222.061783,306.438199
2869.230427,-8438.347739,-1110.308913,2068.457845
2869.230765,-10807.006753,-666.185348,3370.820191
2869.231102,-10658.965565,1480.411884,1455.581446
2869.231439,-9326.594869,2368.659014,306.438199
2869.231777,-9622.677246,1184.329507,536.266849
2869.232114,-11251.130318,-296.082377,383.047749
2869.232451,-10584.944971,1184.329507,76.609550
2869.232788,-8216.285956,1332.370696,383.047749
2869.233126,-8364.327145,814.226536,0.000000
2869.233463,-9696.697840,148.041188,459.657299
2869.233800,-11325.150913,1332.370696,76.609550
2869.234137,-9474.636058,1184.329507,-842.705048
2869.234475,-9400.615463,-518.144159,-1225.752797
2869.234812,-10955.047942,-1776.494261,-689.485948
2869.235149,-10807.006753,-444.123565,-919.314598
2869.235486,-9030.512492,-1258.350101,-459.657299
2869.235824,-8586.388927,-2220.617826,-229.828649
2869.236161,-10140.821405,-2146.597232,919.314598
2869.236498,-11547.212695,-666.185348,689.485948
2869.236836,-9992.780217,0.000000,-995.924147
2869.237173,-10066.800811,-1184.329507,-689.485948
2869.237510,-11843.295072,-2812.782580,76.609550
2869.237847,-11547.212695,-2368.659014,459.657299
2869.238185,-8956.491898,-1258.350101,995.924147
2869.238522,-8512.368333,-1776.494261,1762.019645
2869.238859,-10362.883188,-1110.308913,1762.019645
2869.239196,-11843.295072,0.000000,1225.752797
2869.239534,-10288.862594,1184.329507,842.705048
2869.239871,-10066.800811,740.205942,459.657299
2869.240208,-11399.171507,518.144159,1149.143247
2869.240545,-11325.150913,518.144159,306.438199
2869.240883,-8586.388927,222.061783,153.219100
2869.241220,-7994.224174,-148.041188,153.219100
2869.241557,-9696.697840,-518.144159,1149.143247
2869.241895,-11029.068536,592.164754,459.657299
2869.242232,-9548.656652,1554.432478,-1378.971896
2869.242569,-9548.656652,444.123565,-1532.190996
2869.242906,-10955.047942,-962.267725,-536.266849
2869.243244,-10584.944971,-296.082377,-536.266849
2869.243581,-8142.265362,-296.082377,459.657299
2869.243918,-7550.100608,222.061783,153.219100
2869.244255,-9548.656652,-370.102971,1149.143247
2869.244593,-11695.253884,370.102971,1225.752797
2869.244930,-10066.800811,1480.411884,689.485948
2869.245267,-10362.883188,814.226536,1378.971896
2869.245604,-11251.130318,-148.041188,1532.190996
2869.245942,-11029.068536,74.020594,766.095498
2869.246279,-9400.615463,296.082377,1149.143247
2869.246616,-7698.141797,-814.226536,1149.143247
2869.246954,-8808.450710,-1184.329507,1455.581446
2869.247291,-11325.150913,370.102971,1532.190996
2869.247628,-10658.965565,1406.391290,-689.485948
2869.247965,-9400.615463,-444.123565,-1685.410096
2869.248303,-11177.109724,-1480.411884,-919.314598
2869.248640,-11325.150913,-1480.411884,-1225.752797
2869.248977,-9252.574275,-1480.411884,-1149.143247
2869.249314,-7550.100608,-2072.576638,-1149.143247
2869.249652,-9400.615463,-2812.782580,-612.876398
2869.249989,-11177.109724,-1702.473667,-229.828649
2869.250326,-10955.047942,-962.267725,-766.095498
2869.250663,-9992.780217,-814.226536,-536.266849
2869.251001,-11621.233289,-2368.659014,766.095498
2869.251338,-12139.377449,-888.247130,1378.971896
2869.251675,-10066.800811,-962.267725,1378.971896
2869.252012,-8586.388927,-1406.391290,2528.115143
2869.252350,-9548.656652,-1406.391290,2451.505594
2869.252687,-11843.295072,592.164754,2987.772442
2869.253024,-11399.171507,1850.514855,1608.800546
2869.253362,-9918.759623,1110.308913,0.000000
2869.253699,-10436.903782,-666.185348,153.219100
2869.254036,-10658.965565,814.226536,-229.828649
2869.254373,-9326.594869,888.247130,-459.657299
2869.254711,-7328.038826,370.102971,-383.047749
2869.255048,-7920.203579,0.000000,-536.266849
2869.255385,-10584.944971,814.226536,536.266849
2869.255722,-10436.903782,1480.411884,-766.095498
2869.256060,-9030.512492,1036.288319,-1225.752797
2869.256397,-10436.903782,-370.102971,-383.047749
2869.256734,-10658.965565,-148.041188,76.609550
2869.257071,-10066.800811,-74.020594,76.609550
2869.257409,-8364.327145,-1258.350101,766.095498
2869.257746,-8956.491898,-1628.453072,995.924147
2869.258083,-11325.150913,-740.205942,1378.971896
2869.258421,-11029.068536,592.164754,-229.828649
2869.258758,-9474.636058,74.020594,-383.047749
2869.259095,-11399.171507,-1998.556043,0.000000
2869.259432,-11843.295072,-1406.391290,229.828649
2869.259770,-10214.842000,-444.123565,612.876398
2869.260107,-8512.368333,-444.123565,919.314598
2869.260444,-9474.636058,-962.267725,1302.362347
2869.260781,-11325.150913,-296.082377,995.924147
2869.261119,-10881.027347,592.164754,76.609550
2869.261456,-9548.656652,148.041188,-306.438199
2869.261793,-10510.924376,-592.164754,-383.047749
2869.262130,-11547.212695,-814.226536,536.266849
2869.262468,-9844.739029,-518.144159,-229.828649
2869.262805,-8068.244768,-592.164754,0.000000
2869.263142,-8734.430116,-1332.370696,229.828649
2869.263480,-10214.842000,-1110.308913,766.095498
2869.263817,-10510.924376,740.205942,-306.438199
2869.264154,-9548.656652,148.041188,-306.438199
2869.264491,-10955.047942,-1036.288319,-612.876398
2869.264829,-11695.253884,-1406.391290,0.000000
2869.265166,-10214.842000,-148.041188,766.095498
2869.265503,-7476.080014,222.061783,919.314598
2869.265840,-8882.471304,-740.205942,1378.971896
2869.266178,-11103.089130,0.000000,2604.724693
2869.266515,-11177.109724,1776.494261,995.924147
2869.266852,-9770.718434,1998.556043,306.438199
2869.267189,-10584.944971,1998.556043,995.924147
2869.267527,-11103.089130,1554.432478,1302.362347
2869.267864,-10436.903782,1850.514855,1072.533697
2869.268201,-8438.347739,1776.494261,1072.533697
2869.268539,-8364.327145,666.185348,919.314598
2869.268876,-11029.068536,1332.370696,1915.238745
2869.269213,-10732.986159,1776.494261,0.000000
2869.269550,-9326.594869,888.247130,-1225.752797
2869.269888,-10140.821405,-592.164754,-1762.019645
2869.270225,-10510.924376,-2072.576638,-2068.457845
2869.270562,-9326.594869,-1702.473667,-2068.457845
2869.270899,-7698.141797,-1184.329507,-766.095498
2869.271237,-8216.285956,-2220.617826,-1225.752797
2869.271574,-11029.068536,-1554.432478,-459.657299
2869.271911,-11621.233289,-962.267725,-766.095498
2869.272248,-9918.759623,-814.226536,-919.314598
2869.272586,-9992.780217,-1998.556043,76.609550
2869.272923,-11621.233289,-2294.638420,1455.581446
2869.273260,-11251.130318,-1554.432478,1455.581446
2869.273598,-9252.574275,-1406.391290,1532.190996
2869.273935,-9622.677246,-1332.370696,2068.457845
2869.274272,-11621.233289,-888.247130,2451.505594
2869.274609,-11029.068536,370.102971,1302.362347
2869.274947,-10066.800811,1406.391290,536.266849
2869.275284,-10066.800811,222.061783,0.000000
2869.275621,-11325.150913,-592.164754,536.266849
2869.275958,-10732.986159,370.102971,76.609550
2869.276296,-8290.306550,148.041188,-76.609550
2869.276633,-7994.224174,-148.041188,0.000000
2869.276970,-10436.903782,-444.123565,536.266849
2869.277307,-10732.986159,370.102971,-306.438199
2869.277645,-9252.574275,296.082377,-766.095498
2869.277982,-9104.533087,-666.185348,0.000000
2869.278319,-9844.739029,-962.267725,842.705048
2869.278657,-10214.842000,0.000000,1685.410096
2869.278994,-8438.347739,-518.144159,689.485948
2869.279331,-8142.265362,-444.123565,1378.971896
2869.279668,-10510.924376,0.000000,1915.238745
2869.280006,-11029.068536,592.164754,1455.581446
2869.280343,-9992.780217,2146.597232,459.657299
2869.280680,-10140.821405,370.102971,459.657299
2869.281017,-12139.377449,-370.102971,842.705048
2869.281355,-11029.068536,444.123565,383.047749
2869.281692,-9030.512492,370.102971,0.000000
2869.282029,-8290.306550,-296.082377,153.219100
2869.282366,-9770.718434,-370.102971,-383.047749
2869.282704,-11399.171507,1258.350101,-76.609550
2869.283041,-10362.883188,666.185348,-1302.362347
2869.283378,-9178.553681,-296.082377,-1225.752797
2869.283715,-11769.274478,-888.247130,-229.828649
2869.284053,-11325.150913,222.061783,-306.438199
2869.284390,-9474.636058,-1184.329507,-689.485948
2869.284727,-8512.368333,-2368.659014,-229.828649
2869.285065,-10288.862594,-2738.761985,842.705048
2869.285402,-10955.047942,-1332.370696,536.266849
2869.285739,-9992.780217,-962.267725,-689.485948
2869.286076,-10066.800811,-1554.432478,-919.314598
2869.286414,-11547.212695,-2516.700203,-229.828649
2869.286751,-10436.903782,-1776.494261,0.000000
2869.287088,-8438.347739,-888.247130,0.000000
2869.287425,-8290.306550,-1184.329507,1149.143247
2869.287763,-9918.759623,-666.185348,2145.067394
2869.288100,-11399.171507,888.247130,1762.019645
2869.288437,-10584.944971,1850.514855,1072.533697
2869.288774,-9992.780217,888.247130,1455.581446
2869.289112,-10510.924376,296.082377,842.705048
2869.289449,-10881.027347,1406.391290,1072.533697
2869.289786,-9622.677246,1850.514855,689.485948
2869.290124,-7920.203579,370.102971,689.485948
2869.290461,-9474.636058,518.144159,1378.971896
2869.290798,-10510.924376,1702.473667,1149.143247
2869.291135,-9770.718434,2220.617826,-689.485948
2869.291473,-9474.636058,1406.391290,-1378.971896
2869.291810,-11399.171507,-148.041188,-689.485948
2869.292147,-11103.089130,-592.164754,-1149.143247
2869.292484,-9252.574275,0.000000,-1225.752797
2869.292822,-8586.388927,-592.164754,229.828649
2869.293159,-9474.636058,-2146.597232,689.485948
2869.293496,-10362.883188,-1554.432478,459.657299
2869.293833,-9696.697840,0.000000,383.047749
2869.294171,-9104.533087,-1110.308913,383.047749
2869.294508,-11325.150913,-1110.308913,1302.362347
2869.294845,-11991.336260,-518.144159,536.266849
2869.295183,-10066.800811,222.061783,919.314598
2869.295520,-8956.491898,-518.144159,1149.143247
2869.295857,-9770.718434,-1406.391290,1838.629195
2869.296194,-10510.924376,-592.164754,2681.334243
2869.296532,-10066.800811,888.247130,383.047749
2869.296869,-9696.697840,-370.102971,-766.095498
2869.297206,-11325.150913,-1480.411884,-536.266849
2869.297543,-11621.233289,-1184.329507,306.438199
2869.297881,-9104.533087,-740.205942,-995.924147
2869.298218,-8364.327145,-666.185348,0.000000
2869.298555,-9474.636058,-1332.370696,-383.047749
2869.298892,-11029.068536,-740.205942,-383.047749
2869.299230,-10436.903782,-296.082377,-766.095498
2869.299567,-9326.594869,-814.226536,-842.705048
2869.299904,-10510.924376,-962.267725,0.000000
2869.300242,-11695.253884,-370.102971,1149.143247
2869.300579,-10362.883188,-296.082377,536.266849
2869.300916,-8364.327145,-518.144159,995.924147
2869.301253,-9252.574275,-1628.453072,2145.067394
2869.301591,-10807.006753,74.020594,2604.724693
2869.301928,-10140.821405,1776.494261,1608.800546
2869.302265,-9622.677246,1480.411884,459.657299
2869.302602,-10732.986159,888.247130,919.314598
2869.302940,-11325.150913,444.123565,689.485948
2869.303277,-9918.759623,1776.494261,306.438199
2869.303614,-7846.182985,814.226536,76.609550
2869.303951,-9104.533087,666.185348,-306.438199
2869.304289,-10807.006753,222.061783,-536.266849
2869.304626,-10288.862594,962.267725,-689.485948
2869.304963,-8512.368333,222.061783,-1532.190996
2869.305301,-9474.636058,-666.185348,-842.705048
2869.305638,-10732.986159,-814.226536,-153.219100
2869.305975,-9992.780217,-592.164754,-1225.752797
2869.306312,-8586.388927,-1332.370696,-536.266849
2869.306650,-9474.636058,-1998.556043,689.485948
2869.306987,-10732.986159,-1036.288319,1225.752797
2869.307324,-11251.130318,0.000000,383.047749
2869.307661,-9844.739029,-592.164754,-459.657299
2869.307999,-10362.883188,-1998.556043,-229.828649
2869.308336,-12361.439231,-1850.514855,536.266849
2869.308673,-10658.965565,-1406.391290,536.266849
2869.309010,-8512.368333,-1480.411884,76.609550
2869.309348,-9252.574275,-1406.391290,1302.362347
2869.309685,-10732.986159,-666.185348,842.705048
2869.310022,-11029.068536,370.102971,842.705048
2869.310360,-9844.739029,740.205942,459.657299
2869.310697,-9844.739029,222.061783,459.657299
2869.311034,-11769.274478,0.000000,1072.533697
2869.311371,-10436.903782,444.123565,536.266849
2869.311709,-8808.450710,-444.123565,612.876398
2869.312046,-8660.409521,-1332.370696,1225.752797
2869.312383,-10066.800811,-444.123565,1378.971896
2869.312720,-10584.944971,888.247130,383.047749
2869.313058,-9252.574275,1036.288319,-1225.752797
2869.313395,-9474.636058,-740.205942,-1149.143247
2869.313732,-11473.192101,-1036.288319,-306.438199
2869.314069,-9918.759623,518.144159,-536.266849
2869.314407,-8290.306550,-296.082377,-536.266849
2869.314744,-8290.306550,-888.247130,153.219100
2869.315081,-10436.903782,74.020594,1149.143247
2869.315419,-11695.253884,814.226536,2221.676944
2869.315756,-9474.636058,1628.453072,612.876398
2869.316093,-10066.800811,222.061783,842.705048
2869.316430,-11991.336260,592.164754,1378.971896
2869.316768,-10288.862594,1184.329507,76.609550
2869.317105,-9474.636058,888.247130,689.485948
2869.317442,-8808.450710,-814.226536,842.705048
2869.317779,-9696.697840,74.020594,919.314598
2869.318117,-10584.944971,1406.391290,536.266849
2869.318454,-9548.656652,740.205942,-1225.752797
2869.318791,-9696.697840,-370.102971,-1302.362347
2869.319128,-11547.212695,-1480.411884,-1378.971896
2869.319466,-10807.006753,-666.185348,-995.924147
2869.319803,-9030.512492,-740.205942,-1532.190996
2869.320140,-8882.471304,-2812.782580,-1378.971896
2869.320477,-10140.821405,-2516.700203,-612.876398
2869.320815,-10881.027347,-2146.597232,-459.657299
2869.321152,-9548.656652,-666.185348,-842.705048
2869.321489,-9844.739029,-1998.556043,-229.828649
2869.321827,-11473.192101,-1702.473667,306.438199
2869.322164,-11621.233289,-1036.288319,383.047749
2869.322501,-9474.636058,-1110.308913,1149.143247
2869.322838,-8808.450710,-2072.576638,2604.724693
2869.323176,-10436.903782,-888.247130,2987.772442
2869.323513,-10955.047942,814.226536,2681.334243
2869.323850,-9844.739029,2146.597232,1149.143247
2869.324187,-10362.883188,74.020594,1378.971896
2869.324525,-11695.253884,74.020594,919.314598
2869.324862,-10436.903782,222.061783,229.828649
2869.325199,-8660.409521,1184.329507,766.095498
2869.325536,-7846.182985,-296.082377,0.000000
2869.325874,-9770.718434,-666.185348,229.828649
2869.326211,-10510.924376,444.123565,153.219100
2869.326548,-8734.430116,1184.329507,-1455.581446
2869.326886,-8956.491898,370.102971,-1455.581446
2869.327223,-10955.047942,-296.082377,-612.876398
2869.327560,-11325.150913,148.041188,-1149.143247
2869.327897,-9400.615463,-666.185348,-536.266849
2869.328235,-8882.471304,-888.247130,229.828649
2869.328572,-9992.780217,-1554.432478,1225.752797
2869.328909,-11325.150913,0.000000,1225.752797
2869.329246,-9622.677246,592.164754,459.657299
2869.329584,-9474.636058,-888.247130,153.219100
2869.329921,-11843.295072,-1110.308913,1225.752797
2869.330258,-12139.377449,-666.185348,842.705048
2869.330595,-9548.656652,666.185348,689.485948
2869.330933,-9104.533087,-296.082377,383.047749
2869.331270,-9844.739029,-592.164754,153.219100
2869.331607,-10658.965565,-148.041188,0.000000
2869.331945,-9548.656652,592.164754,0.000000
2869.332282,-8882.471304,296.082377,-919.314598
2869.332619,-10658.965565,-592.164754,-383.047749
2869.332956,-11769.274478,-148.041188,-536.266849
2869.333294,-9474.636058,-1110.308913,-995.924147
2869.333631,-7994.224174,-2146.597232,0.000000
2869.333968,-8734.430116,-1406.391290,612.876398
2869.334305,-10658.965565,-962.267725,842.705048
2869.334643,-9548.656652,0.000000,76.609550
2869.334980,-9548.656652,-370.102971,-306.438199
2869.335317,-11917.315666,-1184.329507,766.095498
2869.335654,-12065.356855,-888.247130,0.000000
2869.335992,-9474.636058,-444.123565,383.047749
2869.336329,-8808.450710,-518.144159,383.047749
2869.336666,-8956.491898,-1184.329507,1685.410096
2869.337004,-11029.068536,148.041188,2145.067394
2869.337341,-9918.759623,1110.308913,1149.143247
2869.337678,-9770.718434,1554.432478,306.438199
2869.338015,-11103.089130,1184.329507,1225.752797
2869.338353,-11917.315666,1480.411884,1149.143247
2869.338690,-9844.739029,1998.556043,766.095498
2869.339027,-8808.450710,814.226536,612.876398
2869.339364,-9030.512492,1036.288319,1378.971896
2869.339702,-10955.047942,1258.350101,536.266849
2869.340039,-10140.821405,2072.576638,-229.828649
2869.340376,-9178.553681,814.226536,-1302.362347
2869.340713,-10658.965565,-740.205942,-1455.581446
2869.341051,-10658.965565,-1480.411884,-1532.190996
2869.341388,-8438.347739,-1480.411884,-2221.676944
2869.341725,-7031.956449,-1850.514855,-842.705048
2869.342063,-8734.430116,-2812.782580,-76.609550
2869.342400,-11029.068536,-1110.308913,-306.438199
2869.342737,-10955.047942,-518.144159,-995.924147
2869.343074,-9992.780217,-740.205942,-689.485948
2869.343412,-10066.800811,-2442.679609,76.609550
2869.343749,-11917.315666,-2072.576638,1149.143247
2869.344086,-10436.903782,-1554.432478,1455.581446
2869.344423,-8956.491898,-1776.494261,1378.971896
2869.344761,-9548.656652,-1998.556043,2757.943793
2869.345098,-11473.192101,-296.082377,2221.676944
2869.345435,-11251.130318,962.267725,2221.676944
2869.345772,-10732.986159,888.247130,842.705048
2869.346110,-11103.089130,-444.123565,612.876398
2869.346447,-12287.418637,444.123565,459.657299
2869.346784,-10140.821405,296.082377,-536.266849
2869.347122,-8216.285956,-296.082377,-76.609550
2869.347459,-8512.368333,-1554.432478,0.000000
2869.347796,-11029.068536,-222.061783,229.828649
2869.348133,-9844.739029,814.226536,-1225.752797
2869.348471,-8734.430116,0.000000,-1991.848295
2869.348808,-9474.636058,-962.267725,-153.219100
2869.349145,-10955.047942,-1258.350101,153.219100
2869.349482,-9770.718434,74.020594,459.657299
2869.349820,-7846.182985,-814.226536,459.657299
2869.350157,-8290.306550,-1480.411884,1762.019645
2869.350494,-10214.842000,74.020594,2374.896044
2869.350831,-10436.903782,1406.391290,1915.238745
2869.351169,-9400.615463,1702.473667,842.705048
2869.351506,-10362.883188,-370.102971,153.219100
2869.351843,-11917.315666,74.020594,919.314598
2869.352180,-10140.821405,666.185348,919.314598
2869.352518,-8660.409521,296.082377,459.657299
2869.352855,-8882.471304,-444.123565,766.095498
2869.353192,-10140.821405,-148.041188,153.219100
2869.353530,-10436.903782,1628.453072,0.000000
2869.353867,-9770.718434,962.267725,-995.924147
2869.354204,-10214.842000,0.000000,-1072.533697
2869.354541,-12213.398043,-518.144159,-919.314598
2869.354879,-11547.212695,148.041188,-1149.143247
2869.355216,-9030.512492,-962.267725,-995.924147
2869.355553,-9030.512492,-2664.741391,-459.657299
2869.355890,-10584.944971,-2442.679609,689.485948
2869.356228,-10510.924376,-666.185348,76.609550
2869.356565,-10214.842000,-370.102971,0.000000
2869.356902,-11029.068536,-1998.556043,-612.876398
2869.357239,-11695.253884,-1998.556043,229.828649
2869.357577,-10658.965565,-1258.350101,919.314598
2869.357914,-8142.265362,-962.267725,995.924147
2869.358251,-8660.409521,-1628.453072,2298.286494
2869.358589,-10510.924376,-1406.391290,2298.286494
2869.358926,-10881.027347,1110.308913,1685.410096
2869.359263,-9992.780217,1702.473667,919.314598
2869.359601,-10288.862594,296.082377,1455.581446
2869.359938,-11251.130318,592.164754,995.924147
2869.360275,-10584.944971,592.164754,842.705048
2869.360613,-8290.306550,1850.514855,612.876398
