#time,accel_x,accel_y,accel_z
2828.926700,-9178.553681,-2590.720797,-3217.601092
2828.927038,-9622.677246,-2072.576638,-2604.724693
2828.927376,-9770.718434,-1628.453072,-2298.286494
2828.927713,-9400.615463,-1406.391290,-3064.381992
2828.928051,-10214.842000,-592.164754,-2451.505594
2828.928389,-10732.986159,-1184.329507,-2681.334243
2828.928727,-9770.718434,-1480.411884,-2221.676944
2828.929065,-9992.780217,-1702.473667,-1302.362347
2828.929403,-9326.594869,-2368.659014,-612.876398
2828.929741,-9178.553681,-2072.576638,306.438199
2828.930079,-10362.883188,-2146.597232,1685.410096
2828.930417,-9696.697840,-1628.453072,1762.019645
2828.930755,-9326.594869,-666.185348,229.828649
2828.931093,-9844.739029,518.144159,-536.266849
2828.931431,-11695.253884,1258.350101,-842.705048
2828.931769,-11843.295072,1776.494261,-1455.581446
2828.932107,-9992.780217,962.267725,76.609550
2828.932445,-9844.739029,814.226536,-229.828649
2828.932783,-9992.780217,1036.288319,-383.047749
2828.933121,-10066.800811,-370.102971,-2145.067394
2828.933459,-10066.800811,-370.102971,-2298.286494
2828.933797,-10362.883188,0.000000,-1455.581446
2828.934135,-9918.759623,148.041188,-2604.724693
2828.934473,-9992.780217,0.000000,-3983.696590
2828.934811,-10658.965565,-1702.473667,-4749.792088
2828.935149,-9696.697840,-2516.700203,-3524.039291
2828.935487,-8364.327145,-3552.988522,-3217.601092
2828.935825,-7698.141797,-2960.823768,-2374.896044
2828.936163,-8734.430116,-3997.112087,-1915.238745
2828.936501,-9474.636058,-3849.070898,-1991.848295
2828.936839,-10140.821405,-4145.153275,-1532.190996
2828.937177,-10510.924376,-4367.215058,-1072.533697
2828.937515,-10436.903782,-4219.173869,-1225.752797
2828.937853,-10807.006753,-4145.153275,-1838.629195
2828.938191,-10658.965565,-4589.276840,-2374.896044
2828.938529,-9474.636058,-5329.482782,-842.705048
2828.938867,-9030.512492,-4293.194464,-229.828649
2828.939205,-9844.739029,-3182.885551,153.219100
2828.939543,-10436.903782,-1776.494261,0.000000
2828.939881,-11103.089130,-740.205942,153.219100
2828.940219,-11621.233289,-962.267725,1532.190996
2828.940557,-11621.233289,-592.164754,1378.971896
2828.940895,-11991.336260,-740.205942,842.705048
2828.941233,-12065.356855,-1332.370696,-1149.143247
2828.941571,-9622.677246,-3256.906145,-1532.190996
2828.941909,-8290.306550,-3478.967927,766.095498
2828.942247,-7846.182985,-3182.885551,1685.410096
2828.942585,-8364.327145,-296.082377,842.705048
2828.942923,-9474.636058,0.000000,-689.485948
2828.943261,-10510.924376,518.144159,-1378.971896
2828.943599,-10436.903782,-666.185348,-536.266849
2828.943937,-9992.780217,-1110.308913,1225.752797
2828.944275,-9844.739029,-1480.411884,2757.943793
2828.944613,-9030.512492,-1332.370696,3140.991542
2828.944951,-8364.327145,-2146.597232,3064.381992
2828.945289,-8216.285956,-888.247130,2681.334243
2828.945627,-9474.636058,-444.123565,3294.210641
2828.945965,-11251.130318,666.185348,1455.581446
2828.946303,-11547.212695,1110.308913,-1149.143247
2828.946641,-11621.233289,1702.473667,-1532.190996
2828.946979,-9992.780217,1702.473667,-1915.238745
2828.947316,-8734.430116,518.144159,-842.705048
2828.947654,-9030.512492,1480.411884,1149.143247
2828.947992,-10362.883188,1332.370696,1532.190996
2828.948330,-10658.965565,1406.391290,0.000000
2828.948668,-11621.233289,962.267725,-766.095498
2828.949006,-11621.233289,-444.123565,-1225.752797
2828.949344,-10807.006753,-148.041188,-1608.800546
2828.949681,-9992.780217,370.102971,-995.924147
2828.950019,-9474.636058,444.123565,-1915.238745
2828.950356,-9400.615463,-370.102971,-2221.676944
2828.950694,-9548.656652,296.082377,-2681.334243
2828.951031,-10584.944971,-740.205942,-2681.334243
2828.951368,-10066.800811,-1332.370696,-1762.019645
2828.951706,-9400.615463,-1628.453072,-229.828649
2828.952043,-8882.471304,-592.164754,1915.238745
2828.952381,-8882.471304,444.123565,2374.896044
2828.952718,-9918.759623,1406.391290,2298.286494
2828.953056,-11843.295072,1776.494261,1838.629195
2828.953393,-11621.233289,1850.514855,766.095498
2828.953730,-10658.965565,666.185348,1455.581446
2828.954068,-9400.615463,1110.308913,1762.019645
2828.954405,-8512.368333,1332.370696,2298.286494
2828.954743,-8956.491898,1628.453072,2681.334243
2828.955080,-9400.615463,2738.761985,689.485948
2828.955418,-10362.883188,2812.782580,0.000000
2828.955755,-11695.253884,2146.597232,-1378.971896
2828.956092,-11251.130318,1480.411884,-1685.410096
2828.956430,-10436.903782,666.185348,-842.705048
2828.956767,-9474.636058,-814.226536,383.047749
2828.957105,-8586.388927,0.000000,383.047749
2828.957442,-9030.512492,-888.247130,1455.581446
2828.957779,-9770.718434,-666.185348,842.705048
2828.958117,-11029.068536,-1110.308913,0.000000
2828.958454,-11399.171507,-1776.494261,153.219100
2828.958792,-9918.759623,-1924.535449,0.000000
2828.959129,-9400.615463,-2072.576638,842.705048
2828.959467,-9326.594869,-2368.659014,1302.362347
2828.959804,-9474.636058,-1776.494261,1608.800546
2828.960141,-9844.739029,-1850.514855,1072.533697
2828.960479,-10510.924376,-1480.411884,229.828649
2828.960816,-10584.944971,-2294.638420,0.000000
2828.961154,-10214.842000,-2146.597232,306.438199
2828.961491,-10140.821405,-1406.391290,919.314598
2828.961829,-9770.718434,-1184.329507,383.047749
2828.962166,-9918.759623,0.000000,306.438199
2828.962503,-11769.274478,296.082377,-306.438199
2828.962841,-11547.212695,-1628.453072,-766.095498
2828.963178,-10362.883188,-2368.659014,-1225.752797
2828.963516,-9178.553681,-3330.926739,-306.438199
2828.963853,-8808.450710,-1998.556043,919.314598
2828.964191,-8364.327145,-1924.535449,-229.828649
2828.964528,-9474.636058,-962.267725,-306.438199
2828.964865,-10510.924376,-592.164754,-766.095498
2828.965203,-11399.171507,0.000000,-1685.410096
2828.965540,-11547.212695,-1184.329507,-995.924147
2828.965878,-10362.883188,-1406.391290,-536.266849
2828.966215,-8808.450710,-2368.659014,1149.143247
2828.966553,-8808.450710,-1110.308913,2451.505594
2828.966890,-8882.471304,0.000000,2451.505594
2828.967227,-9918.759623,296.082377,1685.410096
2828.967565,-11325.150913,1406.391290,1149.143247
2828.967902,-10584.944971,1332.370696,153.219100
2828.968240,-10732.986159,1332.370696,383.047749
2828.968577,-10214.842000,1480.411884,459.657299
2828.968915,-8882.471304,1332.370696,-459.657299
2828.969252,-9252.574275,1258.350101,-536.266849
2828.969589,-9918.759623,962.267725,-766.095498
2828.969927,-9400.615463,-296.082377,-1838.629195
2828.970264,-10066.800811,-1850.514855,-842.705048
2828.970602,-9326.594869,-1998.556043,-689.485948
2828.970939,-8586.388927,-1480.411884,-306.438199
2828.971277,-9252.574275,222.061783,0.000000
2828.971614,-10066.800811,148.041188,-612.876398
2828.971951,-11251.130318,296.082377,-612.876398
2828.972289,-11769.274478,-518.144159,-995.924147
2828.972626,-11177.109724,-1036.288319,306.438199
2828.972964,-10214.842000,-2664.741391,1378.971896
2828.973301,-9326.594869,-1776.494261,2298.286494
2828.973639,-9474.636058,-1258.350101,3140.991542
2828.973976,-10436.903782,0.000000,2834.553343
2828.974313,-11251.130318,666.185348,1072.533697
2828.974651,-12287.418637,592.164754,153.219100
2828.974988,-11547.212695,444.123565,0.000000
2828.975326,-10732.986159,222.061783,1149.143247
2828.975663,-9770.718434,370.102971,1838.629195
2828.976001,-8438.347739,1110.308913,1608.800546
2828.976338,-9178.553681,1776.494261,1838.629195
2828.976675,-10066.800811,1850.514855,306.438199
2828.977013,-10510.924376,1850.514855,-76.609550
2828.977350,-11621.233289,592.164754,-76.609550
2828.977688,-10066.800811,370.102971,-306.438199
2828.978025,-9252.574275,740.205942,0.000000
2828.978363,-8660.409521,296.082377,153.219100
2828.978700,-8808.450710,0.000000,76.609550
2828.979037,-9326.594869,-296.082377,-153.219100
2828.979375,-9770.718434,0.000000,-612.876398
2828.979712,-9992.780217,-518.144159,-689.485948
2828.980050,-9918.759623,-1406.391290,0.000000
2828.980387,-9252.574275,-222.061783,1225.752797
2828.980725,-9178.553681,296.082377,1838.629195
2828.981062,-10066.800811,1110.308913,1608.800546
2828.981399,-11251.130318,444.123565,536.266849
2828.981737,-11843.295072,-296.082377,0.000000
2828.982074,-10807.006753,-1184.329507,229.828649
2828.982412,-9696.697840,-1628.453072,995.924147
2828.982749,-9252.574275,-1702.473667,1455.581446
2828.983086,-9104.533087,-444.123565,459.657299
2828.983424,-10214.842000,-666.185348,689.485948
2828.983761,-10732.986159,148.041188,-1149.143247
2828.984099,-11547.212695,-1036.288319,-2068.457845
2828.984436,-12213.398043,-2442.679609,-1838.629195
2828.984774,-10584.944971,-3404.947333,-1991.848295
2828.985111,-9104.533087,-3404.947333,-766.095498
2828.985448,-8068.244768,-3701.029710,0.000000
2828.985786,-8364.327145,-3182.885551,-153.219100
2828.986123,-9326.594869,-3034.844362,-383.047749
2828.986461,-11177.109724,-2442.679609,-612.876398
2828.986798,-11399.171507,-2368.659014,-612.876398
2828.987136,-11029.068536,-2738.761985,0.000000
2828.987473,-10140.821405,-2072.576638,1685.410096
2828.987810,-9104.533087,-1924.535449,1838.629195
2828.988148,-9622.677246,-888.247130,2604.724693
2828.988485,-10214.842000,-592.164754,1608.800546
2828.988823,-10584.944971,-444.123565,536.266849
2828.989160,-10436.903782,0.000000,1149.143247
2828.989498,-10362.883188,0.000000,689.485948
2828.989835,-9918.759623,1480.411884,1149.143247
2828.990172,-9474.636058,2072.576638,842.705048
2828.990510,-9548.656652,2886.803174,306.438199
2828.990847,-10066.800811,2368.659014,-612.876398
2828.991185,-10807.006753,1406.391290,-306.438199
2828.991522,-10362.883188,0.000000,0.000000
2828.991860,-8882.471304,0.000000,1455.581446
2828.992197,-8882.471304,222.061783,1762.019645
2828.992534,-9326.594869,296.082377,1302.362347
2828.992872,-8956.491898,666.185348,0.000000
2828.993209,-10214.842000,888.247130,-1762.019645
2828.993547,-11177.109724,-296.082377,-919.314598
2828.993884,-10584.944971,-666.185348,-1302.362347
2828.994222,-9474.636058,-1332.370696,-1149.143247
2828.994559,-9104.533087,-1480.411884,229.828649
2828.994896,-8142.265362,-1110.308913,919.314598
2828.995234,-9474.636058,-518.144159,1915.238745
2828.995571,-10658.965565,740.205942,1532.190996
2828.995909,-11547.212695,0.000000,919.314598
2828.996246,-11917.315666,-444.123565,842.705048
2828.996584,-11325.150913,148.041188,612.876398
2828.996921,-10955.047942,444.123565,1225.752797
2828.997258,-9770.718434,-518.144159,536.266849
2828.997596,-9252.574275,74.020594,-76.609550
2828.997933,-9844.739029,148.041188,-995.924147
2828.998271,-10436.903782,-814.226536,-1455.581446
2828.998608,-10288.862594,-1184.329507,-1762.019645
2828.998946,-10436.903782,-1628.453072,-1302.362347
2828.999283,-9918.759623,0.000000,-383.047749
2828.999620,-9104.533087,-222.061783,-306.438199
2828.999958,-9622.677246,370.102971,0.000000
2829.000295,-10732.986159,-814.226536,0.000000
2829.000633,-10288.862594,-888.247130,0.000000
2829.000970,-10436.903782,-888.247130,1378.971896
2829.001308,-9844.739029,-1554.432478,2451.505594
2829.001645,-9104.533087,-740.205942,2451.505594
2829.001982,-9030.512492,148.041188,2834.553343
2829.002320,-10362.883188,1332.370696,2834.553343
2829.002657,-10584.944971,1998.556043,1149.143247
2829.002995,-10732.986159,1036.288319,229.828649
2829.003332,-10436.903782,1184.329507,229.828649
2829.003670,-9918.759623,592.164754,689.485948
2829.004007,-9474.636058,666.185348,1072.533697
2829.004344,-8142.265362,1554.432478,536.266849
2829.004682,-9104.533087,888.247130,842.705048
2829.005019,-10066.800811,1406.391290,229.828649
2829.005357,-10288.862594,444.123565,-919.314598
2829.005694,-11029.068536,-518.144159,-689.485948
2829.006032,-10436.903782,-1184.329507,-919.314598
2829.006369,-9622.677246,-1480.411884,-612.876398
2829.006706,-9326.594869,-1480.411884,-689.485948
2829.007044,-9474.636058,-1702.473667,-919.314598
2829.007381,-9474.636058,-1850.514855,-1762.019645
2829.007719,-10288.862594,-2368.659014,-2145.067394
2829.008056,-10362.883188,-2590.720797,-1608.800546
2829.008393,-10807.006753,-3108.864956,-1225.752797
2829.008731,-10140.821405,-2072.576638,459.657299
2829.009068,-9474.636058,-1628.453072,995.924147
2829.009406,-10214.842000,-888.247130,1302.362347
2829.009743,-10807.006753,-444.123565,1072.533697
2829.010081,-11769.274478,-1554.432478,612.876398
2829.010418,-10510.924376,-1480.411884,1149.143247
2829.010755,-9992.780217,-1184.329507,1915.238745
2829.011093,-9474.636058,-296.082377,1991.848295
2829.011430,-9252.574275,74.020594,1378.971896
2829.011768,-9918.759623,1332.370696,612.876398
2829.012105,-10658.965565,1406.391290,-689.485948
2829.012443,-10807.006753,814.226536,-1149.143247
2829.012780,-10732.986159,-296.082377,-766.095498
2829.013117,-10140.821405,-1258.350101,-229.828649
2829.013455,-8364.327145,0.000000,-306.438199
2829.013792,-8364.327145,-518.144159,229.828649
2829.014130,-9030.512492,74.020594,1225.752797
2829.014467,-9400.615463,0.000000,612.876398
2829.014805,-10288.862594,0.000000,536.266849
2829.015142,-11103.089130,518.144159,1378.971896
2829.015479,-10510.924376,518.144159,689.485948
2829.015817,-10140.821405,370.102971,1608.800546
2829.016154,-9474.636058,740.205942,1225.752797
2829.016492,-9770.718434,1480.411884,1455.581446
2829.016829,-10658.965565,1184.329507,842.705048
2829.017167,-10214.842000,370.102971,-306.438199
2829.017504,-10288.862594,-222.061783,0.000000
2829.017841,-9992.780217,-222.061783,766.095498
2829.018179,-9622.677246,666.185348,612.876398
2829.018516,-9400.615463,1184.329507,459.657299
2829.018854,-10140.821405,1036.288319,536.266849
2829.019191,-9992.780217,1110.308913,-766.095498
2829.019529,-10658.965565,-444.123565,-612.876398
2829.019866,-10584.944971,-1184.329507,-383.047749
2829.020203,-9622.677246,-1924.535449,0.000000
2829.020541,-9400.615463,-666.185348,0.000000
2829.020878,-8956.491898,-962.267725,-459.657299
2829.021216,-9770.718434,-962.267725,-76.609550
2829.021553,-10807.006753,-518.144159,-1225.752797
2829.021891,-11695.253884,-666.185348,-1225.752797
2829.022228,-11695.253884,-1332.370696,-766.095498
2829.022565,-10288.862594,-1480.411884,-536.266849
2829.022903,-9474.636058,-1406.391290,995.924147
2829.023240,-8956.491898,-592.164754,2145.067394
2829.023578,-9252.574275,148.041188,2834.553343
2829.023915,-10955.047942,1110.308913,1762.019645
2829.024253,-11547.212695,1184.329507,536.266849
2829.024590,-11843.295072,1110.308913,766.095498
2829.024927,-11251.130318,962.267725,1072.533697
2829.025265,-9548.656652,1554.432478,1149.143247
2829.025602,-9178.553681,1036.288319,1072.533697
2829.025940,-9030.512492,1258.350101,229.828649
2829.026277,-8586.388927,666.185348,-1149.143247
2829.026615,-9696.697840,592.164754,-766.095498
2829.026952,-9918.759623,0.000000,-766.095498
2829.027289,-9622.677246,-518.144159,-536.266849
2829.027627,-9030.512492,592.164754,153.219100
2829.027964,-8660.409521,370.102971,-383.047749
2829.028302,-9400.615463,296.082377,229.828649
2829.028639,-10066.800811,-222.061783,0.000000
2829.028977,-10732.986159,-1480.411884,-689.485948
2829.029314,-10436.903782,-1554.432478,459.657299
2829.029651,-9844.739029,-2368.659014,1532.190996
2829.029989,-9474.636058,-1554.432478,2374.896044
2829.030326,-9474.636058,-1406.391290,1838.629195
2829.030664,-10288.862594,296.082377,1991.848295
2829.031001,-11695.253884,148.041188,919.314598
2829.031339,-12213.398043,-148.041188,-306.438199
2829.031676,-11103.089130,-888.247130,0.000000
2829.032013,-10955.047942,-1480.411884,306.438199
2829.032351,-9770.718434,-1184.329507,842.705048
2829.032688,-8956.491898,-962.267725,383.047749
2829.033026,-9474.636058,-814.226536,612.876398
2829.033363,-9696.697840,444.123565,-1149.143247
2829.033700,-11621.233289,-962.267725,-995.924147
2829.034038,-10807.006753,-740.205942,-1685.410096
2829.034375,-10288.862594,-1258.350101,-1149.143247
2829.034713,-9622.677246,-740.205942,229.828649
2829.035050,-8660.409521,-1184.329507,-766.095498
2829.035388,-8956.491898,-888.247130,0.000000
2829.035725,-9918.759623,-1258.350101,-383.047749
2829.036062,-9622.677246,-1480.411884,-1149.143247
2829.036400,-9992.780217,-1184.329507,-153.219100
2829.036737,-10214.842000,-1406.391290,229.828649
2829.037075,-9178.553681,148.041188,1608.800546
2829.037412,-9326.594869,518.144159,2374.896044
2829.037750,-9918.759623,1776.494261,2298.286494
2829.038087,-10955.047942,2368.659014,1762.019645
2829.038424,-11473.192101,1406.391290,1302.362347
2829.038762,-10362.883188,592.164754,1762.019645
2829.039099,-9326.594869,1036.288319,2681.334243
2829.039437,-9252.574275,1998.556043,3140.991542
2829.039774,-9326.594869,2146.597232,1608.800546
2829.040112,-10140.821405,2220.617826,459.657299
2829.040449,-11177.109724,1850.514855,-306.438199
2829.040786,-11325.150913,1036.288319,-766.095498
2829.041124,-10658.965565,148.041188,-1149.143247
2829.041461,-9474.636058,-1332.370696,-842.705048
2829.041799,-8660.409521,-1110.308913,-995.924147
2829.042136,-7698.141797,-962.267725,0.000000
2829.042474,-9104.533087,0.000000,229.828649
2829.042811,-10362.883188,-1184.329507,-459.657299
2829.043148,-11399.171507,-1036.288319,-1225.752797
2829.043486,-11473.192101,-1406.391290,-153.219100
2829.043823,-10881.027347,-1924.535449,612.876398
2829.044161,-9844.739029,-1554.432478,689.485948
2829.044498,-9252.574275,-1332.370696,1225.752797
2829.044836,-9770.718434,-666.185348,1225.752797
2829.045173,-10510.924376,-296.082377,0.000000
2829.045510,-11177.109724,-962.267725,-76.609550
2829.045848,-10584.944971,-592.164754,0.000000
2829.046185,-9992.780217,-740.205942,306.438199
2829.046523,-10362.883188,1480.411884,1149.143247
2829.046860,-9326.594869,1406.391290,383.047749
2829.047198,-9918.759623,1554.432478,0.000000
2829.047535,-10510.924376,1036.288319,-459.657299
2829.047872,-10955.047942,296.082377,-842.705048
2829.048210,-10436.903782,-148.041188,536.266849
2829.048547,-9696.697840,-1036.288319,536.266849
2829.048885,-8216.285956,222.061783,612.876398
2829.049222,-8882.471304,370.102971,306.438199
2829.049560,-9844.739029,444.123565,766.095498
2829.049897,-10732.986159,74.020594,459.657299
2829.050234,-11251.130318,-296.082377,459.657299
2829.050572,-10732.986159,-518.144159,0.000000
2829.050909,-9770.718434,-1184.329507,536.266849
2829.051246,-9178.553681,-148.041188,1608.800546
2829.051583,-8438.347739,-518.144159,1915.238745
2829.051921,-9252.574275,962.267725,1838.629195
2829.052258,-10362.883188,740.205942,919.314598
2829.052595,-11621.233289,518.144159,536.266849
2829.052932,-11251.130318,-518.144159,536.266849
2829.053270,-10066.800811,148.041188,383.047749
2829.053607,-9474.636058,-296.082377,1302.362347
2829.053944,-9104.533087,0.000000,229.828649
2829.054281,-9474.636058,-74.020594,-229.828649
2829.054619,-10362.883188,-222.061783,-1072.533697
2829.054956,-10066.800811,-962.267725,-1762.019645
2829.055293,-10658.965565,-1628.453072,-1455.581446
2829.055630,-10362.883188,-2294.638420,-1532.190996
2829.055967,-9474.636058,-1480.411884,-1072.533697
2829.056305,-8956.491898,-1332.370696,-995.924147
2829.056642,-9844.739029,-1184.329507,-842.705048
2829.056979,-10732.986159,-1036.288319,-1302.362347
2829.057316,-11399.171507,-2812.782580,-383.047749
2829.057654,-10584.944971,-1924.535449,76.609550
2829.057991,-9474.636058,-2368.659014,1302.362347
2829.058328,-9770.718434,-814.226536,2604.724693
2829.058665,-9474.636058,-444.123565,2298.286494
2829.059003,-10584.944971,1110.308913,2681.334243
2829.059340,-11325.150913,1184.329507,1685.410096
2829.059677,-11547.212695,740.205942,459.657299
2829.060014,-11325.150913,148.041188,919.314598
2829.060352,-10214.842000,0.000000,1225.752797
2829.060689,-8956.491898,1036.288319,1915.238745
2829.061026,-8364.327145,1406.391290,1072.533697
2829.061363,-8808.450710,1998.556043,306.438199
2829.061701,-9770.718434,1480.411884,-612.876398
2829.062038,-10436.903782,888.247130,-229.828649
2829.062375,-10510.924376,814.226536,-153.219100
2829.062712,-9770.718434,74.020594,-229.828649
2829.063049,-9252.574275,740.205942,0.000000
2829.063387,-8956.491898,148.041188,-153.219100
2829.063724,-9104.533087,0.000000,-383.047749
2829.064061,-9770.718434,-740.205942,-689.485948
2829.064398,-10214.842000,-1702.473667,-842.705048
2829.064736,-10066.800811,-2220.617826,-919.314598
2829.065073,-9696.697840,-1850.514855,306.438199
2829.065410,-9622.677246,-814.226536,995.924147
2829.065747,-9252.574275,-370.102971,1072.533697
2829.066085,-10436.903782,74.020594,1532.190996
2829.066422,-11547.212695,518.144159,306.438199
2829.066759,-11695.253884,-518.144159,0.000000
2829.067096,-11177.109724,-1184.329507,1455.581446
2829.067434,-10066.800811,-888.247130,1378.971896
2829.067771,-9770.718434,74.020594,1991.848295
2829.068108,-9770.718434,370.102971,1072.533697
2829.068445,-10214.842000,592.164754,0.000000
2829.068783,-10658.965565,296.082377,-1608.800546
2829.069120,-11473.192101,-592.164754,-1608.800546
2829.069457,-10584.944971,-1332.370696,-1532.190996
2829.069794,-9992.780217,-1850.514855,-919.314598
2829.070132,-8808.450710,-888.247130,0.000000
2829.070469,-8216.285956,-814.226536,-536.266849
2829.070806,-8956.491898,0.000000,995.924147
2829.071143,-10658.965565,-148.041188,306.438199
2829.071480,-10955.047942,-1036.288319,76.609550
2829.071818,-11103.089130,-148.041188,383.047749
2829.072155,-10510.924376,-444.123565,1838.629195
2829.072492,-9474.636058,0.000000,1685.410096
2829.072829,-8660.409521,-222.061783,1762.019645
2829.073167,-9770.718434,962.267725,1991.848295
2829.073504,-10140.821405,666.185348,1225.752797
2829.073841,-10436.903782,444.123565,0.000000
2829.074178,-10436.903782,370.102971,612.876398
2829.074516,-10140.821405,666.185348,995.924147
2829.074853,-9474.636058,1924.535449,1455.581446
2829.075190,-9844.739029,1850.514855,306.438199
2829.075527,-9770.718434,1776.494261,459.657299
2829.075865,-10955.047942,592.164754,-383.047749
2829.076202,-10436.903782,-666.185348,-1072.533697
2829.076539,-9252.574275,-962.267725,-459.657299
2829.076876,-9400.615463,-2146.597232,76.609550
2829.077214,-8956.491898,-1406.391290,-306.438199
2829.077551,-8068.244768,-962.267725,-689.485948
2829.077888,-9918.759623,-666.185348,-306.438199
2829.078225,-10807.006753,-1406.391290,-1225.752797
2829.078562,-11621.233289,-1776.494261,-1608.800546
2829.078900,-11103.089130,-2368.659014,-842.705048
2829.079237,-9918.759623,-3256.906145,153.219100
2829.079574,-9178.553681,-2664.741391,1149.143247
2829.079911,-9178.553681,-1628.453072,1685.410096
2829.080249,-10066.800811,-814.226536,1838.629195
2829.080586,-11029.068536,0.000000,-383.047749
2829.080923,-11695.253884,-888.247130,76.609550
2829.081260,-11769.274478,-740.205942,842.705048
2829.081598,-10288.862594,-518.144159,919.314598
2829.081935,-9770.718434,518.144159,1455.581446
2829.082272,-9622.677246,444.123565,766.095498
2829.082609,-9622.677246,444.123565,-459.657299
2829.082947,-9844.739029,0.000000,-1072.533697
2829.083284,-9770.718434,0.000000,-1455.581446
2829.083621,-9918.759623,-740.205942,-1302.362347
2829.083958,-10140.821405,-962.267725,-612.876398
2829.084296,-8734.430116,518.144159,-536.266849
2829.084633,-8734.430116,222.061783,383.047749
2829.084970,-9622.677246,518.144159,0.000000
2829.085307,-9770.718434,0.000000,-306.438199
2829.085645,-10214.842000,-444.123565,383.047749
2829.085982,-9696.697840,-814.226536,1149.143247
2829.086319,-8956.491898,-740.205942,1838.629195
2829.086656,-9548.656652,666.185348,2604.724693
2829.086993,-9844.739029,666.185348,2221.676944
2829.087331,-10436.903782,1332.370696,1455.581446
2829.087668,-11325.150913,1184.329507,306.438199
2829.088005,-11695.253884,222.061783,0.000000
2829.088342,-11103.089130,-666.185348,383.047749
2829.088680,-10066.800811,-518.144159,919.314598
2829.089017,-8734.430116,0.000000,536.266849
2829.089354,-9104.533087,444.123565,842.705048
2829.089691,-9770.718434,518.144159,689.485948
2829.090029,-10881.027347,222.061783,-995.924147
2829.090366,-11251.130318,-740.205942,-1072.533697
2829.090703,-11547.212695,-518.144159,-766.095498
2829.091040,-10288.862594,-1258.350101,-459.657299
2829.091378,-9178.553681,-1110.308913,0.000000
2829.091715,-8956.491898,-1776.494261,-536.266849
2829.092052,-9770.718434,-1554.432478,-536.266849
2829.092389,-10214.842000,-2220.617826,-1302.362347
2829.092727,-10955.047942,-2664.741391,-1455.581446
2829.093064,-10658.965565,-2812.782580,-612.876398
2829.093401,-9474.636058,-1776.494261,0.000000
2829.093738,-9474.636058,-1258.350101,1532.190996
2829.094075,-9696.697840,-296.082377,2145.067394
2829.094413,-9844.739029,222.061783,1455.581446
2829.094750,-11251.130318,518.144159,1685.410096
2829.095087,-11399.171507,0.000000,1762.019645
2829.095424,-9918.759623,0.000000,1532.190996
2829.095762,-9770.718434,0.000000,1915.238745
2829.096099,-8956.491898,1406.391290,1455.581446
2829.096436,-9548.656652,1406.391290,919.314598
2829.096773,-10288.862594,1480.411884,153.219100
2829.097111,-10288.862594,1406.391290,-1149.143247
2829.097448,-10881.027347,444.123565,-842.705048
2829.097785,-10584.944971,-444.123565,-1225.752797
2829.098122,-9178.553681,-666.185348,-919.314598
2829.098460,-8660.409521,0.000000,0.000000
2829.098797,-8290.306550,-370.102971,306.438199
2829.099134,-9474.636058,148.041188,0.000000
2829.099471,-10584.944971,-592.164754,-229.828649
2829.099809,-12065.356855,-740.205942,0.000000
2829.100146,-11103.089130,-1480.411884,229.828649
2829.100483,-10066.800811,-1628.453072,689.485948
2829.100820,-9400.615463,-1554.432478,1302.362347
2829.101158,-9326.594869,-1702.473667,1455.581446
2829.101495,-9844.739029,-592.164754,1149.143247
2829.101832,-10510.924376,-1036.288319,229.828649
2829.102169,-11103.089130,-1184.329507,-536.266849
2829.102506,-10584.944971,-1110.308913,-153.219100
2829.102844,-10362.883188,-1184.329507,995.924147
2829.103181,-9548.656652,296.082377,536.266849
2829.103518,-9474.636058,370.102971,0.000000
2829.103855,-10732.986159,962.267725,-306.438199
2829.104193,-10881.027347,-518.144159,-1149.143247
2829.104530,-10881.027347,-1406.391290,-995.924147
2829.104867,-10066.800811,-1258.350101,-536.266849
2829.105204,-9030.512492,-1776.494261,383.047749
2829.105542,-9104.533087,-740.205942,536.266849
2829.105879,-9326.594869,-222.061783,-383.047749
2829.106216,-9992.780217,-370.102971,-383.047749
2829.106553,-11177.109724,0.000000,-1149.143247
2829.106891,-11029.068536,-962.267725,-1225.752797
2829.107228,-10288.862594,-1554.432478,-229.828649
2829.107565,-9474.636058,-1258.350101,1685.410096
2829.107902,-8660.409521,-148.041188,2221.676944
2829.108240,-9252.574275,222.061783,2834.553343
2829.108577,-10066.800811,1628.453072,2528.115143
2829.108914,-10807.006753,1702.473667,1455.581446
2829.109251,-11399.171507,1554.432478,1455.581446
2829.109588,-10807.006753,1036.288319,1838.629195
2829.109926,-9844.739029,1332.370696,2221.676944
2829.110263,-9400.615463,1702.473667,1838.629195
2829.110600,-9252.574275,1628.453072,1225.752797
2829.110937,-9992.780217,962.267725,229.828649
2829.111275,-10140.821405,222.061783,-842.705048
2829.111612,-10140.821405,-370.102971,-1532.190996
2829.111949,-10140.821405,-1036.288319,-612.876398
2829.112286,-9400.615463,-1258.350101,-1455.581446
2829.112624,-8586.388927,-518.144159,-1225.752797
2829.112961,-8956.491898,-814.226536,-766.095498
2829.113298,-9474.636058,-296.082377,-536.266849
2829.113635,-11621.233289,-1776.494261,-689.485948
2829.113973,-10732.986159,-2368.659014,-459.657299
2829.114310,-10436.903782,-2220.617826,229.828649
2829.114647,-10362.883188,-2368.659014,2068.457845
2829.114984,-9178.553681,-1924.535449,1455.581446
2829.115322,-9992.780217,-1036.288319,1838.629195
2829.115659,-11103.089130,-296.082377,919.314598
2829.115996,-11177.109724,0.000000,-383.047749
2829.116333,-11843.295072,-592.164754,-612.876398
2829.116671,-10807.006753,-962.267725,-766.095498
2829.117008,-9696.697840,-592.164754,459.657299
2829.117345,-8956.491898,0.000000,1302.362347
2829.117682,-9178.553681,1110.308913,766.095498
2829.118019,-10140.821405,1258.350101,536.266849
2829.118357,-11177.109724,592.164754,-612.876398
2829.118694,-10955.047942,592.164754,-536.266849
2829.119031,-10732.986159,74.020594,-76.609550
2829.119368,-9696.697840,-444.123565,612.876398
2829.119706,-8734.430116,222.061783,-76.609550
2829.120043,-9030.512492,-74.020594,0.000000
2829.120380,-9696.697840,-444.123565,-153.219100
2829.120717,-9548.656652,-444.123565,-842.705048
2829.121055,-10214.842000,-1184.329507,-612.876398
2829.121392,-9770.718434,-1332.370696,153.219100
2829.121729,-8956.491898,-148.041188,229.828649
2829.122066,-8808.450710,518.144159,1608.800546
2829.122404,-9622.677246,1036.288319,2068.457845
2829.122741,-10362.883188,888.247130,1762.019645
2829.123078,-11547.212695,1184.329507,1072.533697
2829.123415,-11251.130318,222.061783,1225.752797
2829.123753,-10140.821405,-814.226536,1378.971896
2829.124090,-9104.533087,-814.226536,1685.410096
2829.124427,-8438.347739,74.020594,1532.190996
2829.124764,-9696.697840,592.164754,1225.752797
2829.125101,-10436.903782,296.082377,-766.095498
2829.125439,-11029.068536,74.020594,-1225.752797
2829.125776,-11399.171507,-740.205942,-1685.410096
2829.126113,-10214.842000,-1480.411884,-1072.533697
2829.126450,-9770.718434,-1554.432478,-919.314598
2829.126788,-8438.347739,-1776.494261,-612.876398
2829.127125,-8808.450710,-1702.473667,0.000000
2829.127462,-9844.739029,-1480.411884,76.609550
2829.127799,-10955.047942,-1702.473667,-76.609550
2829.128137,-11917.315666,-1850.514855,0.000000
2829.128474,-10510.924376,-2294.638420,76.609550
2829.128811,-9548.656652,-1702.473667,536.266849
2829.129148,-9696.697840,-1332.370696,1455.581446
2829.129486,-9474.636058,-962.267725,1838.629195
2829.129823,-10288.862594,-296.082377,1225.752797
2829.130160,-10658.965565,0.000000,995.924147
2829.130497,-10362.883188,148.041188,153.219100
2829.130835,-10140.821405,-296.082377,842.705048
2829.131172,-9844.739029,444.123565,1532.190996
2829.131509,-9326.594869,1258.350101,689.485948
2829.131846,-9474.636058,2590.720797,383.047749
2829.132184,-10066.800811,2072.576638,-383.047749
2829.132521,-10584.944971,1184.329507,-919.314598
2829.132858,-10066.800811,-370.102971,-689.485948
2829.133195,-9622.677246,148.041188,0.000000
2829.133532,-9104.533087,-592.164754,766.095498
2829.133870,-8956.491898,666.185348,383.047749
2829.134207,-9474.636058,370.102971,0.000000
2829.134544,-10066.800811,888.247130,-306.438199
2829.134881,-10807.006753,-296.082377,-766.095498
2829.135219,-11473.192101,-1036.288319,-842.705048
2829.135556,-9622.677246,-1776.494261,-306.438199
2829.135893,-9474.636058,-1628.453072,842.705048
2829.136230,-8364.327145,-1036.288319,1378.971896
2829.136568,-9326.594869,74.020594,2298.286494
2829.136905,-10436.903782,0.000000,1685.410096
2829.137242,-11695.253884,0.000000,919.314598
2829.137579,-11843.295072,444.123565,459.657299
2829.137917,-11103.089130,-518.144159,612.876398
2829.138254,-10584.944971,-444.123565,1608.800546
2829.138591,-9326.594869,-74.020594,766.095498
2829.138928,-9548.656652,222.061783,536.266849
2829.139266,-9844.739029,0.000000,-612.876398
2829.139603,-10066.800811,-740.205942,-2068.457845
2829.139940,-10140.821405,-1110.308913,-1915.238745
2829.140277,-9992.780217,-1628.453072,-1302.362347
2829.140614,-9548.656652,-1258.350101,-689.485948
2829.140952,-9104.533087,-444.123565,-995.924147
2829.141289,-9400.615463,0.000000,0.000000
2829.141626,-9992.780217,-444.123565,0.000000
2829.141963,-10807.006753,-814.226536,306.438199
2829.142301,-11029.068536,-1628.453072,919.314598
2829.142638,-9548.656652,-1406.391290,1608.800546
2829.142975,-9622.677246,-592.164754,2834.553343
2829.143312,-9548.656652,0.000000,2451.505594
2829.143650,-9770.718434,518.144159,2068.457845
2829.143987,-10436.903782,1036.288319,1302.362347
2829.144324,-10658.965565,1332.370696,612.876398
2829.144661,-10584.944971,666.185348,0.000000
2829.144999,-10510.924376,740.205942,689.485948
2829.145336,-9400.615463,740.205942,612.876398
2829.145673,-8660.409521,1776.494261,1072.533697
2829.146010,-9474.636058,2294.638420,1072.533697
2829.146348,-10288.862594,2442.679609,0.000000
2829.146685,-11177.109724,962.267725,-383.047749
2829.147022,-11473.192101,296.082377,0.000000
2829.147359,-10807.006753,-296.082377,-153.219100
2829.147697,-9548.656652,-296.082377,-536.266849
2829.148034,-8734.430116,-1258.350101,-766.095498
2829.148371,-9326.594869,-1406.391290,-995.924147
2829.148708,-9770.718434,-1184.329507,-842.705048
2829.149045,-10288.862594,-1628.453072,-1072.533697
2829.149382,-10214.842000,-2146.597232,-1378.971896
2829.149720,-10140.821405,-2664.741391,-766.095498
2829.150057,-10140.821405,-1628.453072,459.657299
2829.150394,-9326.594869,-1406.391290,766.095498
2829.150731,-9918.759623,-296.082377,1685.410096
2829.151068,-10732.986159,-666.185348,1072.533697
2829.151405,-11251.130318,-888.247130,842.705048
2829.151743,-11177.109724,-592.164754,919.314598
2829.152080,-10436.903782,-1258.350101,1762.019645
2829.152417,-9474.636058,-296.082377,1915.238745
2829.152754,-8956.491898,0.000000,1532.190996
2829.153091,-10436.903782,1554.432478,612.876398
2829.153428,-9992.780217,962.267725,-536.266849
2829.153766,-10807.006753,592.164754,-1608.800546
2829.154103,-10732.986159,-518.144159,-1225.752797
2829.154440,-9918.759623,-148.041188,-689.485948
2829.154777,-9474.636058,-444.123565,0.000000
2829.155114,-8882.471304,0.000000,-306.438199
2829.155451,-8364.327145,-370.102971,689.485948
2829.155789,-9844.739029,222.061783,766.095498
2829.156126,-10436.903782,0.000000,689.485948
2829.156463,-11029.068536,-296.082377,689.485948
2829.156800,-10436.903782,-592.164754,1225.752797
2829.157137,-9252.574275,0.000000,1532.190996
2829.157474,-9400.615463,666.185348,2374.896044
2829.157812,-9474.636058,518.144159,2298.286494
2829.158149,-10066.800811,962.267725,536.266849
2829.158486,-10140.821405,296.082377,0.000000
2829.158823,-10510.924376,518.144159,0.000000
2829.159160,-9918.759623,-370.102971,0.000000
2829.159497,-9770.718434,-74.020594,459.657299
2829.159835,-8438.347739,888.247130,689.485948
2829.160172,-9326.594869,888.247130,306.438199
2829.160509,-10436.903782,814.226536,-689.485948
2829.160846,-10955.047942,-814.226536,-689.485948
2829.161183,-10807.006753,-1036.288319,-229.828649
2829.161520,-9844.739029,-1628.453072,-229.828649
2829.161858,-9844.739029,-814.226536,0.000000
2829.162195,-9474.636058,-1110.308913,-689.485948
2829.162532,-9696.697840,-666.185348,-842.705048
2829.162869,-10214.842000,-1406.391290,-1685.410096
2829.163206,-10955.047942,-814.226536,-2221.676944
2829.163543,-10732.986159,-2368.659014,-1532.190996
2829.163881,-10955.047942,-2294.638420,-459.657299
2829.164218,-8734.430116,-1776.494261,0.000000
2829.164555,-8808.450710,-888.247130,1532.190996
2829.164892,-9696.697840,0.000000,2221.676944
2829.165229,-10510.924376,814.226536,1225.752797
2829.165566,-11991.336260,592.164754,1915.238745
2829.165904,-11473.192101,444.123565,1302.362347
2829.166241,-10436.903782,296.082377,1608.800546
2829.166578,-9844.739029,888.247130,1915.238745
2829.166915,-9030.512492,1258.350101,1225.752797
2829.167252,-9474.636058,1406.391290,459.657299
2829.167589,-9548.656652,1554.432478,-995.924147
2829.167927,-9548.656652,592.164754,-1838.629195
2829.168264,-10066.800811,-296.082377,-1302.362347
2829.168601,-9474.636058,-592.164754,-689.485948
2829.168938,-8956.491898,296.082377,-229.828649
2829.169275,-8586.388927,666.185348,536.266849
2829.169612,-9474.636058,370.102971,766.095498
2829.169950,-10140.821405,740.205942,229.828649
2829.170287,-11547.212695,-666.185348,536.266849
2829.170624,-11029.068536,-592.164754,536.266849
2829.170961,-9844.739029,-1924.535449,766.095498
2829.171298,-9178.553681,-1554.432478,1915.238745
2829.171635,-9030.512492,-962.267725,1991.848295
2829.171973,-9918.759623,-444.123565,1685.410096
2829.172310,-10436.903782,0.000000,153.219100
2829.172647,-11399.171507,-296.082377,-153.219100
2829.172984,-11399.171507,-1110.308913,0.000000
2829.173321,-10362.883188,-518.144159,229.828649
2829.173658,-9918.759623,-962.267725,1149.143247
2829.173996,-8586.388927,-296.082377,1532.190996
2829.174333,-8956.491898,444.123565,612.876398
2829.174670,-10955.047942,222.061783,229.828649
2829.175007,-11547.212695,-296.082377,-1072.533697
2829.175344,-10658.965565,-1258.350101,-1149.143247
2829.175681,-10732.986159,-1184.329507,-612.876398
2829.176019,-9252.574275,-740.205942,-612.876398
2829.176356,-8808.450710,-1110.308913,-689.485948
2829.176693,-9252.574275,-962.267725,-536.266849
2829.177030,-9178.553681,-962.267725,-995.924147
2829.177367,-11177.109724,-962.267725,-689.485948
2829.177704,-10732.986159,-1850.514855,-689.485948
2829.178042,-10066.800811,-1332.370696,229.828649
2829.178379,-9844.739029,-518.144159,1608.800546
2829.178716,-8956.491898,296.082377,1685.410096
2829.179053,-9770.718434,1184.329507,1838.629195
2829.179390,-10658.965565,888.247130,1532.190996
2829.179728,-11251.130318,1036.288319,1072.533697
2829.180065,-10732.986159,370.102971,919.314598
2829.180402,-10140.821405,518.144159,1685.410096
2829.180739,-9178.553681,1258.350101,1762.019645
2829.181076,-9178.553681,1628.453072,1225.752797
2829.181413,-9548.656652,2294.638420,459.657299
2829.181751,-10510.924376,1850.514855,-995.924147
2829.182088,-11029.068536,962.267725,-1608.800546
2829.182425,-10807.006753,-370.102971,-1455.581446
2829.182762,-9844.739029,-1332.370696,-689.485948
2829.183099,-9104.533087,-592.164754,-995.924147
2829.183436,-7994.224174,-1258.350101,0.000000
2829.183774,-9178.553681,-814.226536,-76.609550
2829.184111,-10436.903782,-962.267725,-766.095498
2829.184448,-11769.274478,-962.267725,0.000000
2829.184785,-11621.233289,-1110.308913,0.000000
2829.185122,-10807.006753,-1554.432478,76.609550
2829.185459,-10066.800811,-1628.453072,1225.752797
2829.185797,-9622.677246,-1110.308913,1455.581446
2829.186134,-9548.656652,-962.267725,1685.410096
2829.186471,-10732.986159,-814.226536,995.924147
2829.186808,-10658.965565,-888.247130,0.000000
2829.187145,-10955.047942,-592.164754,459.657299
2829.187482,-10881.027347,-592.164754,995.924147
2829.187820,-9474.636058,222.061783,842.705048
2829.188157,-8956.491898,666.185348,1532.190996
2829.188494,-9474.636058,1702.473667,1072.533697
2829.188831,-10510.924376,1332.370696,0.000000
2829.189168,-11177.109724,444.123565,-459.657299
2829.189505,-10584.944971,-592.164754,76.609550
2829.189843,-9400.615463,-518.144159,153.219100
2829.190180,-9252.574275,0.000000,536.266849
2829.190517,-8660.409521,-296.082377,0.000000
2829.190854,-9178.553681,0.000000,306.438199
2829.191191,-9918.759623,0.000000,-306.438199
2829.191528,-10658.965565,0.000000,-919.314598
2829.191866,-10436.903782,-888.247130,-612.876398
2829.192203,-10066.800811,-1184.329507,153.219100
2829.192540,-8734.430116,-370.102971,1149.143247
2829.192877,-8586.388927,222.061783,1302.362347
2829.193214,-9548.656652,518.144159,2451.505594
2829.193551,-10732.986159,888.247130,1072.533697
2829.193889,-11325.150913,370.102971,459.657299
2829.194226,-11769.274478,592.164754,1072.533697
2829.194563,-10955.047942,0.000000,995.924147
2829.194900,-9696.697840,74.020594,766.095498
2829.195237,-9030.512492,370.102971,995.924147
2829.195574,-9474.636058,296.082377,-153.219100
2829.195912,-9918.759623,74.020594,-1072.533697
2829.196249,-10955.047942,-1036.288319,-1608.800546
2829.196586,-10214.842000,-1628.453072,-1991.848295
2829.196923,-10436.903782,-1628.453072,-1455.581446
2829.197260,-9696.697840,-1036.288319,-459.657299
2829.197597,-9030.512492,-1110.308913,-1149.143247
2829.197935,-9548.656652,-962.267725,-459.657299
2829.198272,-10732.986159,-1480.411884,-612.876398
2829.198609,-11251.130318,-1776.494261,-689.485948
2829.198946,-10955.047942,-2368.659014,0.000000
2829.199283,-9770.718434,-2664.741391,536.266849
2829.199620,-9030.512492,-1480.411884,1608.800546
2829.199958,-9178.553681,-592.164754,1762.019645
2829.200295,-10140.821405,74.020594,1915.238745
2829.200632,-10140.821405,444.123565,842.705048
2829.200969,-11399.171507,222.061783,689.485948
2829.201306,-10807.006753,-222.061783,1378.971896
2829.201643,-9844.739029,-148.041188,919.314598
2829.201981,-9474.636058,518.144159,2298.286494
2829.202318,-9252.574275,1110.308913,2145.067394
2829.202655,-9400.615463,1998.556043,919.314598
2829.202992,-10214.842000,1480.411884,153.219100
2829.203329,-10436.903782,1184.329507,0.000000
2829.203666,-10584.944971,0.000000,153.219100
2829.204004,-9770.718434,0.000000,536.266849
2829.204341,-9326.594869,814.226536,919.314598
2829.204678,-9326.594869,666.185348,306.438199
2829.205015,-9696.697840,0.000000,0.000000
2829.205352,-9844.739029,148.041188,-766.095498
2829.205689,-10584.944971,-592.164754,-689.485948
2829.206027,-10436.903782,-1480.411884,-383.047749
2829.206364,-9770.718434,-1776.494261,-229.828649
2829.206701,-8882.471304,-1332.370696,306.438199
2829.207038,-8808.450710,-370.102971,1225.752797
2829.207375,-9918.759623,74.020594,919.314598
2829.207712,-10732.986159,0.000000,383.047749
2829.208050,-11621.233289,-888.247130,306.438199
2829.208387,-10807.006753,-592.164754,306.438199
2829.208724,-10362.883188,-518.144159,1608.800546
2829.209061,-9696.697840,-296.082377,1302.362347
2829.209398,-9474.636058,74.020594,1072.533697
2829.209735,-10584.944971,1036.288319,229.828649
2829.210073,-10658.965565,444.123565,-995.924147
2829.210410,-10732.986159,-814.226536,-2298.286494
2829.210747,-10807.006753,-1480.411884,-1378.971896
2829.211084,-9770.718434,-1850.514855,-1302.362347
2829.211421,-9104.533087,-888.247130,-995.924147
2829.211758,-8438.347739,-592.164754,-1149.143247
2829.212096,-9400.615463,-666.185348,0.000000
2829.212433,-10362.883188,-518.144159,-689.485948
2829.212770,-10881.027347,-1110.308913,-459.657299
2829.213107,-11769.274478,-518.144159,383.047749
2829.213444,-10140.821405,-1258.350101,995.924147
2829.213781,-9474.636058,-666.185348,1838.629195
2829.214119,-9548.656652,-222.061783,1991.848295
2829.214456,-9548.656652,444.123565,2145.067394
2829.214793,-10436.903782,296.082377,1072.533697
2829.215130,-10584.944971,222.061783,0.000000
2829.215467,-9696.697840,222.061783,153.219100
2829.215804,-10066.800811,444.123565,1072.533697
2829.216142,-8882.471304,518.144159,459.657299
2829.216479,-8660.409521,1850.514855,766.095498
2829.216816,-9696.697840,2072.576638,536.266849
2829.217153,-10288.862594,1628.453072,-536.266849
2829.217490,-11103.089130,444.123565,-383.047749
2829.217827,-10436.903782,-888.247130,0.000000
2829.218165,-9400.615463,-1406.391290,76.609550
2829.218502,-8882.471304,-814.226536,0.000000
2829.218839,-8734.430116,-962.267725,0.000000
2829.219176,-9400.615463,-1036.288319,-153.219100
2829.219513,-10436.903782,-962.267725,-919.314598
2829.219850,-11103.089130,-1702.473667,-919.314598
2829.220188,-11251.130318,-1480.411884,-842.705048
2829.220525,-10955.047942,-2664.741391,-383.047749
2829.220862,-9474.636058,-1776.494261,689.485948
2829.221199,-8660.409521,-1184.329507,1532.190996
2829.221536,-9622.677246,-666.185348,1915.238745
2829.221873,-11325.150913,-814.226536,1378.971896
2829.222211,-11695.253884,-888.247130,919.314598
2829.222548,-11473.192101,-370.102971,919.314598
2829.222885,-10658.965565,-1036.288319,1915.238745
2829.223222,-9770.718434,0.000000,1915.238745
2829.223559,-9104.533087,0.000000,1762.019645
2829.223896,-9844.739029,740.205942,1149.143247
2829.224234,-9770.718434,370.102971,-842.705048
2829.224571,-10214.842000,-370.102971,-1838.629195
2829.224908,-10436.903782,-1110.308913,-1225.752797
2829.225245,-9030.512492,-592.164754,-995.924147
2829.225582,-8586.388927,148.041188,-612.876398
2829.225919,-8956.491898,296.082377,-612.876398
2829.226257,-9474.636058,296.082377,-459.657299
2829.226594,-10362.883188,0.000000,-689.485948
2829.226931,-10807.006753,-222.061783,-383.047749
2829.227268,-10510.924376,-962.267725,459.657299
2829.227605,-9844.739029,-814.226536,1302.362347
2829.227942,-9030.512492,-518.144159,1685.410096
2829.228280,-9178.553681,666.185348,2298.286494
2829.228617,-10288.862594,1480.411884,1762.019645
2829.228954,-11029.068536,1406.391290,0.000000
2829.229291,-11843.295072,962.267725,76.609550
2829.229628,-11251.130318,814.226536,-306.438199
2829.229965,-9918.759623,0.000000,-306.438199
2829.230303,-9400.615463,-148.041188,229.828649
2829.230640,-7994.224174,814.226536,383.047749
2829.230977,-9252.574275,740.205942,306.438199
2829.231314,-10288.862594,74.020594,-612.876398
2829.231651,-10732.986159,0.000000,-766.095498
2829.231988,-11399.171507,-888.247130,-306.438199
2829.232326,-10436.903782,-666.185348,0.000000
2829.232663,-9474.636058,-888.247130,76.609550
2829.233000,-9400.615463,-1406.391290,-153.219100
2829.233337,-9178.553681,-962.267725,-459.657299
2829.233674,-10214.842000,-2146.597232,-1149.143247
2829.234012,-10510.924376,-2368.659014,-1455.581446
2829.234349,-10066.800811,-2368.659014,-1149.143247
2829.234686,-10881.027347,-2368.659014,689.485948
2829.235023,-8882.471304,-1480.411884,766.095498
2829.235360,-8956.491898,-814.226536,1991.848295
2829.235697,-10658.965565,518.144159,2451.505594
2829.236035,-10732.986159,222.061783,1072.533697
2829.236372,-11991.336260,0.000000,1532.190996
2829.236709,-11177.109724,-296.082377,1762.019645
2829.237046,-9696.697840,0.000000,2834.553343
2829.237383,-9770.718434,592.164754,2604.724693
2829.237720,-9400.615463,444.123565,1225.752797
2829.238058,-9474.636058,1998.556043,306.438199
2829.238395,-10510.924376,1332.370696,-229.828649
2829.238732,-10658.965565,518.144159,-1225.752797
2829.239069,-10436.903782,-592.164754,-1302.362347
2829.239406,-9548.656652,-888.247130,-766.095498
2829.239743,-8438.347739,444.123565,0.000000
2829.240081,-8142.265362,-370.102971,0.000000
2829.240418,-9252.574275,0.000000,76.609550
2829.240755,-9918.759623,-1036.288319,0.000000
2829.241092,-11103.089130,-518.144159,0.000000
2829.241429,-10955.047942,-1036.288319,153.219100
2829.241766,-10288.862594,-1776.494261,919.314598
2829.242104,-9400.615463,-1406.391290,1685.410096
2829.242441,-9104.533087,-962.267725,1072.533697
2829.242778,-9622.677246,-370.102971,1302.362347
2829.243115,-10658.965565,148.041188,-459.657299
2829.243452,-11103.089130,-1628.453072,306.438199
2829.243789,-11103.089130,-370.102971,153.219100
2829.244127,-10288.862594,-518.144159,612.876398
2829.244464,-10362.883188,444.123565,1072.533697
2829.244801,-9474.636058,1110.308913,153.219100
2829.245138,-10140.821405,888.247130,-383.047749
2829.245475,-10732.986159,222.061783,-459.657299
2829.245812,-10955.047942,-592.164754,-1225.752797
2829.246150,-10658.965565,-1110.308913,-689.485948
2829.246487,-10066.800811,-1480.411884,-383.047749
2829.246824,-8808.450710,-518.144159,-536.266849
2829.247161,-8956.491898,-1110.308913,-459.657299
2829.247498,-9474.636058,-518.144159,-383.047749
2829.247835,-9770.718434,-1036.288319,-995.924147
2829.248173,-10955.047942,-444.123565,-383.047749
2829.248510,-10807.006753,-1258.350101,76.609550
2829.248847,-9474.636058,-1850.514855,0.000000
2829.249184,-9104.533087,-740.205942,1762.019645
2829.249521,-8660.409521,-444.123565,1455.581446
2829.249859,-9252.574275,1036.288319,1762.019645
2829.250196,-10436.903782,740.205942,995.924147
2829.250533,-10881.027347,666.185348,306.438199
2829.250870,-10214.842000,740.205942,995.924147
2829.251208,-9992.780217,1036.288319,2068.457845
2829.251545,-9178.553681,1184.329507,1378.971896
2829.251882,-9326.594869,1702.473667,1302.362347
2829.252219,-9918.759623,2220.617826,919.314598
2829.252557,-10436.903782,1480.411884,-766.095498
2829.252894,-10584.944971,0.000000,-1225.752797
2829.253231,-10140.821405,-666.185348,-995.924147
2829.253568,-10140.821405,-1480.411884,0.000000
2829.253906,-8734.430116,-222.061783,0.000000
2829.254243,-8882.471304,74.020594,-383.047749
2829.254580,-10214.842000,-962.267725,0.000000
2829.254917,-10584.944971,-1480.411884,-1378.971896
2829.255255,-11547.212695,-1776.494261,0.000000
2829.255592,-10881.027347,-1850.514855,229.828649
2829.255929,-9696.697840,-2442.679609,842.705048
2829.256266,-9474.636058,-1924.535449,1762.019645
2829.256604,-9326.594869,-1332.370696,1608.800546
2829.256941,-10362.883188,-222.061783,1838.629195
2829.257278,-11399.171507,-888.247130,536.266849
2829.257615,-10955.047942,-1184.329507,-229.828649
2829.257953,-10510.924376,-1258.350101,0.000000
2829.258290,-10658.965565,-814.226536,919.314598
2829.258627,-8808.450710,0.000000,536.266849
2829.258964,-8586.388927,-222.061783,229.828649
2829.259302,-9696.697840,814.226536,919.314598
2829.259639,-10214.842000,518.144159,-766.095498
2829.259976,-11251.130318,518.144159,-459.657299
2829.260313,-10881.027347,-962.267725,-306.438199
2829.260651,-9770.718434,0.000000,-76.609550
2829.260988,-9474.636058,296.082377,0.000000
2829.261325,-9548.656652,0.000000,0.000000
2829.261662,-9474.636058,0.000000,-459.657299
2829.262000,-10066.800811,-518.144159,-612.876398
2829.262337,-10807.006753,-518.144159,-766.095498
2829.262674,-10214.842000,-1480.411884,-459.657299
2829.263011,-10214.842000,-962.267725,0.000000
2829.263349,-8882.471304,296.082377,1072.533697
2829.263686,-9400.615463,888.247130,1302.362347
2829.264023,-10140.821405,1480.411884,1762.019645
2829.264360,-11251.130318,1110.308913,536.266849
2829.264698,-11473.192101,444.123565,689.485948
2829.265035,-10807.006753,74.020594,1225.752797
2829.265372,-9474.636058,0.000000,1838.629195
2829.265709,-9178.553681,74.020594,1838.629195
2829.266046,-8956.491898,74.020594,842.705048
2829.266384,-9992.780217,814.226536,0.000000
2829.266721,-10140.821405,444.123565,-536.266849
2829.267058,-11177.109724,-814.226536,-689.485948
2829.267395,-10658.965565,-1258.350101,-995.924147
2829.267733,-9696.697840,-1702.473667,-1149.143247
2829.268070,-9030.512492,-888.247130,229.828649
2829.268407,-9030.512492,-1110.308913,-842.705048
2829.268744,-9548.656652,-1332.370696,0.000000
2829.269082,-10658.965565,-1850.514855,-229.828649
2829.269419,-11029.068536,-2146.597232,0.000000
2829.269756,-11029.068536,-1628.453072,612.876398
2829.270093,-10288.862594,-2220.617826,1072.533697
2829.270431,-9770.718434,-1184.329507,1455.581446
2829.270768,-9770.718434,-666.185348,2221.676944
2829.271105,-10584.944971,148.041188,2221.676944
2829.271442,-10807.006753,74.020594,689.485948
2829.271780,-11177.109724,-222.061783,306.438199
2829.272117,-10436.903782,-222.061783,689.485948
2829.272454,-9548.656652,148.041188,1225.752797
2829.272791,-9400.615463,1332.370696,1225.752797
2829.273129,-9400.615463,1702.473667,766.095498
2829.273466,-9548.656652,2220.617826,0.000000
2829.273803,-10510.924376,1258.350101,-919.314598
2829.274140,-10807.006753,666.185348,-383.047749
2829.274478,-9770.718434,-222.061783,0.000000
2829.274815,-9178.553681,-370.102971,0.000000
2829.275152,-8808.450710,444.123565,306.438199
2829.275489,-9030.512492,444.123565,-153.219100
2829.275827,-9770.718434,666.185348,-76.609550
2829.276164,-10510.924376,0.000000,-1532.190996
2829.276501,-11029.068536,0.000000,-1225.752797
2829.276838,-10732.986159,-888.247130,-919.314598
2829.277176,-10066.800811,-1480.411884,-306.438199
2829.277513,-8660.409521,-962.267725,536.266849
2829.277850,-8882.471304,-518.144159,1072.533697
2829.278187,-9770.718434,222.061783,919.314598
2829.278525,-10881.027347,222.061783,689.485948
2829.278862,-11695.253884,-666.185348,536.266849
2829.279199,-11103.089130,-296.082377,1149.143247
2829.279536,-10510.924376,0.000000,1455.581446
2829.279874,-10140.821405,1184.329507,2068.457845
2829.280211,-10214.842000,-148.041188,842.705048
2829.280548,-10066.800811,444.123565,0.000000
2829.280885,-10214.842000,-444.123565,-919.314598
2829.281223,-10510.924376,-1036.288319,-1302.362347
2829.281560,-9622.677246,-2072.576638,-1532.190996
2829.281897,-9844.739029,-1776.494261,-306.438199
2829.282234,-8808.450710,-1110.308913,0.000000
2829.282572,-8586.388927,-740.205942,-612.876398
2829.282909,-10140.821405,-888.247130,229.828649
2829.283246,-10584.944971,-1110.308913,-229.828649
2829.283583,-11103.089130,-1554.432478,383.047749
2829.283921,-10436.903782,-1480.411884,1838.629195
2829.284258,-9548.656652,-1184.329507,2528.115143
2829.284595,-9770.718434,-592.164754,2834.553343
2829.284932,-9696.697840,-296.082377,2221.676944
2829.285270,-9992.780217,1036.288319,1302.362347
2829.285607,-11177.109724,814.226536,689.485948
2829.285944,-10955.047942,444.123565,0.000000
2829.286281,-10140.821405,592.164754,-383.047749
2829.286619,-9622.677246,592.164754,536.266849
2829.286956,-9104.533087,1702.473667,383.047749
2829.287293,-8586.388927,1480.411884,0.000000
2829.287630,-9548.656652,1480.411884,0.000000
2829.287968,-10140.821405,1036.288319,-612.876398
2829.288305,-10732.986159,296.082377,-612.876398
2829.288642,-10362.883188,0.000000,-153.219100
2829.288979,-9696.697840,-888.247130,-383.047749
2829.289317,-9178.553681,0.000000,0.000000
2829.289654,-8660.409521,-370.102971,-919.314598
2829.289991,-9104.533087,-1258.350101,-1149.143247
2829.290328,-9992.780217,-2220.617826,-1532.190996
2829.290666,-10436.903782,-1776.494261,-536.266849
2829.291003,-10214.842000,-1998.556043,-153.219100
2829.291340,-9844.739029,-1924.535449,0.000000
2829.291677,-9400.615463,-888.247130,766.095498
2829.292015,-9844.739029,-296.082377,1532.190996
2829.292352,-10658.965565,444.123565,995.924147
2829.292689,-11547.212695,-518.144159,536.266849
2829.293026,-11991.336260,-592.164754,766.095498
2829.293364,-10436.903782,-296.082377,1608.800546
2829.293701,-10362.883188,-148.041188,2451.505594
2829.294038,-9474.636058,444.123565,2145.067394
2829.294375,-9696.697840,740.205942,1225.752797
2829.294713,-10881.027347,1258.350101,612.876398
2829.295050,-10510.924376,1036.288319,-1072.533697
2829.295387,-11029.068536,74.020594,-383.047749
2829.295724,-11103.089130,-518.144159,-612.876398
2829.296062,-9252.574275,-962.267725,-536.266849
2829.296399,-8882.471304,518.144159,229.828649
2829.296736,-8734.430116,-148.041188,-536.266849
2829.297073,-9104.533087,0.000000,-306.438199
2829.297411,-10066.800811,-740.205942,76.609550
2829.297748,-10658.965565,-962.267725,612.876398
2829.298085,-10140.821405,-740.205942,1149.143247
2829.298422,-9844.739029,-444.123565,1225.752797
2829.298760,-9326.594869,222.061783,2068.457845
2829.299097,-9622.677246,444.123565,1915.238745
2829.299434,-10288.862594,1332.370696,1915.238745
2829.299771,-10807.006753,888.247130,229.828649
2829.300109,-11251.130318,74.020594,229.828649
2829.300446,-10658.965565,0.000000,153.219100
2829.300783,-9622.677246,148.041188,459.657299
2829.301120,-8808.450710,1480.411884,919.314598
2829.301458,-9400.615463,666.185348,306.438199
2829.301795,-10510.924376,1184.329507,-383.047749
2829.302132,-10807.006753,296.082377,-1302.362347
2829.302469,-11621.233289,0.000000,-153.219100
2829.302807,-10658.965565,-1628.453072,306.438199
2829.303144,-9474.636058,-962.267725,0.000000
2829.303481,-9030.512492,-1184.329507,536.266849
2829.303818,-9770.718434,-444.123565,0.000000
2829.304156,-9770.718434,-1554.432478,-919.314598
2829.304493,-10807.006753,-1702.473667,-919.314598
2829.304830,-11177.109724,-1924.535449,-1532.190996
2829.305167,-10436.903782,-1850.514855,-1685.410096
2829.305505,-9770.718434,-2664.741391,0.000000
2829.305842,-8586.388927,-1406.391290,383.047749
2829.306179,-8438.347739,-1258.350101,1302.362347
2829.306516,-9992.780217,296.082377,1838.629195
2829.306854,-10955.047942,296.082377,1225.752797
2829.307191,-11621.233289,-296.082377,1455.581446
2829.307528,-11029.068536,148.041188,1608.800546
2829.307865,-9918.759623,962.267725,1838.629195
2829.308203,-9696.697840,1480.411884,1685.410096
2829.308540,-9844.739029,1110.308913,766.095498
2829.308877,-9474.636058,1332.370696,-459.657299
2829.309214,-9770.718434,1036.288319,-1072.533697
2829.309552,-10214.842000,0.000000,-995.924147
2829.309889,-9992.780217,-370.102971,-612.876398
2829.310226,-9622.677246,-666.185348,-153.219100
2829.310563,-8586.388927,1332.370696,306.438199
2829.310901,-9030.512492,444.123565,0.000000
2829.311238,-10288.862594,1184.329507,1378.971896
2829.311575,-10732.986159,-888.247130,-229.828649
2829.311912,-11399.171507,-814.226536,689.485948
2829.312250,-10288.862594,-1184.329507,995.924147
2829.312587,-9844.739029,-1480.411884,1532.190996
2829.312924,-9326.594869,-1776.494261,2068.457845
2829.313261,-8882.471304,-666.185348,1608.800546
2829.313599,-10288.862594,-296.082377,1378.971896
2829.313936,-10732.986159,0.000000,-383.047749
2829.314273,-11473.192101,-666.185348,-459.657299
2829.314610,-10955.047942,-1036.288319,76.609550
2829.314948,-9844.739029,-962.267725,0.000000
2829.315285,-9104.533087,-74.020594,689.485948
2829.315622,-9400.615463,-148.041188,306.438199
2829.315959,-9474.636058,-370.102971,229.828649
2829.316297,-10658.965565,-518.144159,-919.314598
2829.316634,-10807.006753,-962.267725,-1378.971896
2829.316971,-10436.903782,-888.247130,-612.876398
2829.317308,-10510.924376,-1332.370696,-306.438199
2829.317646,-9104.533087,-592.164754,-919.314598
2829.317983,-9474.636058,-518.144159,0.000000
2829.318320,-9992.780217,-592.164754,-383.047749
2829.318657,-10214.842000,-1332.370696,-1072.533697
2829.318995,-10658.965565,-1554.432478,-766.095498
2829.319332,-9770.718434,-1924.535449,153.219100
2829.319669,-9252.574275,-1110.308913,766.095498
2829.320006,-9474.636058,222.061783,1838.629195
2829.320344,-9474.636058,592.164754,1455.581446
2829.320681,-10658.965565,1554.432478,1532.190996
2829.321018,-11325.150913,1406.391290,689.485948
2829.321355,-11251.130318,444.123565,842.705048
2829.321693,-9770.718434,592.164754,1455.581446
2829.322030,-9326.594869,1332.370696,2145.067394
2829.322367,-9178.553681,1184.329507,1838.629195
2829.322704,-9400.615463,1406.391290,1302.362347
2829.323042,-9992.780217,2368.659014,153.219100
2829.323379,-10955.047942,1332.370696,-1225.752797
2829.323716,-10955.047942,740.205942,-1532.190996
2829.324053,-10881.027347,-370.102971,-1378.971896
2829.324391,-9548.656652,-962.267725,-1532.190996
2829.324728,-8068.244768,-740.205942,-842.705048
2829.325065,-8586.388927,-740.205942,-842.705048
2829.325402,-9622.677246,-1110.308913,-306.438199
2829.325740,-10510.924376,-1332.370696,-919.314598
2829.326077,-11547.212695,-1776.494261,153.219100
2829.326414,-10732.986159,-1184.329507,766.095498
2829.326751,-10732.986159,-1480.411884,1225.752797
2829.327089,-10362.883188,-962.267725,1762.019645
2829.327426,-9770.718434,-1258.350101,1225.752797
2829.327763,-10214.842000,-740.205942,1378.971896
2829.328100,-10732.986159,-1110.308913,383.047749
2829.328438,-10881.027347,-1554.432478,0.000000
2829.328775,-10066.800811,-1332.370696,229.828649
2829.329112,-9844.739029,-740.205942,1608.800546
2829.329449,-9178.553681,1036.288319,1149.143247
2829.329787,-9770.718434,1184.329507,536.266849
2829.330124,-10955.047942,1480.411884,306.438199
2829.330461,-10584.944971,740.205942,-919.314598
2829.330798,-11029.068536,74.020594,0.000000
2829.331136,-10214.842000,-444.123565,1072.533697
2829.331473,-8956.491898,-888.247130,383.047749
2829.331810,-8956.491898,74.020594,689.485948
2829.332147,-9474.636058,0.000000,383.047749
2829.332485,-9918.759623,296.082377,-306.438199
2829.332822,-10436.903782,-296.082377,-459.657299
2829.333159,-10955.047942,0.000000,-842.705048
2829.333496,-10362.883188,-1110.308913,-153.219100
2829.333834,-9474.636058,-444.123565,153.219100
2829.334171,-8586.388927,-296.082377,919.314598
2829.334508,-8364.327145,222.061783,1149.143247
2829.334845,-9474.636058,592.164754,1915.238745
2829.335183,-10584.944971,740.205942,306.438199
2829.335520,-11325.150913,444.123565,842.705048
2829.335857,-11103.089130,296.082377,842.705048
2829.336194,-9992.780217,296.082377,842.705048
2829.336532,-9770.718434,592.164754,995.924147
2829.336869,-9844.739029,444.123565,383.047749
2829.337206,-9992.780217,-222.061783,-1072.533697
2829.337543,-9918.759623,-518.144159,-2145.067394
2829.337881,-9992.780217,-1628.453072,-1608.800546
2829.338218,-10066.800811,-2146.597232,-1302.362347
2829.338555,-9474.636058,-1554.432478,-766.095498
2829.338892,-9474.636058,-296.082377,-383.047749
2829.339230,-9770.718434,-74.020594,-842.705048
2829.339567,-11177.109724,-296.082377,-612.876398
2829.339904,-11325.150913,-1406.391290,-766.095498
2829.340241,-11325.150913,-2960.823768,76.609550
2829.340579,-10066.800811,-2072.576638,842.705048
2829.340916,-9548.656652,-2220.617826,1685.410096
2829.341253,-9474.636058,-1258.350101,2145.067394
2829.341590,-9474.636058,-740.205942,1762.019645
2829.341928,-10658.965565,370.102971,2221.676944
2829.342265,-11325.150913,444.123565,995.924147
2829.342602,-11325.150913,0.000000,76.609550
2829.342939,-10732.986159,-444.123565,919.314598
2829.343277,-9474.636058,592.164754,1302.362347
2829.343614,-8660.409521,1184.329507,1532.190996
2829.343951,-8956.491898,888.247130,1225.752797
2829.344288,-8882.471304,1628.453072,229.828649
2829.344625,-10214.842000,814.226536,0.000000
2829.344963,-10436.903782,592.164754,0.000000
2829.345300,-9622.677246,0.000000,0.000000
2829.345637,-9696.697840,148.041188,459.657299
2829.345974,-8956.491898,592.164754,-153.219100
2829.346312,-9474.636058,888.247130,-459.657299
2829.346649,-10362.883188,74.020594,-306.438199
2829.346986,-10288.862594,-666.185348,-1302.362347
2829.347323,-10362.883188,-1554.432478,-1072.533697
2829.347661,-9844.739029,-1702.473667,229.828649
2829.347998,-9548.656652,-1332.370696,459.657299
2829.348335,-9326.594869,-592.164754,1302.362347
2829.348672,-9622.677246,0.000000,1302.362347
2829.349010,-10807.006753,444.123565,842.705048
2829.349347,-11843.295072,0.000000,459.657299
2829.349684,-11547.212695,-962.267725,1072.533697
2829.350021,-10066.800811,-888.247130,995.924147
2829.350359,-9696.697840,-962.267725,2068.457845
2829.350696,-9474.636058,518.144159,1532.190996
2829.351033,-9474.636058,74.020594,0.000000
2829.351371,-10436.903782,148.041188,-612.876398
2829.351708,-10881.027347,0.000000,-1762.019645
2829.352046,-11325.150913,-740.205942,-2145.067394
2829.352383,-10584.944971,-1258.350101,-2145.067394
2829.352720,-9474.636058,-1850.514855,-1225.752797
2829.353058,-8734.430116,-1110.308913,-995.924147
2829.353395,-8438.347739,-1110.308913,-383.047749
2829.353733,-10066.800811,-518.144159,0.000000
2829.354070,-10881.027347,-1554.432478,0.000000
2829.354407,-10955.047942,-1554.432478,306.438199
2829.354745,-10807.006753,-888.247130,1225.752797
2829.355082,-10214.842000,-592.164754,1762.019645
2829.355419,-9696.697840,0.000000,1991.848295
2829.355757,-10140.821405,0.000000,1532.190996
2829.356094,-10066.800811,814.226536,689.485948
2829.356432,-10362.883188,518.144159,306.438199
2829.356769,-10288.862594,0.000000,306.438199
2829.357106,-9474.636058,222.061783,1149.143247
2829.357444,-9400.615463,1110.308913,1838.629195
2829.357781,-9104.533087,2368.659014,1149.143247
2829.358118,-9326.594869,2590.720797,1072.533697
2829.358456,-11103.089130,2220.617826,766.095498
2829.358793,-11251.130318,1332.370696,-383.047749
2829.359131,-10955.047942,222.061783,-229.828649
2829.359468,-10066.800811,-740.205942,229.828649
2829.359805,-9030.512492,-1332.370696,153.219100
2829.360143,-8512.368333,-592.164754,612.876398
2829.360480,-9178.553681,-444.123565,-459.657299
2829.360818,-9770.718434,-666.185348,-842.705048
2829.361155,-10807.006753,-1258.350101,-1608.800546
2829.361492,-11251.130318,-1480.411884,-1149.143247
2829.361830,-10807.006753,-1776.494261,-459.657299
2829.362167,-9696.697840,-1628.453072,0.000000
2829.362504,-9030.512492,-1184.329507,1149.143247
2829.362842,-9474.636058,-1850.514855,1455.581446
2829.363179,-9918.759623,-296.082377,1149.143247
2829.363517,-11399.171507,-740.205942,1149.143247
2829.363854,-11769.274478,-1332.370696,1225.752797
2829.364191,-10510.924376,-592.164754,689.485948
2829.364529,-10436.903782,-592.164754,1685.410096
2829.364866,-9474.636058,518.144159,383.047749
2829.365203,-9696.697840,74.020594,-306.438199
2829.365541,-10436.903782,222.061783,-766.095498
2829.365878,-9548.656652,-444.123565,-1762.019645
2829.366216,-10214.842000,-888.247130,-1378.971896
2829.366553,-9992.780217,-1036.288319,-383.047749
2829.366890,-8956.491898,-296.082377,-459.657299
2829.367228,-9030.512492,666.185348,0.000000
2829.367565,-9770.718434,370.102971,0.000000
2829.367903,-10362.883188,74.020594,-383.047749
2829.368240,-11325.150913,-592.164754,0.000000
2829.368577,-10732.986159,-888.247130,689.485948
2829.368915,-9474.636058,-666.185348,1302.362347
2829.369252,-9400.615463,-592.164754,1991.848295
2829.369589,-9030.512492,0.000000,2221.676944
2829.369927,-9474.636058,740.205942,2451.505594
2829.370264,-10436.903782,1924.535449,1455.581446
2829.370602,-11251.130318,1480.411884,76.609550
2829.370939,-11695.253884,814.226536,0.000000
2829.371276,-10510.924376,222.061783,229.828649
2829.371614,-9474.636058,518.144159,459.657299
2829.371951,-8882.471304,1184.329507,766.095498
2829.372288,-9030.512492,518.144159,0.000000
2829.372626,-9844.739029,222.061783,689.485948
2829.372963,-10140.821405,-370.102971,-153.219100
2829.373301,-10658.965565,-370.102971,0.000000
2829.373638,-10807.006753,-296.082377,0.000000
2829.373975,-9770.718434,-1184.329507,-612.876398
2829.374313,-9622.677246,-518.144159,0.000000
2829.374650,-9622.677246,-1110.308913,-612.876398
2829.374988,-10140.821405,-1776.494261,-1072.533697
2829.375325,-10214.842000,-2368.659014,-1149.143247
2829.375662,-9844.739029,-2886.803174,-1455.581446
2829.376000,-9252.574275,-2516.700203,-842.705048
2829.376337,-9548.656652,-1776.494261,1149.143247
2829.376674,-9326.594869,-444.123565,1532.190996
2829.377012,-10214.842000,-222.061783,1685.410096
2829.377349,-11621.233289,518.144159,1685.410096
2829.377687,-11769.274478,0.000000,1225.752797
2829.378024,-11843.295072,-370.102971,1991.848295
2829.378361,-10140.821405,-592.164754,2374.896044
2829.378699,-9178.553681,0.000000,2757.943793
2829.379036,-9178.553681,1258.350101,2374.896044
2829.379373,-9696.697840,592.164754,612.876398
2829.379711,-10066.800811,1628.453072,-1149.143247
2829.380048,-10436.903782,740.205942,-1685.410096
2829.380386,-10807.006753,222.061783,-1378.971896
2829.380723,-9696.697840,-370.102971,-1149.143247
2829.381060,-8808.450710,-592.164754,-1225.752797
2829.381398,-8142.265362,0.000000,-919.314598
2829.381735,-8216.285956,-296.082377,-383.047749
2829.382072,-9622.677246,-222.061783,229.828649
2829.382410,-10807.006753,-1036.288319,0.000000
2829.382747,-11029.068536,-1036.288319,0.000000
2829.383085,-10807.006753,-444.123565,536.266849
2829.383422,-10140.821405,-888.247130,1378.971896
2829.383759,-9844.739029,-444.123565,1072.533697
2829.384097,-9770.718434,-962.267725,689.485948
2829.384434,-10436.903782,-444.123565,306.438199
2829.384772,-10658.965565,-444.123565,-612.876398
2829.385109,-10288.862594,-1850.514855,-153.219100
2829.385446,-10362.883188,-1036.288319,919.314598
2829.385784,-9548.656652,-296.082377,1762.019645
2829.386121,-9326.594869,1036.288319,1455.581446
2829.386458,-10584.944971,1258.350101,612.876398
2829.386796,-11251.130318,592.164754,0.000000
2829.387133,-11547.212695,-518.144159,-383.047749
2829.387471,-10658.965565,-1184.329507,0.000000
2829.387808,-9622.677246,-1406.391290,0.000000
2829.388145,-9474.636058,-1776.494261,842.705048
2829.388483,-8586.388927,-666.185348,-383.047749
2829.388820,-9400.615463,-666.185348,-383.047749
2829.389157,-10510.924376,-518.144159,-459.657299
2829.389495,-11029.068536,-1110.308913,-1302.362347
2829.389832,-11325.150913,-962.267725,-842.705048
2829.390170,-10436.903782,-1036.288319,153.219100
2829.390507,-9400.615463,-518.144159,229.828649
2829.390844,-8512.368333,-148.041188,1532.190996
2829.391182,-9474.636058,0.000000,2451.505594
2829.391519,-9918.759623,814.226536,1608.800546
2829.391857,-11177.109724,1184.329507,1532.190996
2829.392194,-11547.212695,592.164754,1838.629195
2829.392531,-10288.862594,962.267725,1225.752797
2829.392869,-9326.594869,1184.329507,1378.971896
2829.393206,-9474.636058,2368.659014,995.924147
2829.393543,-9696.697840,1628.453072,0.000000
2829.393881,-9844.739029,1406.391290,-1225.752797
2829.394218,-10066.800811,444.123565,-2145.067394
2829.394556,-9918.759623,-444.123565,-1608.800546
2829.394893,-9474.636058,-740.205942,-919.314598
2829.395230,-8660.409521,-592.164754,-689.485948
2829.395568,-8660.409521,222.061783,0.000000
2829.395905,-9696.697840,296.082377,76.609550
2829.396242,-10955.047942,-814.226536,-689.485948
2829.396580,-11251.130318,-1554.432478,-536.266849
2829.396917,-11029.068536,-1998.556043,536.266849
2829.397255,-9844.739029,-1924.535449,689.485948
2829.397592,-9548.656652,-1998.556043,1762.019645
2829.397929,-9548.656652,-1480.411884,1991.848295
2829.398267,-9992.780217,-1554.432478,919.314598
2829.398604,-10658.965565,0.000000,1072.533697
2829.398942,-11843.295072,-592.164754,0.000000
2829.399279,-11695.253884,-1110.308913,0.000000
2829.399616,-10732.986159,-1036.288319,153.219100
2829.399954,-9548.656652,-962.267725,995.924147
2829.400291,-8512.368333,518.144159,612.876398
2829.400628,-9474.636058,0.000000,689.485948
2829.400966,-10066.800811,296.082377,306.438199
2829.401303,-10807.006753,0.000000,-76.609550
2829.401641,-10955.047942,222.061783,0.000000
2829.401978,-10436.903782,0.000000,229.828649
2829.402315,-9992.780217,-74.020594,-612.876398
2829.402653,-9252.574275,296.082377,-919.314598
2829.402990,-9474.636058,-370.102971,-536.266849
2829.403327,-9474.636058,-370.102971,-1378.971896
2829.403665,-9844.739029,-1110.308913,-1225.752797
2829.404002,-9548.656652,-1924.535449,0.000000
2829.404340,-9030.512492,-1332.370696,229.828649
2829.404677,-8808.450710,0.000000,1532.190996
2829.405014,-9474.636058,1184.329507,1991.848295
2829.405352,-10066.800811,1258.350101,1838.629195
2829.405689,-11177.109724,1776.494261,1685.410096
2829.406027,-11547.212695,1110.308913,1455.581446
2829.406364,-10881.027347,592.164754,1378.971896
2829.406701,-10066.800811,74.020594,1762.019645
2829.407039,-9326.594869,148.041188,1378.971896
2829.407376,-8956.491898,1036.288319,1072.533697
2829.407713,-9770.718434,814.226536,76.609550
2829.408051,-10214.842000,666.185348,-842.705048
2829.408388,-10584.944971,0.000000,-1991.848295
2829.408726,-11103.089130,-666.185348,-1225.752797
2829.409063,-10288.862594,-1110.308913,-1762.019645
2829.409400,-9326.594869,-1554.432478,-689.485948
2829.409738,-9178.553681,-666.185348,-383.047749
2829.410075,-9178.553681,-1258.350101,-689.485948
2829.410412,-10436.903782,-1628.453072,-995.924147
2829.410750,-10658.965565,-2220.617826,-612.876398
2829.411087,-11029.068536,-2368.659014,0.000000
2829.411425,-10362.883188,-1850.514855,76.609550
2829.411762,-9844.739029,-1554.432478,536.266849
2829.412099,-9918.759623,-1184.329507,1149.143247
2829.412437,-10214.842000,-592.164754,842.705048
2829.412774,-9918.759623,-370.102971,536.266849
2829.413112,-10510.924376,-222.061783,0.000000
2829.413449,-10214.842000,-1110.308913,919.314598
2829.413786,-10140.821405,0.000000,2068.457845
2829.414124,-9474.636058,888.247130,1915.238745
2829.414461,-9474.636058,2442.679609,1915.238745
2829.414798,-10732.986159,2368.659014,1225.752797
2829.415136,-10955.047942,2146.597232,-919.314598
2829.415473,-10807.006753,740.205942,-306.438199
2829.415811,-10140.821405,0.000000,612.876398
2829.416148,-8956.491898,-148.041188,536.266849
2829.416485,-9178.553681,148.041188,536.266849
2829.416823,-9104.533087,814.226536,76.609550
2829.417160,-9178.553681,370.102971,-842.705048
2829.417497,-10436.903782,1036.288319,-153.219100
2829.417835,-10436.903782,-740.205942,-919.314598
2829.418172,-11103.089130,-518.144159,-919.314598
2829.418510,-10214.842000,-740.205942,-689.485948
2829.418847,-9474.636058,-888.247130,0.000000
2829.419184,-8734.430116,-518.144159,1072.533697
2829.419522,-9326.594869,-814.226536,1149.143247
2829.419859,-10140.821405,0.000000,536.266849
2829.420196,-11029.068536,-740.205942,612.876398
2829.420534,-11325.150913,0.000000,919.314598
2829.420871,-10807.006753,-962.267725,1149.143247
2829.421209,-10066.800811,222.061783,766.095498
2829.421546,-9622.677246,518.144159,229.828649
2829.421883,-10362.883188,148.041188,0.000000
2829.422221,-10362.883188,-592.164754,-1608.800546
2829.422558,-9844.739029,-1332.370696,-1915.238745
2829.422896,-10288.862594,-2516.700203,-1072.533697
2829.423233,-9400.615463,-1036.288319,-1149.143247
2829.423570,-9770.718434,-1480.411884,-306.438199
2829.423908,-8956.491898,0.000000,-459.657299
2829.424245,-9548.656652,-296.082377,-766.095498
2829.424582,-11325.150913,-592.164754,153.219100
2829.424920,-11251.130318,-1702.473667,-459.657299
2829.425257,-10362.883188,-2146.597232,1072.533697
2829.425595,-9548.656652,-1702.473667,1991.848295
2829.425932,-8660.409521,-1036.288319,1915.238745
2829.426269,-9548.656652,0.000000,2604.724693
2829.426607,-10436.903782,222.061783,2298.286494
2829.426944,-10584.944971,1702.473667,919.314598
2829.427281,-11473.192101,814.226536,536.266849
2829.427619,-11103.089130,518.144159,306.438199
2829.427956,-9770.718434,666.185348,842.705048
2829.428294,-9030.512492,666.185348,1378.971896
2829.428631,-8068.244768,1776.494261,1302.362347
2829.428968,-9030.512492,1628.453072,689.485948
2829.429306,-10066.800811,1406.391290,612.876398
2829.429643,-10584.944971,518.144159,-459.657299
2829.429981,-10658.965565,518.144159,76.609550
2829.430318,-10658.965565,0.000000,536.266849
2829.430655,-9696.697840,-222.061783,-612.876398
2829.430993,-9104.533087,-444.123565,-842.705048
2829.431330,-9400.615463,-1110.308913,-995.924147
2829.431667,-9474.636058,-1776.494261,-1991.848295
2829.432005,-9696.697840,-2368.659014,-1762.019645
2829.432342,-10510.924376,-2442.679609,-1149.143247
2829.432680,-9918.759623,-2442.679609,0.000000
2829.433017,-9770.718434,-962.267725,0.000000
2829.433354,-9770.718434,-370.102971,842.705048
2829.433692,-11473.192101,-518.144159,1149.143247
2829.434029,-11399.171507,-518.144159,689.485948
2829.434366,-11621.233289,-888.247130,612.876398
2829.434704,-11177.109724,-1776.494261,1608.800546
2829.435041,-9992.780217,-1332.370696,1378.971896
2829.435379,-9178.553681,-1258.350101,2221.676944
2829.435716,-9474.636058,1036.288319,1378.971896
2829.436053,-9770.718434,592.164754,76.609550
2829.436391,-11177.109724,1628.453072,-842.705048
2829.436728,-10881.027347,370.102971,-1915.238745
2829.437066,-10584.944971,-222.061783,-1455.581446
2829.437403,-10066.800811,-296.082377,-612.876398
2829.437740,-8586.388927,-592.164754,-76.609550
2829.438078,-8438.347739,370.102971,229.828649
2829.438415,-9474.636058,-222.061783,0.000000
2829.438752,-9622.677246,222.061783,0.000000
2829.439090,-11103.089130,-518.144159,383.047749
2829.439427,-10732.986159,-962.267725,1072.533697
2829.439765,-9918.759623,74.020594,1225.752797
2829.440102,-9622.677246,222.061783,1685.410096
2829.440439,-9770.718434,1258.350101,1302.362347
2829.440777,-9326.594869,222.061783,1072.533697
2829.441114,-9992.780217,1184.329507,842.705048
2829.441451,-10066.800811,0.000000,76.609550
2829.441789,-10362.883188,74.020594,383.047749
2829.442126,-9548.656652,0.000000,919.314598
2829.442464,-9178.553681,888.247130,1225.752797
2829.442801,-8956.491898,1184.329507,1378.971896
2829.443138,-10066.800811,1850.514855,0.000000
2829.443476,-11399.171507,222.061783,76.609550
2829.443813,-11177.109724,-296.082377,-919.314598
2829.444151,-10066.800811,-1480.411884,-306.438199
2829.444488,-9696.697840,-1406.391290,612.876398
2829.444825,-9178.553681,-1628.453072,536.266849
2829.445163,-9474.636058,-740.205942,-229.828649
2829.445500,-9992.780217,-962.267725,-995.924147
2829.445837,-10732.986159,-1332.370696,-1225.752797
2829.446175,-11547.212695,-1850.514855,-1378.971896
2829.446512,-11103.089130,-2664.741391,-842.705048
2829.446850,-9770.718434,-2442.679609,0.000000
2829.447187,-9326.594869,-2738.761985,919.314598
2829.447524,-8882.471304,-1184.329507,1838.629195
2829.447862,-9696.697840,-1184.329507,1455.581446
2829.448199,-10658.965565,-296.082377,1685.410096
2829.448536,-11399.171507,0.000000,995.924147
2829.448874,-11621.233289,0.000000,1532.190996
2829.449211,-11325.150913,666.185348,1991.848295
2829.449549,-9770.718434,666.185348,1532.190996
2829.449886,-9474.636058,1776.494261,919.314598
2829.450223,-9992.780217,1184.329507,0.000000
2829.450561,-9918.759623,962.267725,-919.314598
2829.450898,-9696.697840,0.000000,-1991.848295
2829.451236,-9326.594869,-370.102971,-1608.800546
2829.451573,-9178.553681,0.000000,-536.266849
2829.451910,-8512.368333,888.247130,0.000000
2829.452248,-8660.409521,1628.453072,-459.657299
2829.452585,-9474.636058,1110.308913,-689.485948
2829.452922,-10807.006753,592.164754,-76.609550
2829.453260,-11251.130318,-888.247130,-76.609550
2829.453597,-10436.903782,-1184.329507,842.705048
2829.453935,-9474.636058,-1480.411884,1455.581446
2829.454272,-8956.491898,-1258.350101,2604.724693
2829.454609,-8882.471304,-370.102971,1225.752797
2829.454947,-10214.842000,148.041188,919.314598
2829.455284,-11029.068536,74.020594,0.000000
2829.455621,-11547.212695,0.000000,-383.047749
2829.455959,-11325.150913,-592.164754,919.314598
2829.456296,-10362.883188,-740.205942,459.657299
2829.456633,-9326.594869,-74.020594,1378.971896
2829.456971,-9104.533087,222.061783,1455.581446
2829.457308,-10214.842000,814.226536,612.876398
2829.457645,-10881.027347,-370.102971,0.000000
2829.457983,-10955.047942,-1110.308913,0.000000
2829.458320,-10658.965565,-1480.411884,-306.438199
2829.458657,-10140.821405,-888.247130,0.000000
2829.458995,-9548.656652,-1406.391290,-306.438199
2829.459332,-9030.512492,-740.205942,-1532.190996
2829.459669,-9474.636058,-1480.411884,-1225.752797
2829.460007,-10066.800811,-1184.329507,-1072.533697
2829.460344,-9918.759623,-2886.803174,-1149.143247
2829.460681,-9622.677246,-2368.659014,0.000000
2829.461019,-9548.656652,-1480.411884,1072.533697
2829.461356,-9104.533087,-222.061783,1455.581446
2829.461693,-9474.636058,370.102971,1685.410096
2829.462031,-10658.965565,666.185348,2221.676944
2829.462368,-11399.171507,666.185348,1149.143247
2829.462705,-11177.109724,518.144159,1378.971896
2829.463043,-10510.924376,740.205942,1762.019645
2829.463380,-9252.574275,592.164754,2145.067394
2829.463717,-8808.450710,888.247130,1762.019645
2829.464055,-9030.512492,1998.556043,1302.362347
2829.464392,-9844.739029,2220.617826,0.000000
2829.464729,-11251.130318,2368.659014,-612.876398
2829.465067,-11547.212695,666.185348,-1608.800546
2829.465404,-10510.924376,592.164754,-995.924147
2829.465741,-10066.800811,0.000000,-995.924147
2829.466079,-8734.430116,-518.144159,-995.924147
2829.466416,-8364.327145,0.000000,-612.876398
2829.466753,-9178.553681,-1258.350101,-536.266849
2829.467091,-10140.821405,-1184.329507,-842.705048
2829.467428,-10658.965565,-1406.391290,-766.095498
2829.467765,-10881.027347,-1850.514855,0.000000
2829.468103,-10288.862594,-1184.329507,153.219100
2829.468440,-9548.656652,-1184.329507,536.266849
2829.468777,-9918.759623,-814.226536,1072.533697
2829.469115,-10066.800811,-1110.308913,536.266849
2829.469452,-10214.842000,-1332.370696,229.828649
2829.469789,-10362.883188,-1258.350101,0.000000
2829.470127,-10584.944971,-1776.494261,842.705048
2829.470464,-9548.656652,-1110.308913,842.705048
2829.470801,-9400.615463,0.000000,1532.190996
2829.471139,-9548.656652,1036.288319,1455.581446
2829.471476,-10732.986159,1258.350101,536.266849
2829.471813,-11325.150913,592.164754,-76.609550
2829.472151,-11103.089130,-888.247130,0.000000
2829.472488,-9770.718434,-666.185348,459.657299
2829.472825,-9400.615463,-888.247130,1608.800546
2829.473163,-9252.574275,0.000000,995.924147
2829.473500,-9326.594869,-296.082377,383.047749
2829.473838,-10362.883188,0.000000,153.219100
2829.474175,-10362.883188,592.164754,-689.485948
2829.474512,-11177.109724,-666.185348,-153.219100
2829.474850,-10584.944971,-1332.370696,76.609550
2829.475187,-9030.512492,-1036.288319,153.219100
2829.475524,-8734.430116,-296.082377,1455.581446
2829.475862,-8956.491898,74.020594,1762.019645
2829.476199,-9400.615463,0.000000,1608.800546
2829.476536,-10436.903782,1036.288319,1762.019645
2829.476874,-11103.089130,444.123565,1072.533697
2829.477211,-10807.006753,518.144159,919.314598
2829.477548,-10436.903782,666.185348,842.705048
2829.477886,-9400.615463,222.061783,689.485948
2829.478223,-9548.656652,592.164754,76.609550
2829.478560,-9548.656652,296.082377,-689.485948
2829.478898,-9548.656652,-888.247130,-1762.019645
2829.479235,-9918.759623,-1480.411884,-1915.238745
2829.479572,-9548.656652,-2146.597232,-995.924147
2829.479910,-9548.656652,-962.267725,-1072.533697
2829.480247,-9474.636058,-666.185348,-766.095498
2829.480584,-9918.759623,0.000000,-459.657299
2829.480922,-10658.965565,-740.205942,-1532.190996
2829.481259,-11251.130318,-1036.288319,-1378.971896
2829.481596,-11103.089130,-2146.597232,-536.266849
2829.481934,-10436.903782,-2368.659014,153.219100
2829.482271,-9548.656652,-2072.576638,612.876398
2829.482608,-9548.656652,-1480.411884,1149.143247
2829.482946,-10140.821405,-1184.329507,1532.190996
2829.483283,-10214.842000,296.082377,919.314598
2829.483620,-11473.192101,518.144159,766.095498
2829.483958,-11325.150913,222.061783,689.485948
2829.484295,-10584.944971,0.000000,0.000000
2829.484632,-9696.697840,592.164754,1608.800546
2829.484970,-8808.450710,296.082377,1838.629195
2829.485307,-8660.409521,1628.453072,1378.971896
2829.485644,-10140.821405,1406.391290,1225.752797
2829.485982,-9918.759623,1628.453072,383.047749
2829.486319,-9992.780217,296.082377,-153.219100
2829.486656,-10362.883188,222.061783,689.485948
2829.486994,-9178.553681,666.185348,536.266849
2829.487331,-9474.636058,1258.350101,306.438199
2829.487668,-9030.512492,296.082377,-306.438199
2829.488006,-8734.430116,222.061783,-689.485948
2829.488343,-9992.780217,0.000000,-919.314598
2829.488680,-10436.903782,-1258.350101,-536.266849
2829.489018,-9918.759623,-1406.391290,-536.266849
2829.489355,-9696.697840,-962.267725,459.657299
2829.489692,-9326.594869,74.020594,1225.752797
2829.490030,-9918.759623,370.102971,1225.752797
2829.490367,-10881.027347,0.000000,766.095498
2829.490704,-10881.027347,-444.123565,459.657299
2829.491042,-11251.130318,-740.205942,536.266849
2829.491379,-10436.903782,-962.267725,1532.190996
2829.491716,-9770.718434,-1110.308913,1532.190996
2829.492054,-9400.615463,-370.102971,1762.019645
2829.492391,-9992.780217,666.185348,1455.581446
2829.492728,-11103.089130,740.205942,229.828649
2829.493066,-11473.192101,296.082377,-1302.362347
2829.493403,-10732.986159,-1184.329507,-1302.362347
2829.493740,-10362.883188,-1702.473667,-1455.581446
2829.494078,-9622.677246,-1406.391290,-1225.752797
2829.494415,-8882.471304,-1702.473667,-76.609550
2829.494752,-8808.450710,-1036.288319,-842.705048
2829.495090,-9326.594869,-1258.350101,-1225.752797
2829.495427,-10288.862594,-1332.370696,-612.876398
2829.495764,-11325.150913,-1184.329507,-229.828649
2829.496102,-10510.924376,-1628.453072,229.828649
2829.496439,-10436.903782,-518.144159,1149.143247
2829.496776,-9474.636058,-518.144159,1149.143247
2829.497114,-10066.800811,0.000000,1378.971896
2829.497451,-10362.883188,0.000000,1225.752797
2829.497788,-9992.780217,74.020594,0.000000
2829.498126,-10140.821405,0.000000,383.047749
2829.498463,-10436.903782,222.061783,766.095498
2829.498800,-9474.636058,296.082377,689.485948
2829.499138,-9252.574275,1480.411884,1149.143247
2829.499475,-9252.574275,2368.659014,995.924147
2829.499812,-10214.842000,2368.659014,0.000000
2829.500150,-11251.130318,1406.391290,-689.485948
2829.500487,-10140.821405,74.020594,-459.657299
2829.500824,-9622.677246,-518.144159,153.219100
2829.501162,-9326.594869,-296.082377,689.485948
2829.501499,-9030.512492,-222.061783,153.219100
2829.501836,-9400.615463,-518.144159,0.000000
2829.502174,-9844.739029,-888.247130,-612.876398
2829.502511,-10288.862594,-1036.288319,-1302.362347
2829.502848,-10955.047942,-1924.535449,-1302.362347
2829.503186,-10362.883188,-1776.494261,-766.095498
2829.503523,-10214.842000,-2294.638420,0.000000
2829.503860,-8364.327145,-1554.432478,306.438199
2829.504198,-9474.636058,-666.185348,1455.581446
2829.504535,-10584.944971,-1110.308913,1608.800546
2829.504872,-10510.924376,-1036.288319,689.485948
2829.505210,-10881.027347,-740.205942,995.924147
2829.505547,-11547.212695,-814.226536,1149.143247
2829.505884,-10140.821405,-370.102971,1455.581446
2829.506222,-10140.821405,-444.123565,1685.410096
2829.506559,-9696.697840,148.041188,76.609550
2829.506896,-10066.800811,518.144159,0.000000
2829.507234,-10362.883188,-296.082377,-1225.752797
2829.507571,-9696.697840,-962.267725,-1685.410096
2829.507908,-9696.697840,-888.247130,-383.047749
2829.508246,-9548.656652,-444.123565,153.219100
2829.508583,-9030.512492,296.082377,-536.266849
2829.508920,-9474.636058,888.247130,-612.876398
2829.509258,-9918.759623,0.000000,0.000000
2829.509595,-10362.883188,0.000000,-842.705048
2829.509932,-10584.944971,-814.226536,153.219100
2829.510270,-10214.842000,-1406.391290,1838.629195
2829.510607,-8734.430116,-592.164754,1685.410096
2829.510944,-8956.491898,444.123565,1762.019645
2829.511282,-9770.718434,814.226536,2298.286494
2829.511619,-10214.842000,1036.288319,536.266849
2829.511956,-11029.068536,1850.514855,306.438199
2829.512294,-11399.171507,1110.308913,459.657299
2829.512631,-10955.047942,592.164754,76.609550
2829.512968,-9844.739029,0.000000,229.828649
2829.513306,-8882.471304,1036.288319,536.266849
2829.513643,-8956.491898,962.267725,842.705048
2829.513980,-9622.677246,888.247130,0.000000
2829.514318,-10288.862594,0.000000,-383.047749
2829.514655,-11029.068536,-444.123565,0.000000
2829.514992,-10510.924376,-666.185348,306.438199
2829.515330,-10214.842000,-444.123565,153.219100
2829.515667,-10066.800811,-296.082377,-153.219100
2829.516005,-9844.739029,-518.144159,-536.266849
2829.516342,-10362.883188,-1480.411884,-1378.971896
2829.516679,-9844.739029,-2072.576638,-1838.629195
2829.517017,-10214.842000,-2442.679609,-689.485948
2829.517354,-9992.780217,-2516.700203,0.000000
2829.517691,-9178.553681,-1924.535449,76.609550
2829.518029,-9474.636058,-962.267725,1225.752797
2829.518366,-9918.759623,-370.102971,1149.143247
2829.518703,-10807.006753,-148.041188,1455.581446
2829.519041,-11399.171507,-444.123565,1608.800546
2829.519378,-10881.027347,-740.205942,1838.629195
2829.519715,-10214.842000,74.020594,2911.162892
2829.520053,-9474.636058,0.000000,3447.429741
2829.520390,-9474.636058,1036.288319,2528.115143
2829.520727,-9622.677246,1776.494261,1608.800546
2829.521065,-10288.862594,2220.617826,536.266849
2829.521402,-11029.068536,1480.411884,-919.314598
2829.521739,-10584.944971,370.102971,-1149.143247
2829.522077,-9770.718434,-148.041188,-689.485948
2829.522414,-9326.594869,74.020594,-306.438199
2829.522751,-8290.306550,74.020594,-536.266849
2829.523089,-9326.594869,222.061783,-842.705048
2829.523426,-9400.615463,0.000000,0.000000
2829.523763,-10584.944971,222.061783,-459.657299
2829.524101,-11473.192101,-1036.288319,306.438199
2829.524438,-10436.903782,-444.123565,306.438199
2829.524775,-9992.780217,-814.226536,842.705048
2829.525113,-9992.780217,-370.102971,76.609550
2829.525450,-9770.718434,-370.102971,0.000000
2829.525787,-10288.862594,-740.205942,0.000000
2829.526125,-10140.821405,-1332.370696,-689.485948
2829.526462,-9918.759623,-1184.329507,-612.876398
2829.526799,-9918.759623,-1406.391290,153.219100
2829.527137,-9770.718434,-888.247130,612.876398
2829.527474,-8956.491898,148.041188,919.314598
2829.527811,-9770.718434,518.144159,612.876398
2829.528149,-11325.150913,666.185348,76.609550
2829.528486,-11621.233289,-222.061783,-919.314598
2829.528823,-10807.006753,-1258.350101,-612.876398
2829.529161,-9622.677246,-2072.576638,76.609550
2829.529498,-9326.594869,-1258.350101,383.047749
2829.529835,-9696.697840,-444.123565,306.438199
2829.530173,-9548.656652,-962.267725,-842.705048
2829.530510,-10214.842000,-888.247130,-995.924147
2829.530847,-10881.027347,-592.164754,-1532.190996
2829.531185,-11103.089130,-1110.308913,-689.485948
2829.531522,-10362.883188,-1628.453072,153.219100
2829.531859,-9326.594869,-1184.329507,1072.533697
2829.532197,-8734.430116,-740.205942,1225.752797
2829.532534,-9400.615463,296.082377,2374.896044
2829.532871,-10140.821405,518.144159,2604.724693
2829.533209,-10732.986159,296.082377,1532.190996
2829.533546,-10955.047942,740.205942,2145.067394
2829.533883,-10510.924376,1184.329507,1838.629195
2829.534221,-9770.718434,1258.350101,1838.629195
2829.534558,-9104.533087,962.267725,1072.533697
2829.534895,-9400.615463,2220.617826,995.924147
2829.535233,-9548.656652,1850.514855,-153.219100
2829.535570,-9770.718434,666.185348,-1225.752797
2829.535907,-9918.759623,-222.061783,-995.924147
2829.536245,-9400.615463,-296.082377,-536.266849
2829.536582,-9474.636058,0.000000,-383.047749
2829.536919,-9252.574275,444.123565,-306.438199
2829.537257,-9326.594869,148.041188,-689.485948
2829.537594,-10362.883188,-518.144159,-842.705048
2829.537931,-10732.986159,-1406.391290,-1302.362347
2829.538269,-10510.924376,-2368.659014,-383.047749
2829.538606,-10362.883188,-1924.535449,459.657299
2829.538943,-9548.656652,-2220.617826,995.924147
2829.539281,-9400.615463,-1036.288319,1072.533697
2829.539618,-10658.965565,-592.164754,1455.581446
2829.539955,-11251.130318,-222.061783,383.047749
2829.540293,-11769.274478,-1036.288319,-306.438199
2829.540630,-11103.089130,-666.185348,0.000000
2829.540967,-10732.986159,-1110.308913,306.438199
2829.541305,-9548.656652,-888.247130,689.485948
2829.541642,-9030.512492,0.000000,612.876398
2829.541979,-9474.636058,296.082377,1225.752797
2829.542317,-10436.903782,1332.370696,689.485948
2829.542654,-10658.965565,148.041188,-229.828649
2829.542991,-11251.130318,0.000000,0.000000
2829.543329,-9992.780217,74.020594,0.000000
2829.543666,-9696.697840,444.123565,229.828649
2829.544003,-9622.677246,444.123565,0.000000
2829.544341,-9104.533087,148.041188,-612.876398
2829.544678,-9918.759623,0.000000,0.000000
2829.545015,-9770.718434,-444.123565,-1378.971896
2829.545353,-9474.636058,-1258.350101,-766.095498
2829.545690,-9844.739029,-1036.288319,306.438199
2829.546027,-8438.347739,-592.164754,612.876398
2829.546365,-8956.491898,1110.308913,1455.581446
2829.546702,-9770.718434,1110.308913,1838.629195
2829.547039,-10288.862594,1258.350101,1072.533697
2829.547377,-11103.089130,814.226536,1378.971896
2829.547714,-10732.986159,-370.102971,2068.457845
2829.548051,-9770.718434,740.205942,2221.676944
2829.548389,-9474.636058,222.061783,2145.067394
2829.548726,-9548.656652,740.205942,1991.848295
2829.549063,-9770.718434,444.123565,766.095498
2829.549401,-10658.965565,666.185348,0.000000
2829.549738,-10732.986159,222.061783,-1225.752797
2829.550075,-10066.800811,-1776.494261,-1378.971896
2829.550413,-9696.697840,-1628.453072,-1378.971896
2829.550750,-9104.533087,-1998.556043,-612.876398
2829.551087,-9178.553681,-888.247130,-229.828649
2829.551425,-9400.615463,-1258.350101,-153.219100
2829.551762,-10362.883188,-1406.391290,-612.876398
2829.552099,-10510.924376,-2368.659014,-842.705048
2829.552437,-11103.089130,-2294.638420,-459.657299
2829.552774,-10881.027347,-2664.741391,689.485948
2829.553111,-10066.800811,-1776.494261,306.438199
2829.553449,-9326.594869,-2146.597232,689.485948
2829.553786,-10436.903782,-1110.308913,536.266849
2829.554123,-9992.780217,-814.226536,153.219100
2829.554461,-10214.842000,-1480.411884,0.000000
2829.554798,-10214.842000,-1036.288319,536.266849
2829.555135,-9992.780217,-370.102971,689.485948
2829.555473,-9844.739029,666.185348,1762.019645
2829.555810,-9474.636058,1406.391290,766.095498
2829.556147,-9622.677246,1850.514855,306.438199
2829.556485,-10807.006753,2220.617826,0.000000
2829.556822,-10732.986159,1480.411884,-1225.752797
2829.557159,-10362.883188,148.041188,76.609550
2829.557497,-9474.636058,518.144159,612.876398
2829.557834,-8882.471304,962.267725,306.438199
2829.558171,-9178.553681,1332.370696,612.876398
2829.558509,-9474.636058,1110.308913,153.219100
2829.558846,-9770.718434,814.226536,-612.876398
2829.559183,-10881.027347,814.226536,-612.876398
2829.559521,-10732.986159,-444.123565,76.609550
2829.559858,-9918.759623,0.000000,-536.266849
2829.560195,-9474.636058,-666.185348,612.876398
2829.560533,-9104.533087,0.000000,1149.143247
2829.560870,-9400.615463,-296.082377,919.314598
2829.561207,-10288.862594,0.000000,1302.362347
2829.561545,-10214.842000,-296.082377,459.657299
2829.561882,-10732.986159,-592.164754,1149.143247
2829.562219,-10436.903782,-370.102971,1608.800546
2829.562557,-10584.944971,0.000000,2298.286494
2829.562894,-9844.739029,-444.123565,1991.848295
2829.563231,-9770.718434,370.102971,536.266849
2829.563569,-10436.903782,0.000000,0.000000
2829.563906,-10066.800811,-1184.329507,-1302.362347
2829.564243,-9844.739029,-1480.411884,-1455.581446
2829.564581,-9918.759623,-1998.556043,-536.266849
2829.564918,-9548.656652,-962.267725,-1149.143247
2829.565255,-9178.553681,-148.041188,-1149.143247
2829.565593,-10436.903782,-518.144159,-1302.362347
2829.565930,-10362.883188,-1184.329507,-1072.533697
2829.566267,-10510.924376,-1924.535449,-842.705048
2829.566605,-10881.027347,-1554.432478,842.705048
2829.566942,-9844.739029,-1702.473667,1762.019645
2829.567279,-9622.677246,-1850.514855,2221.676944
2829.567617,-9622.677246,-370.102971,2298.286494
2829.567954,-9918.759623,296.082377,2298.286494
2829.568291,-11399.171507,444.123565,1838.629195
2829.568629,-10658.965565,222.061783,0.000000
2829.568966,-10436.903782,0.000000,459.657299
2829.569303,-9548.656652,370.102971,1149.143247
2829.569641,-9104.533087,444.123565,995.924147
2829.569978,-8808.450710,1554.432478,1378.971896
2829.570315,-8882.471304,1406.391290,766.095498
2829.570653,-9178.553681,1998.556043,0.000000
2829.570990,-10436.903782,1258.350101,-459.657299
2829.571327,-10584.944971,962.267725,0.000000
2829.571665,-10214.842000,74.020594,-383.047749
2829.572002,-9622.677246,444.123565,-612.876398
2829.572339,-9992.780217,592.164754,-766.095498
2829.572677,-9474.636058,-1110.308913,-1455.581446
2829.573014,-9696.697840,-1406.391290,-2145.067394
2829.573351,-9474.636058,-1924.535449,-2145.067394
2829.573689,-10066.800811,-2516.700203,-1378.971896
2829.574026,-10066.800811,-2516.700203,-1225.752797
2829.574363,-10140.821405,-1776.494261,-76.609550
2829.574701,-9992.780217,-370.102971,612.876398
2829.575038,-10436.903782,-592.164754,766.095498
2829.575375,-11029.068536,-1036.288319,919.314598
2829.575713,-11399.171507,-1554.432478,612.876398
2829.576050,-10658.965565,-1998.556043,1608.800546
2829.576387,-10362.883188,-1184.329507,2145.067394
2829.576725,-9474.636058,-814.226536,1915.238745
2829.577062,-10066.800811,0.000000,2068.457845
2829.577399,-10362.883188,296.082377,612.876398
2829.577737,-9992.780217,740.205942,-76.609550
2829.578074,-10658.965565,296.082377,-536.266849
2829.578411,-10732.986159,-666.185348,-536.266849
2829.578748,-9474.636058,-1258.350101,-689.485948
2829.579086,-9326.594869,0.000000,536.266849
2829.579423,-8882.471304,592.164754,536.266849
2829.579760,-9104.533087,296.082377,76.609550
2829.580098,-10214.842000,74.020594,536.266849
2829.580435,-10658.965565,-666.185348,76.609550
2829.580772,-10807.006753,-370.102971,1225.752797
2829.581110,-10214.842000,0.000000,1378.971896
2829.581447,-9548.656652,148.041188,1302.362347
2829.581784,-9326.594869,0.000000,1455.581446
2829.582122,-9770.718434,518.144159,1072.533697
2829.582459,-10140.821405,1036.288319,383.047749
2829.582796,-10066.800811,444.123565,0.000000
2829.583134,-10066.800811,148.041188,612.876398
2829.583471,-9844.739029,444.123565,306.438199
2829.583808,-9474.636058,814.226536,919.314598
2829.584146,-9622.677246,1924.535449,995.924147
2829.584483,-9992.780217,1628.453072,306.438199
2829.584820,-10584.944971,888.247130,-689.485948
2829.585158,-10807.006753,-444.123565,-1149.143247
2829.585495,-9622.677246,-1702.473667,-459.657299
2829.585832,-9030.512492,-1702.473667,536.266849
2829.586170,-9548.656652,-1110.308913,229.828649
2829.586507,-9548.656652,0.000000,-383.047749
2829.586844,-10288.862594,-814.226536,-1532.190996
2829.587182,-10881.027347,-1406.391290,-1608.800546
2829.587519,-10732.986159,-1924.535449,-1915.238745
2829.587856,-10732.986159,-2368.659014,-842.705048
2829.588194,-10584.944971,-2812.782580,-229.828649
2829.588531,-9622.677246,-2442.679609,76.609550
2829.588868,-9178.553681,-1332.370696,919.314598
2829.589206,-10140.821405,-1258.350101,1455.581446
2829.589543,-10510.924376,-222.061783,1149.143247
2829.589880,-11769.274478,0.000000,459.657299
2829.590218,-11843.295072,-518.144159,1378.971896
2829.590555,-10140.821405,518.144159,1225.752797
2829.590892,-10140.821405,518.144159,1915.238745
2829.591230,-9918.759623,888.247130,1838.629195
2829.591567,-9178.553681,592.164754,536.266849
2829.591904,-10066.800811,1628.453072,76.609550
2829.592242,-10288.862594,-74.020594,-1072.533697
2829.592579,-9770.718434,0.000000,-1149.143247
2829.592916,-9474.636058,-666.185348,-229.828649
2829.593254,-8586.388927,888.247130,0.000000
2829.593591,-8586.388927,814.226536,0.000000
2829.593928,-9400.615463,370.102971,-383.047749
2829.594266,-9770.718434,148.041188,-76.609550
2829.594603,-10288.862594,-740.205942,229.828649
2829.594940,-10214.842000,-1258.350101,1149.143247
2829.595278,-9622.677246,-814.226536,1149.143247
2829.595615,-9474.636058,-814.226536,1532.190996
2829.595952,-9474.636058,74.020594,1532.190996
2829.596290,-9992.780217,0.000000,1532.190996
2829.596627,-10658.965565,518.144159,766.095498
2829.596964,-11177.109724,0.000000,0.000000
2829.597302,-11029.068536,-1184.329507,-383.047749
2829.597639,-10510.924376,-592.164754,306.438199
2829.597976,-9918.759623,-296.082377,1532.190996
2829.598314,-9104.533087,222.061783,1225.752797
2829.598651,-9770.718434,222.061783,842.705048
2829.598988,-11177.109724,740.205942,383.047749
2829.599326,-11399.171507,0.000000,-536.266849
2829.599663,-11177.109724,-888.247130,0.000000
2829.600000,-10436.903782,-1480.411884,306.438199
2829.600338,-9474.636058,-1480.411884,-229.828649
2829.600675,-9252.574275,-296.082377,-383.047749
2829.601012,-9696.697840,-1332.370696,-1225.752797
2829.601350,-9844.739029,-1776.494261,-1455.581446
2829.601687,-9696.697840,-2368.659014,-2145.067394
2829.602024,-10214.842000,-1406.391290,-306.438199
2829.602362,-9992.780217,-1776.494261,-229.828649
2829.602699,-9400.615463,-1258.350101,689.485948
2829.603036,-9400.615463,0.000000,1685.410096
2829.603374,-9622.677246,444.123565,1685.410096
2829.603711,-10955.047942,666.185348,1685.410096
2829.604048,-11621.233289,0.000000,919.314598
2829.604386,-10214.842000,0.000000,1378.971896
2829.604723,-9844.739029,592.164754,2068.457845
2829.605060,-9474.636058,888.247130,1838.629195
2829.605398,-9178.553681,2146.597232,1685.410096
2829.605735,-9918.759623,2368.659014,229.828649
2829.606072,-10140.821405,2294.638420,-1149.143247
2829.606410,-11251.130318,2072.576638,-1532.190996
2829.606747,-10732.986159,296.082377,-1225.752797
2829.607084,-9844.739029,0.000000,-1302.362347
2829.607421,-9030.512492,296.082377,0.000000
2829.607759,-8660.409521,370.102971,0.000000
2829.608096,-9178.553681,-814.226536,-306.438199
2829.608433,-9844.739029,-888.247130,-153.219100
2829.608771,-10584.944971,-1628.453072,-306.438199
2829.609108,-10955.047942,-1406.391290,536.266849
2829.609445,-10881.027347,-1406.391290,459.657299
2829.609783,-9992.780217,-1702.473667,766.095498
2829.610120,-9252.574275,-888.247130,919.314598
2829.610457,-10066.800811,-1332.370696,536.266849
2829.610795,-10288.862594,-962.267725,995.924147
2829.611132,-10214.842000,-1554.432478,-383.047749
2829.611469,-10362.883188,-1554.432478,612.876398
2829.611807,-10510.924376,-1036.288319,1072.533697
2829.612144,-9770.718434,0.000000,995.924147
2829.612481,-9548.656652,666.185348,1225.752797
2829.612819,-10140.821405,370.102971,1072.533697
2829.613156,-10881.027347,814.226536,0.000000
2829.613493,-11177.109724,-592.164754,-383.047749
2829.613831,-10658.965565,-666.185348,766.095498
2829.614168,-9548.656652,-1036.288319,612.876398
2829.614505,-9400.615463,-74.020594,612.876398
2829.614843,-9770.718434,296.082377,383.047749
2829.615180,-9918.759623,148.041188,-1072.533697
2829.615517,-10140.821405,-148.041188,-1532.190996
2829.615855,-10732.986159,-1036.288319,-1225.752797
2829.616192,-10214.842000,-962.267725,-612.876398
2829.616529,-9474.636058,-1258.350101,229.828649
2829.616867,-9030.512492,-518.144159,842.705048
2829.617204,-8660.409521,-296.082377,1608.800546
2829.617541,-9992.780217,370.102971,2221.676944
2829.617879,-10436.903782,1110.308913,1455.581446
2829.618216,-11103.089130,296.082377,1378.971896
2829.618553,-10955.047942,666.185348,2221.676944
2829.618891,-9844.739029,888.247130,1302.362347
2829.619228,-9770.718434,1184.329507,1149.143247
2829.619565,-10066.800811,1036.288319,919.314598
2829.619903,-9844.739029,740.205942,-919.314598
2829.620240,-9844.739029,0.000000,-1532.190996
2829.620577,-9252.574275,-518.144159,-2298.286494
2829.620915,-9548.656652,-1924.535449,-1762.019645
2829.621252,-9548.656652,-2072.576638,-766.095498
2829.621589,-9326.594869,-296.082377,-689.485948
2829.621927,-10140.821405,296.082377,-612.876398
2829.622264,-10732.986159,0.000000,-1072.533697
2829.622601,-11029.068536,-1110.308913,-1532.190996
2829.622939,-11399.171507,-2590.720797,-383.047749
2829.623276,-10362.883188,-1850.514855,229.828649
2829.623613,-10436.903782,-2220.617826,1225.752797
2829.623951,-9474.636058,-1850.514855,1302.362347
2829.624288,-9548.656652,-666.185348,306.438199
2829.624625,-11177.109724,-296.082377,1225.752797
2829.624963,-11103.089130,814.226536,0.000000
2829.625300,-10881.027347,-518.144159,0.000000
2829.625637,-11103.089130,-296.082377,1225.752797
2829.625975,-9178.553681,0.000000,1072.533697
2829.626312,-9252.574275,740.205942,2451.505594
2829.626649,-9104.533087,1184.329507,2451.505594
2829.626987,-9474.636058,1702.473667,1838.629195
2829.627324,-10436.903782,1850.514855,612.876398
2829.627661,-10732.986159,592.164754,-153.219100
2829.627999,-9770.718434,666.185348,919.314598
2829.628336,-9474.636058,0.000000,153.219100
2829.628673,-8808.450710,814.226536,229.828649
2829.629011,-8660.409521,592.164754,-306.438199
2829.629348,-9770.718434,592.164754,-995.924147
2829.629685,-9770.718434,-296.082377,-995.924147
2829.630023,-9770.718434,-1258.350101,-536.266849
2829.630360,-9918.759623,-666.185348,0.000000
2829.630697,-9844.739029,-962.267725,612.876398
2829.631035,-9696.697840,-296.082377,919.314598
2829.631372,-9770.718434,518.144159,995.924147
2829.631709,-10955.047942,370.102971,842.705048
2829.632047,-11103.089130,0.000000,536.266849
2829.632384,-11325.150913,-962.267725,-383.047749
2829.632721,-10584.944971,-1850.514855,689.485948
2829.633059,-9400.615463,-666.185348,612.876398
2829.633396,-9474.636058,-1184.329507,1762.019645
2829.633733,-9992.780217,518.144159,919.314598
2829.634071,-10214.842000,-74.020594,0.000000
2829.634408,-11177.109724,0.000000,-842.705048
2829.634745,-11029.068536,-1406.391290,-1762.019645
2829.635083,-10584.944971,-1998.556043,-995.924147
2829.635420,-9622.677246,-2368.659014,-459.657299
2829.635757,-8586.388927,-1850.514855,-766.095498
2829.636094,-8364.327145,-1036.288319,-919.314598
2829.636432,-9844.739029,-1110.308913,-612.876398
2829.636769,-10362.883188,-1332.370696,-1072.533697
2829.637106,-11103.089130,-2368.659014,-612.876398
2829.637444,-11177.109724,-962.267725,1072.533697
2829.637781,-10288.862594,-1036.288319,306.438199
2829.638118,-10066.800811,-666.185348,1455.581446
2829.638456,-9474.636058,-666.185348,1225.752797
2829.638793,-9548.656652,-222.061783,1532.190996
2829.639130,-10436.903782,740.205942,1608.800546
2829.639468,-11103.089130,-592.164754,842.705048
2829.639805,-10510.924376,296.082377,1149.143247
2829.640142,-9918.759623,518.144159,1838.629195
2829.640480,-9400.615463,1998.556043,1302.362347
2829.640817,-8882.471304,2442.679609,1149.143247
2829.641154,-10066.800811,2368.659014,919.314598
2829.641492,-10510.924376,1702.473667,-306.438199
2829.641829,-10066.800811,370.102971,-612.876398
2829.642166,-9770.718434,0.000000,383.047749
2829.642504,-9400.615463,-740.205942,919.314598
2829.642841,-8956.491898,0.000000,689.485948
2829.643178,-8956.491898,962.267725,0.000000
2829.643516,-10140.821405,-148.041188,-536.266849
2829.643853,-10066.800811,-1110.308913,-1915.238745
2829.644190,-10584.944971,-1850.514855,-2145.067394
2829.644528,-10584.944971,-2072.576638,-689.485948
2829.644865,-9622.677246,-1776.494261,-689.485948
2829.645202,-8808.450710,-1776.494261,153.219100
2829.645540,-9252.574275,-666.185348,919.314598
2829.645877,-9770.718434,-666.185348,1455.581446
2829.646214,-10955.047942,-222.061783,919.314598
2829.646552,-11843.295072,-592.164754,842.705048
2829.646889,-11547.212695,-592.164754,1225.752797
2829.647226,-11029.068536,0.000000,1378.971896
2829.647564,-9770.718434,148.041188,1378.971896
2829.647901,-9622.677246,370.102971,995.924147
2829.648238,-10362.883188,-222.061783,536.266849
2829.648576,-9992.780217,296.082377,-919.314598
2829.648913,-10362.883188,-592.164754,-1532.190996
2829.649250,-10584.944971,-296.082377,-383.047749
2829.649588,-9622.677246,-740.205942,0.000000
2829.649925,-9326.594869,962.267725,536.266849
2829.650262,-9474.636058,814.226536,229.828649
2829.650600,-9474.636058,962.267725,-306.438199
2829.650937,-10510.924376,0.000000,-383.047749
2829.651274,-10658.965565,-1184.329507,383.047749
2829.651612,-9696.697840,-1184.329507,919.314598
2829.651949,-9030.512492,-740.205942,1991.848295
2829.652286,-9178.553681,0.000000,2145.067394
2829.652624,-8808.450710,74.020594,1838.629195
2829.652961,-10066.800811,888.247130,1455.581446
2829.653298,-10362.883188,1628.453072,919.314598
2829.653636,-11325.150913,444.123565,153.219100
2829.653973,-10584.944971,518.144159,536.266849
2829.654310,-10066.800811,518.144159,766.095498
2829.654648,-8808.450710,1036.288319,1225.752797
2829.654985,-9474.636058,1110.308913,919.314598
2829.655323,-9696.697840,370.102971,536.266849
2829.655660,-10807.006753,962.267725,-612.876398
2829.655997,-10881.027347,-518.144159,-689.485948
2829.656335,-10881.027347,-962.267725,-459.657299
2829.656672,-10214.842000,-1258.350101,-383.047749
2829.657010,-9548.656652,-1110.308913,0.000000
2829.657347,-9474.636058,-296.082377,-1072.533697
2829.657684,-9548.656652,-1258.350101,-2221.676944
2829.658022,-10066.800811,-2146.597232,-1838.629195
2829.658359,-10436.903782,-3034.844362,-2145.067394
2829.658697,-10066.800811,-2664.741391,-689.485948
2829.659034,-9918.759623,-2738.761985,-229.828649
2829.659371,-9400.615463,-1406.391290,842.705048
2829.659709,-9400.615463,-1036.288319,536.266849
2829.660046,-10584.944971,-962.267725,689.485948
2829.660384,-10732.986159,-962.267725,459.657299
2829.660721,-11103.089130,-1554.432478,1072.533697
2829.661058,-10436.903782,-888.247130,2221.676944
2829.661396,-9548.656652,-666.185348,2298.286494
2829.661733,-9326.594869,296.082377,2987.772442
2829.662071,-9770.718434,1554.432478,3064.381992
2829.662408,-10362.883188,1184.329507,995.924147
2829.662745,-10881.027347,1628.453072,0.000000
2829.663083,-11177.109724,740.205942,-612.876398
2829.663420,-10140.821405,74.020594,-766.095498
2829.663758,-9474.636058,0.000000,76.609550
2829.664095,-8586.388927,518.144159,383.047749
2829.664432,-8142.265362,962.267725,76.609550
2829.664770,-9474.636058,370.102971,0.000000
2829.665107,-10436.903782,0.000000,-383.047749
2829.665445,-10658.965565,-148.041188,459.657299
2829.665782,-10658.965565,0.000000,1378.971896
2829.666119,-10510.924376,-222.061783,1225.752797
2829.666457,-9326.594869,74.020594,1225.752797
2829.666794,-9770.718434,-148.041188,766.095498
2829.667132,-10066.800811,-518.144159,153.219100
2829.667469,-10140.821405,-370.102971,-306.438199
2829.667806,-10362.883188,-1332.370696,-383.047749
2829.668144,-10140.821405,-1480.411884,-153.219100
2829.668481,-9474.636058,-296.082377,383.047749
2829.668819,-9474.636058,296.082377,2221.676944
2829.669156,-9474.636058,592.164754,536.266849
2829.669493,-10584.944971,444.123565,76.609550
2829.669831,-11621.233289,148.041188,-153.219100
2829.670168,-11621.233289,-814.226536,76.609550
2829.670506,-10510.924376,-814.226536,-459.657299
2829.670843,-9770.718434,-1258.350101,153.219100
2829.671180,-9474.636058,-740.205942,76.609550
2829.671518,-9326.594869,0.000000,-995.924147
2829.671855,-10658.965565,0.000000,-1532.190996
2829.672193,-11251.130318,-1332.370696,-1608.800546
2829.672530,-10807.006753,-1406.391290,-1608.800546
2829.672867,-10436.903782,-1702.473667,-459.657299
2829.673205,-9474.636058,-962.267725,766.095498
2829.673542,-8956.491898,-888.247130,1378.971896
2829.673880,-8882.471304,-148.041188,2221.676944
2829.674217,-9770.718434,444.123565,2298.286494
2829.674554,-11177.109724,1110.308913,2298.286494
2829.674892,-11695.253884,0.000000,1991.848295
2829.675229,-10288.862594,814.226536,1838.629195
2829.675567,-9918.759623,962.267725,2145.067394
2829.675904,-9178.553681,1702.473667,2298.286494
2829.676241,-8660.409521,1628.453072,1072.533697
2829.676579,-9696.697840,1554.432478,76.609550
2829.676916,-9770.718434,1406.391290,-842.705048
2829.677253,-9696.697840,0.000000,-1225.752797
2829.677591,-10288.862594,518.144159,-383.047749
2829.677928,-9918.759623,-222.061783,306.438199
2829.678266,-9474.636058,888.247130,76.609550
2829.678603,-9696.697840,814.226536,-306.438199
2829.678940,-10362.883188,-148.041188,-1149.143247
2829.679278,-10584.944971,-1480.411884,-1225.752797
2829.679615,-10584.944971,-2664.741391,-612.876398
2829.679953,-9918.759623,-2368.659014,306.438199
2829.680290,-9474.636058,-2738.761985,536.266849
2829.680627,-9104.533087,-1110.308913,995.924147
2829.680965,-9992.780217,-1406.391290,689.485948
2829.681302,-10436.903782,-1184.329507,612.876398
2829.681640,-11177.109724,-666.185348,-383.047749
2829.681977,-12139.377449,-1406.391290,0.000000
2829.682314,-10955.047942,-2220.617826,0.000000
2829.682652,-9770.718434,-1776.494261,766.095498
2829.682989,-9326.594869,-444.123565,1455.581446
2829.683327,-9252.574275,0.000000,459.657299
2829.683664,-10584.944971,-888.247130,612.876398
2829.684001,-10436.903782,0.000000,-766.095498
2829.684339,-11029.068536,-518.144159,-229.828649
2829.684676,-11103.089130,-666.185348,612.876398
2829.685014,-9770.718434,-592.164754,-306.438199
2829.685351,-9030.512492,0.000000,153.219100
2829.685688,-9474.636058,222.061783,76.609550
2829.686026,-9400.615463,-148.041188,-1378.971896
2829.686363,-10066.800811,-296.082377,-689.485948
2829.686701,-10584.944971,-1850.514855,-153.219100
2829.687038,-9918.759623,-666.185348,76.609550
2829.687375,-9992.780217,0.000000,1149.143247
2829.687713,-9178.553681,962.267725,1072.533697
2829.688050,-9400.615463,962.267725,1608.800546
2829.688388,-10584.944971,1258.350101,1532.190996
2829.688725,-10436.903782,1184.329507,995.924147
2829.689062,-11103.089130,0.000000,1072.533697
2829.689400,-10584.944971,222.061783,2298.286494
2829.689737,-9400.615463,740.205942,2068.457845
2829.690075,-9400.615463,1776.494261,2374.896044
2829.690412,-9918.759623,1776.494261,919.314598
2829.690749,-10584.944971,888.247130,-229.828649
2829.691087,-10584.944971,1184.329507,-1532.190996
2829.691424,-10658.965565,-370.102971,-1762.019645
2829.691762,-9548.656652,-1036.288319,-1225.752797
2829.692099,-8956.491898,-1480.411884,-995.924147
2829.692436,-8808.450710,-222.061783,0.000000
2829.692774,-9030.512492,-370.102971,-153.219100
2829.693111,-10066.800811,-518.144159,-766.095498
2829.693449,-10955.047942,-1628.453072,-689.485948
2829.693786,-11695.253884,-2146.597232,0.000000
2829.694123,-10584.944971,-2072.576638,229.828649
2829.694461,-10214.842000,-1628.453072,842.705048
2829.694798,-9844.739029,-1332.370696,1072.533697
2829.695136,-9770.718434,-1332.370696,383.047749
2829.695473,-10066.800811,-1998.556043,689.485948
2829.695810,-10584.944971,-444.123565,76.609550
2829.696148,-10510.924376,-1480.411884,76.609550
2829.696485,-10807.006753,-370.102971,919.314598
2829.696823,-9918.759623,0.000000,1685.410096
2829.697160,-9474.636058,1184.329507,2221.676944
2829.697497,-10362.883188,1924.535449,2068.457845
2829.697835,-10362.883188,1332.370696,229.828649
2829.698172,-11103.089130,1258.350101,76.609550
2829.698510,-10881.027347,370.102971,-383.047749
2829.698847,-9474.636058,814.226536,0.000000
2829.699184,-8808.450710,222.061783,612.876398
2829.699522,-8808.450710,518.144159,459.657299
2829.699859,-8882.471304,1554.432478,-612.876398
2829.700197,-10362.883188,1036.288319,-536.266849
2829.700534,-10658.965565,148.041188,-1302.362347
2829.700871,-10362.883188,-814.226536,-842.705048
2829.701209,-10362.883188,-148.041188,306.438199
2829.701546,-9622.677246,-370.102971,306.438199
2829.701884,-9252.574275,0.000000,689.485948
2829.702221,-9474.636058,-296.082377,1455.581446
2829.702558,-9992.780217,74.020594,1149.143247
2829.702896,-10584.944971,-592.164754,383.047749
2829.703233,-10881.027347,74.020594,689.485948
2829.703571,-11325.150913,-962.267725,1149.143247
2829.703908,-9918.759623,0.000000,1149.143247
2829.704245,-9178.553681,296.082377,919.314598
2829.704583,-10140.821405,222.061783,612.876398
2829.704920,-10066.800811,-592.164754,-536.266849
2829.705258,-10732.986159,-370.102971,-1149.143247
2829.705595,-10362.883188,-1480.411884,-1225.752797
2829.705932,-9770.718434,-1924.535449,-1302.362347
2829.706270,-9992.780217,-1776.494261,-459.657299
2829.706607,-9622.677246,-740.205942,-919.314598
2829.706945,-9400.615463,0.000000,-842.705048
2829.707282,-10510.924376,-1036.288319,-919.314598
2829.707619,-10955.047942,-1702.473667,-1149.143247
2829.707957,-10510.924376,-2812.782580,0.000000
2829.708294,-10140.821405,-2590.720797,842.705048
2829.708632,-8956.491898,-1702.473667,1378.971896
2829.708969,-9252.574275,-962.267725,2068.457845
2829.709306,-9992.780217,-296.082377,1915.238745
2829.709644,-10288.862594,148.041188,1762.019645
2829.709981,-10881.027347,222.061783,995.924147
2829.710319,-11399.171507,-148.041188,766.095498
2829.710656,-10362.883188,-444.123565,919.314598
2829.710993,-9252.574275,148.041188,1225.752797
2829.711331,-8512.368333,1184.329507,1762.019645
2829.711668,-8512.368333,1480.411884,1302.362347
2829.712006,-9400.615463,1184.329507,306.438199
2829.712343,-10214.842000,1702.473667,-306.438199
2829.712680,-10140.821405,518.144159,0.000000
2829.713018,-10362.883188,1554.432478,536.266849
2829.713355,-10288.862594,222.061783,383.047749
2829.713693,-9548.656652,962.267725,0.000000
2829.714030,-9326.594869,222.061783,-612.876398
2829.714367,-9696.697840,-444.123565,-1149.143247
2829.714705,-9400.615463,-1702.473667,-1378.971896
2829.715042,-9992.780217,-2368.659014,-1455.581446
2829.715380,-10066.800811,-2146.597232,-383.047749
2829.715717,-9770.718434,-1036.288319,-229.828649
2829.716054,-9770.718434,-814.226536,306.438199
2829.716392,-10140.821405,-148.041188,536.266849
2829.716729,-10807.006753,-518.144159,1149.143247
2829.717067,-11399.171507,-814.226536,536.266849
2829.717404,-11251.130318,-1332.370696,612.876398
2829.717741,-10732.986159,-1406.391290,1838.629195
2829.718079,-9770.718434,-814.226536,2298.286494
2829.718416,-9474.636058,0.000000,1838.629195
2829.718754,-10066.800811,518.144159,919.314598
2829.719091,-11177.109724,444.123565,0.000000
2829.719428,-10510.924376,148.041188,-1532.190996
2829.719766,-10732.986159,0.000000,-1225.752797
2829.720103,-9844.739029,-592.164754,-612.876398
2829.720441,-9400.615463,-1110.308913,-689.485948
2829.720778,-8438.347739,0.000000,306.438199
2829.721115,-8882.471304,592.164754,536.266849
2829.721453,-9474.636058,74.020594,0.000000
2829.721790,-10510.924376,-296.082377,-229.828649
2829.722128,-10955.047942,-1110.308913,1225.752797
2829.722465,-10436.903782,-148.041188,1072.533697
2829.722802,-9474.636058,74.020594,1608.800546
2829.723140,-9474.636058,444.123565,1455.581446
2829.723477,-9326.594869,0.000000,2068.457845
2829.723815,-9622.677246,370.102971,842.705048
2829.724152,-9992.780217,814.226536,612.876398
2829.724489,-10658.965565,370.102971,995.924147
2829.724827,-10140.821405,962.267725,2068.457845
2829.725164,-9770.718434,962.267725,1378.971896
2829.725502,-9696.697840,2442.679609,1455.581446
2829.725839,-10288.862594,2072.576638,689.485948
2829.726176,-10955.047942,888.247130,-306.438199
2829.726514,-10584.944971,74.020594,-1149.143247
2829.726851,-10362.883188,-962.267725,-842.705048
2829.727189,-9474.636058,-1628.453072,-306.438199
2829.727526,-8882.471304,-1406.391290,0.000000
2829.727863,-9474.636058,-962.267725,0.000000
2829.728201,-9770.718434,-518.144159,-919.314598
2829.728538,-10584.944971,-814.226536,-1991.848295
2829.728876,-11177.109724,-1850.514855,-2221.676944
2829.729213,-11103.089130,-2664.741391,-995.924147
2829.729550,-10510.924376,-2960.823768,-383.047749
2829.729888,-10066.800811,-1998.556043,0.000000
2829.730225,-9104.533087,-2368.659014,689.485948
2829.730563,-9474.636058,-1406.391290,383.047749
2829.730900,-10140.821405,-1184.329507,766.095498
2829.731237,-11103.089130,-962.267725,842.705048
2829.731575,-11399.171507,-666.185348,689.485948
2829.731912,-11325.150913,74.020594,1838.629195
2829.732250,-10510.924376,222.061783,2068.457845
2829.732587,-9400.615463,666.185348,1685.410096
2829.732924,-9844.739029,740.205942,1608.800546
2829.733262,-9992.780217,1110.308913,612.876398
2829.733599,-10362.883188,518.144159,-459.657299
2829.733937,-10288.862594,-666.185348,0.000000
2829.734274,-9548.656652,518.144159,-612.876398
2829.734611,-9474.636058,74.020594,76.609550
2829.734949,-9252.574275,962.267725,0.000000
2829.735286,-8586.388927,1332.370696,-612.876398
2829.735624,-10140.821405,518.144159,-612.876398
2829.735961,-10955.047942,-740.205942,-689.485948
2829.736298,-10214.842000,-1184.329507,459.657299
2829.736636,-9770.718434,-962.267725,1378.971896
2829.736973,-9252.574275,-296.082377,2068.457845
2829.737311,-9400.615463,370.102971,1608.800546
2829.737648,-10140.821405,0.000000,1532.190996
2829.737985,-10658.965565,222.061783,459.657299
2829.738323,-11029.068536,0.000000,-383.047749
2829.738660,-10881.027347,-444.123565,-383.047749
2829.738998,-10140.821405,-1332.370696,0.000000
2829.739335,-9030.512492,-962.267725,229.828649
2829.739672,-8660.409521,148.041188,995.924147
2829.740010,-9030.512492,0.000000,766.095498
2829.740347,-10584.944971,0.000000,459.657299
2829.740685,-11473.192101,296.082377,-306.438199
2829.741022,-10955.047942,-592.164754,-229.828649
2829.741359,-10288.862594,-518.144159,383.047749
2829.741697,-10140.821405,-740.205942,306.438199
2829.742034,-9770.718434,-814.226536,-459.657299
2829.742372,-9622.677246,-814.226536,-1149.143247
2829.742709,-9992.780217,-1110.308913,-1532.190996
2829.743046,-10510.924376,-2220.617826,-1378.971896
2829.743384,-10140.821405,-2294.638420,-919.314598
2829.743721,-10140.821405,-1702.473667,0.000000
2829.744059,-9622.677246,-666.185348,536.266849
2829.744396,-9474.636058,148.041188,689.485948
2829.744733,-10436.903782,444.123565,1838.629195
2829.745071,-10955.047942,370.102971,1225.752797
2829.745408,-10732.986159,592.164754,1225.752797
2829.745746,-11029.068536,0.000000,2068.457845
2829.746083,-9844.739029,740.205942,1991.848295
2829.746420,-8956.491898,962.267725,2145.067394
2829.746758,-8882.471304,1924.535449,2221.676944
2829.747095,-9474.636058,2516.700203,919.314598
2829.747433,-10807.006753,2590.720797,0.000000
2829.747770,-10436.903782,1850.514855,-1225.752797
2829.748107,-9548.656652,962.267725,-1149.143247
2829.748445,-9622.677246,814.226536,-612.876398
2829.748782,-9104.533087,0.000000,-306.438199
2829.749120,-8512.368333,444.123565,-459.657299
2829.749457,-8808.450710,296.082377,-689.485948
2829.749794,-9918.759623,148.041188,-1149.143247
2829.750132,-10140.821405,-1258.350101,-842.705048
2829.750469,-10732.986159,-1554.432478,-229.828649
2829.750807,-9770.718434,-2072.576638,842.705048
2829.751144,-9696.697840,-1332.370696,919.314598
2829.751481,-9548.656652,-1332.370696,1149.143247
2829.751819,-10066.800811,-2220.617826,919.314598
2829.752156,-10362.883188,-1702.473667,689.485948
2829.752494,-10584.944971,-1258.350101,0.000000
2829.752831,-10510.924376,-2146.597232,995.924147
2829.753168,-10362.883188,-1924.535449,689.485948
2829.753506,-9844.739029,-1332.370696,1455.581446
2829.753843,-9918.759623,-518.144159,1149.143247
2829.754181,-10140.821405,296.082377,459.657299
2829.754518,-11325.150913,-296.082377,76.609550
2829.754855,-11177.109724,-888.247130,-612.876398
2829.755193,-9844.739029,-1776.494261,-766.095498
2829.755530,-9548.656652,-1776.494261,995.924147
2829.755868,-9326.594869,-1184.329507,919.314598
