#time,accel_x,accel_y,accel_z
3318.435275,-11251.130318,-296.082377,2221.676944
3318.435613,-11399.171507,-518.144159,2451.505594
3318.435950,-8808.450710,-1184.329507,689.485948
3318.436288,-9178.553681,-1480.411884,1532.190996
3318.436626,-9548.656652,-2368.659014,2528.115143
3318.436963,-9252.574275,-2738.761985,1532.190996
3318.437301,-9548.656652,-2664.741391,1225.752797
3318.437639,-10436.903782,-2368.659014,1149.143247
3318.437976,-10362.883188,-1554.432478,383.047749
3318.438314,-10584.944971,-2294.638420,-153.219100
3318.438652,-9030.512492,-1628.453072,-459.657299
3318.438989,-8438.347739,-2294.638420,-612.876398
3318.439327,-10140.821405,-2146.597232,766.095498
3318.439665,-10584.944971,-2368.659014,459.657299
3318.440002,-10436.903782,-3627.009116,536.266849
3318.440340,-10140.821405,-2812.782580,1608.800546
3318.440678,-9918.759623,-2368.659014,3524.039291
3318.441015,-10807.006753,-2146.597232,4290.134789
3318.441353,-10214.842000,-1554.432478,3753.867940
3318.441691,-10436.903782,-740.205942,4136.915689
3318.442028,-11029.068536,0.000000,5209.449386
3318.442366,-11547.212695,0.000000,5745.716235
3318.442704,-11473.192101,-740.205942,5669.106685
3318.443041,-11103.089130,74.020594,3983.696590
3318.443379,-9844.739029,-296.082377,4366.744339
3318.443717,-10140.821405,-518.144159,3370.820191
3318.444054,-9178.553681,-1702.473667,2604.724693
3318.444392,-8734.430116,-1776.494261,2528.115143
3318.444730,-8512.368333,-2442.679609,1532.190996
3318.445067,-8660.409521,-2368.659014,1149.143247
3318.445405,-9104.533087,-2516.700203,1915.238745
3318.445743,-9030.512492,-2664.741391,1302.362347
3318.446080,-8734.430116,-3478.967927,1532.190996
3318.446418,-10140.821405,-3627.009116,3064.381992
3318.446756,-10288.862594,-3478.967927,3370.820191
3318.447093,-9918.759623,-3849.070898,2757.943793
3318.447431,-9548.656652,-3849.070898,3217.601092
3318.447769,-9844.739029,-5625.565159,3447.429741
3318.448106,-10881.027347,-5255.462188,4903.011187
3318.448444,-10658.965565,-5403.503377,4519.963438
3318.448782,-10881.027347,-3923.091493,3447.429741
3318.449119,-11251.130318,-2664.741391,1991.848295
3318.449457,-11695.253884,-2738.761985,536.266849
3318.449795,-10807.006753,-2664.741391,-229.828649
3318.450132,-9992.780217,-4071.132681,1378.971896
3318.450470,-9474.636058,-3552.988522,2528.115143
3318.450807,-9474.636058,-3478.967927,2374.896044
3318.451145,-10807.006753,-2886.803174,2068.457845
3318.451483,-10362.883188,-4367.215058,1302.362347
3318.451820,-10288.862594,-4811.338623,1915.238745
3318.452158,-10510.924376,-3923.091493,3064.381992
3318.452496,-10584.944971,-2294.638420,1762.019645
3318.452833,-9548.656652,-2368.659014,-919.314598
3318.453171,-9178.553681,-2812.782580,-1991.848295
3318.453509,-9844.739029,-4367.215058,0.000000
3318.453846,-9178.553681,-4145.153275,919.314598
3318.454184,-6883.915261,-3256.906145,995.924147
3318.454522,-7328.038826,-2738.761985,2911.162892
3318.454859,-10140.821405,-3330.926739,4136.915689
3318.455197,-11029.068536,-2738.761985,4903.011187
3318.455535,-10807.006753,-666.185348,4903.011187
3318.455872,-10362.883188,2072.576638,4366.744339
3318.456210,-11547.212695,2220.617826,3370.820191
3318.456548,-11843.295072,666.185348,2374.896044
3318.456885,-8364.327145,-370.102971,2757.943793
3318.457223,-8586.388927,-1110.308913,5745.716235
3318.457560,-10807.006753,-518.144159,5515.887586
3318.457898,-11473.192101,666.185348,1608.800546
3318.458235,-10288.862594,592.164754,-229.828649
3318.458573,-9252.574275,-666.185348,0.000000
3318.458910,-8956.491898,-962.267725,1455.581446
3318.459248,-8808.450710,-148.041188,2451.505594
3318.459585,-10584.944971,-962.267725,3217.601092
3318.459923,-11843.295072,-666.185348,2068.457845
3318.460260,-12213.398043,-2442.679609,153.219100
3318.460598,-10436.903782,-2368.659014,1608.800546
3318.460935,-9252.574275,-4441.235652,2681.334243
3318.461273,-9030.512492,-5551.544565,5209.449386
3318.461610,-9326.594869,-5181.441594,3370.820191
3318.461948,-9030.512492,-3849.070898,3524.039291
3318.462285,-9918.759623,-2368.659014,3447.429741
3318.462623,-11399.171507,-814.226536,2145.067394
3318.462960,-11843.295072,-1776.494261,1608.800546
3318.463298,-10658.965565,-1036.288319,2374.896044
3318.463635,-9474.636058,-1258.350101,3753.867940
3318.463973,-9548.656652,-148.041188,3140.991542
3318.464310,-11621.233289,-814.226536,2221.676944
3318.464648,-10436.903782,-1332.370696,1149.143247
3318.464986,-10066.800811,-2516.700203,2451.505594
3318.465323,-10066.800811,-3034.844362,3983.696590
3318.465661,-9696.697840,-370.102971,2681.334243
3318.465998,-9474.636058,1110.308913,229.828649
3318.466336,-10436.903782,1110.308913,-1608.800546
3318.466673,-9918.759623,-1998.556043,-1378.971896
3318.467011,-11843.295072,-1776.494261,1378.971896
3318.467348,-9104.533087,-888.247130,536.266849
3318.467686,-7846.182985,-740.205942,0.000000
3318.468023,-9104.533087,-2072.576638,306.438199
3318.468361,-9622.677246,-4367.215058,1762.019645
3318.468698,-9400.615463,-3923.091493,3524.039291
3318.469036,-8216.285956,-296.082377,2451.505594
3318.469373,-9252.574275,1184.329507,1838.629195
3318.469711,-12435.459826,592.164754,76.609550
3318.470048,-11843.295072,-2294.638420,306.438199
3318.470386,-10288.862594,-2664.741391,2298.286494
3318.470723,-7994.224174,-370.102971,2681.334243
3318.471061,-8734.430116,-444.123565,2298.286494
3318.471398,-12509.480420,-1776.494261,1532.190996
3318.471736,-11251.130318,-3923.091493,459.657299
3318.472073,-9252.574275,-2368.659014,1455.581446
3318.472411,-8734.430116,-518.144159,1225.752797
3318.472748,-9474.636058,-444.123565,-766.095498
3318.473086,-11695.253884,-2368.659014,-2298.286494
3318.473423,-11399.171507,-2960.823768,-3294.210641
3318.473761,-8438.347739,-2072.576638,-1149.143247
3318.474098,-9474.636058,-2442.679609,1225.752797
3318.474436,-12139.377449,-3775.050304,1532.190996
3318.474773,-12435.459826,-4959.379811,153.219100
3318.475111,-9844.739029,-3256.906145,0.000000
3318.475448,-7846.182985,-2812.782580,2068.457845
3318.475786,-9104.533087,-2812.782580,2451.505594
3318.476123,-11843.295072,-2960.823768,1762.019645
3318.476461,-10214.842000,-1480.411884,-842.705048
3318.476798,-9030.512492,148.041188,689.485948
3318.477136,-9992.780217,0.000000,2911.162892
3318.477473,-12361.439231,-1554.432478,2911.162892
3318.477811,-11473.192101,-1258.350101,1455.581446
3318.478148,-8734.430116,1628.453072,1072.533697
3318.478486,-7698.141797,2590.720797,2145.067394
3318.478823,-10436.903782,2220.617826,2298.286494
3318.479161,-11843.295072,814.226536,0.000000
3318.479499,-8956.491898,1406.391290,-2374.896044
3318.479836,-9770.718434,2294.638420,-229.828649
3318.480174,-9844.739029,1776.494261,1532.190996
3318.480511,-10362.883188,740.205942,-689.485948
3318.480849,-9252.574275,962.267725,-2834.553343
3318.481186,-8512.368333,2220.617826,-2298.286494
3318.481524,-8512.368333,1406.391290,-919.314598
3318.481861,-11177.109724,740.205942,842.705048
3318.482199,-10510.924376,-444.123565,-612.876398
3318.482536,-8660.409521,888.247130,-1455.581446
3318.482874,-9918.759623,296.082377,919.314598
3318.483211,-11843.295072,0.000000,2221.676944
3318.483549,-11843.295072,-1628.453072,995.924147
3318.483886,-8290.306550,-74.020594,-919.314598
3318.484224,-8438.347739,296.082377,306.438199
3318.484561,-11177.109724,-296.082377,1838.629195
3318.484899,-11547.212695,-1036.288319,0.000000
3318.485236,-9474.636058,-444.123565,-1838.629195
3318.485574,-8882.471304,0.000000,229.828649
3318.485911,-9770.718434,0.000000,1685.410096
3318.486249,-12139.377449,-1628.453072,1149.143247
3318.486586,-10510.924376,-1184.329507,-1225.752797
3318.486924,-8882.471304,-222.061783,-1762.019645
3318.487261,-9992.780217,0.000000,0.000000
3318.487599,-11769.274478,-518.144159,-842.705048
3318.487936,-11177.109724,-1554.432478,-1532.190996
3318.488274,-8956.491898,-1998.556043,-2298.286494
3318.488611,-8734.430116,-1554.432478,689.485948
3318.488949,-10732.986159,-2294.638420,2987.772442
3318.489286,-11843.295072,-2590.720797,1991.848295
3318.489624,-9400.615463,-1184.329507,153.219100
3318.489961,-9104.533087,0.000000,919.314598
3318.490299,-11029.068536,-148.041188,2757.943793
3318.490636,-11843.295072,-518.144159,1762.019645
3318.490974,-9622.677246,666.185348,383.047749
3318.491311,-8438.347739,1258.350101,1532.190996
3318.491649,-8882.471304,962.267725,2911.162892
3318.491986,-11917.315666,0.000000,3983.696590
3318.492324,-11103.089130,-444.123565,995.924147
3318.492661,-8068.244768,1406.391290,-766.095498
3318.492999,-8142.265362,1702.473667,153.219100
3318.493336,-9548.656652,1480.411884,919.314598
3318.493674,-10436.903782,518.144159,-766.095498
3318.494011,-7920.203579,370.102971,-2068.457845
3318.494349,-8364.327145,1036.288319,-842.705048
3318.494687,-11695.253884,-740.205942,1608.800546
3318.495024,-12879.583391,-1924.535449,229.828649
3318.495362,-9252.574275,-1702.473667,-2451.505594
3318.495699,-8142.265362,-1554.432478,-1225.752797
3318.496037,-9104.533087,-1924.535449,-229.828649
3318.496374,-11547.212695,-3108.864956,-689.485948
3318.496712,-10140.821405,-3034.844362,-1991.848295
3318.497049,-8660.409521,-2664.741391,-1838.629195
3318.497387,-9696.697840,-2220.617826,995.924147
3318.497724,-12805.562797,-2664.741391,2145.067394
3318.498062,-11917.315666,-2294.638420,459.657299
3318.498399,-9252.574275,-1258.350101,-766.095498
3318.498737,-9030.512492,-592.164754,1149.143247
3318.499074,-11547.212695,-1258.350101,2298.286494
3318.499412,-12287.418637,-2368.659014,919.314598
3318.499749,-9326.594869,-1036.288319,-1225.752797
3318.500087,-7846.182985,-962.267725,536.266849
3318.500424,-10066.800811,-1554.432478,3600.648841
3318.500762,-11621.233289,-1258.350101,2068.457845
3318.501099,-10066.800811,-666.185348,-1532.190996
3318.501437,-8512.368333,814.226536,-1685.410096
3318.501774,-9622.677246,148.041188,-612.876398
3318.502112,-11029.068536,0.000000,-306.438199
3318.502449,-9844.739029,-962.267725,-1302.362347
3318.502787,-7772.162391,-370.102971,-1149.143247
3318.503124,-8364.327145,0.000000,1455.581446
3318.503462,-11251.130318,-666.185348,2757.943793
3318.503799,-11843.295072,-740.205942,2374.896044
3318.504137,-9252.574275,592.164754,1225.752797
3318.504474,-9400.615463,1998.556043,1072.533697
3318.504812,-11325.150913,1702.473667,2145.067394
3318.505149,-11843.295072,1258.350101,1225.752797
3318.505487,-8808.450710,2146.597232,-383.047749
3318.505824,-7920.203579,2146.597232,842.705048
3318.506162,-9696.697840,1924.535449,1532.190996
3318.506499,-12435.459826,518.144159,1915.238745
3318.506837,-10881.027347,814.226536,-689.485948
3318.507174,-8290.306550,1850.514855,-2451.505594
3318.507512,-8808.450710,1998.556043,0.000000
3318.507849,-11695.253884,0.000000,0.000000
3318.508187,-10214.842000,-1258.350101,-2221.676944
3318.508524,-7476.080014,0.000000,-2757.943793
3318.508862,-8216.285956,-888.247130,-383.047749
3318.509200,-11473.192101,-1924.535449,995.924147
3318.509537,-12953.603985,-3478.967927,-842.705048
3318.509875,-9992.780217,-1554.432478,-2757.943793
3318.510212,-7846.182985,-1554.432478,-1455.581446
3318.510550,-10214.842000,-1332.370696,153.219100
3318.510887,-12213.398043,-2368.659014,76.609550
3318.511225,-9992.780217,-2368.659014,-1915.238745
3318.511562,-8216.285956,-1332.370696,-306.438199
3318.511900,-10510.924376,-1480.411884,3140.991542
3318.512237,-13841.851115,-1702.473667,4290.134789
3318.512575,-11843.295072,-1036.288319,1225.752797
3318.512912,-9326.594869,296.082377,536.266849
3318.513250,-8882.471304,2146.597232,1915.238745
3318.513587,-11991.336260,148.041188,2911.162892
3318.513925,-11399.171507,0.000000,1455.581446
3318.514262,-8216.285956,1628.453072,-1608.800546
3318.514600,-8364.327145,1184.329507,1302.362347
3318.514937,-10732.986159,148.041188,2145.067394
3318.515275,-11399.171507,-296.082377,1455.581446
3318.515612,-8882.471304,888.247130,-536.266849
3318.515950,-7105.977043,1480.411884,-1685.410096
3318.516287,-8660.409521,1406.391290,-689.485948
3318.516625,-11547.212695,444.123565,-459.657299
3318.516962,-9474.636058,0.000000,-1685.410096
3318.517300,-7105.977043,222.061783,-1532.190996
3318.517637,-8438.347739,74.020594,2298.286494
3318.517975,-11473.192101,-1554.432478,3447.429741
3318.518312,-11843.295072,-2368.659014,1915.238745
3318.518650,-8808.450710,0.000000,76.609550
3318.518987,-8882.471304,0.000000,766.095498
3318.519325,-11843.295072,-592.164754,2145.067394
3318.519662,-12509.480420,-888.247130,306.438199
3318.520000,-8586.388927,-148.041188,-1608.800546
3318.520337,-7698.141797,-296.082377,76.609550
3318.520675,-10658.965565,-814.226536,2528.115143
3318.521012,-13323.706956,-1480.411884,1762.019645
3318.521350,-10288.862594,-1628.453072,-1225.752797
3318.521687,-8956.491898,-518.144159,-1762.019645
3318.522025,-10140.821405,-592.164754,306.438199
3318.522362,-12139.377449,-2072.576638,459.657299
3318.522700,-10362.883188,-3034.844362,-1532.190996
3318.523037,-8068.244768,-2146.597232,-1838.629195
3318.523375,-8438.347739,-1480.411884,766.095498
3318.523713,-12879.583391,-3849.070898,2221.676944
3318.524050,-12139.377449,-3627.009116,76.609550
3318.524388,-8068.244768,-1406.391290,-1915.238745
3318.524725,-8068.244768,-518.144159,76.609550
3318.525063,-10584.944971,-814.226536,919.314598
3318.525400,-11621.233289,-1110.308913,229.828649
3318.525738,-9474.636058,-148.041188,-459.657299
3318.526075,-7772.162391,518.144159,995.924147
3318.526413,-10955.047942,666.185348,4366.744339
3318.526750,-13027.624579,-296.082377,4749.792088
3318.527088,-10140.821405,962.267725,2068.457845
3318.527425,-7920.203579,2590.720797,1378.971896
3318.527763,-9326.594869,3108.864956,1685.410096
3318.528100,-11769.274478,2442.679609,842.705048
3318.528438,-10658.965565,1702.473667,-2221.676944
3318.528775,-7105.977043,2442.679609,-1838.629195
3318.529113,-7402.059420,2294.638420,612.876398
3318.529450,-10955.047942,296.082377,2451.505594
3318.529788,-11917.315666,444.123565,-229.828649
3318.530125,-9400.615463,1184.329507,-1991.848295
3318.530463,-8734.430116,1110.308913,-1378.971896
3318.530800,-10362.883188,0.000000,1149.143247
3318.531138,-11695.253884,-962.267725,459.657299
3318.531475,-8956.491898,-888.247130,-1991.848295
3318.531813,-7328.038826,-592.164754,-1302.362347
3318.532150,-9400.615463,-1406.391290,2451.505594
3318.532488,-13545.768739,-2294.638420,2987.772442
3318.532825,-11399.171507,-2146.597232,306.438199
3318.533163,-8586.388927,0.000000,-995.924147
3318.533500,-9918.759623,222.061783,1378.971896
3318.533838,-12805.562797,-888.247130,1838.629195
3318.534175,-10658.965565,-1258.350101,-306.438199
3318.534513,-8142.265362,-222.061783,153.219100
3318.534850,-8512.368333,-370.102971,2451.505594
3318.535188,-12287.418637,-740.205942,2911.162892
3318.535525,-13249.686362,-1184.329507,1378.971896
3318.535863,-9178.553681,148.041188,-1302.362347
3318.536200,-7624.121203,222.061783,-766.095498
3318.536538,-10140.821405,666.185348,383.047749
3318.536875,-11769.274478,222.061783,-689.485948
3318.537213,-9104.533087,74.020594,-2987.772442
3318.537550,-7476.080014,444.123565,-1991.848295
3318.537888,-9474.636058,148.041188,842.705048
3318.538226,-12583.501014,-444.123565,2451.505594
3318.538563,-10732.986159,-666.185348,-229.828649
3318.538901,-8438.347739,1702.473667,0.000000
3318.539238,-9474.636058,1628.453072,995.924147
3318.539576,-11769.274478,0.000000,1532.190996
3318.539913,-10732.986159,148.041188,0.000000
3318.540251,-8290.306550,1406.391290,-383.047749
3318.540588,-7254.018232,2220.617826,1225.752797
3318.540926,-10510.924376,962.267725,2834.553343
3318.541263,-12361.439231,962.267725,2528.115143
3318.541601,-9178.553681,740.205942,-919.314598
3318.541938,-8586.388927,2442.679609,-612.876398
3318.542276,-10214.842000,2442.679609,383.047749
3318.542613,-12139.377449,518.144159,-306.438199
3318.542951,-9400.615463,-888.247130,-2374.896044
3318.543288,-6661.853478,296.082377,-2068.457845
3318.543626,-8586.388927,-1110.308913,1378.971896
3318.543963,-11991.336260,-2072.576638,1608.800546
3318.544301,-11695.253884,-2368.659014,-1225.752797
3318.544638,-9770.718434,-1184.329507,-2068.457845
3318.544976,-9326.594869,-1628.453072,-459.657299
3318.545313,-11103.089130,-2442.679609,842.705048
3318.545651,-11917.315666,-2664.741391,153.219100
3318.545988,-9252.574275,-1850.514855,-1608.800546
3318.546326,-9474.636058,-2072.576638,76.609550
3318.546663,-11029.068536,-2590.720797,2834.553343
3318.547001,-12731.542202,-2812.782580,2757.943793
3318.547338,-11103.089130,-2220.617826,919.314598
3318.547676,-8956.491898,-814.226536,536.266849
3318.548013,-10288.862594,0.000000,3064.381992
3318.548351,-12213.398043,-740.205942,3524.039291
3318.548688,-9696.697840,-814.226536,919.314598
3318.549026,-7772.162391,296.082377,766.095498
3318.549363,-8956.491898,1184.329507,2911.162892
3318.549701,-11917.315666,148.041188,3140.991542
3318.550038,-11547.212695,0.000000,995.924147
3318.550376,-8142.265362,1406.391290,-1072.533697
3318.550713,-7994.224174,2294.638420,-766.095498
3318.551051,-9844.739029,1480.411884,306.438199
3318.551388,-11399.171507,888.247130,-766.095498
3318.551726,-8142.265362,1110.308913,-2987.772442
3318.552063,-7179.997637,740.205942,-1225.752797
3318.552401,-9474.636058,0.000000,2145.067394
3318.552739,-11621.233289,-222.061783,1991.848295
3318.553076,-9844.739029,1332.370696,-459.657299
3318.553414,-9400.615463,1258.350101,-689.485948
3318.553751,-9844.739029,1480.411884,919.314598
3318.554089,-12731.542202,-148.041188,1378.971896
3318.554426,-11251.130318,74.020594,-612.876398
3318.554764,-7698.141797,666.185348,-1072.533697
3318.555101,-8364.327145,222.061783,1455.581446
3318.555439,-11769.274478,-1110.308913,3140.991542
3318.555776,-12213.398043,-740.205942,1455.581446
3318.556114,-9696.697840,222.061783,-766.095498
3318.556451,-9548.656652,814.226536,-612.876398
3318.556789,-10436.903782,74.020594,689.485948
3318.557126,-11325.150913,-814.226536,-689.485948
3318.557464,-8660.409521,-370.102971,-2681.334243
3318.557801,-7846.182985,-666.185348,-1915.238745
3318.558139,-10362.883188,-962.267725,0.000000
3318.558476,-12139.377449,-2146.597232,-153.219100
3318.558814,-10584.944971,-2368.659014,-1915.238745
3318.559151,-9252.574275,-1480.411884,-1225.752797
3318.559489,-9326.594869,-740.205942,-612.876398
3318.559826,-11325.150913,-1110.308913,0.000000
3318.560163,-10732.986159,-814.226536,-229.828649
3318.560501,-8586.388927,-296.082377,-1838.629195
3318.560838,-8808.450710,-370.102971,1302.362347
3318.561176,-11621.233289,-592.164754,3064.381992
3318.561513,-12065.356855,-148.041188,2068.457845
3318.561851,-9548.656652,1258.350101,459.657299
3318.562188,-8956.491898,1332.370696,1532.190996
3318.562526,-10362.883188,1110.308913,2681.334243
3318.562863,-11177.109724,814.226536,2068.457845
3318.563201,-9252.574275,1702.473667,153.219100
3318.563538,-7624.121203,1258.350101,1072.533697
3318.563876,-8956.491898,1776.494261,2221.676944
3318.564213,-11621.233289,888.247130,1838.629195
3318.564551,-10732.986159,518.144159,0.000000
3318.564888,-8364.327145,1332.370696,-1532.190996
3318.565225,-8882.471304,1036.288319,-1225.752797
3318.565563,-10436.903782,592.164754,0.000000
3318.565900,-10732.986159,-1110.308913,-1685.410096
3318.566238,-8364.327145,-1036.288319,-2145.067394
3318.566575,-7846.182985,-962.267725,-1225.752797
3318.566913,-10584.944971,-1258.350101,1608.800546
3318.567250,-11917.315666,-2294.638420,1225.752797
3318.567588,-9696.697840,-1776.494261,-766.095498
3318.567925,-9326.594869,-962.267725,153.219100
3318.568263,-10807.006753,-814.226536,1915.238745
3318.568600,-12361.439231,-814.226536,1685.410096
3318.568938,-10436.903782,-1036.288319,-842.705048
3318.569275,-8586.388927,-74.020594,-383.047749
3318.569613,-9474.636058,0.000000,2221.676944
3318.569950,-12953.603985,-814.226536,2068.457845
3318.570288,-11769.274478,-1998.556043,-306.438199
3318.570625,-8808.450710,-518.144159,-2068.457845
3318.570962,-9474.636058,518.144159,383.047749
3318.571300,-11399.171507,-666.185348,153.219100
3318.571637,-10881.027347,-1184.329507,-1608.800546
3318.571975,-8660.409521,-444.123565,-2834.553343
3318.572312,-8734.430116,-222.061783,-1225.752797
3318.572650,-9918.759623,-518.144159,459.657299
3318.572987,-12139.377449,-2146.597232,1072.533697
3318.573325,-9696.697840,-370.102971,-1225.752797
3318.573662,-8882.471304,0.000000,-995.924147
3318.574000,-9400.615463,444.123565,1762.019645
3318.574337,-11325.150913,666.185348,1455.581446
3318.574675,-10140.821405,0.000000,-459.657299
3318.575012,-7698.141797,1184.329507,-536.266849
3318.575350,-8660.409521,814.226536,1762.019645
3318.575687,-12065.356855,370.102971,4519.963438
3318.576024,-11547.212695,518.144159,2681.334243
3318.576362,-8586.388927,2220.617826,459.657299
3318.576699,-8808.450710,3404.947333,1532.190996
3318.577037,-10881.027347,1850.514855,2068.457845
3318.577374,-11769.274478,1480.411884,0.000000
3318.577712,-8956.491898,592.164754,-1838.629195
3318.578049,-7772.162391,1480.411884,383.047749
3318.578387,-9770.718434,148.041188,1302.362347
3318.578724,-12435.459826,-740.205942,1225.752797
3318.579062,-10214.842000,-888.247130,-1762.019645
3318.579399,-7846.182985,-592.164754,-2221.676944
3318.579737,-8882.471304,888.247130,-229.828649
3318.580074,-11991.336260,-1702.473667,-383.047749
3318.580412,-11029.068536,-2294.638420,-2451.505594
3318.580749,-8438.347739,-2220.617826,-2374.896044
3318.581087,-8734.430116,-1776.494261,1072.533697
3318.581424,-11251.130318,-2442.679609,3064.381992
3318.581761,-11843.295072,-2812.782580,1072.533697
3318.582099,-9252.574275,-1702.473667,-689.485948
3318.582436,-9178.553681,-962.267725,-459.657299
3318.582774,-11991.336260,-518.144159,1762.019645
3318.583111,-12805.562797,-1924.535449,919.314598
3318.583449,-8882.471304,-814.226536,-842.705048
3318.583786,-7179.997637,0.000000,612.876398
3318.584124,-9400.615463,74.020594,3677.258390
3318.584461,-12657.521608,0.000000,2911.162892
3318.584799,-11695.253884,-222.061783,0.000000
3318.585136,-9474.636058,888.247130,-1455.581446
3318.585474,-9030.512492,2072.576638,0.000000
3318.585811,-11695.253884,518.144159,1225.752797
3318.586149,-10955.047942,222.061783,-1685.410096
3318.586486,-7328.038826,592.164754,-3677.258390
3318.586823,-7179.997637,1110.308913,-919.314598
3318.587161,-10658.965565,-592.164754,459.657299
3318.587498,-12065.356855,-1332.370696,0.000000
3318.587836,-9474.636058,148.041188,-842.705048
3318.588173,-7698.141797,888.247130,0.000000
3318.588511,-10214.842000,814.226536,1532.190996
3318.588848,-12139.377449,-1184.329507,1378.971896
3318.589186,-9474.636058,-518.144159,0.000000
3318.589523,-8438.347739,-74.020594,1149.143247
3318.589861,-9770.718434,1110.308913,3447.429741
3318.590198,-13027.624579,-814.226536,2757.943793
3318.590536,-11325.150913,-1036.288319,-383.047749
3318.590873,-7328.038826,-296.082377,-1455.581446
3318.591211,-7846.182985,370.102971,306.438199
3318.591548,-10955.047942,-1036.288319,1685.410096
3318.591886,-12139.377449,-1850.514855,459.657299
3318.592223,-9030.512492,-592.164754,-1685.410096
3318.592560,-7772.162391,-222.061783,-612.876398
3318.592898,-11325.150913,-1480.411884,2145.067394
3318.593235,-13027.624579,-1924.535449,612.876398
3318.593573,-10140.821405,-2220.617826,-1608.800546
3318.593910,-8364.327145,-1406.391290,-1455.581446
3318.594248,-9548.656652,-1332.370696,306.438199
3318.594585,-12953.603985,-1628.453072,612.876398
3318.594923,-11177.109724,-1998.556043,-2528.115143
3318.595260,-7698.141797,-518.144159,-2757.943793
3318.595598,-9252.574275,-444.123565,229.828649
3318.595935,-12287.418637,-1776.494261,1762.019645
3318.596273,-11029.068536,-1776.494261,536.266849
3318.596610,-9178.553681,0.000000,229.828649
3318.596948,-9104.533087,1776.494261,1915.238745
3318.597285,-11547.212695,888.247130,2451.505594
3318.597622,-12657.521608,962.267725,995.924147
3318.597960,-8290.306550,962.267725,-306.438199
3318.598297,-7698.141797,1702.473667,1378.971896
3318.598635,-10066.800811,2072.576638,3907.087040
3318.598972,-12139.377449,1258.350101,1685.410096
3318.599310,-8882.471304,2294.638420,-1991.848295
3318.599647,-7328.038826,2368.659014,-2145.067394
3318.599985,-8956.491898,2590.720797,-689.485948
3318.600322,-11621.233289,222.061783,-306.438199
3318.600660,-9252.574275,666.185348,-2681.334243
3318.600997,-7254.018232,814.226536,-2298.286494
3318.601335,-8290.306550,222.061783,689.485948
3318.601672,-11843.295072,-740.205942,1149.143247
3318.602010,-12361.439231,-1776.494261,383.047749
3318.602347,-9770.718434,-814.226536,-689.485948
3318.602685,-8512.368333,-592.164754,306.438199
3318.603022,-10955.047942,-1480.411884,1685.410096
3318.603359,-11621.233289,-1406.391290,306.438199
3318.603697,-9918.759623,-2294.638420,-919.314598
3318.604034,-8882.471304,-740.205942,76.609550
3318.604372,-10881.027347,-518.144159,2298.286494
3318.604709,-13915.871710,-1110.308913,2834.553343
3318.605047,-10732.986159,-1480.411884,-229.828649
3318.605384,-8586.388927,-962.267725,-153.219100
3318.605722,-9622.677246,74.020594,1608.800546
3318.606059,-11547.212695,-1480.411884,1149.143247
3318.606397,-10955.047942,-1628.453072,-612.876398
3318.606734,-8364.327145,-1702.473667,-995.924147
3318.607072,-8364.327145,-814.226536,0.000000
3318.607409,-11621.233289,-1776.494261,1685.410096
3318.607747,-11843.295072,-1776.494261,0.000000
3318.608084,-8438.347739,-444.123565,-2145.067394
3318.608421,-8438.347739,-592.164754,-1378.971896
3318.608759,-10214.842000,-444.123565,536.266849
3318.609096,-11621.233289,-1554.432478,0.000000
3318.609434,-9474.636058,-1110.308913,-1225.752797
3318.609771,-7550.100608,-592.164754,76.609550
3318.610109,-9178.553681,0.000000,2911.162892
3318.610446,-12509.480420,-1036.288319,3294.210641
3318.610784,-10881.027347,-592.164754,1149.143247
3318.611121,-8364.327145,1332.370696,995.924147
3318.611459,-9474.636058,2294.638420,1915.238745
3318.611796,-11843.295072,1554.432478,2068.457845
3318.612134,-10807.006753,592.164754,153.219100
3318.612471,-8512.368333,1406.391290,-766.095498
3318.612809,-8364.327145,1332.370696,76.609550
3318.613146,-11325.150913,1184.329507,1685.410096
3318.613484,-11843.295072,-370.102971,306.438199
3318.613821,-9178.553681,-148.041188,-2068.457845
3318.614158,-7772.162391,74.020594,-1762.019645
3318.614496,-9770.718434,0.000000,0.000000
3318.614833,-11843.295072,-1850.514855,0.000000
3318.615171,-8882.471304,-2368.659014,-3524.039291
3318.615508,-7550.100608,-1924.535449,-1532.190996
3318.615846,-9918.759623,-1332.370696,842.705048
3318.616183,-12139.377449,-2738.761985,1532.190996
3318.616521,-11621.233289,-2738.761985,-689.485948
3318.616858,-9326.594869,-1776.494261,-1302.362347
3318.617196,-9474.636058,-1702.473667,459.657299
3318.617533,-11769.274478,-2072.576638,1915.238745
3318.617871,-11547.212695,-2442.679609,612.876398
3318.618208,-8290.306550,-1184.329507,0.000000
3318.618546,-9474.636058,-1110.308913,1838.629195
3318.618883,-11399.171507,-888.247130,2528.115143
3318.619220,-12805.562797,-1036.288319,2374.896044
3318.619558,-9622.677246,518.144159,459.657299
3318.619895,-8290.306550,1702.473667,306.438199
3318.620233,-11177.109724,1702.473667,2221.676944
3318.620570,-12657.521608,370.102971,919.314598
3318.620908,-9474.636058,74.020594,-1532.190996
3318.621245,-7698.141797,1332.370696,-1072.533697
3318.621583,-8956.491898,1036.288319,689.485948
3318.621920,-12361.439231,518.144159,1225.752797
3318.622258,-10510.924376,592.164754,-1455.581446
3318.622595,-7254.018232,1998.556043,-1991.848295
3318.622933,-8216.285956,1184.329507,-689.485948
3318.623270,-10807.006753,1258.350101,-153.219100
3318.623608,-10732.986159,74.020594,-689.485948
3318.623945,-7550.100608,518.144159,-1225.752797
3318.624283,-8068.244768,518.144159,1532.190996
3318.624620,-10881.027347,0.000000,2987.772442
3318.624957,-11695.253884,-370.102971,2068.457845
3318.625295,-10288.862594,-222.061783,0.000000
3318.625632,-8734.430116,370.102971,612.876398
3318.625970,-9252.574275,1110.308913,1378.971896
3318.626307,-11991.336260,-370.102971,1532.190996
3318.626645,-10066.800811,-1110.308913,-1838.629195
3318.626982,-7772.162391,-370.102971,-1302.362347
3318.627320,-9474.636058,-740.205942,995.924147
3318.627657,-12139.377449,-962.267725,1149.143247
3318.627995,-11399.171507,-1480.411884,-995.924147
3318.628332,-9548.656652,-1110.308913,-2451.505594
3318.628670,-9844.739029,-666.185348,-1915.238745
3318.629007,-11325.150913,-1480.411884,-689.485948
3318.629345,-11843.295072,-2960.823768,-1762.019645
3318.629682,-8734.430116,-2960.823768,-1608.800546
3318.630019,-8290.306550,-2442.679609,0.000000
3318.630357,-10658.965565,-1924.535449,2374.896044
3318.630694,-12583.501014,-2664.741391,1915.238745
3318.631032,-10732.986159,-1776.494261,-919.314598
3318.631369,-9252.574275,-444.123565,-919.314598
3318.631707,-9400.615463,-370.102971,842.705048
3318.632044,-11547.212695,0.000000,1915.238745
3318.632382,-10658.965565,-666.185348,612.876398
3318.632719,-8290.306550,-370.102971,459.657299
3318.633057,-8290.306550,1036.288319,2298.286494
3318.633394,-11399.171507,222.061783,3830.477490
3318.633732,-11843.295072,296.082377,1608.800546
3318.634069,-8956.491898,1110.308913,-995.924147
3318.634407,-8808.450710,2368.659014,76.609550
3318.634744,-10214.842000,1776.494261,153.219100
3318.635082,-10881.027347,592.164754,-612.876398
3318.635419,-8364.327145,962.267725,-919.314598
3318.635756,-7846.182985,518.144159,0.000000
3318.636094,-10288.862594,814.226536,1838.629195
3318.636431,-12953.603985,0.000000,1762.019645
3318.636769,-10510.924376,-444.123565,-995.924147
3318.637106,-8808.450710,-296.082377,-1991.848295
3318.637444,-9104.533087,444.123565,-76.609550
3318.637781,-11029.068536,-1184.329507,0.000000
3318.638119,-10807.006753,-2294.638420,-919.314598
3318.638456,-8142.265362,-1776.494261,-1072.533697
3318.638794,-8586.388927,-1332.370696,1149.143247
3318.639131,-11769.274478,-1406.391290,3447.429741
3318.639469,-12583.501014,-2664.741391,1915.238745
3318.639806,-9918.759623,-666.185348,-612.876398
3318.640144,-8586.388927,0.000000,383.047749
3318.640481,-10362.883188,-148.041188,842.705048
3318.640818,-11917.315666,-888.247130,1225.752797
3318.641156,-10140.821405,-1258.350101,-1378.971896
3318.641493,-8956.491898,-444.123565,-1072.533697
3318.641831,-9474.636058,-444.123565,689.485948
3318.642168,-12065.356855,-740.205942,1685.410096
3318.642506,-11325.150913,-1480.411884,-1225.752797
3318.642843,-8586.388927,0.000000,-2604.724693
3318.643181,-8660.409521,740.205942,-1685.410096
3318.643518,-10362.883188,-1036.288319,76.609550
3318.643856,-10881.027347,-1554.432478,-1149.143247
3318.644193,-8142.265362,-962.267725,-1915.238745
3318.644531,-9400.615463,74.020594,1149.143247
3318.644868,-11547.212695,222.061783,2145.067394
3318.645206,-12583.501014,-740.205942,1455.581446
3318.645543,-9252.574275,592.164754,0.000000
3318.645881,-8290.306550,1184.329507,766.095498
3318.646218,-9178.553681,1554.432478,2221.676944
3318.646555,-11695.253884,592.164754,2068.457845
3318.646893,-9770.718434,592.164754,612.876398
3318.647230,-8364.327145,1924.535449,919.314598
3318.647568,-9252.574275,2220.617826,2374.896044
3318.647905,-11769.274478,1332.370696,3064.381992
3318.648243,-11177.109724,592.164754,536.266849
3318.648580,-8660.409521,2294.638420,-995.924147
3318.648918,-8956.491898,1406.391290,-612.876398
3318.649255,-11103.089130,740.205942,-612.876398
3318.649593,-9918.759623,-1110.308913,-2451.505594
3318.649930,-8512.368333,-296.082377,-2528.115143
3318.650268,-7550.100608,-888.247130,-229.828649
3318.650605,-9548.656652,-1850.514855,383.047749
3318.650943,-12361.439231,-2960.823768,612.876398
3318.651280,-10658.965565,-3108.864956,-1072.533697
3318.651617,-8438.347739,-1554.432478,-1685.410096
3318.651955,-9474.636058,-1110.308913,383.047749
3318.652292,-12731.542202,-2368.659014,689.485948
3318.652630,-10066.800811,-3330.926739,-1838.629195
3318.652967,-7772.162391,-2886.803174,-459.657299
3318.653305,-9474.636058,-740.205942,2298.286494
3318.653642,-12953.603985,-2072.576638,2987.772442
3318.653980,-12509.480420,-2886.803174,1378.971896
3318.654317,-10214.842000,-444.123565,-689.485948
3318.654655,-8734.430116,962.267725,919.314598
3318.654992,-10584.944971,518.144159,1455.581446
3318.655330,-11547.212695,-592.164754,0.000000
3318.655667,-9104.533087,0.000000,-1072.533697
3318.656005,-8364.327145,740.205942,536.266849
3318.656342,-10288.862594,370.102971,2681.334243
3318.656679,-12805.562797,-296.082377,1608.800546
3318.657017,-10881.027347,148.041188,-1378.971896
3318.657354,-7624.121203,1184.329507,-2451.505594
3318.657692,-8068.244768,1776.494261,-689.485948
3318.658029,-11177.109724,222.061783,1072.533697
3318.658366,-10288.862594,-444.123565,-1455.581446
3318.658704,-7698.141797,814.226536,-1072.533697
3318.659041,-8290.306550,1036.288319,1302.362347
3318.659379,-10658.965565,-370.102971,3294.210641
3318.659716,-11843.295072,-814.226536,2068.457845
3318.660053,-9252.574275,0.000000,842.705048
3318.660391,-8068.244768,1998.556043,1225.752797
3318.660728,-10436.903782,888.247130,2221.676944
3318.661066,-12805.562797,444.123565,1455.581446
3318.661403,-9252.574275,740.205942,-1455.581446
3318.661740,-7846.182985,740.205942,-536.266849
3318.662078,-9844.739029,444.123565,2145.067394
3318.662415,-11991.336260,-1480.411884,919.314598
3318.662753,-10066.800811,-740.205942,-1378.971896
3318.663090,-8512.368333,0.000000,-1762.019645
3318.663427,-9252.574275,740.205942,-689.485948
3318.663765,-12287.418637,-962.267725,-612.876398
3318.664102,-12139.377449,-2294.638420,-1762.019645
3318.664440,-7994.224174,-1850.514855,-2221.676944
3318.664777,-8586.388927,-2368.659014,995.924147
3318.665114,-11769.274478,-3034.844362,2757.943793
3318.665452,-12583.501014,-3404.947333,995.924147
3318.665789,-9474.636058,-2072.576638,-1455.581446
3318.666127,-8808.450710,-1332.370696,-1072.533697
3318.666464,-10288.862594,-1480.411884,229.828649
3318.666801,-12287.418637,-1776.494261,0.000000
3318.667139,-9474.636058,-1332.370696,-1838.629195
3318.667476,-7254.018232,-592.164754,689.485948
3318.667814,-9770.718434,148.041188,4519.963438
3318.668151,-11843.295072,-370.102971,5132.839837
3318.668489,-11621.233289,74.020594,2145.067394
3318.668826,-10140.821405,1924.535449,1149.143247
3318.669163,-9622.677246,3182.885551,919.314598
3318.669501,-11473.192101,1702.473667,1072.533697
3318.669838,-10510.924376,1628.453072,-1378.971896
3318.670176,-7105.977043,1332.370696,-1838.629195
3318.670513,-7920.203579,2442.679609,306.438199
3318.670850,-10584.944971,1332.370696,2145.067394
3318.671188,-11917.315666,0.000000,459.657299
3318.671525,-8956.491898,740.205942,-2604.724693
3318.671863,-8438.347739,1406.391290,-919.314598
3318.672200,-10288.862594,888.247130,1302.362347
3318.672537,-11843.295072,-296.082377,-153.219100
3318.672875,-9400.615463,-1110.308913,-2068.457845
3318.673212,-6587.832884,-592.164754,-1225.752797
3318.673550,-7846.182985,-1036.288319,2298.286494
3318.673887,-11991.336260,-2072.576638,3370.820191
3318.674224,-11917.315666,-3034.844362,612.876398
3318.674562,-9474.636058,-666.185348,459.657299
3318.674899,-8808.450710,-148.041188,1532.190996
3318.675237,-10807.006753,74.020594,1149.143247
3318.675574,-11103.089130,-888.247130,0.000000
3318.675911,-9474.636058,-444.123565,-1455.581446
3318.676249,-9474.636058,-592.164754,919.314598
3318.676586,-12139.377449,-962.267725,3753.867940
3318.676924,-13619.789333,-1332.370696,2757.943793
3318.677261,-10658.965565,-1406.391290,-919.314598
3318.677598,-9252.574275,370.102971,-1455.581446
3318.677936,-9696.697840,0.000000,-612.876398
3318.678273,-11473.192101,-740.205942,-919.314598
3318.678611,-10436.903782,-1628.453072,-2528.115143
3318.678948,-8660.409521,-888.247130,-1991.848295
3318.679285,-8808.450710,-148.041188,689.485948
3318.679623,-11547.212695,-1850.514855,2374.896044
3318.679960,-11547.212695,-1480.411884,919.314598
3318.680298,-8068.244768,-444.123565,-612.876398
3318.680635,-7846.182985,888.247130,612.876398
3318.680973,-10955.047942,-592.164754,1532.190996
3318.681310,-11251.130318,-592.164754,1225.752797
3318.681647,-8364.327145,814.226536,229.828649
3318.681985,-8512.368333,1406.391290,2681.334243
3318.682322,-9992.780217,1110.308913,3524.039291
3318.682660,-11991.336260,444.123565,2145.067394
3318.682997,-10362.883188,1258.350101,-153.219100
3318.683334,-7846.182985,3330.926739,-612.876398
3318.683672,-9622.677246,2368.659014,612.876398
3318.684009,-11917.315666,1628.453072,-229.828649
3318.684347,-10807.006753,1184.329507,-1915.238745
3318.684684,-9030.512492,1998.556043,-1072.533697
3318.685021,-9104.533087,1184.329507,-536.266849
3318.685359,-11695.253884,-592.164754,459.657299
3318.685696,-11695.253884,-1702.473667,0.000000
3318.686034,-8586.388927,-888.247130,-1302.362347
3318.686371,-8512.368333,-222.061783,-612.876398
3318.686708,-11029.068536,-1258.350101,153.219100
3318.687046,-11695.253884,-1480.411884,-1149.143247
3318.687383,-8660.409521,-2220.617826,-2451.505594
3318.687721,-7698.141797,-1776.494261,-306.438199
3318.688058,-9400.615463,-1924.535449,2221.676944
3318.688395,-12805.562797,-2960.823768,3217.601092
3318.688733,-11251.130318,-1850.514855,919.314598
3318.689070,-8956.491898,-444.123565,459.657299
3318.689408,-9474.636058,370.102971,1685.410096
3318.689745,-11621.233289,-1110.308913,1149.143247
3318.690082,-10362.883188,-888.247130,-383.047749
3318.690420,-8512.368333,-296.082377,536.266849
3318.690757,-9030.512492,518.144159,3217.601092
3318.691095,-11029.068536,0.000000,2374.896044
3318.691432,-12435.459826,0.000000,459.657299
3318.691769,-9992.780217,444.123565,-2068.457845
3318.692107,-8808.450710,1184.329507,-689.485948
3318.692444,-10436.903782,1776.494261,536.266849
3318.692782,-11843.295072,0.000000,76.609550
3318.693119,-9696.697840,518.144159,-1608.800546
3318.693456,-7994.224174,814.226536,-1149.143247
3318.693794,-10436.903782,888.247130,2068.457845
3318.694131,-12287.418637,-592.164754,2911.162892
3318.694469,-10584.944971,-296.082377,842.705048
3318.694806,-8586.388927,444.123565,842.705048
3318.695144,-8438.347739,1110.308913,689.485948
3318.695481,-10584.944971,74.020594,1685.410096
3318.695818,-11177.109724,296.082377,459.657299
3318.696156,-7402.059420,1480.411884,-919.314598
3318.696493,-8512.368333,1258.350101,536.266849
3318.696831,-10510.924376,148.041188,1685.410096
3318.697168,-11325.150913,-740.205942,1072.533697
3318.697505,-8808.450710,-666.185348,-153.219100
3318.697843,-8290.306550,-148.041188,-459.657299
3318.698180,-9252.574275,0.000000,153.219100
3318.698518,-11473.192101,-1110.308913,-383.047749
3318.698855,-9770.718434,-814.226536,-1915.238745
3318.699192,-9104.533087,-296.082377,-1378.971896
3318.699530,-9992.780217,-1332.370696,153.219100
3318.699867,-11991.336260,-2960.823768,383.047749
3318.700205,-11769.274478,-3552.988522,76.609550
3318.700542,-9178.553681,-2368.659014,-1378.971896
3318.700879,-9252.574275,-1924.535449,76.609550
3318.701217,-12139.377449,-2294.638420,383.047749
3318.701554,-12213.398043,-2220.617826,-612.876398
3318.701892,-9474.636058,-1702.473667,-2221.676944
3318.702229,-9474.636058,-1258.350101,0.000000
3318.702566,-10955.047942,-1258.350101,2911.162892
3318.702904,-11843.295072,-2368.659014,3294.210641
3318.703241,-9474.636058,-222.061783,2068.457845
3318.703579,-9030.512492,370.102971,2374.896044
3318.703916,-10362.883188,1850.514855,2451.505594
3318.704253,-12139.377449,1258.350101,1762.019645
3318.704591,-11103.089130,814.226536,0.000000
3318.704928,-7624.121203,2072.576638,153.219100
3318.705266,-8290.306550,1628.453072,2068.457845
3318.705603,-10436.903782,888.247130,2298.286494
3318.705940,-9770.718434,370.102971,-1378.971896
3318.706278,-7846.182985,1628.453072,-2604.724693
3318.706615,-8586.388927,2294.638420,-1532.190996
3318.706953,-9844.739029,1110.308913,-766.095498
3318.707290,-11399.171507,296.082377,-383.047749
3318.707628,-8364.327145,444.123565,-1455.581446
3318.707965,-7550.100608,666.185348,383.047749
3318.708302,-10362.883188,0.000000,2987.772442
3318.708640,-12287.418637,-1258.350101,2604.724693
3318.708977,-10658.965565,-962.267725,1149.143247
3318.709315,-9770.718434,-74.020594,995.924147
3318.709652,-10436.903782,592.164754,1302.362347
3318.709989,-11917.315666,-592.164754,0.000000
3318.710327,-10510.924376,-148.041188,-995.924147
3318.710664,-8068.244768,222.061783,-1685.410096
3318.711002,-9326.594869,592.164754,306.438199
3318.711339,-12435.459826,-888.247130,1149.143247
3318.711676,-11991.336260,-1110.308913,-229.828649
3318.712014,-9400.615463,0.000000,-766.095498
3318.712351,-9252.574275,-74.020594,-612.876398
3318.712689,-10510.924376,-814.226536,0.000000
3318.713026,-11547.212695,-1702.473667,-1225.752797
3318.713363,-9178.553681,-1850.514855,-1991.848295
3318.713701,-8438.347739,-1184.329507,-1532.190996
3318.714038,-9178.553681,-2072.576638,229.828649
3318.714376,-11769.274478,-2516.700203,842.705048
3318.714713,-10288.862594,-2516.700203,-1302.362347
3318.715050,-7920.203579,-666.185348,-1378.971896
3318.715388,-8586.388927,0.000000,383.047749
3318.715725,-11695.253884,-814.226536,76.609550
3318.716063,-11177.109724,-666.185348,-1608.800546
3318.716400,-9400.615463,518.144159,0.000000
3318.716737,-9030.512492,1036.288319,2451.505594
3318.717075,-11103.089130,0.000000,4060.306139
3318.717412,-12139.377449,0.000000,3907.087040
3318.717750,-9474.636058,1332.370696,1532.190996
3318.718087,-9326.594869,2590.720797,2528.115143
3318.718424,-10732.986159,2812.782580,2145.067394
3318.718762,-12139.377449,2220.617826,612.876398
3318.719099,-9770.718434,2812.782580,-2221.676944
3318.719437,-8142.265362,1998.556043,-2221.676944
3318.719774,-8512.368333,1850.514855,306.438199
3318.720112,-11325.150913,-666.185348,1685.410096
3318.720449,-10584.944971,-666.185348,-229.828649
3318.720786,-8216.285956,518.144159,-842.705048
3318.721124,-9104.533087,0.000000,-689.485948
3318.721461,-10510.924376,-1924.535449,-229.828649
3318.721799,-9992.780217,-2960.823768,-2221.676944
3318.722136,-7846.182985,-1258.350101,-766.095498
3318.722473,-8438.347739,-2146.597232,1072.533697
3318.722811,-10140.821405,-2664.741391,2681.334243
3318.723148,-11991.336260,-3034.844362,2298.286494
3318.723486,-10436.903782,-2146.597232,1149.143247
3318.723823,-9178.553681,-1258.350101,766.095498
3318.724160,-10436.903782,-1110.308913,1225.752797
3318.724498,-12583.501014,-1776.494261,995.924147
3318.724835,-10140.821405,-1110.308913,-1608.800546
3318.725173,-8216.285956,-592.164754,-1302.362347
3318.725510,-9474.636058,-518.144159,1072.533697
3318.725847,-12879.583391,-1258.350101,2604.724693
3318.726185,-11991.336260,-1258.350101,153.219100
3318.726522,-9770.718434,370.102971,-1149.143247
3318.726860,-9474.636058,1258.350101,689.485948
3318.727197,-12213.398043,370.102971,459.657299
3318.727534,-12583.501014,0.000000,-1991.848295
3318.727872,-8882.471304,-148.041188,-3753.867940
3318.728209,-7550.100608,-222.061783,-1225.752797
3318.728547,-9104.533087,-1110.308913,766.095498
3318.728884,-11251.130318,-2220.617826,919.314598
3318.729221,-9400.615463,0.000000,-1225.752797
3318.729559,-8290.306550,444.123565,-1149.143247
3318.729896,-9770.718434,888.247130,229.828649
3318.730234,-11103.089130,-666.185348,995.924147
3318.730571,-8364.327145,-962.267725,-612.876398
3318.730908,-5995.668130,592.164754,1302.362347
3318.731246,-8364.327145,1036.288319,4596.572988
3318.731583,-11917.315666,74.020594,3983.696590
3318.731921,-12287.418637,0.000000,459.657299
3318.732258,-9252.574275,2072.576638,-76.609550
3318.732596,-8808.450710,2516.700203,612.876398
3318.732933,-10288.862594,740.205942,1302.362347
3318.733270,-11843.295072,518.144159,-842.705048
3318.733608,-8882.471304,518.144159,-2145.067394
3318.733945,-8438.347739,1184.329507,-536.266849
3318.734283,-11325.150913,222.061783,995.924147
3318.734620,-13619.789333,-962.267725,1532.190996
3318.734957,-11843.295072,-370.102971,-1149.143247
3318.735295,-9178.553681,-222.061783,-1149.143247
3318.735632,-9622.677246,-296.082377,689.485948
3318.735970,-12731.542202,-2072.576638,842.705048
3318.736307,-11103.089130,-2960.823768,-1762.019645
3318.736644,-7920.203579,-2220.617826,-1608.800546
3318.736982,-8068.244768,-1258.350101,1838.629195
3318.737319,-11399.171507,-3552.988522,2528.115143
3318.737657,-10881.027347,-3182.885551,612.876398
3318.737994,-7920.203579,-1406.391290,0.000000
3318.738331,-8586.388927,-370.102971,1378.971896
3318.738669,-10510.924376,-666.185348,2681.334243
3318.739006,-12139.377449,-1332.370696,689.485948
3318.739344,-8882.471304,-148.041188,0.000000
3318.739681,-7254.018232,296.082377,842.705048
3318.740018,-9104.533087,444.123565,2528.115143
3318.740356,-11695.253884,148.041188,1072.533697
3318.740693,-11029.068536,518.144159,-2221.676944
3318.741031,-8808.450710,1776.494261,-1455.581446
3318.741368,-9326.594869,1258.350101,0.000000
3318.741705,-11991.336260,518.144159,0.000000
3318.742043,-11029.068536,888.247130,-2604.724693
3318.742380,-7698.141797,1406.391290,-3447.429741
3318.742718,-8438.347739,1184.329507,-689.485948
3318.743055,-11695.253884,-370.102971,1149.143247
3318.743392,-13027.624579,-518.144159,842.705048
3318.743730,-9770.718434,370.102971,-76.609550
3318.744067,-8808.450710,666.185348,459.657299
3318.744405,-10807.006753,-444.123565,1608.800546
3318.744742,-12361.439231,-1258.350101,1149.143247
3318.745079,-8882.471304,-444.123565,-612.876398
3318.745417,-7254.018232,-518.144159,0.000000
3318.745754,-9104.533087,74.020594,1915.238745
3318.746092,-12509.480420,-1554.432478,2451.505594
3318.746429,-10362.883188,-962.267725,-306.438199
3318.746767,-7994.224174,592.164754,-459.657299
3318.747104,-8882.471304,666.185348,919.314598
3318.747441,-11917.315666,-444.123565,995.924147
3318.747779,-11473.192101,-740.205942,-1455.581446
3318.748116,-7994.224174,0.000000,-1225.752797
3318.748454,-7994.224174,-740.205942,383.047749
3318.748791,-11769.274478,-1628.453072,2068.457845
3318.749128,-12879.583391,-1628.453072,-766.095498
3318.749466,-9474.636058,-666.185348,-2911.162892
3318.749803,-8142.265362,-1184.329507,-1072.533697
3318.750141,-9844.739029,-1110.308913,1072.533697
3318.750478,-12139.377449,-1702.473667,459.657299
3318.750815,-10436.903782,-1332.370696,-1149.143247
3318.751153,-8734.430116,-518.144159,153.219100
3318.751490,-9400.615463,-148.041188,2374.896044
3318.751828,-12657.521608,-1184.329507,3217.601092
3318.752165,-12213.398043,-1184.329507,1991.848295
3318.752502,-9030.512492,962.267725,1072.533697
3318.752840,-8660.409521,1184.329507,1762.019645
3318.753177,-11399.171507,518.144159,2374.896044
3318.753515,-11251.130318,222.061783,383.047749
3318.753852,-7994.224174,1332.370696,-1302.362347
3318.754189,-7254.018232,444.123565,-76.609550
3318.754527,-9992.780217,518.144159,2374.896044
3318.754864,-12287.418637,-222.061783,1532.190996
3318.755202,-8660.409521,592.164754,-1991.848295
3318.755539,-7920.203579,518.144159,-1149.143247
3318.755876,-10362.883188,740.205942,0.000000
3318.756214,-11547.212695,-1480.411884,-1225.752797
3318.756551,-10066.800811,-1702.473667,-2911.162892
3318.756889,-7624.121203,-1554.432478,-612.876398
3318.757226,-7698.141797,-2368.659014,1149.143247
3318.757563,-11917.315666,-2590.720797,2145.067394
3318.757901,-12361.439231,-2664.741391,-459.657299
3318.758238,-9326.594869,-592.164754,-1532.190996
3318.758575,-9400.615463,-814.226536,-383.047749
3318.758913,-11547.212695,-666.185348,1149.143247
3318.759250,-11843.295072,-1332.370696,76.609550
3318.759587,-9548.656652,-1480.411884,-919.314598
3318.759925,-9030.512492,-666.185348,536.266849
3318.760262,-10881.027347,-1628.453072,2604.724693
3318.760599,-12657.521608,-1184.329507,2145.067394
3318.760937,-10362.883188,-814.226536,0.000000
3318.761274,-8808.450710,666.185348,0.000000
3318.761611,-9474.636058,962.267725,689.485948
3318.761949,-12139.377449,-740.205942,689.485948
3318.762286,-9844.739029,-1332.370696,-1149.143247
3318.762623,-7254.018232,-296.082377,-1378.971896
3318.762961,-8364.327145,-888.247130,1838.629195
3318.763298,-11399.171507,-296.082377,1685.410096
3318.763635,-11843.295072,-1258.350101,229.828649
3318.763973,-8808.450710,-148.041188,-1915.238745
3318.764310,-7624.121203,740.205942,-689.485948
3318.764647,-10732.986159,148.041188,1378.971896
3318.764985,-11695.253884,0.000000,0.000000
3318.765322,-7846.182985,148.041188,-1455.581446
3318.765659,-7920.203579,74.020594,1608.800546
3318.765997,-9622.677246,740.205942,3524.039291
3318.766334,-12657.521608,962.267725,3370.820191
3318.766671,-11843.295072,1258.350101,1149.143247
3318.767009,-9326.594869,2368.659014,536.266849
3318.767346,-9474.636058,2220.617826,1838.629195
3318.767683,-11843.295072,1184.329507,1838.629195
3318.768021,-10140.821405,740.205942,-1378.971896
3318.768358,-7402.059420,1554.432478,-2145.067394
3318.768696,-8142.265362,1036.288319,-995.924147
3318.769033,-10807.006753,-518.144159,0.000000
3318.769370,-11547.212695,-888.247130,-1685.410096
3318.769708,-9252.574275,74.020594,-2757.943793
3318.770045,-8216.285956,666.185348,-2068.457845
3318.770382,-9992.780217,-518.144159,-383.047749
3318.770720,-11547.212695,-1480.411884,-919.314598
3318.771057,-9474.636058,-2516.700203,-1915.238745
3318.771394,-8882.471304,-2368.659014,995.924147
3318.771732,-10436.903782,-2294.638420,1685.410096
3318.772069,-12139.377449,-2590.720797,1302.362347
3318.772406,-10214.842000,-2072.576638,-1302.362347
3318.772744,-8586.388927,-1480.411884,-689.485948
3318.773081,-9400.615463,-1258.350101,0.000000
3318.773418,-11103.089130,-962.267725,536.266849
3318.773756,-11769.274478,-222.061783,459.657299
3318.774093,-9178.553681,0.000000,-383.047749
3318.774430,-9474.636058,222.061783,2145.067394
3318.774768,-11917.315666,0.000000,3830.477490
3318.775105,-12879.583391,0.000000,2298.286494
3318.775442,-9622.677246,1480.411884,536.266849
3318.775780,-9474.636058,1332.370696,536.266849
3318.776117,-9844.739029,1110.308913,536.266849
3318.776454,-12139.377449,74.020594,0.000000
3318.776792,-10140.821405,222.061783,-1915.238745
3318.777129,-7031.956449,-444.123565,-1915.238745
3318.777466,-8734.430116,0.000000,1072.533697
3318.777804,-10584.944971,-962.267725,842.705048
3318.778141,-9770.718434,-1258.350101,0.000000
3318.778478,-8586.388927,-148.041188,0.000000
3318.778816,-9104.533087,0.000000,1225.752797
3318.779153,-11103.089130,-888.247130,1225.752797
3318.779490,-10436.903782,-2146.597232,459.657299
3318.779828,-8512.368333,-1258.350101,1149.143247
3318.780165,-8438.347739,-1258.350101,2681.334243
3318.780502,-10140.821405,-1332.370696,2604.724693
3318.780840,-11399.171507,-1258.350101,1838.629195
3318.781177,-10140.821405,-444.123565,-612.876398
3318.781514,-8882.471304,592.164754,-536.266849
3318.781852,-9918.759623,888.247130,153.219100
3318.782189,-11843.295072,814.226536,459.657299
3318.782526,-10807.006753,370.102971,-2221.676944
3318.782864,-8882.471304,-444.123565,-1225.752797
3318.783201,-9104.533087,0.000000,536.266849
3318.783538,-12139.377449,-1998.556043,2145.067394
3318.783876,-12805.562797,-1554.432478,-459.657299
3318.784213,-9844.739029,-1036.288319,-3447.429741
3318.784550,-9474.636058,-370.102971,-1225.752797
3318.784888,-10140.821405,-1184.329507,-536.266849
3318.785225,-10881.027347,-2590.720797,-842.705048
3318.785562,-8734.430116,-1850.514855,-1072.533697
3318.785900,-8290.306550,-1110.308913,229.828649
3318.786237,-9918.759623,-1184.329507,1838.629195
3318.786574,-12731.542202,-1554.432478,2145.067394
3318.786912,-10288.862594,-888.247130,306.438199
3318.787249,-8512.368333,296.082377,76.609550
3318.787586,-8734.430116,814.226536,1685.410096
3318.787924,-10732.986159,444.123565,1532.190996
3318.788261,-9844.739029,222.061783,-153.219100
3318.788598,-7550.100608,962.267725,612.876398
3318.788936,-8808.450710,1776.494261,2681.334243
3318.789273,-12361.439231,1628.453072,3370.820191
3318.789610,-12953.603985,1332.370696,612.876398
3318.789948,-9178.553681,2886.803174,-1455.581446
3318.790285,-8364.327145,3034.844362,-536.266849
3318.790622,-10140.821405,2294.638420,383.047749
3318.790960,-11621.233289,1332.370696,-1149.143247
3318.791297,-9030.512492,518.144159,-2604.724693
3318.791634,-8882.471304,1110.308913,-1455.581446
3318.791972,-9918.759623,0.000000,383.047749
3318.792309,-12583.501014,-1480.411884,689.485948
3318.792647,-10436.903782,-1480.411884,-766.095498
3318.792984,-8290.306550,-296.082377,-919.314598
3318.793321,-8438.347739,518.144159,689.485948
3318.793659,-12139.377449,-1332.370696,1149.143247
3318.793996,-11251.130318,-2442.679609,-229.828649
3318.794333,-8586.388927,-1110.308913,459.657299
3318.794671,-8586.388927,-1184.329507,2451.505594
3318.795008,-10807.006753,-1110.308913,3064.381992
3318.795345,-11769.274478,-1850.514855,459.657299
3318.795683,-8956.491898,-1110.308913,-1762.019645
3318.796020,-7772.162391,-666.185348,-1225.752797
3318.796357,-10214.842000,-814.226536,1072.533697
3318.796695,-11991.336260,-814.226536,229.828649
3318.797032,-9548.656652,-592.164754,-1225.752797
3318.797369,-8438.347739,-444.123565,-459.657299
3318.797707,-9326.594869,-740.205942,1455.581446
3318.798044,-12731.542202,-1628.453072,2451.505594
3318.798381,-11917.315666,-1776.494261,-842.705048
3318.798719,-8364.327145,-666.185348,-1991.848295
3318.799056,-8586.388927,222.061783,-612.876398
3318.799393,-11769.274478,-814.226536,536.266849
3318.799731,-11103.089130,-222.061783,-1455.581446
3318.800068,-8586.388927,-444.123565,-2221.676944
3318.800405,-8512.368333,-74.020594,1455.581446
3318.800743,-10955.047942,-296.082377,3217.601092
3318.801080,-13249.686362,-1110.308913,3064.381992
3318.801417,-9696.697840,222.061783,536.266849
3318.801755,-7402.059420,814.226536,383.047749
3318.802092,-9844.739029,2220.617826,2757.943793
3318.802429,-12731.542202,444.123565,2221.676944
3318.802767,-9474.636058,444.123565,-919.314598
3318.803104,-7179.997637,1184.329507,-689.485948
3318.803441,-8808.450710,1406.391290,1915.238745
3318.803779,-12213.398043,0.000000,2374.896044
3318.804116,-10732.986159,-1036.288319,-1072.533697
3318.804453,-7550.100608,888.247130,-1532.190996
3318.804791,-7846.182985,1628.453072,-919.314598
3318.805128,-10436.903782,222.061783,-919.314598
3318.805465,-11769.274478,-1184.329507,-2451.505594
3318.805803,-8438.347739,-888.247130,-3447.429741
3318.806140,-7772.162391,-1554.432478,-459.657299
3318.806477,-11029.068536,-2294.638420,2451.505594
3318.806815,-12435.459826,-2146.597232,1991.848295
3318.807152,-11103.089130,-1480.411884,-1149.143247
3318.807489,-9252.574275,-814.226536,-1455.581446
3318.807827,-9696.697840,-814.226536,153.219100
3318.808164,-12583.501014,-1702.473667,2374.896044
3318.808501,-10732.986159,-2072.576638,0.000000
3318.808839,-8068.244768,-592.164754,766.095498
3318.809176,-9326.594869,222.061783,3983.696590
3318.809513,-12361.439231,-518.144159,3753.867940
3318.809851,-12731.542202,444.123565,1762.019645
3318.810188,-10436.903782,1480.411884,229.828649
3318.810525,-9326.594869,2368.659014,229.828649
3318.810863,-11251.130318,1480.411884,766.095498
3318.811200,-11769.274478,1184.329507,-612.876398
3318.811537,-7328.038826,592.164754,-2757.943793
3318.811875,-6291.750507,814.226536,-1149.143247
3318.812212,-8586.388927,592.164754,689.485948
3318.812549,-11547.212695,-888.247130,76.609550
3318.812887,-9400.615463,-666.185348,-1915.238745
3318.813224,-7846.182985,666.185348,-2145.067394
3318.813561,-8808.450710,666.185348,0.000000
3318.813899,-11843.295072,0.000000,536.266849
3318.814236,-10732.986159,-740.205942,-612.876398
3318.814573,-7105.977043,740.205942,0.000000
3318.814911,-8142.265362,-74.020594,2374.896044
3318.815248,-12879.583391,-1110.308913,3600.648841
3318.815585,-13249.686362,-1258.350101,1149.143247
3318.815923,-9992.780217,0.000000,-995.924147
3318.816260,-8438.347739,148.041188,0.000000
3318.816597,-10288.862594,-148.041188,842.705048
3318.816935,-12583.501014,-148.041188,383.047749
3318.817272,-9474.636058,-444.123565,-1915.238745
3318.817610,-7920.203579,666.185348,0.000000
3318.817947,-10955.047942,518.144159,2145.067394
3318.818284,-14582.057057,-1702.473667,2068.457845
3318.818622,-11325.150913,-1628.453072,-689.485948
3318.818959,-8142.265362,-1036.288319,-536.266849
3318.819296,-8882.471304,0.000000,766.095498
3318.819634,-12065.356855,-2072.576638,76.609550
3318.819971,-11029.068536,-2442.679609,-2374.896044
3318.820308,-7328.038826,-2146.597232,-2528.115143
3318.820646,-7179.997637,-2220.617826,153.219100
3318.820983,-10732.986159,-2590.720797,2451.505594
3318.821320,-11917.315666,-2590.720797,1149.143247
3318.821658,-8586.388927,-1184.329507,-1225.752797
3318.821995,-8586.388927,-370.102971,383.047749
3318.822332,-10066.800811,0.000000,2451.505594
3318.822670,-12065.356855,0.000000,2451.505594
3318.823007,-10140.821405,0.000000,536.266849
3318.823344,-8660.409521,592.164754,1838.629195
3318.823682,-9474.636058,1998.556043,3447.429741
3318.824019,-13175.665768,296.082377,4136.915689
3318.824356,-11843.295072,518.144159,689.485948
3318.824694,-8142.265362,2220.617826,-1072.533697
3318.825031,-8216.285956,3182.885551,76.609550
3318.825368,-11547.212695,1702.473667,306.438199
3318.825706,-11029.068536,1776.494261,-2451.505594
3318.826043,-8512.368333,1480.411884,-2834.553343
3318.826380,-8068.244768,2294.638420,-919.314598
3318.826718,-10658.965565,740.205942,153.219100
3318.827055,-12361.439231,-148.041188,76.609550
3318.827392,-9326.594869,-1110.308913,-2221.676944
3318.827730,-7846.182985,-1110.308913,-1149.143247
3318.828067,-9030.512492,-222.061783,919.314598
3318.828404,-11843.295072,-1850.514855,536.266849
3318.828742,-9474.636058,-1110.308913,-2068.457845
3318.829079,-7476.080014,-962.267725,-919.314598
3318.829416,-9474.636058,-74.020594,1762.019645
3318.829754,-12731.542202,-1258.350101,2145.067394
3318.830091,-11473.192101,-1480.411884,-383.047749
3318.830428,-8216.285956,-222.061783,-1072.533697
3318.830766,-8734.430116,444.123565,459.657299
3318.831103,-11621.233289,0.000000,1838.629195
3318.831440,-11547.212695,-1406.391290,-919.314598
3318.831778,-9030.512492,0.000000,-1149.143247
3318.832115,-9400.615463,370.102971,1149.143247
3318.832452,-11843.295072,222.061783,2068.457845
3318.832790,-12657.521608,-888.247130,842.705048
3318.833127,-10436.903782,0.000000,-919.314598
3318.833464,-8438.347739,0.000000,76.609550
3318.833802,-9696.697840,222.061783,612.876398
3318.834139,-12213.398043,-1184.329507,306.438199
3318.834476,-10066.800811,-1406.391290,-1225.752797
3318.834814,-8216.285956,-888.247130,0.000000
3318.835151,-8882.471304,-518.144159,1915.238745
3318.835488,-10881.027347,-1702.473667,3064.381992
3318.835826,-10955.047942,-1332.370696,1685.410096
3318.836163,-7920.203579,-592.164754,153.219100
3318.836500,-8216.285956,1258.350101,1532.190996
3318.836838,-11251.130318,1036.288319,2451.505594
3318.837175,-12213.398043,296.082377,612.876398
3318.837512,-9030.512492,1702.473667,-766.095498
3318.837850,-7846.182985,1258.350101,842.705048
3318.838187,-8808.450710,740.205942,2757.943793
3318.838524,-11473.192101,-296.082377,2221.676944
3318.838862,-9844.739029,296.082377,0.000000
3318.839199,-9252.574275,888.247130,-1302.362347
3318.839536,-10362.883188,740.205942,-842.705048
3318.839874,-11917.315666,74.020594,-1455.581446
3318.840211,-9770.718434,-1036.288319,-2221.676944
3318.840548,-7179.997637,0.000000,-2221.676944
3318.840886,-8734.430116,-666.185348,306.438199
3318.841223,-12287.418637,-2220.617826,306.438199
3318.841561,-12287.418637,-3256.906145,-1532.190996
3318.841898,-9474.636058,-2146.597232,-1532.190996
3318.842235,-8660.409521,-2072.576638,229.828649
3318.842573,-10658.965565,-1406.391290,689.485948
3318.842910,-12139.377449,-2886.803174,0.000000
3318.843247,-9474.636058,-1850.514855,-1838.629195
3318.843585,-8586.388927,-2146.597232,536.266849
3318.843922,-10436.903782,-1924.535449,2911.162892
3318.844259,-12509.480420,-1554.432478,2834.553343
3318.844597,-11103.089130,-1998.556043,1762.019645
3318.844934,-8512.368333,-518.144159,1302.362347
3318.845271,-8216.285956,666.185348,1302.362347
3318.845609,-12065.356855,370.102971,2298.286494
3318.845946,-11991.336260,592.164754,-536.266849
3318.846283,-8956.491898,888.247130,-1838.629195
3318.846621,-8660.409521,1554.432478,459.657299
3318.846958,-10066.800811,444.123565,995.924147
3318.847295,-10658.965565,-296.082377,0.000000
3318.847633,-8808.450710,1332.370696,-1072.533697
3318.847970,-8660.409521,1628.453072,-766.095498
3318.848307,-10362.883188,1110.308913,919.314598
3318.848645,-12287.418637,74.020594,766.095498
3318.848982,-9770.718434,666.185348,-76.609550
3318.849319,-7994.224174,1776.494261,383.047749
3318.849657,-9474.636058,1406.391290,2374.896044
3318.849994,-12287.418637,444.123565,1915.238745
3318.850331,-10881.027347,-592.164754,766.095498
3318.850669,-8734.430116,1258.350101,153.219100
3318.851006,-8956.491898,1258.350101,612.876398
3318.851343,-11991.336260,444.123565,1685.410096
3318.851681,-10732.986159,222.061783,-1225.752797
3318.852018,-7772.162391,222.061783,-1072.533697
3318.852355,-7772.162391,814.226536,1225.752797
3318.852693,-10955.047942,0.000000,2681.334243
3318.853030,-12805.562797,-1480.411884,1072.533697
3318.853367,-9474.636058,-148.041188,-1608.800546
3318.853705,-8586.388927,0.000000,-842.705048
3318.854042,-9770.718434,-74.020594,-306.438199
3318.854379,-11029.068536,-962.267725,-1455.581446
3318.854717,-9992.780217,-1850.514855,-3524.039291
3318.855054,-8808.450710,-1554.432478,-3064.381992
3318.855391,-9326.594869,-1850.514855,-383.047749
3318.855729,-13397.727550,-2960.823768,1378.971896
3318.856066,-11251.130318,-3552.988522,-689.485948
3318.856403,-8808.450710,-1998.556043,-689.485948
3318.856741,-8956.491898,-1036.288319,995.924147
3318.857078,-10510.924376,-1036.288319,1608.800546
3318.857415,-12139.377449,-1850.514855,689.485948
3318.857753,-9770.718434,-1110.308913,153.219100
3318.858090,-9326.594869,370.102971,1608.800546
3318.858427,-10807.006753,370.102971,2834.553343
3318.858764,-11991.336260,-1110.308913,2374.896044
3318.859102,-9400.615463,296.082377,536.266849
3318.859439,-8290.306550,1184.329507,995.924147
3318.859776,-9474.636058,2442.679609,1302.362347
3318.860113,-12213.398043,1258.350101,459.657299
3318.860451,-11473.192101,1110.308913,-2451.505594
3318.860788,-7698.141797,1702.473667,-1685.410096
3318.861125,-7846.182985,1998.556043,1378.971896
3318.861462,-10955.047942,222.061783,2757.943793
3318.861799,-11029.068536,-74.020594,-76.609550
3318.862137,-9178.553681,888.247130,-1302.362347
3318.862474,-9326.594869,888.247130,-536.266849
3318.862811,-10658.965565,-888.247130,76.609550
3318.863148,-11251.130318,-888.247130,-766.095498
3318.863485,-7698.141797,-1258.350101,-1302.362347
3318.863823,-7179.997637,-888.247130,0.000000
3318.864160,-9474.636058,-1850.514855,1378.971896
3318.864497,-13101.645173,-2442.679609,2604.724693
3318.864834,-10584.944971,-1184.329507,0.000000
3318.865172,-8882.471304,0.000000,76.609550
3318.865509,-9992.780217,666.185348,1762.019645
3318.865846,-12879.583391,-740.205942,1455.581446
3318.866183,-10436.903782,-1776.494261,0.000000
3318.866520,-7772.162391,-666.185348,229.828649
3318.866858,-9030.512492,0.000000,1838.629195
3318.867195,-12657.521608,-1036.288319,2528.115143
3318.867532,-13323.706956,-1258.350101,766.095498
3318.867869,-9178.553681,-222.061783,-1915.238745
3318.868206,-8586.388927,296.082377,-1225.752797
3318.868544,-10436.903782,-296.082377,153.219100
3318.868881,-11843.295072,-1776.494261,-383.047749
3318.869218,-9178.553681,-740.205942,-2528.115143
3318.869555,-7550.100608,-666.185348,-1225.752797
3318.869893,-9400.615463,-888.247130,995.924147
3318.870230,-12583.501014,-1776.494261,1991.848295
3318.870567,-10436.903782,-1998.556043,0.000000
3318.870904,-8586.388927,0.000000,0.000000
3318.871241,-8364.327145,592.164754,1455.581446
3318.871579,-11547.212695,0.000000,2221.676944
3318.871916,-11547.212695,370.102971,536.266849
3318.872253,-8290.306550,1702.473667,0.000000
3318.872590,-8216.285956,2072.576638,1762.019645
3318.872927,-11547.212695,1406.391290,2834.553343
3318.873265,-12065.356855,1702.473667,1225.752797
3318.873602,-9622.677246,2072.576638,-306.438199
3318.873939,-8216.285956,2886.803174,-153.219100
3318.874276,-10510.924376,2516.700203,689.485948
3318.874614,-12435.459826,296.082377,-229.828649
3318.874951,-8882.471304,222.061783,-3447.429741
3318.875288,-6957.935855,518.144159,-1838.629195
3318.875625,-8882.471304,-222.061783,612.876398
3318.875962,-11843.295072,-1924.535449,0.000000
3318.876300,-11251.130318,-1998.556043,-1608.800546
3318.876637,-8068.244768,-592.164754,-2374.896044
3318.876974,-8586.388927,-814.226536,536.266849
3318.877311,-12805.562797,-2664.741391,1532.190996
3318.877648,-11917.315666,-3552.988522,-766.095498
3318.877986,-7846.182985,-2368.659014,-842.705048
3318.878323,-8216.285956,-2590.720797,1532.190996
3318.878660,-10658.965565,-3330.926739,3217.601092
3318.878997,-12805.562797,-3256.906145,1915.238745
3318.879335,-10362.883188,-2442.679609,612.876398
3318.879672,-8956.491898,-148.041188,766.095498
3318.880009,-10510.924376,-222.061783,2068.457845
3318.880346,-12657.521608,-962.267725,2068.457845
3318.880683,-9548.656652,-962.267725,-612.876398
3318.881021,-8808.450710,296.082377,1762.019645
3318.881358,-9474.636058,740.205942,3370.820191
3318.881695,-12583.501014,-592.164754,2528.115143
3318.882032,-12583.501014,74.020594,-306.438199
3318.882369,-8882.471304,814.226536,-1685.410096
3318.882707,-8290.306550,1554.432478,-536.266849
3318.883044,-10288.862594,444.123565,153.219100
3318.883381,-10658.965565,296.082377,-1302.362347
3318.883718,-7920.203579,444.123565,-2834.553343
3318.884056,-7105.977043,296.082377,-1072.533697
3318.884393,-9918.759623,888.247130,2298.286494
3318.884730,-12509.480420,0.000000,1608.800546
3318.885067,-9474.636058,814.226536,-1302.362347
3318.885404,-8364.327145,1036.288319,-689.485948
3318.885742,-9474.636058,1258.350101,1838.629195
3318.886079,-11473.192101,148.041188,2145.067394
3318.886416,-9400.615463,0.000000,-766.095498
3318.886753,-7698.141797,962.267725,-306.438199
3318.887090,-9178.553681,1184.329507,919.314598
3318.887428,-11991.336260,-740.205942,1455.581446
3318.887765,-11103.089130,-814.226536,-766.095498
3318.888102,-8290.306550,888.247130,-919.314598
3318.888439,-8808.450710,1554.432478,-536.266849
3318.888777,-11695.253884,-592.164754,-306.438199
3318.889114,-12361.439231,-518.144159,-1149.143247
3318.889451,-8660.409521,-1184.329507,-2757.943793
3318.889788,-8882.471304,-1184.329507,-153.219100
3318.890125,-11399.171507,-2146.597232,1455.581446
3318.890463,-13027.624579,-2442.679609,229.828649
3318.890800,-9696.697840,-2072.576638,-1608.800546
3318.891137,-8216.285956,-1036.288319,-383.047749
3318.891474,-10066.800811,-1036.288319,1072.533697
3318.891811,-12657.521608,-2368.659014,919.314598
3318.892149,-10807.006753,-1850.514855,0.000000
3318.892486,-8290.306550,-666.185348,536.266849
3318.892823,-9030.512492,-888.247130,3370.820191
3318.893160,-12435.459826,-814.226536,4596.572988
3318.893497,-11695.253884,-1184.329507,2451.505594
3318.893835,-8364.327145,1702.473667,689.485948
3318.894172,-8956.491898,1332.370696,995.924147
3318.894509,-10807.006753,1554.432478,2374.896044
3318.894846,-12287.418637,222.061783,919.314598
3318.895184,-8216.285956,1332.370696,-306.438199
3318.895521,-7105.977043,2220.617826,842.705048
3318.895858,-9844.739029,1776.494261,1915.238745
3318.896195,-11473.192101,296.082377,1072.533697
3318.896532,-9400.615463,444.123565,-1455.581446
3318.896870,-7994.224174,1480.411884,-153.219100
3318.897207,-9178.553681,814.226536,995.924147
3318.897544,-11991.336260,0.000000,76.609550
3318.897881,-10510.924376,-962.267725,-2451.505594
3318.898218,-8364.327145,0.000000,-2221.676944
3318.898556,-8660.409521,-444.123565,0.000000
3318.898893,-11325.150913,-1406.391290,459.657299
3318.899230,-11991.336260,-1332.370696,-919.314598
3318.899567,-9030.512492,-1184.329507,-2451.505594
3318.899905,-9400.615463,-888.247130,536.266849
3318.900242,-11251.130318,-962.267725,1532.190996
3318.900579,-12731.542202,-1924.535449,1072.533697
3318.900916,-9548.656652,-1406.391290,-536.266849
3318.901253,-8586.388927,-888.247130,383.047749
3318.901591,-10362.883188,-444.123565,2145.067394
3318.901928,-12731.542202,-1998.556043,1608.800546
3318.902265,-10436.903782,-1850.514855,-1225.752797
3318.902602,-9030.512492,-370.102971,-1378.971896
3318.902939,-9400.615463,-518.144159,-306.438199
3318.903277,-11103.089130,-1258.350101,-612.876398
3318.903614,-10288.862594,-2220.617826,-2221.676944
3318.903951,-7254.018232,-666.185348,-1915.238745
3318.904288,-8142.265362,-814.226536,0.000000
3318.904626,-11029.068536,-1850.514855,1838.629195
3318.904963,-11695.253884,-2146.597232,612.876398
3318.905300,-9326.594869,-962.267725,-1225.752797
3318.905637,-8956.491898,148.041188,842.705048
3318.905974,-10807.006753,-370.102971,2374.896044
3318.906312,-11547.212695,74.020594,1455.581446
3318.906649,-8734.430116,0.000000,76.609550
3318.906986,-8586.388927,740.205942,2145.067394
3318.907323,-9696.697840,444.123565,3140.991542
3318.907660,-12953.603985,296.082377,3217.601092
3318.907998,-11103.089130,1924.535449,1149.143247
3318.908335,-8512.368333,2590.720797,842.705048
3318.908672,-9252.574275,3478.967927,2068.457845
3318.909009,-11547.212695,2072.576638,1149.143247
3318.909347,-11177.109724,2368.659014,-153.219100
3318.909684,-8660.409521,2368.659014,-536.266849
3318.910021,-8956.491898,1702.473667,536.266849
3318.910358,-10436.903782,0.000000,766.095498
3318.910695,-11251.130318,-444.123565,-306.438199
3318.911033,-8808.450710,222.061783,-1149.143247
3318.911370,-7624.121203,-296.082377,-1915.238745
3318.911707,-9252.574275,0.000000,-536.266849
3318.912044,-11843.295072,-1702.473667,-1149.143247
3318.912381,-9548.656652,-1184.329507,-2757.943793
3318.912719,-8142.265362,-1850.514855,-1302.362347
3318.913056,-9918.759623,-2072.576638,1532.190996
3318.913393,-11621.233289,-3478.967927,1838.629195
3318.913730,-11029.068536,-3108.864956,-459.657299
3318.914068,-8882.471304,-1850.514855,-612.876398
3318.914405,-9918.759623,-222.061783,536.266849
3318.914742,-12213.398043,-1702.473667,1225.752797
3318.915079,-12065.356855,-1406.391290,-1072.533697
3318.915416,-8512.368333,-814.226536,-842.705048
3318.915754,-9474.636058,592.164754,1991.848295
3318.916091,-10288.862594,-740.205942,1608.800546
3318.916428,-12435.459826,0.000000,919.314598
3318.916765,-10732.986159,888.247130,-842.705048
3318.917102,-9474.636058,1850.514855,-919.314598
3318.917440,-10510.924376,1702.473667,0.000000
3318.917777,-11917.315666,-296.082377,0.000000
3318.918114,-9844.739029,0.000000,-1685.410096
3318.918451,-7920.203579,0.000000,-459.657299
3318.918789,-8808.450710,296.082377,919.314598
3318.919126,-11103.089130,-962.267725,1149.143247
3318.919463,-11029.068536,-1702.473667,0.000000
3318.919800,-8586.388927,814.226536,-766.095498
3318.920137,-8808.450710,444.123565,766.095498
3318.920475,-10140.821405,814.226536,919.314598
3318.920812,-10658.965565,-740.205942,689.485948
3318.921149,-8586.388927,222.061783,536.266849
3318.921486,-8142.265362,-222.061783,2221.676944
3318.921823,-10066.800811,-222.061783,3907.087040
3318.922161,-11917.315666,-740.205942,3753.867940
3318.922498,-10140.821405,296.082377,689.485948
3318.922835,-9326.594869,740.205942,383.047749
3318.923172,-9326.594869,1480.411884,536.266849
3318.923510,-11399.171507,-518.144159,1149.143247
3318.923847,-11251.130318,296.082377,-1532.190996
3318.924184,-8586.388927,222.061783,-1532.190996
3318.924521,-9918.759623,0.000000,1532.190996
3318.924858,-11769.274478,-1850.514855,1532.190996
3318.925196,-12139.377449,-2146.597232,-612.876398
3318.925533,-10066.800811,-1184.329507,-1532.190996
3318.925870,-9252.574275,-1258.350101,-1762.019645
3318.926207,-10066.800811,-2516.700203,0.000000
3318.926544,-12065.356855,-3108.864956,76.609550
3318.926882,-8808.450710,-1924.535449,-1455.581446
3318.927219,-8956.491898,-1998.556043,76.609550
3318.927556,-10288.862594,-1036.288319,2298.286494
3318.927893,-12139.377449,-2146.597232,1915.238745
3318.928231,-10955.047942,-1258.350101,76.609550
3318.928568,-8142.265362,-370.102971,153.219100
3318.928905,-9252.574275,222.061783,1762.019645
3318.929242,-11547.212695,0.000000,1915.238745
3318.929579,-10732.986159,0.000000,459.657299
3318.929917,-7846.182985,1998.556043,0.000000
3318.930254,-9326.594869,1554.432478,1685.410096
3318.930591,-10955.047942,1332.370696,2145.067394
3318.930928,-12065.356855,1258.350101,-229.828649
3318.931265,-9030.512492,2368.659014,-1302.362347
3318.931603,-7846.182985,2368.659014,-1685.410096
3318.931940,-9474.636058,1850.514855,-536.266849
3318.932277,-11547.212695,1480.411884,-1532.190996
3318.932614,-9030.512492,1184.329507,-2681.334243
3318.932951,-8290.306550,74.020594,-1072.533697
3318.933289,-9548.656652,0.000000,1838.629195
3318.933626,-12879.583391,-1480.411884,2451.505594
3318.933963,-10955.047942,-740.205942,0.000000
3318.934300,-8882.471304,814.226536,-1225.752797
3318.934638,-9474.636058,444.123565,459.657299
3318.934975,-11325.150913,-740.205942,306.438199
3318.935312,-10510.924376,-1406.391290,-612.876398
3318.935649,-8512.368333,-444.123565,76.609550
3318.935986,-9104.533087,-518.144159,2068.457845
3318.936324,-11621.233289,-1184.329507,3140.991542
3318.936661,-12583.501014,-2220.617826,1685.410096
3318.936998,-9326.594869,-74.020594,0.000000
3318.937335,-8956.491898,0.000000,459.657299
3318.937672,-10214.842000,74.020594,1378.971896
3318.938010,-11547.212695,-962.267725,-766.095498
3318.938347,-9918.759623,-1406.391290,-2911.162892
3318.938684,-7624.121203,-814.226536,-2068.457845
3318.939021,-8512.368333,-1184.329507,1225.752797
3318.939359,-11917.315666,-2072.576638,2221.676944
3318.939696,-11547.212695,-1554.432478,-612.876398
3318.940033,-8956.491898,-740.205942,-1302.362347
3318.940370,-9474.636058,-370.102971,612.876398
3318.940707,-11621.233289,-1184.329507,1608.800546
3318.941045,-11695.253884,-1258.350101,0.000000
3318.941382,-8586.388927,-222.061783,-1072.533697
3318.941719,-7698.141797,-444.123565,306.438199
3318.942056,-9918.759623,-1036.288319,2987.772442
3318.942393,-12657.521608,-962.267725,2221.676944
3318.942731,-10436.903782,0.000000,153.219100
3318.943068,-9030.512492,1332.370696,-153.219100
3318.943405,-9252.574275,2664.741391,1915.238745
3318.943742,-11621.233289,1850.514855,1302.362347
3318.944080,-9474.636058,1036.288319,-1762.019645
3318.944417,-7846.182985,1776.494261,-383.047749
3318.944754,-9400.615463,1924.535449,2145.067394
3318.945091,-12139.377449,148.041188,2298.286494
3318.945428,-11547.212695,74.020594,0.000000
3318.945766,-8142.265362,1332.370696,-1532.190996
3318.946103,-8216.285956,518.144159,-1455.581446
3318.946440,-10066.800811,0.000000,-1455.581446
3318.946777,-10732.986159,-1110.308913,-2834.553343
3318.947114,-7772.162391,-1110.308913,-2528.115143
3318.947452,-8216.285956,-2146.597232,-536.266849
3318.947789,-10214.842000,-1998.556043,1838.629195
3318.948126,-13397.727550,-2368.659014,1762.019645
3318.948463,-10584.944971,-1628.453072,-689.485948
3318.948801,-8216.285956,-740.205942,-536.266849
3318.949138,-10140.821405,-1184.329507,1608.800546
3318.949475,-12583.501014,-3034.844362,1608.800546
3318.949812,-10955.047942,-2072.576638,0.000000
3318.950149,-8956.491898,-740.205942,153.219100
3318.950487,-9770.718434,-370.102971,1838.629195
3318.950824,-11917.315666,-1554.432478,3294.210641
3318.951161,-12139.377449,-888.247130,1455.581446
3318.951498,-9030.512492,370.102971,0.000000
3318.951835,-8438.347739,518.144159,459.657299
3318.952173,-10584.944971,222.061783,1608.800546
3318.952510,-12361.439231,-148.041188,153.219100
3318.952847,-9400.615463,518.144159,-995.924147
3318.953184,-8068.244768,222.061783,689.485948
3318.953522,-9844.739029,148.041188,2298.286494
3318.953859,-11917.315666,-1184.329507,1225.752797
3318.954196,-10214.842000,-518.144159,-766.095498
3318.954533,-7846.182985,74.020594,-536.266849
3318.954870,-8068.244768,962.267725,1455.581446
3318.955208,-11843.295072,74.020594,1302.362347
3318.955545,-11029.068536,74.020594,-1378.971896
3318.955882,-7179.997637,1332.370696,-1838.629195
3318.956219,-8512.368333,222.061783,1378.971896
3318.956556,-11325.150913,-444.123565,2987.772442
3318.956894,-12287.418637,-370.102971,1225.752797
3318.957231,-9030.512492,1332.370696,-536.266849
3318.957568,-8290.306550,1184.329507,459.657299
3318.957905,-10584.944971,888.247130,1685.410096
3318.958243,-12731.542202,148.041188,0.000000
3318.958580,-9474.636058,-148.041188,-2757.943793
3318.958917,-7772.162391,0.000000,-612.876398
3318.959254,-9252.574275,-666.185348,2145.067394
3318.959591,-11917.315666,-1332.370696,1685.410096
3318.959929,-10955.047942,-1406.391290,-1378.971896
3318.960266,-7846.182985,-518.144159,-1915.238745
3318.960603,-8734.430116,74.020594,-995.924147
3318.960941,-12805.562797,-1480.411884,-1302.362347
3318.961278,-12065.356855,-1998.556043,-3677.258390
3318.961615,-7698.141797,-1924.535449,-3677.258390
3318.961953,-7994.224174,-1554.432478,842.705048
3318.962290,-11473.192101,-2442.679609,3217.601092
3318.962627,-12805.562797,-2590.720797,1378.971896
3318.962964,-10214.842000,-1628.453072,-1149.143247
3318.963302,-8956.491898,-592.164754,1378.971896
3318.963639,-9918.759623,-1036.288319,3370.820191
3318.963976,-11621.233289,-1036.288319,1838.629195
3318.964314,-9400.615463,148.041188,-612.876398
3318.964651,-8364.327145,1406.391290,842.705048
3318.964988,-9474.636058,1036.288319,2911.162892
3318.965325,-12139.377449,370.102971,2911.162892
3318.965663,-11399.171507,518.144159,612.876398
3318.966000,-8882.471304,2220.617826,-229.828649
3318.966337,-8438.347739,2590.720797,76.609550
3318.966675,-10288.862594,1184.329507,1072.533697
3318.967012,-10807.006753,1258.350101,-383.047749
3318.967349,-7772.162391,1628.453072,-2068.457845
3318.967687,-7476.080014,518.144159,-459.657299
3318.968024,-10732.986159,-148.041188,2298.286494
3318.968361,-12583.501014,-592.164754,919.314598
3318.968698,-9844.739029,-296.082377,-1378.971896
3318.969036,-8586.388927,814.226536,-383.047749
3318.969373,-8808.450710,0.000000,0.000000
3318.969710,-11991.336260,-814.226536,229.828649
3318.970048,-10140.821405,-1184.329507,-1608.800546
3318.970385,-7179.997637,-740.205942,-995.924147
3318.970722,-8956.491898,-740.205942,1762.019645
3318.971059,-13693.809927,-1628.453072,3217.601092
3318.971397,-12657.521608,-1332.370696,229.828649
3318.971734,-8734.430116,370.102971,-919.314598
3318.972071,-8734.430116,740.205942,842.705048
3318.972409,-11177.109724,-518.144159,1225.752797
3318.972746,-11991.336260,-1110.308913,-995.924147
3318.973083,-8956.491898,-148.041188,-3140.991542
3318.973421,-8956.491898,-1258.350101,-459.657299
3318.973758,-10436.903782,-888.247130,1608.800546
3318.974095,-12509.480420,-2442.679609,383.047749
3318.974432,-9252.574275,-1406.391290,-1532.190996
3318.974770,-8068.244768,-814.226536,-1072.533697
3318.975107,-9696.697840,-592.164754,-229.828649
3318.975444,-11917.315666,-1924.535449,-383.047749
3318.975782,-9918.759623,-1480.411884,-2451.505594
3318.976119,-7476.080014,-962.267725,-1532.190996
3318.976456,-8734.430116,-370.102971,1378.971896
3318.976793,-11399.171507,-1628.453072,2757.943793
3318.977131,-11473.192101,-1406.391290,612.876398
3318.977468,-8956.491898,370.102971,383.047749
3318.977805,-9178.553681,370.102971,2298.286494
3318.978143,-11029.068536,1184.329507,3600.648841
3318.978480,-12065.356855,962.267725,1991.848295
3318.978817,-9474.636058,2442.679609,0.000000
3318.979155,-8586.388927,2516.700203,689.485948
3318.979492,-10214.842000,1406.391290,2374.896044
3318.979829,-12361.439231,1110.308913,2451.505594
3318.980166,-10140.821405,1554.432478,-689.485948
3318.980504,-8882.471304,1258.350101,-153.219100
3318.980841,-9474.636058,1702.473667,76.609550
3318.981178,-10732.986159,148.041188,-919.314598
3318.981516,-10066.800811,-148.041188,-2604.724693
3318.981853,-7402.059420,-296.082377,-1762.019645
3318.982190,-8216.285956,-962.267725,153.219100
3318.982527,-10436.903782,-2146.597232,919.314598
3318.982865,-11473.192101,-2812.782580,383.047749
3318.983202,-9696.697840,-1036.288319,-459.657299
3318.983539,-9474.636058,-1332.370696,76.609550
3318.983877,-10436.903782,-962.267725,689.485948
3318.984214,-11547.212695,-2220.617826,0.000000
3318.984551,-9474.636058,-1702.473667,-612.876398
3318.984889,-9104.533087,-1480.411884,689.485948
3318.985226,-10066.800811,-962.267725,1532.190996
3318.985563,-12435.459826,-1628.453072,2068.457845
3318.985900,-11547.212695,-1480.411884,536.266849
3318.986238,-8882.471304,0.000000,306.438199
3318.986575,-9918.759623,444.123565,1915.238745
3318.986912,-12139.377449,222.061783,1455.581446
3318.987250,-11473.192101,370.102971,-1072.533697
3318.987587,-8956.491898,740.205942,-1838.629195
3318.987924,-8956.491898,0.000000,306.438199
3318.988261,-10288.862594,-888.247130,1149.143247
3318.988599,-11769.274478,-888.247130,383.047749
3318.988936,-9178.553681,-370.102971,-1532.190996
3318.989273,-8586.388927,0.000000,-612.876398
3318.989611,-9400.615463,222.061783,76.609550
3318.989948,-11029.068536,0.000000,-689.485948
3318.990285,-8956.491898,148.041188,-1532.190996
3318.990623,-7254.018232,0.000000,-459.657299
3318.990960,-8956.491898,0.000000,1455.581446
3318.991297,-11473.192101,-962.267725,2451.505594
3318.991634,-10881.027347,148.041188,919.314598
3318.991972,-9104.533087,740.205942,689.485948
3318.992309,-9696.697840,1110.308913,1455.581446
3318.992646,-11399.171507,444.123565,1608.800546
3318.992984,-11473.192101,0.000000,229.828649
3318.993321,-8142.265362,1036.288319,-919.314598
3318.993658,-9474.636058,518.144159,306.438199
3318.993995,-10436.903782,222.061783,1532.190996
3318.994333,-12287.418637,148.041188,536.266849
3318.994670,-10066.800811,-518.144159,-1072.533697
3318.995007,-8882.471304,74.020594,-842.705048
3318.995345,-10288.862594,0.000000,766.095498
3318.995682,-12657.521608,-370.102971,229.828649
3318.996019,-10140.821405,-592.164754,-2911.162892
3318.996357,-9178.553681,-962.267725,-2374.896044
3318.996694,-9400.615463,-1258.350101,536.266849
3318.997031,-10955.047942,-2442.679609,1072.533697
3318.997368,-11325.150913,-2368.659014,229.828649
3318.997706,-9178.553681,-1776.494261,-1225.752797
3318.998043,-9030.512492,-296.082377,306.438199
3318.998380,-11251.130318,-1628.453072,1072.533697
3318.998718,-11399.171507,-1480.411884,536.266849
3318.999055,-7994.224174,-296.082377,-612.876398
3318.999392,-8586.388927,0.000000,1608.800546
3318.999729,-10214.842000,148.041188,3753.867940
3319.000067,-12139.377449,-888.247130,2451.505594
3319.000404,-10584.944971,0.000000,76.609550
3319.000741,-8808.450710,74.020594,612.876398
3319.001079,-9104.533087,2220.617826,1608.800546
3319.001416,-11325.150913,1332.370696,76.609550
3319.001753,-10807.006753,1036.288319,-2834.553343
3319.002091,-7476.080014,888.247130,-2451.505594
3319.002428,-8364.327145,370.102971,-306.438199
3319.002765,-11103.089130,-222.061783,1455.581446
3319.003102,-11251.130318,74.020594,-153.219100
3319.003440,-8808.450710,-518.144159,-612.876398
3319.003777,-9030.512492,444.123565,0.000000
3319.004114,-10436.903782,-518.144159,459.657299
3319.004452,-12805.562797,-74.020594,0.000000
3319.004789,-9252.574275,-740.205942,-2374.896044
3319.005126,-8364.327145,-444.123565,-459.657299
3319.005463,-9918.759623,-962.267725,2374.896044
3319.005801,-11843.295072,-2220.617826,2145.067394
3319.006138,-9844.739029,-1924.535449,153.219100
3319.006475,-9178.553681,-740.205942,536.266849
3319.006813,-9770.718434,814.226536,1915.238745
3319.007150,-12361.439231,0.000000,2451.505594
3319.007487,-11621.233289,74.020594,459.657299
3319.007825,-8512.368333,0.000000,-1225.752797
3319.008162,-9030.512492,74.020594,995.924147
3319.008499,-10881.027347,-518.144159,1532.190996
3319.008836,-11843.295072,-1850.514855,306.438199
3319.009174,-8882.471304,-666.185348,-1378.971896
3319.009511,-8586.388927,-814.226536,-459.657299
3319.009848,-10436.903782,666.185348,76.609550
3319.010186,-12583.501014,-1110.308913,-1455.581446
3319.010523,-9030.512492,-888.247130,-3447.429741
3319.010860,-6957.935855,-1110.308913,-1225.752797
3319.011197,-9548.656652,-1184.329507,2681.334243
3319.011535,-12583.501014,-2146.597232,2757.943793
3319.011872,-11177.109724,-1702.473667,459.657299
3319.012209,-9252.574275,0.000000,76.609550
3319.012547,-9474.636058,148.041188,1378.971896
3319.012884,-11843.295072,-1110.308913,1608.800546
3319.013221,-10807.006753,-444.123565,-229.828649
3319.013559,-8216.285956,222.061783,0.000000
3319.013896,-7772.162391,888.247130,1915.238745
3319.014233,-10510.924376,962.267725,2374.896044
3319.014570,-12583.501014,0.000000,1455.581446
3319.014908,-9474.636058,1258.350101,-995.924147
3319.015245,-8068.244768,1406.391290,0.000000
3319.015582,-10140.821405,1628.453072,1685.410096
3319.015920,-11917.315666,296.082377,383.047749
3319.016257,-9696.697840,444.123565,-2145.067394
3319.016594,-8216.285956,0.000000,-1685.410096
3319.016931,-8734.430116,518.144159,1072.533697
3319.017269,-11843.295072,-1332.370696,995.924147
3319.017606,-10510.924376,-2146.597232,-1455.581446
3319.017943,-7846.182985,-962.267725,-1532.190996
3319.018281,-8734.430116,-888.247130,459.657299
3319.018618,-11177.109724,-592.164754,766.095498
3319.018955,-12139.377449,-1628.453072,-1149.143247
3319.019293,-9030.512492,-296.082377,-1838.629195
3319.019630,-8068.244768,-1036.288319,76.609550
3319.019967,-10436.903782,-1332.370696,3064.381992
3319.020304,-12509.480420,-2220.617826,1991.848295
3319.020642,-9918.759623,-888.247130,-995.924147
3319.020979,-9104.533087,0.000000,536.266849
3319.021316,-9400.615463,0.000000,2681.334243
3319.021654,-11547.212695,-814.226536,1991.848295
3319.021991,-10066.800811,-148.041188,0.000000
3319.022328,-8438.347739,962.267725,0.000000
3319.022665,-9400.615463,1036.288319,1225.752797
3319.023003,-12805.562797,0.000000,1225.752797
3319.023340,-12065.356855,-740.205942,0.000000
3319.023677,-8438.347739,444.123565,-1302.362347
3319.024015,-7624.121203,814.226536,-689.485948
3319.024352,-11251.130318,0.000000,459.657299
3319.024689,-12139.377449,-592.164754,-766.095498
3319.025027,-8808.450710,-592.164754,-2451.505594
3319.025364,-8290.306550,-444.123565,0.000000
3319.025701,-10288.862594,0.000000,2145.067394
3319.026038,-13249.686362,-296.082377,1991.848295
3319.026376,-10066.800811,0.000000,-689.485948
3319.026713,-7254.018232,74.020594,-153.219100
3319.027050,-9474.636058,888.247130,2451.505594
3319.027388,-12583.501014,222.061783,2451.505594
3319.027725,-10140.821405,370.102971,-842.705048
3319.028062,-7624.121203,1332.370696,-842.705048
3319.028399,-8438.347739,962.267725,612.876398
3319.028737,-11325.150913,-592.164754,1915.238745
3319.029074,-11843.295072,-814.226536,-229.828649
3319.029411,-7698.141797,148.041188,-1225.752797
3319.029749,-8364.327145,814.226536,0.000000
3319.030086,-11177.109724,-370.102971,306.438199
3319.030423,-11843.295072,-1258.350101,-1149.143247
3319.030761,-8438.347739,-888.247130,-2528.115143
3319.031098,-7698.141797,-444.123565,-995.924147
3319.031435,-10066.800811,-518.144159,459.657299
3319.031772,-13323.706956,-2220.617826,-229.828649
3319.032110,-10732.986159,-2220.617826,-1991.848295
3319.032447,-8586.388927,-1406.391290,-766.095498
3319.032784,-9548.656652,-222.061783,1072.533697
3319.033122,-13397.727550,-1406.391290,919.314598
3319.033459,-11399.171507,-1554.432478,-1915.238745
3319.033796,-7846.182985,-1480.411884,-995.924147
3319.034133,-9030.512492,-814.226536,2987.772442
3319.034471,-10955.047942,-666.185348,4443.353888
3319.034808,-13175.665768,-666.185348,2911.162892
3319.035145,-9992.780217,962.267725,459.657299
3319.035483,-8956.491898,1480.411884,842.705048
3319.035820,-10436.903782,1184.329507,2681.334243
3319.036157,-12065.356855,296.082377,1378.971896
3319.036495,-9104.533087,1036.288319,-1302.362347
3319.036832,-7550.100608,1110.308913,0.000000
3319.037169,-8290.306550,1332.370696,1685.410096
3319.037506,-11251.130318,-296.082377,1762.019645
3319.037844,-9992.780217,-592.164754,-766.095498
3319.038181,-7846.182985,962.267725,-766.095498
3319.038518,-8438.347739,1184.329507,229.828649
3319.038856,-11843.295072,-296.082377,919.314598
3319.039193,-10732.986159,-1036.288319,-1608.800546
3319.039530,-7476.080014,222.061783,-1608.800546
3319.039867,-8660.409521,74.020594,919.314598
3319.040205,-11177.109724,-1332.370696,1915.238745
3319.040542,-11843.295072,-740.205942,459.657299
3319.040879,-9400.615463,-888.247130,-1225.752797
3319.041217,-9178.553681,-296.082377,536.266849
3319.041554,-10066.800811,74.020594,1378.971896
3319.041891,-12953.603985,-222.061783,1532.190996
3319.042229,-10732.986159,-148.041188,0.000000
3319.042566,-9178.553681,444.123565,-306.438199
3319.042903,-10214.842000,666.185348,1915.238745
3319.043240,-12953.603985,0.000000,1762.019645
3319.043578,-11769.274478,-1702.473667,-612.876398
3319.043915,-8068.244768,-444.123565,-1378.971896
3319.044252,-8438.347739,222.061783,76.609550
3319.044590,-11399.171507,-962.267725,459.657299
3319.044927,-11843.295072,-2368.659014,-1762.019645
3319.045264,-7624.121203,-1258.350101,-3447.429741
3319.045601,-7920.203579,-1332.370696,0.000000
3319.045939,-10066.800811,-2368.659014,2145.067394
3319.046276,-11917.315666,-2294.638420,842.705048
3319.046613,-8956.491898,-1554.432478,-1532.190996
3319.046951,-8068.244768,-592.164754,-306.438199
3319.047288,-9474.636058,-740.205942,1532.190996
3319.047625,-12065.356855,-1480.411884,1762.019645
3319.047963,-9918.759623,-1406.391290,-153.219100
3319.048300,-7920.203579,296.082377,766.095498
3319.048637,-9918.759623,1184.329507,3140.991542
3319.048974,-13101.645173,222.061783,3447.429741
3319.049312,-12213.398043,444.123565,1225.752797
3319.049649,-9252.574275,1850.514855,459.657299
3319.049986,-8808.450710,2886.803174,1991.848295
3319.050324,-10584.944971,2072.576638,1762.019645
3319.050661,-12213.398043,1702.473667,-459.657299
3319.050998,-8438.347739,1332.370696,-2221.676944
3319.051335,-8142.265362,1258.350101,-766.095498
3319.051673,-10214.842000,222.061783,1762.019645
3319.052010,-13101.645173,-444.123565,1302.362347
3319.052347,-9030.512492,0.000000,-2298.286494
3319.052685,-7698.141797,-296.082377,-1685.410096
3319.053022,-8882.471304,148.041188,0.000000
3319.053359,-10807.006753,-1924.535449,-995.924147
3319.053697,-10510.924376,-1776.494261,-2068.457845
3319.054034,-7772.162391,-1702.473667,-1378.971896
3319.054371,-8512.368333,-1258.350101,1915.238745
3319.054708,-11621.233289,-2146.597232,2145.067394
3319.055046,-10955.047942,-2812.782580,-612.876398
3319.055383,-8512.368333,-1406.391290,0.000000
3319.055720,-9918.759623,-296.082377,1608.800546
3319.056058,-11029.068536,-518.144159,1378.971896
3319.056395,-12213.398043,-814.226536,0.000000
3319.056732,-9548.656652,-370.102971,-1378.971896
3319.057069,-8438.347739,0.000000,0.000000
3319.057407,-10140.821405,370.102971,2451.505594
3319.057744,-13027.624579,0.000000,1225.752797
3319.058081,-10807.006753,0.000000,-1378.971896
3319.058419,-9474.636058,1110.308913,-1455.581446
3319.058756,-10214.842000,1702.473667,153.219100
3319.059093,-12065.356855,222.061783,0.000000
3319.059431,-10584.944971,-222.061783,-1915.238745
3319.059768,-7698.141797,296.082377,-1378.971896
3319.060105,-8660.409521,148.041188,1455.581446
3319.060442,-11029.068536,-1110.308913,1838.629195
3319.060781,-11695.253884,-962.267725,842.705048
3319.061118,-8438.347739,0.000000,-919.314598
3319.061456,-8364.327145,814.226536,1149.143247
3319.061793,-9474.636058,74.020594,2068.457845
3319.062130,-10658.965565,-518.144159,1149.143247
3319.062468,-8586.388927,962.267725,0.000000
3319.062805,-8438.347739,370.102971,2221.676944
3319.063142,-9992.780217,1702.473667,2757.943793
3319.063479,-11843.295072,0.000000,2451.505594
3319.063817,-10881.027347,814.226536,306.438199
3319.064154,-8586.388927,888.247130,-612.876398
3319.064491,-8956.491898,1702.473667,306.438199
3319.064829,-11251.130318,518.144159,153.219100
3319.065166,-10362.883188,-444.123565,-1991.848295
3319.065503,-7772.162391,0.000000,-1838.629195
3319.065840,-9474.636058,-518.144159,306.438199
3319.066178,-11399.171507,-1184.329507,1455.581446
3319.066515,-12583.501014,-1924.535449,306.438199
3319.066852,-9326.594869,-1184.329507,-1302.362347
3319.067189,-8586.388927,-1554.432478,-459.657299
3319.067527,-10510.924376,-1110.308913,459.657299
3319.067864,-12361.439231,-2368.659014,-536.266849
3319.068201,-9696.697840,-2516.700203,-2221.676944
3319.068539,-8438.347739,-2146.597232,-766.095498
3319.068876,-9178.553681,-2368.659014,1685.410096
3319.069213,-11547.212695,-3034.844362,2374.896044
3319.069550,-11103.089130,-2146.597232,842.705048
3319.069888,-8956.491898,-74.020594,0.000000
3319.070225,-10140.821405,592.164754,1991.848295
3319.070562,-11325.150913,148.041188,1532.190996
3319.070900,-11621.233289,-296.082377,0.000000
3319.071237,-8142.265362,0.000000,0.000000
3319.071574,-8882.471304,1332.370696,2528.115143
3319.071911,-10732.986159,296.082377,3217.601092
3319.072249,-12583.501014,0.000000,766.095498
3319.072586,-9474.636058,222.061783,-1455.581446
3319.072923,-8512.368333,1110.308913,-536.266849
3319.073261,-8660.409521,2072.576638,153.219100
3319.073598,-11399.171507,444.123565,-459.657299
3319.073935,-9252.574275,444.123565,-2911.162892
3319.074272,-7476.080014,1258.350101,-2451.505594
3319.074610,-10066.800811,0.000000,1302.362347
3319.074947,-11547.212695,-518.144159,2145.067394
3319.075284,-11325.150913,-1406.391290,0.000000
3319.075622,-9178.553681,518.144159,-689.485948
3319.075959,-8142.265362,0.000000,0.000000
3319.076296,-10584.944971,-1036.288319,842.705048
3319.076633,-11103.089130,-1480.411884,229.828649
3319.076971,-7772.162391,-518.144159,-842.705048
3319.077308,-9770.718434,148.041188,2221.676944
3319.077645,-11473.192101,-444.123565,2221.676944
3319.077983,-12435.459826,-666.185348,1838.629195
3319.078320,-9844.739029,0.000000,-995.924147
3319.078657,-8364.327145,444.123565,229.828649
3319.078994,-10066.800811,518.144159,1378.971896
3319.079332,-12139.377449,-962.267725,536.266849
3319.079669,-9918.759623,-814.226536,-1378.971896
3319.080006,-8216.285956,-1332.370696,-766.095498
3319.080344,-9622.677246,0.000000,1455.581446
3319.080681,-11621.233289,-1998.556043,1302.362347
3319.081018,-11177.109724,-2220.617826,-766.095498
3319.081355,-8142.265362,-1332.370696,-1838.629195
3319.081693,-9030.512492,-222.061783,153.219100
3319.082030,-10658.965565,-1184.329507,1149.143247
3319.082367,-12213.398043,-1332.370696,-153.219100
3319.082705,-8956.491898,-962.267725,-842.705048
3319.083042,-8216.285956,0.000000,1378.971896
3319.083379,-10066.800811,-1184.329507,4136.915689
3319.083716,-12435.459826,-592.164754,2451.505594
3319.084054,-10584.944971,-740.205942,459.657299
3319.084391,-9474.636058,888.247130,1225.752797
3319.084728,-8660.409521,2072.576638,1378.971896
3319.085065,-11547.212695,888.247130,1455.581446
3319.085403,-11177.109724,1628.453072,-612.876398
3319.085740,-8438.347739,2146.597232,-2221.676944
3319.086077,-8734.430116,2072.576638,612.876398
3319.086415,-11621.233289,222.061783,1302.362347
3319.086752,-11695.253884,74.020594,0.000000
3319.087089,-9178.553681,666.185348,-2221.676944
3319.087426,-8586.388927,1850.514855,-1149.143247
3319.087764,-9844.739029,370.102971,-1532.190996
3319.088101,-11621.233289,-370.102971,-2374.896044
3319.088438,-8586.388927,-370.102971,-3677.258390
3319.088776,-7994.224174,-1332.370696,-1072.533697
3319.089113,-9474.636058,-888.247130,2451.505594
3319.089450,-13323.706956,-2442.679609,1532.190996
3319.089787,-10881.027347,-1110.308913,-689.485948
3319.090125,-8660.409521,-1036.288319,-1838.629195
3319.090462,-9400.615463,0.000000,766.095498
3319.090799,-11547.212695,-962.267725,1685.410096
3319.091137,-11695.253884,-1702.473667,-459.657299
3319.091474,-8216.285956,-666.185348,-842.705048
3319.091811,-9252.574275,-74.020594,1378.971896
3319.092148,-11843.295072,-1258.350101,3064.381992
3319.092486,-12361.439231,-1998.556043,1455.581446
3319.092823,-8882.471304,-518.144159,-383.047749
3319.093160,-7846.182985,1110.308913,1302.362347
3319.093498,-10658.965565,0.000000,2374.896044
3319.093835,-12065.356855,-888.247130,459.657299
3319.094172,-9474.636058,-370.102971,-2681.334243
3319.094509,-8660.409521,-592.164754,76.609550
3319.094847,-9326.594869,-740.205942,1685.410096
3319.095184,-11843.295072,-1850.514855,2604.724693
3319.095521,-10807.006753,-666.185348,0.000000
3319.095859,-8364.327145,-148.041188,-1225.752797
3319.096196,-9252.574275,666.185348,919.314598
3319.096533,-11621.233289,-444.123565,766.095498
3319.096870,-11621.233289,0.000000,919.314598
3319.097208,-7772.162391,222.061783,229.828649
3319.097545,-8586.388927,518.144159,2068.457845
3319.097882,-10807.006753,888.247130,3447.429741
3319.098220,-12805.562797,-370.102971,2834.553343
3319.098557,-9474.636058,2442.679609,383.047749
3319.098894,-8438.347739,1406.391290,153.219100
3319.099231,-9992.780217,2072.576638,919.314598
3319.099569,-11399.171507,370.102971,0.000000
3319.099906,-9400.615463,592.164754,-2834.553343
3319.100243,-7254.018232,962.267725,-919.314598
3319.100581,-8438.347739,444.123565,842.705048
3319.100918,-11991.336260,-666.185348,1455.581446
3319.101255,-11843.295072,-1332.370696,-689.485948
3319.101592,-8586.388927,0.000000,-1991.848295
3319.101930,-9178.553681,-592.164754,-919.314598
3319.102267,-10658.965565,-1480.411884,-919.314598
3319.102604,-9992.780217,-2664.741391,-2834.553343
3319.102942,-7254.018232,-2146.597232,-2911.162892
3319.103279,-7476.080014,-1776.494261,-536.266849
3319.103616,-11399.171507,-2664.741391,1455.581446
3319.103953,-13619.789333,-3108.864956,1149.143247
3319.104291,-10955.047942,-1850.514855,-1455.581446
3319.104628,-9474.636058,-666.185348,689.485948
3319.104965,-10140.821405,-296.082377,2451.505594
3319.105302,-12657.521608,-1554.432478,2604.724693
3319.105640,-11325.150913,-222.061783,229.828649
3319.105977,-8438.347739,0.000000,995.924147
3319.106314,-10288.862594,592.164754,3370.820191
3319.106652,-12805.562797,-666.185348,2834.553343
3319.106989,-13249.686362,0.000000,306.438199
3319.107326,-8882.471304,1184.329507,-1455.581446
3319.107663,-8290.306550,1036.288319,306.438199
3319.108001,-9400.615463,1110.308913,1532.190996
3319.108338,-10658.965565,-74.020594,-612.876398
3319.108675,-7698.141797,592.164754,-2068.457845
3319.109013,-8290.306550,1110.308913,0.000000
3319.109350,-10214.842000,-148.041188,1149.143247
3319.109687,-11621.233289,-1406.391290,1225.752797
3319.110024,-9104.533087,-888.247130,-536.266849
3319.110362,-6735.874072,518.144159,306.438199
3319.110699,-9178.553681,444.123565,1532.190996
3319.111036,-11991.336260,-370.102971,1225.752797
3319.111374,-10214.842000,-1110.308913,-1455.581446
3319.111711,-7920.203579,0.000000,-536.266849
3319.112048,-9178.553681,370.102971,2451.505594
3319.112385,-11695.253884,-888.247130,2757.943793
3319.112723,-12213.398043,-74.020594,1302.362347
3319.113060,-9326.594869,888.247130,-459.657299
3319.113397,-10362.883188,1924.535449,536.266849
3319.113735,-12213.398043,814.226536,612.876398
3319.114072,-12731.542202,148.041188,-842.705048
3319.114409,-8956.491898,740.205942,-2681.334243
3319.114746,-8290.306550,74.020594,-919.314598
3319.115084,-9474.636058,-592.164754,1072.533697
3319.115421,-12213.398043,-1924.535449,612.876398
3319.115758,-10658.965565,-1110.308913,-1762.019645
3319.116096,-8586.388927,-666.185348,-1991.848295
3319.116433,-9104.533087,-518.144159,-306.438199
3319.116770,-11325.150913,-2146.597232,-459.657299
3319.117107,-10140.821405,-2294.638420,-2528.115143
3319.117445,-7031.956449,-1110.308913,-1532.190996
3319.117782,-8660.409521,-1184.329507,1685.410096
3319.118119,-11769.274478,-1998.556043,2528.115143
3319.118457,-12065.356855,-1554.432478,612.876398
3319.118794,-9252.574275,-444.123565,76.609550
3319.119131,-8586.388927,148.041188,1762.019645
3319.119468,-9918.759623,592.164754,1915.238745
3319.119806,-11843.295072,1036.288319,1149.143247
3319.120143,-9548.656652,592.164754,-1072.533697
3319.120480,-8660.409521,1850.514855,842.705048
3319.120818,-10066.800811,2294.638420,2068.457845
3319.121155,-12361.439231,740.205942,2451.505594
3319.121492,-10362.883188,1110.308913,-1225.752797
3319.121829,-8586.388927,1702.473667,-1072.533697
3319.122167,-9696.697840,1406.391290,1072.533697
3319.122504,-11473.192101,518.144159,459.657299
3319.122841,-11325.150913,296.082377,-1302.362347
3319.123179,-8216.285956,1628.453072,-1915.238745
3319.123516,-8882.471304,-666.185348,-153.219100
3319.123853,-9918.759623,-1258.350101,1608.800546
3319.124190,-11103.089130,-2220.617826,1149.143247
3319.124528,-8068.244768,-1332.370696,-383.047749
3319.124865,-8734.430116,-1554.432478,995.924147
3319.125202,-10288.862594,-962.267725,1608.800546
3319.125539,-13175.665768,-1554.432478,842.705048
3319.125877,-10066.800811,-1184.329507,-1378.971896
3319.126214,-8216.285956,-296.082377,229.828649
3319.126551,-9696.697840,-592.164754,2451.505594
3319.126889,-11769.274478,-1554.432478,2451.505594
3319.127226,-10510.924376,-1924.535449,-76.609550
3319.127563,-9326.594869,-518.144159,229.828649
3319.127900,-9918.759623,-444.123565,1225.752797
3319.128238,-10955.047942,-1036.288319,383.047749
3319.128575,-11103.089130,-666.185348,-766.095498
3319.128912,-8290.306550,-296.082377,-1608.800546
3319.129250,-8586.388927,-666.185348,153.219100
3319.129587,-11103.089130,-592.164754,1762.019645
3319.129924,-12731.542202,-1554.432478,995.924147
3319.130261,-10214.842000,-1628.453072,-1225.752797
3319.130599,-9326.594869,-296.082377,-1149.143247
3319.130936,-9252.574275,-888.247130,0.000000
3319.131273,-11103.089130,-962.267725,995.924147
3319.131611,-8808.450710,-592.164754,-2681.334243
3319.131948,-7402.059420,0.000000,-919.314598
3319.132285,-9622.677246,666.185348,995.924147
3319.132622,-11769.274478,-592.164754,1991.848295
3319.132960,-12435.459826,-222.061783,842.705048
3319.133297,-8808.450710,1110.308913,0.000000
3319.133634,-9474.636058,1406.391290,2374.896044
3319.133972,-10732.986159,962.267725,1838.629195
3319.134309,-10584.944971,1258.350101,612.876398
3319.134646,-8808.450710,1924.535449,-536.266849
3319.134983,-9696.697840,1776.494261,-383.047749
3319.135321,-10807.006753,814.226536,766.095498
3319.135658,-12361.439231,74.020594,689.485948
3319.135995,-8734.430116,-74.020594,-1762.019645
3319.136333,-7698.141797,518.144159,-995.924147
3319.136670,-9474.636058,222.061783,0.000000
3319.137007,-10881.027347,-444.123565,-1608.800546
3319.137344,-10066.800811,-962.267725,-3370.820191
3319.137682,-8438.347739,-888.247130,-2221.676944
3319.138019,-9104.533087,-1702.473667,536.266849
3319.138356,-11843.295072,-2960.823768,1838.629195
3319.138694,-11251.130318,-2516.700203,0.000000
3319.139031,-8660.409521,-1258.350101,-919.314598
3319.139368,-9400.615463,-1110.308913,689.485948
3319.139705,-10955.047942,-1850.514855,1302.362347
3319.140043,-11991.336260,-1776.494261,1225.752797
3319.140380,-9178.553681,-1184.329507,0.000000
3319.140717,-9474.636058,0.000000,2145.067394
3319.141055,-10362.883188,148.041188,3294.210641
3319.141392,-12213.398043,-1184.329507,2834.553343
3319.141729,-9770.718434,-296.082377,229.828649
3319.142066,-8660.409521,370.102971,1302.362347
3319.142404,-10510.924376,1998.556043,2298.286494
3319.142741,-12287.418637,74.020594,919.314598
3319.143078,-10658.965565,1110.308913,-2451.505594
3319.143415,-7994.224174,518.144159,-2068.457845
3319.143753,-9178.553681,1036.288319,1072.533697
3319.144090,-9844.739029,0.000000,1455.581446
3319.144427,-10658.965565,-444.123565,76.609550
3319.144765,-8882.471304,0.000000,-1762.019645
3319.145102,-8364.327145,148.041188,-612.876398
3319.145439,-9622.677246,-518.144159,995.924147
3319.145776,-11695.253884,-148.041188,383.047749
3319.146114,-8734.430116,-74.020594,-1532.190996
3319.146451,-8660.409521,74.020594,229.828649
3319.146788,-9770.718434,-592.164754,1455.581446
3319.147126,-11621.233289,-1480.411884,1302.362347
3319.147463,-10436.903782,0.000000,-306.438199
3319.147800,-8660.409521,666.185348,-842.705048
3319.148137,-10066.800811,1332.370696,612.876398
3319.148475,-11695.253884,0.000000,766.095498
3319.148812,-11177.109724,296.082377,-1225.752797
3319.149149,-7846.182985,1036.288319,-1762.019645
3319.149487,-9252.574275,666.185348,1072.533697
3319.149824,-11251.130318,-666.185348,1072.533697
3319.150161,-12361.439231,-1998.556043,229.828649
3319.150498,-8956.491898,-666.185348,-1455.581446
3319.150836,-9474.636058,-666.185348,-536.266849
3319.151173,-10362.883188,-962.267725,-536.266849
3319.151510,-11399.171507,-1776.494261,-1991.848295
3319.151848,-9104.533087,-1480.411884,-2911.162892
3319.152185,-8068.244768,-1776.494261,-612.876398
3319.152522,-9474.636058,-1628.453072,2068.457845
3319.152859,-11917.315666,-3034.844362,2221.676944
3319.153197,-10881.027347,-1332.370696,383.047749
3319.153534,-8956.491898,-1406.391290,536.266849
3319.153871,-9326.594869,-222.061783,1915.238745
3319.154209,-10658.965565,-814.226536,2451.505594
3319.154546,-12287.418637,-1110.308913,1991.848295
3319.154883,-8734.430116,518.144159,459.657299
3319.155220,-8956.491898,1036.288319,1685.410096
3319.155558,-11177.109724,148.041188,2834.553343
3319.155895,-11325.150913,0.000000,1915.238745
3319.156232,-9104.533087,1258.350101,-306.438199
3319.156570,-8512.368333,1036.288319,-76.609550
3319.156907,-9548.656652,1998.556043,919.314598
3319.157244,-11695.253884,0.000000,153.219100
3319.157581,-9770.718434,666.185348,-2451.505594
3319.157919,-7624.121203,1332.370696,-1302.362347
3319.158256,-9326.594869,962.267725,842.705048
3319.158593,-11473.192101,-370.102971,229.828649
3319.158931,-11473.192101,-1406.391290,-1762.019645
3319.159268,-7402.059420,-962.267725,-2298.286494
3319.159605,-8142.265362,0.000000,766.095498
3319.159942,-10584.944971,-1406.391290,1685.410096
3319.160280,-12287.418637,-1110.308913,-612.876398
3319.160617,-9252.574275,-370.102971,-2451.505594
3319.160954,-8956.491898,0.000000,536.266849
3319.161292,-10436.903782,-1184.329507,3217.601092
3319.161629,-13101.645173,-1776.494261,2604.724693
3319.161966,-9918.759623,-296.082377,-536.266849
3319.162303,-8438.347739,444.123565,0.000000
3319.162641,-9474.636058,222.061783,1455.581446
3319.162978,-11991.336260,-74.020594,229.828649
3319.163315,-11325.150913,-1332.370696,-842.705048
3319.163652,-8438.347739,370.102971,-919.314598
3319.163990,-8808.450710,0.000000,612.876398
3319.164327,-11843.295072,-962.267725,2451.505594
3319.164664,-12361.439231,-1332.370696,0.000000
3319.165001,-8956.491898,222.061783,-2068.457845
3319.165339,-8956.491898,-222.061783,-689.485948
3319.165676,-9918.759623,-1406.391290,459.657299
3319.166013,-11177.109724,-2146.597232,229.828649
3319.166351,-8290.306550,-1110.308913,-1302.362347
3319.166688,-7846.182985,-666.185348,0.000000
3319.167025,-10436.903782,-962.267725,1991.848295
3319.167362,-13101.645173,-1332.370696,1838.629195
3319.167700,-9918.759623,-148.041188,76.609550
3319.168037,-9400.615463,148.041188,1762.019645
3319.168374,-9474.636058,370.102971,2987.772442
3319.168711,-12213.398043,0.000000,2911.162892
3319.169049,-11473.192101,1184.329507,842.705048
3319.169386,-9178.553681,1628.453072,-612.876398
3319.169723,-9770.718434,2590.720797,1302.362347
3319.170060,-12065.356855,1036.288319,2068.457845
3319.170398,-12065.356855,518.144159,0.000000
3319.170735,-8290.306550,1258.350101,-1915.238745
3319.171072,-7772.162391,1184.329507,-536.266849
3319.171410,-9104.533087,74.020594,842.705048
3319.171747,-11621.233289,-1036.288319,-229.828649
3319.172084,-9252.574275,0.000000,-1991.848295
3319.172421,-7772.162391,0.000000,-612.876398
3319.172759,-9252.574275,-444.123565,536.266849
3319.173096,-11991.336260,-1702.473667,689.485948
3319.173433,-10807.006753,-2294.638420,-1762.019645
3319.173770,-7846.182985,-1406.391290,-1608.800546
3319.174108,-8438.347739,-740.205942,0.000000
3319.174445,-11547.212695,-1628.453072,1149.143247
3319.174782,-11473.192101,-1998.556043,-1378.971896
3319.175119,-7994.224174,-1480.411884,-1608.800546
3319.175457,-8956.491898,0.000000,1685.410096
3319.175794,-11103.089130,-666.185348,2604.724693
3319.176131,-13989.892304,-592.164754,2451.505594
3319.176469,-10214.842000,74.020594,0.000000
3319.176806,-9252.574275,888.247130,1762.019645
3319.177143,-10362.883188,888.247130,1991.848295
3319.177480,-12657.521608,518.144159,1225.752797
3319.177818,-9992.780217,1184.329507,-1455.581446
3319.178155,-8808.450710,814.226536,-1072.533697
3319.178492,-9474.636058,1184.329507,1225.752797
3319.178829,-12139.377449,-444.123565,919.314598
3319.179167,-10584.944971,444.123565,-995.924147
3319.179504,-7846.182985,592.164754,-2298.286494
3319.179841,-8660.409521,296.082377,-153.219100
3319.180178,-10658.965565,-1776.494261,842.705048
3319.180516,-10066.800811,-1554.432478,536.266849
3319.180853,-7254.018232,-222.061783,-306.438199
3319.181190,-9104.533087,-888.247130,1302.362347
3319.181528,-10510.924376,-592.164754,1225.752797
3319.181865,-11991.336260,-1110.308913,842.705048
3319.182202,-9178.553681,-222.061783,-306.438199
3319.182539,-7624.121203,-296.082377,229.828649
3319.182877,-10066.800811,148.041188,1455.581446
3319.183214,-12879.583391,0.000000,1685.410096
3319.183551,-10584.944971,-370.102971,-1532.190996
3319.183888,-8216.285956,-222.061783,-229.828649
3319.184226,-9474.636058,962.267725,1378.971896
3319.184563,-12361.439231,-888.247130,2221.676944
3319.184900,-12139.377449,-222.061783,-383.047749
3319.185237,-8586.388927,444.123565,-1915.238745
3319.185575,-9696.697840,370.102971,459.657299
3319.185912,-10732.986159,-1110.308913,76.609550
3319.186249,-12435.459826,-888.247130,-1378.971896
3319.186587,-9104.533087,-666.185348,-2911.162892
3319.186924,-8808.450710,-1480.411884,-229.828649
3319.187261,-9252.574275,-1406.391290,919.314598
3319.187598,-11917.315666,-2516.700203,1685.410096
3319.187936,-9770.718434,-740.205942,-229.828649
3319.188273,-9326.594869,-740.205942,-536.266849
3319.188610,-9918.759623,222.061783,1915.238745
3319.188947,-12139.377449,-1184.329507,2145.067394
3319.189285,-10140.821405,-1036.288319,842.705048
3319.189622,-7476.080014,444.123565,612.876398
3319.189959,-8808.450710,296.082377,3370.820191
3319.190297,-11103.089130,370.102971,3064.381992
3319.190634,-11399.171507,518.144159,1302.362347
3319.190971,-8808.450710,1850.514855,-1072.533697
3319.191308,-8438.347739,2294.638420,-612.876398
3319.191646,-9918.759623,1628.453072,536.266849
3319.191983,-11325.150913,1702.473667,-153.219100
3319.192320,-7772.162391,1628.453072,-2374.896044
3319.192657,-7994.224174,1184.329507,76.609550
3319.192995,-10658.965565,814.226536,2068.457845
3319.193332,-13175.665768,148.041188,1608.800546
3319.193669,-10658.965565,148.041188,-1225.752797
3319.194006,-8734.430116,0.000000,-1532.190996
3319.194344,-8586.388927,-222.061783,-995.924147
3319.194681,-11177.109724,-1702.473667,-229.828649
3319.195018,-10362.883188,-1776.494261,-1532.190996
3319.195356,-7624.121203,-1332.370696,-2145.067394
3319.195693,-9474.636058,-666.185348,536.266849
3319.196030,-12435.459826,-1554.432478,995.924147
3319.196367,-12139.377449,-2220.617826,1072.533697
3319.196705,-9178.553681,-814.226536,536.266849
3319.197042,-9030.512492,-666.185348,2068.457845
3319.197379,-10214.842000,-592.164754,2834.553343
3319.197716,-12731.542202,-1258.350101,1455.581446
3319.198054,-10066.800811,-1258.350101,-612.876398
3319.198391,-9178.553681,-1184.329507,1072.533697
3319.198728,-9992.780217,-666.185348,2528.115143
3319.199065,-11251.130318,-740.205942,842.705048
3319.199403,-10066.800811,-740.205942,-2068.457845
3319.199740,-8512.368333,592.164754,-2298.286494
3319.200077,-9400.615463,0.000000,-612.876398
3319.200415,-11325.150913,-592.164754,0.000000
3319.200752,-10955.047942,-1332.370696,-1608.800546
3319.201089,-8142.265362,-296.082377,-1685.410096
3319.201426,-8734.430116,-148.041188,153.219100
3319.201764,-10807.006753,-1036.288319,2068.457845
3319.202101,-11843.295072,-1110.308913,995.924147
3319.202438,-9030.512492,-148.041188,-1072.533697
3319.202775,-8956.491898,0.000000,1149.143247
3319.203113,-9992.780217,592.164754,1838.629195
3319.203450,-11547.212695,-296.082377,919.314598
3319.203787,-8956.491898,1036.288319,-995.924147
3319.204124,-8068.244768,962.267725,0.000000
3319.204462,-9622.677246,1406.391290,2374.896044
3319.204799,-12287.418637,0.000000,2757.943793
3319.205136,-10807.006753,962.267725,536.266849
3319.205474,-8734.430116,1036.288319,-229.828649
3319.205811,-9622.677246,1406.391290,919.314598
3319.206148,-10881.027347,296.082377,995.924147
3319.206485,-11029.068536,-592.164754,-612.876398
3319.206823,-7476.080014,0.000000,-1685.410096
3319.207160,-8586.388927,-962.267725,-76.609550
3319.207497,-10658.965565,-1036.288319,842.705048
3319.207834,-11769.274478,-1628.453072,-612.876398
3319.208172,-9030.512492,-1110.308913,-2681.334243
3319.208509,-8586.388927,-1110.308913,-689.485948
3319.208846,-9696.697840,-1776.494261,612.876398
3319.209183,-11991.336260,-2368.659014,919.314598
3319.209521,-10732.986159,-1998.556043,-1072.533697
3319.209858,-8586.388927,-1702.473667,-229.828649
3319.210195,-10066.800811,-1850.514855,1378.971896
3319.210533,-12287.418637,-1850.514855,2145.067394
3319.210870,-12435.459826,-1850.514855,612.876398
3319.211207,-8660.409521,-296.082377,536.266849
3319.211544,-8586.388927,444.123565,1225.752797
3319.211882,-11103.089130,518.144159,2298.286494
3319.212219,-12731.542202,148.041188,459.657299
3319.212556,-8956.491898,518.144159,-1302.362347
3319.212893,-9548.656652,592.164754,1378.971896
3319.213231,-9770.718434,888.247130,2374.896044
3319.213568,-12213.398043,-518.144159,2145.067394
3319.213905,-9252.574275,666.185348,-995.924147
3319.214242,-7846.182985,1036.288319,-1225.752797
3319.214580,-9474.636058,1850.514855,0.000000
3319.214917,-11399.171507,222.061783,-1225.752797
3319.215254,-9844.739029,370.102971,-2757.943793
3319.215592,-7550.100608,592.164754,-2298.286494
3319.215929,-7994.224174,222.061783,229.828649
3319.216266,-10584.944971,592.164754,2374.896044
3319.216603,-11325.150913,-592.164754,1149.143247
3319.216941,-8216.285956,666.185348,-919.314598
3319.217278,-9622.677246,222.061783,766.095498
3319.217615,-11769.274478,592.164754,2604.724693
3319.217952,-12139.377449,222.061783,995.924147
3319.218290,-8956.491898,518.144159,-1455.581446
3319.218627,-8438.347739,666.185348,306.438199
3319.218964,-9178.553681,444.123565,1532.190996
3319.219301,-11621.233289,-592.164754,2068.457845
3319.219639,-10732.986159,-296.082377,-612.876398
3319.219976,-8586.388927,296.082377,-689.485948
3319.220313,-9696.697840,1036.288319,383.047749
3319.220651,-11917.315666,-592.164754,766.095498
3319.220988,-11029.068536,-518.144159,-842.705048
3319.221325,-8216.285956,-1110.308913,-2298.286494
3319.221662,-8734.430116,-1628.453072,459.657299
3319.222000,-10658.965565,-2442.679609,2298.286494
3319.222337,-12583.501014,-2664.741391,153.219100
3319.222674,-9178.553681,-2368.659014,-1915.238745
3319.223011,-9326.594869,-962.267725,-612.876398
3319.223349,-10732.986159,-1776.494261,1532.190996
3319.223686,-12139.377449,-1850.514855,766.095498
3319.224023,-8216.285956,-2072.576638,-1225.752797
3319.224360,-8142.265362,-1554.432478,1302.362347
3319.224698,-10362.883188,-1036.288319,3447.429741
3319.225035,-12509.480420,-1036.288319,2681.334243
3319.225372,-11621.233289,-1184.329507,842.705048
3319.225710,-8882.471304,740.205942,153.219100
3319.226047,-8882.471304,814.226536,1685.410096
3319.226384,-11103.089130,518.144159,2221.676944
3319.226721,-10362.883188,148.041188,306.438199
3319.227059,-8290.306550,1184.329507,-766.095498
3319.227396,-9696.697840,1924.535449,995.924147
3319.227733,-11399.171507,148.041188,1302.362347
3319.228070,-12213.398043,0.000000,1072.533697
3319.228408,-8660.409521,444.123565,-1225.752797
3319.228745,-8068.244768,1406.391290,-1225.752797
3319.229082,-9548.656652,888.247130,-306.438199
3319.229420,-11991.336260,-296.082377,-1225.752797
3319.229757,-9252.574275,0.000000,-3907.087040
3319.230094,-8438.347739,-1184.329507,-2374.896044
3319.230431,-8808.450710,-1036.288319,766.095498
3319.230769,-11473.192101,-2960.823768,1608.800546
3319.231106,-10436.903782,-1850.514855,153.219100
3319.231443,-8068.244768,-888.247130,-612.876398
3319.231780,-9474.636058,222.061783,1532.190996
3319.232118,-12213.398043,-666.185348,1149.143247
3319.232455,-12139.377449,-666.185348,-229.828649
3319.232792,-8586.388927,-1036.288319,-1072.533697
3319.233129,-8438.347739,370.102971,919.314598
3319.233467,-10732.986159,-666.185348,2451.505594
3319.233804,-12361.439231,-740.205942,766.095498
3319.234141,-9622.677246,148.041188,-2068.457845
3319.234479,-9252.574275,740.205942,-1225.752797
3319.234816,-9696.697840,296.082377,306.438199
3319.235153,-12139.377449,-814.226536,919.314598
3319.235490,-9844.739029,-444.123565,-1302.362347
3319.235828,-7105.977043,74.020594,-1378.971896
3319.236165,-9474.636058,0.000000,1455.581446
3319.236502,-12509.480420,-1480.411884,1762.019645
3319.236839,-11917.315666,-1036.288319,-383.047749
3319.237177,-8142.265362,-888.247130,-1225.752797
3319.237514,-8216.285956,296.082377,1149.143247
3319.237851,-10807.006753,-592.164754,2298.286494
3319.238188,-11991.336260,-518.144159,383.047749
3319.238526,-7698.141797,74.020594,-1378.971896
3319.238863,-8808.450710,592.164754,1838.629195
3319.239200,-10140.821405,444.123565,3677.258390
3319.239538,-12509.480420,74.020594,3064.381992
3319.239875,-9252.574275,1258.350101,689.485948
3319.240212,-7994.224174,1628.453072,1532.190996
3319.240549,-9622.677246,2294.638420,2298.286494
3319.240887,-12435.459826,1258.350101,919.314598
3319.241224,-10436.903782,962.267725,-1685.410096
3319.241561,-7179.997637,666.185348,-2374.896044
3319.241898,-8364.327145,518.144159,612.876398
3319.242236,-11103.089130,-1258.350101,1455.581446
3319.242573,-10955.047942,-2072.576638,0.000000
3319.242910,-7254.018232,-148.041188,-2221.676944
3319.243247,-8882.471304,-370.102971,229.828649
3319.243585,-11621.233289,-740.205942,-383.047749
3319.243922,-13397.727550,-1998.556043,-1838.629195
3319.244259,-9400.615463,-1850.514855,-2987.772442
3319.244597,-6957.935855,-1850.514855,-306.438199
3319.244934,-9548.656652,-2072.576638,1685.410096
3319.245271,-12213.398043,-3256.906145,1685.410096
3319.245608,-11325.150913,-2738.761985,-919.314598
3319.245946,-9770.718434,-1628.453072,0.000000
3319.246283,-10214.842000,-518.144159,1532.190996
3319.246620,-12139.377449,-1110.308913,1915.238745
3319.246957,-11177.109724,-1554.432478,-306.438199
3319.247295,-7698.141797,148.041188,76.609550
3319.247632,-8734.430116,444.123565,2145.067394
3319.247969,-11991.336260,-370.102971,3677.258390
3319.248306,-13027.624579,-814.226536,612.876398
3319.248644,-9252.574275,444.123565,-1608.800546
3319.248981,-8586.388927,1702.473667,383.047749
3319.249318,-9622.677246,444.123565,1072.533697
3319.249656,-11325.150913,-296.082377,229.828649
3319.249993,-8068.244768,0.000000,-2757.943793
3319.250330,-7105.977043,666.185348,-2221.676944
3319.250667,-9400.615463,0.000000,1378.971896
3319.251005,-12583.501014,-888.247130,2451.505594
3319.251342,-10214.842000,-370.102971,-306.438199
3319.251679,-8142.265362,888.247130,0.000000
3319.252016,-9770.718434,1702.473667,2374.896044
3319.252354,-12213.398043,0.000000,1302.362347
3319.252691,-10584.944971,-814.226536,-536.266849
3319.253028,-7254.018232,1036.288319,0.000000
3319.253365,-8660.409521,74.020594,2757.943793
3319.253703,-11843.295072,0.000000,3064.381992
3319.254040,-12435.459826,-888.247130,1072.533697
3319.254377,-8956.491898,740.205942,-383.047749
3319.254715,-8290.306550,1702.473667,-229.828649
3319.255052,-10807.006753,1406.391290,76.609550
3319.255389,-12287.418637,370.102971,-766.095498
3319.255726,-9474.636058,74.020594,-2911.162892
3319.256064,-7994.224174,-962.267725,-1072.533697
3319.256401,-9696.697840,-592.164754,1302.362347
3319.256738,-12509.480420,-1998.556043,1991.848295
3319.257075,-11399.171507,-2886.803174,-995.924147
3319.257413,-7772.162391,-1480.411884,-2221.676944
3319.257750,-8660.409521,-1036.288319,-76.609550
3319.258087,-11695.253884,-2960.823768,-612.876398
3319.258424,-10658.965565,-2590.720797,-2604.724693
3319.258762,-7550.100608,-2072.576638,-2528.115143
