#time,accel_x,accel_y,accel_z
2938.172309,-9918.759623,-3330.926739,-1072.533697
2938.172647,-10955.047942,-2146.597232,-995.924147
2938.172985,-11325.150913,-2368.659014,-1532.190996
2938.173323,-10584.944971,-1998.556043,-1915.238745
2938.173661,-9326.594869,-2146.597232,-1685.410096
2938.173999,-9400.615463,-2442.679609,0.000000
2938.174337,-8364.327145,-2812.782580,766.095498
2938.174675,-8586.388927,-1258.350101,689.485948
2938.175013,-8882.471304,-222.061783,459.657299
2938.175350,-9770.718434,1924.535449,0.000000
2938.175688,-11399.171507,1406.391290,229.828649
2938.176026,-11029.068536,3034.844362,-1072.533697
2938.176364,-11103.089130,2664.741391,-995.924147
2938.176702,-11251.130318,1110.308913,-842.705048
2938.177040,-9400.615463,0.000000,-1991.848295
2938.177378,-8586.388927,-592.164754,-1685.410096
2938.177716,-8808.450710,-666.185348,-1225.752797
2938.178054,-8808.450710,-814.226536,-1838.629195
2938.178392,-10288.862594,-444.123565,-2221.676944
2938.178730,-11547.212695,-666.185348,-3140.991542
2938.179067,-10881.027347,0.000000,-3524.039291
2938.179405,-11177.109724,-1110.308913,-3370.820191
2938.179743,-10881.027347,-1036.288319,-2528.115143
2938.180081,-9696.697840,-2590.720797,-2987.772442
2938.180419,-9548.656652,-3034.844362,-2528.115143
2938.180757,-9104.533087,-3701.029710,-2298.286494
2938.181095,-9030.512492,-5181.441594,-2528.115143
2938.181433,-9474.636058,-5107.421000,-1608.800546
2938.181771,-9178.553681,-4737.318029,-1685.410096
2938.182109,-8956.491898,-2590.720797,-919.314598
2938.182447,-10066.800811,-2220.617826,0.000000
2938.182785,-10807.006753,-1850.514855,-919.314598
2938.183122,-11325.150913,-2294.638420,-2528.115143
2938.183460,-11621.233289,-2516.700203,-3294.210641
2938.183798,-10658.965565,-4219.173869,-4903.011187
2938.184136,-9400.615463,-5773.606348,-4826.401637
2938.184474,-8586.388927,-6809.894666,-3983.696590
2938.184812,-8142.265362,-6883.915261,-2987.772442
2938.185150,-8290.306550,-5699.585753,-2221.676944
2938.185488,-9400.615463,-4293.194464,-2374.896044
2938.185826,-11399.171507,-3478.967927,-2451.505594
2938.186164,-12139.377449,-2664.741391,-2528.115143
2938.186502,-12435.459826,-2590.720797,-2221.676944
2938.186840,-11473.192101,-2738.761985,-612.876398
2938.187177,-10436.903782,-2738.761985,-612.876398
2938.187515,-9548.656652,-4293.194464,-306.438199
2938.187853,-10436.903782,-4737.318029,-1532.190996
2938.188191,-9400.615463,-5921.647536,-1378.971896
2938.188529,-9104.533087,-5921.647536,-306.438199
2938.188867,-8068.244768,-3552.988522,76.609550
2938.189205,-8734.430116,-1332.370696,-612.876398
2938.189543,-9474.636058,-370.102971,-1225.752797
2938.189881,-10066.800811,-222.061783,-1149.143247
2938.190219,-10584.944971,1258.350101,536.266849
2938.190557,-11177.109724,888.247130,153.219100
2938.190894,-10436.903782,0.000000,-1455.581446
2938.191232,-11029.068536,-3701.029710,-1915.238745
2938.191570,-10362.883188,-5921.647536,-1915.238745
2938.191908,-8068.244768,-5699.585753,-2757.943793
2938.192246,-6883.915261,-5329.482782,-2145.067394
2938.192584,-7179.997637,-5477.523971,-3370.820191
2938.192922,-9696.697840,-3923.091493,-3753.867940
2938.193260,-11029.068536,-962.267725,-5056.230287
2938.193598,-10288.862594,518.144159,-3983.696590
2938.193936,-11917.315666,148.041188,-2451.505594
2938.194274,-12213.398043,-962.267725,-1378.971896
2938.194612,-11991.336260,-1332.370696,-1838.629195
2938.194949,-9696.697840,-4367.215058,919.314598
2938.195286,-9622.677246,-5255.462188,2987.772442
2938.195624,-10140.821405,-4811.338623,2451.505594
2938.195961,-10214.842000,-2516.700203,-1608.800546
2938.196299,-9696.697840,-1776.494261,-2987.772442
2938.196636,-9844.739029,-1110.308913,-3677.258390
2938.196974,-10140.821405,1036.288319,-4060.306139
2938.197311,-10732.986159,2146.597232,-4366.744339
2938.197649,-9770.718434,1850.514855,-3294.210641
2938.197986,-9844.739029,592.164754,-3370.820191
2938.198324,-10066.800811,-814.226536,-1685.410096
2938.198661,-9474.636058,-1258.350101,0.000000
2938.198999,-8438.347739,-2368.659014,842.705048
2938.199336,-9178.553681,-2886.803174,766.095498
2938.199674,-9326.594869,-1776.494261,-995.924147
2938.200011,-9474.636058,-1110.308913,-2145.067394
2938.200349,-9622.677246,518.144159,-1991.848295
2938.200686,-10288.862594,740.205942,-4136.915689
2938.201024,-11621.233289,666.185348,-4213.525239
2938.201361,-10732.986159,0.000000,-3907.087040
2938.201699,-8216.285956,-592.164754,-2221.676944
2938.202036,-9326.594869,-1184.329507,-459.657299
2938.202374,-9622.677246,-2664.741391,766.095498
2938.202711,-9474.636058,-2886.803174,2911.162892
2938.203049,-10584.944971,-1332.370696,4596.572988
2938.203386,-10807.006753,740.205942,2451.505594
2938.203723,-12213.398043,1258.350101,306.438199
2938.204061,-12509.480420,814.226536,-2145.067394
2938.204398,-11399.171507,-814.226536,-2374.896044
2938.204736,-10214.842000,-814.226536,-2145.067394
2938.205073,-7994.224174,-1628.453072,-3140.991542
2938.205411,-9474.636058,-2960.823768,-1915.238745
2938.205748,-9030.512492,-4663.297435,-3524.039291
2938.206086,-8586.388927,-5699.585753,-1991.848295
2938.206423,-9178.553681,-3701.029710,689.485948
2938.206761,-8586.388927,-2294.638420,306.438199
2938.207098,-12213.398043,-2072.576638,0.000000
2938.207436,-12879.583391,-2220.617826,-2374.896044
2938.207773,-11843.295072,-3404.947333,-1149.143247
2938.208111,-10066.800811,-3552.988522,76.609550
2938.208448,-9178.553681,-4219.173869,0.000000
2938.208786,-8734.430116,-4515.256246,-689.485948
2938.209123,-8142.265362,-4885.359217,-536.266849
2938.209461,-8438.347739,-3849.070898,1838.629195
2938.209798,-9326.594869,-1554.432478,2374.896044
2938.210136,-11843.295072,1110.308913,1302.362347
2938.210473,-12065.356855,2146.597232,-459.657299
2938.210811,-13175.665768,2072.576638,-689.485948
2938.211148,-11621.233289,888.247130,919.314598
2938.211486,-10066.800811,0.000000,612.876398
2938.211823,-9696.697840,-962.267725,1302.362347
2938.212160,-8586.388927,-2072.576638,-383.047749
2938.212498,-9326.594869,-2516.700203,-459.657299
2938.212835,-7031.956449,-1184.329507,153.219100
2938.213173,-8142.265362,-518.144159,1072.533697
2938.213510,-9622.677246,518.144159,229.828649
2938.213848,-12213.398043,1776.494261,-2145.067394
2938.214185,-12731.542202,2590.720797,-2757.943793
2938.214523,-9992.780217,1184.329507,-3447.429741
2938.214860,-9474.636058,-444.123565,-1685.410096
2938.215198,-9474.636058,-2146.597232,383.047749
2938.215535,-8660.409521,-2886.803174,1991.848295
2938.215873,-7179.997637,-3256.906145,2451.505594
2938.216210,-8512.368333,-2368.659014,3294.210641
2938.216548,-10807.006753,0.000000,2298.286494
2938.216885,-13693.809927,1702.473667,536.266849
2938.217223,-13175.665768,1554.432478,-1532.190996
2938.217560,-10510.924376,2368.659014,-1225.752797
2938.217898,-10066.800811,888.247130,306.438199
2938.218235,-9178.553681,0.000000,689.485948
2938.218573,-9326.594869,444.123565,0.000000
2938.218910,-8808.450710,296.082377,76.609550
2938.219248,-10881.027347,-296.082377,1608.800546
2938.219585,-10288.862594,-814.226536,0.000000
2938.219923,-11695.253884,-148.041188,306.438199
2938.220260,-10584.944971,-370.102971,-1378.971896
2938.220597,-9770.718434,-444.123565,-1302.362347
2938.220935,-9844.739029,-1702.473667,-306.438199
2938.221272,-9696.697840,-1480.411884,919.314598
2938.221610,-8956.491898,-814.226536,842.705048
2938.221947,-8512.368333,666.185348,306.438199
2938.222285,-9770.718434,74.020594,1532.190996
2938.222622,-10658.965565,-148.041188,842.705048
2938.222960,-11399.171507,74.020594,1608.800546
2938.223297,-10214.842000,-444.123565,1149.143247
2938.223635,-9844.739029,222.061783,2068.457845
2938.223972,-10066.800811,-740.205942,2145.067394
2938.224310,-9918.759623,74.020594,2911.162892
2938.224647,-8290.306550,1406.391290,1838.629195
2938.224985,-9474.636058,1406.391290,2068.457845
2938.225322,-10732.986159,2072.576638,842.705048
2938.225660,-11399.171507,1998.556043,-689.485948
2938.225997,-10881.027347,2442.679609,-842.705048
2938.226335,-9030.512492,1776.494261,-2068.457845
2938.226672,-10066.800811,0.000000,-766.095498
2938.227010,-10732.986159,-962.267725,-383.047749
2938.227347,-10140.821405,-1776.494261,-689.485948
2938.227685,-8290.306550,-1554.432478,919.314598
2938.228022,-9474.636058,-1924.535449,536.266849
2938.228360,-9178.553681,-2886.803174,76.609550
2938.228697,-10436.903782,-1554.432478,-306.438199
2938.229034,-10288.862594,-1332.370696,-766.095498
2938.229372,-10584.944971,-1110.308913,-1991.848295
2938.229709,-10436.903782,-2294.638420,-1685.410096
2938.230047,-10658.965565,-2664.741391,-689.485948
2938.230384,-9548.656652,-3108.864956,0.000000
2938.230722,-8216.285956,-2294.638420,842.705048
2938.231059,-9696.697840,-2516.700203,1685.410096
2938.231397,-9918.759623,-2960.823768,1532.190996
2938.231734,-11029.068536,-1258.350101,689.485948
2938.232072,-10584.944971,0.000000,-459.657299
2938.232409,-11325.150913,740.205942,919.314598
2938.232747,-11251.130318,-444.123565,306.438199
2938.233084,-11695.253884,74.020594,766.095498
2938.233422,-9844.739029,0.000000,459.657299
2938.233759,-9474.636058,-592.164754,612.876398
2938.234097,-10436.903782,-1036.288319,383.047749
2938.234434,-9770.718434,-1850.514855,-766.095498
2938.234772,-9844.739029,222.061783,-766.095498
2938.235109,-8808.450710,-518.144159,-1685.410096
2938.235447,-9474.636058,296.082377,-1149.143247
2938.235784,-10140.821405,-740.205942,-383.047749
2938.236122,-10955.047942,74.020594,689.485948
2938.236459,-8956.491898,222.061783,1149.143247
2938.236797,-9770.718434,-370.102971,2298.286494
2938.237134,-9548.656652,-962.267725,2451.505594
2938.237472,-9474.636058,-592.164754,1915.238745
2938.237809,-9400.615463,0.000000,2145.067394
2938.238146,-8882.471304,962.267725,995.924147
2938.238484,-10066.800811,222.061783,459.657299
2938.238821,-11177.109724,666.185348,-229.828649
2938.239159,-11029.068536,1628.453072,-766.095498
2938.239496,-9622.677246,1036.288319,-689.485948
2938.239834,-9474.636058,296.082377,306.438199
2938.240171,-9474.636058,0.000000,842.705048
2938.240509,-10510.924376,370.102971,459.657299
2938.240846,-10436.903782,-148.041188,0.000000
2938.241184,-10584.944971,-148.041188,-1149.143247
2938.241521,-10658.965565,-1702.473667,-1072.533697
2938.241859,-11103.089130,-1480.411884,-919.314598
2938.242196,-9992.780217,-1702.473667,-1532.190996
2938.242534,-8882.471304,-1776.494261,-612.876398
2938.242871,-9252.574275,-1850.514855,0.000000
2938.243209,-10362.883188,-1850.514855,-383.047749
2938.243546,-10807.006753,-444.123565,153.219100
2938.243884,-9918.759623,-888.247130,-229.828649
2938.244221,-10658.965565,-370.102971,689.485948
2938.244559,-10658.965565,-1332.370696,383.047749
2938.244896,-11029.068536,-518.144159,2068.457845
2938.245234,-9474.636058,-370.102971,1991.848295
2938.245571,-9104.533087,-222.061783,2604.724693
2938.245909,-10807.006753,0.000000,3370.820191
2938.246246,-10732.986159,814.226536,1532.190996
2938.246583,-10362.883188,2516.700203,459.657299
2938.246921,-9992.780217,1924.535449,-76.609550
2938.247258,-9770.718434,1258.350101,-383.047749
2938.247596,-9696.697840,518.144159,0.000000
2938.247933,-10436.903782,1110.308913,306.438199
2938.248271,-8364.327145,888.247130,-459.657299
2938.248608,-10066.800811,740.205942,459.657299
2938.248946,-10214.842000,-444.123565,-383.047749
2938.249283,-9622.677246,-518.144159,-459.657299
2938.249621,-9178.553681,-222.061783,383.047749
2938.249958,-8364.327145,-222.061783,-766.095498
2938.250296,-9844.739029,0.000000,0.000000
2938.250633,-10658.965565,-222.061783,-995.924147
2938.250971,-10066.800811,-370.102971,-459.657299
2938.251308,-8956.491898,-666.185348,689.485948
2938.251646,-9770.718434,-1480.411884,2374.896044
2938.251983,-10140.821405,-1332.370696,2145.067394
2938.252321,-11029.068536,-1406.391290,1455.581446
2938.252658,-9992.780217,-222.061783,0.000000
2938.252996,-10362.883188,-740.205942,459.657299
2938.253333,-10732.986159,-888.247130,383.047749
2938.253671,-10584.944971,-518.144159,-306.438199
2938.254008,-10658.965565,-296.082377,-229.828649
2938.254346,-9326.594869,-296.082377,-842.705048
2938.254683,-10140.821405,-1110.308913,-536.266849
2938.255020,-10066.800811,-1998.556043,-919.314598
2938.255358,-9844.739029,-962.267725,-612.876398
2938.255695,-9400.615463,-2442.679609,0.000000
2938.256033,-9770.718434,-1258.350101,-459.657299
2938.256370,-9770.718434,-2294.638420,-1838.629195
2938.256708,-11103.089130,-1924.535449,-612.876398
2938.257045,-8734.430116,-1628.453072,-536.266849
2938.257383,-9252.574275,-814.226536,995.924147
2938.257720,-10807.006753,-962.267725,1072.533697
2938.258058,-10140.821405,-666.185348,153.219100
2938.258395,-10732.986159,-370.102971,229.828649
2938.258733,-9400.615463,-370.102971,995.924147
2938.259070,-9992.780217,370.102971,2145.067394
2938.259408,-10066.800811,0.000000,2451.505594
2938.259745,-10732.986159,1406.391290,2374.896044
2938.260083,-9622.677246,1184.329507,1455.581446
2938.260420,-10732.986159,1850.514855,2145.067394
2938.260758,-10807.006753,1628.453072,689.485948
2938.261095,-10510.924376,1332.370696,-383.047749
2938.261433,-9252.574275,1924.535449,229.828649
2938.261770,-9030.512492,1258.350101,-459.657299
2938.262108,-9474.636058,1554.432478,0.000000
2938.262445,-10881.027347,666.185348,-383.047749
2938.262783,-10436.903782,222.061783,-1378.971896
2938.263120,-9178.553681,-296.082377,-1225.752797
2938.263457,-9918.759623,-1332.370696,0.000000
2938.263795,-9326.594869,-1998.556043,-689.485948
2938.264132,-9474.636058,-1998.556043,-306.438199
2938.264470,-9030.512492,-1702.473667,-306.438199
2938.264807,-9770.718434,-592.164754,0.000000
2938.265145,-10288.862594,-1480.411884,-153.219100
2938.265482,-11547.212695,-296.082377,153.219100
2938.265820,-11177.109724,-1110.308913,306.438199
2938.266157,-9844.739029,-296.082377,689.485948
2938.266495,-10732.986159,-518.144159,1378.971896
2938.266832,-11029.068536,-1406.391290,1378.971896
2938.267170,-10510.924376,-888.247130,766.095498
2938.267507,-9326.594869,-1110.308913,383.047749
2938.267845,-10362.883188,666.185348,995.924147
2938.268182,-10584.944971,222.061783,383.047749
2938.268520,-11769.274478,666.185348,536.266849
2938.268857,-9918.759623,370.102971,-1302.362347
2938.269195,-9918.759623,1036.288319,76.609550
2938.269532,-10140.821405,-148.041188,76.609550
2938.269870,-9770.718434,0.000000,-306.438199
2938.270207,-9622.677246,518.144159,-536.266849
2938.270545,-8956.491898,-444.123565,-1225.752797
2938.270882,-8808.450710,0.000000,-536.266849
2938.271220,-8882.471304,-518.144159,-76.609550
2938.271557,-9918.759623,148.041188,459.657299
2938.271894,-8438.347739,1110.308913,0.000000
2938.272232,-9844.739029,1702.473667,1149.143247
2938.272569,-9696.697840,888.247130,1455.581446
2938.272907,-10881.027347,740.205942,2451.505594
2938.273244,-10510.924376,1998.556043,2451.505594
2938.273582,-9918.759623,1702.473667,1378.971896
2938.273919,-9696.697840,1258.350101,1225.752797
2938.274257,-10362.883188,1406.391290,1072.533697
2938.274594,-11473.192101,1776.494261,995.924147
2938.274932,-9622.677246,1480.411884,-383.047749
2938.275269,-10436.903782,1480.411884,-995.924147
2938.275607,-9918.759623,0.000000,-1072.533697
2938.275944,-10214.842000,-222.061783,-1378.971896
2938.276282,-8660.409521,-370.102971,-766.095498
2938.276619,-8956.491898,0.000000,-229.828649
2938.276957,-9992.780217,-1036.288319,76.609550
2938.277294,-11103.089130,-1184.329507,-842.705048
2938.277632,-9992.780217,-2220.617826,-1149.143247
2938.277969,-10214.842000,-2442.679609,-842.705048
2938.278307,-9474.636058,-3034.844362,0.000000
2938.278644,-10288.862594,-2738.761985,0.000000
2938.278982,-10288.862594,-2812.782580,0.000000
2938.279319,-9474.636058,-2442.679609,0.000000
2938.279657,-9770.718434,-1480.411884,766.095498
2938.279994,-10140.821405,-1554.432478,536.266849
2938.280331,-11621.233289,0.000000,1838.629195
2938.280669,-10658.965565,0.000000,1378.971896
2938.281006,-11177.109724,888.247130,1685.410096
2938.281344,-11177.109724,296.082377,1608.800546
2938.281681,-11029.068536,0.000000,1302.362347
2938.282019,-11177.109724,962.267725,995.924147
2938.282356,-9326.594869,444.123565,536.266849
2938.282694,-8734.430116,518.144159,689.485948
2938.283031,-8882.471304,222.061783,306.438199
2938.283369,-10584.944971,1406.391290,153.219100
2938.283706,-9474.636058,2294.638420,-1685.410096
2938.284044,-10066.800811,1628.453072,-1532.190996
2938.284381,-9326.594869,74.020594,-1225.752797
2938.284719,-9622.677246,0.000000,-383.047749
2938.285056,-8068.244768,74.020594,766.095498
2938.285394,-8364.327145,-740.205942,612.876398
2938.285731,-8438.347739,-1184.329507,612.876398
2938.286069,-9548.656652,-1184.329507,1225.752797
2938.286406,-11177.109724,-814.226536,1455.581446
2938.286744,-9918.759623,0.000000,383.047749
2938.287081,-10140.821405,-444.123565,229.828649
2938.287419,-10436.903782,-814.226536,76.609550
2938.287756,-10362.883188,-370.102971,229.828649
2938.288094,-9252.574275,-296.082377,153.219100
2938.288431,-10066.800811,0.000000,689.485948
2938.288768,-10288.862594,-1184.329507,919.314598
2938.289106,-12139.377449,0.000000,1302.362347
2938.289443,-10732.986159,444.123565,0.000000
2938.289781,-9918.759623,518.144159,0.000000
2938.290118,-10436.903782,-518.144159,0.000000
2938.290456,-10658.965565,-962.267725,-612.876398
2938.290793,-10584.944971,-592.164754,-689.485948
2938.291131,-9622.677246,-1036.288319,-766.095498
2938.291468,-9474.636058,-1184.329507,-919.314598
2938.291806,-8956.491898,-2220.617826,-459.657299
2938.292143,-10140.821405,-370.102971,612.876398
2938.292481,-9696.697840,-888.247130,612.876398
2938.292818,-9696.697840,0.000000,536.266849
2938.293156,-10881.027347,-814.226536,306.438199
2938.293493,-11251.130318,-814.226536,766.095498
2938.293831,-9252.574275,-370.102971,306.438199
2938.294168,-8660.409521,0.000000,1991.848295
2938.294506,-8438.347739,222.061783,2528.115143
2938.294843,-9474.636058,1332.370696,2374.896044
2938.295181,-11621.233289,2368.659014,2145.067394
2938.295518,-10436.903782,3997.112087,0.000000
2938.295856,-11177.109724,2738.761985,919.314598
2938.296193,-10584.944971,2516.700203,1072.533697
2938.296531,-10658.965565,2294.638420,689.485948
2938.296868,-9400.615463,1924.535449,153.219100
2938.297206,-8808.450710,1036.288319,-383.047749
2938.297543,-8364.327145,370.102971,76.609550
2938.297881,-11251.130318,1036.288319,76.609550
2938.298218,-10214.842000,1036.288319,-1378.971896
2938.298556,-9030.512492,962.267725,-2451.505594
2938.298893,-9622.677246,-518.144159,-1532.190996
2938.299231,-9844.739029,-1110.308913,-1378.971896
2938.299568,-10510.924376,-1924.535449,-689.485948
2938.299906,-8882.471304,-2368.659014,0.000000
2938.300243,-8512.368333,-2146.597232,766.095498
2938.300581,-9918.759623,-2294.638420,1455.581446
2938.300918,-11325.150913,-1258.350101,1991.848295
2938.301256,-10066.800811,-1702.473667,1072.533697
2938.301593,-10510.924376,-814.226536,1072.533697
2938.301931,-10807.006753,-740.205942,306.438199
2938.302268,-11769.274478,-1036.288319,76.609550
2938.302606,-10658.965565,-1036.288319,-459.657299
2938.302943,-9178.553681,-1184.329507,153.219100
2938.303281,-9548.656652,-1110.308913,612.876398
2938.303618,-9252.574275,-962.267725,383.047749
2938.303956,-10214.842000,0.000000,536.266849
2938.304293,-9770.718434,518.144159,-76.609550
2938.304631,-11029.068536,962.267725,0.000000
2938.304968,-11251.130318,-74.020594,-229.828649
2938.305306,-11621.233289,0.000000,-766.095498
2938.305643,-9474.636058,0.000000,-1378.971896
2938.305981,-9474.636058,-666.185348,-536.266849
2938.306318,-8438.347739,-1332.370696,0.000000
2938.306656,-9474.636058,-1184.329507,1149.143247
2938.306993,-9770.718434,-148.041188,2374.896044
2938.307331,-8808.450710,888.247130,-153.219100
2938.307668,-11251.130318,592.164754,995.924147
2938.308006,-11843.295072,888.247130,153.219100
2938.308343,-10807.006753,518.144159,-153.219100
2938.308681,-8734.430116,1036.288319,995.924147
2938.309018,-8586.388927,222.061783,1915.238745
2938.309355,-9030.512492,0.000000,1762.019645
2938.309693,-10510.924376,296.082377,2145.067394
2938.310030,-10362.883188,518.144159,1378.971896
2938.310368,-9474.636058,1628.453072,766.095498
2938.310705,-10881.027347,888.247130,0.000000
2938.311043,-11325.150913,-222.061783,-153.219100
2938.311380,-11029.068536,-814.226536,-1302.362347
2938.311718,-8660.409521,-962.267725,-766.095498
2938.312055,-8808.450710,-1258.350101,-689.485948
2938.312393,-9326.594869,-1850.514855,766.095498
2938.312730,-11029.068536,-1258.350101,0.000000
2938.313068,-9474.636058,-1702.473667,-1378.971896
2938.313405,-9770.718434,-740.205942,0.000000
2938.313743,-10955.047942,-1554.432478,-612.876398
2938.314080,-11843.295072,-1702.473667,-766.095498
2938.314418,-9844.739029,-2368.659014,-1225.752797
2938.314755,-8882.471304,-1554.432478,459.657299
2938.315093,-10066.800811,-2220.617826,2145.067394
2938.315430,-9992.780217,-1110.308913,1685.410096
2938.315768,-10658.965565,-370.102971,2681.334243
2938.316105,-10066.800811,1036.288319,1762.019645
2938.316443,-10584.944971,1258.350101,1302.362347
2938.316780,-11769.274478,1184.329507,1532.190996
2938.317118,-11769.274478,1184.329507,1762.019645
2938.317455,-9696.697840,1110.308913,-536.266849
2938.317793,-9548.656652,740.205942,612.876398
2938.318130,-9104.533087,518.144159,383.047749
2938.318468,-8882.471304,222.061783,766.095498
2938.318805,-8956.491898,2220.617826,459.657299
2938.319143,-8586.388927,2812.782580,-612.876398
2938.319480,-11103.089130,2146.597232,-612.876398
2938.319818,-11103.089130,1110.308913,-2145.067394
2938.320155,-10140.821405,444.123565,-1991.848295
2938.320493,-8808.450710,814.226536,-995.924147
2938.320830,-8586.388927,-666.185348,536.266849
2938.321168,-8660.409521,-1258.350101,766.095498
2938.321505,-9622.677246,-1258.350101,1532.190996
2938.321843,-9548.656652,-296.082377,1608.800546
2938.322180,-9844.739029,592.164754,1762.019645
2938.322518,-11695.253884,0.000000,1608.800546
2938.322855,-11547.212695,-370.102971,-536.266849
2938.323193,-10510.924376,-222.061783,-842.705048
2938.323530,-8956.491898,370.102971,0.000000
2938.323868,-10214.842000,-666.185348,1149.143247
2938.324205,-10140.821405,-1258.350101,1225.752797
2938.324543,-10955.047942,-592.164754,459.657299
2938.324880,-9474.636058,0.000000,306.438199
2938.325218,-10732.986159,-296.082377,306.438199
2938.325555,-10807.006753,-296.082377,-306.438199
2938.325893,-11843.295072,-1258.350101,-689.485948
2938.326230,-10510.924376,-1184.329507,-2221.676944
2938.326568,-9770.718434,-1628.453072,-1149.143247
2938.326905,-9770.718434,-2886.803174,-459.657299
2938.327243,-8956.491898,-3478.967927,0.000000
2938.327580,-9326.594869,-2368.659014,995.924147
2938.327918,-8808.450710,-1110.308913,229.828649
2938.328255,-9548.656652,-962.267725,459.657299
2938.328593,-11103.089130,-1480.411884,153.219100
2938.328930,-11843.295072,-444.123565,0.000000
2938.329268,-9844.739029,0.000000,0.000000
2938.329605,-9400.615463,-740.205942,1532.190996
2938.329943,-8956.491898,-962.267725,1762.019645
2938.330280,-9252.574275,-148.041188,2451.505594
2938.330618,-9770.718434,1036.288319,2757.943793
2938.330955,-9770.718434,1776.494261,995.924147
2938.331293,-11029.068536,1776.494261,1149.143247
2938.331630,-10881.027347,1924.535449,0.000000
2938.331968,-11251.130318,1850.514855,-229.828649
2938.332305,-10066.800811,1258.350101,-689.485948
2938.332643,-9696.697840,518.144159,153.219100
2938.332980,-9474.636058,-148.041188,0.000000
2938.333318,-9844.739029,0.000000,229.828649
2938.333655,-9178.553681,148.041188,-153.219100
2938.333993,-9178.553681,-296.082377,-766.095498
2938.334330,-9992.780217,-888.247130,-1302.362347
2938.334668,-10214.842000,-962.267725,-2068.457845
2938.335005,-9474.636058,-1332.370696,-2145.067394
2938.335343,-9030.512492,-1110.308913,-1149.143247
2938.335680,-10066.800811,-2664.741391,689.485948
2938.336018,-9696.697840,-2146.597232,229.828649
2938.336355,-10436.903782,-1702.473667,1302.362347
2938.336693,-8734.430116,-1184.329507,1455.581446
2938.337030,-10140.821405,-666.185348,1685.410096
2938.337368,-10955.047942,-740.205942,995.924147
2938.337705,-11029.068536,-370.102971,-766.095498
2938.338043,-10436.903782,0.000000,-1532.190996
2938.338380,-10658.965565,-1406.391290,-229.828649
2938.338718,-10436.903782,-1332.370696,229.828649
2938.339055,-9622.677246,-962.267725,919.314598
2938.339393,-9918.759623,-666.185348,1608.800546
2938.339730,-9474.636058,666.185348,1072.533697
2938.340068,-10510.924376,296.082377,995.924147
2938.340405,-11029.068536,148.041188,229.828649
2938.340743,-12139.377449,-370.102971,-536.266849
2938.341080,-10955.047942,-740.205942,-1378.971896
2938.341417,-9622.677246,-888.247130,76.609550
2938.341755,-8734.430116,-1850.514855,536.266849
2938.342092,-9252.574275,-1480.411884,1455.581446
2938.342430,-9474.636058,0.000000,2068.457845
2938.342767,-9178.553681,296.082377,536.266849
2938.343105,-10362.883188,962.267725,1608.800546
2938.343442,-10881.027347,1110.308913,1072.533697
2938.343780,-11177.109724,1184.329507,1149.143247
2938.344117,-9992.780217,1702.473667,536.266849
2938.344455,-9548.656652,1406.391290,1608.800546
2938.344792,-8660.409521,592.164754,1608.800546
2938.345130,-9992.780217,0.000000,2221.676944
2938.345467,-9696.697840,1554.432478,1915.238745
2938.345805,-10066.800811,666.185348,1608.800546
2938.346142,-10214.842000,814.226536,0.000000
2938.346480,-10807.006753,222.061783,-1302.362347
2938.346817,-10955.047942,-148.041188,-1685.410096
2938.347155,-8586.388927,-592.164754,-2834.553343
2938.347492,-8956.491898,-1332.370696,-1838.629195
2938.347830,-9400.615463,-1480.411884,-1149.143247
2938.348167,-10510.924376,-1776.494261,-1378.971896
2938.348505,-9326.594869,-2146.597232,-1455.581446
2938.348842,-9474.636058,-1850.514855,-689.485948
2938.349180,-9770.718434,-1554.432478,0.000000
2938.349517,-11991.336260,-2960.823768,-383.047749
2938.349855,-10584.944971,-2664.741391,-1608.800546
2938.350192,-10140.821405,-2664.741391,-229.828649
2938.350530,-10214.842000,-2886.803174,459.657299
2938.350867,-10362.883188,-1924.535449,1378.971896
2938.351205,-10214.842000,-1554.432478,1762.019645
2938.351542,-9178.553681,0.000000,1378.971896
2938.351880,-9770.718434,518.144159,995.924147
2938.352217,-10732.986159,370.102971,459.657299
2938.352555,-12435.459826,0.000000,766.095498
2938.352892,-10584.944971,222.061783,0.000000
2938.353230,-10214.842000,370.102971,612.876398
2938.353567,-9622.677246,-740.205942,995.924147
2938.353905,-9252.574275,-888.247130,1149.143247
2938.354242,-8956.491898,-296.082377,1072.533697
2938.354580,-9474.636058,740.205942,0.000000
2938.354917,-9474.636058,1110.308913,-995.924147
2938.355255,-10510.924376,444.123565,-612.876398
2938.355592,-10732.986159,148.041188,-1072.533697
2938.355930,-9548.656652,0.000000,-1685.410096
2938.356267,-8956.491898,-592.164754,0.000000
2938.356605,-8438.347739,-222.061783,612.876398
2938.356942,-10140.821405,-1850.514855,2451.505594
2938.357280,-9548.656652,-1406.391290,1838.629195
2938.357617,-9400.615463,0.000000,1608.800546
2938.357955,-10881.027347,-296.082377,2451.505594
2938.358292,-11769.274478,370.102971,1455.581446
2938.358630,-10881.027347,518.144159,-306.438199
2938.358967,-9770.718434,666.185348,-459.657299
2938.359305,-10584.944971,296.082377,76.609550
2938.359642,-10510.924376,0.000000,0.000000
2938.359980,-10807.006753,-370.102971,0.000000
2938.360317,-9474.636058,592.164754,383.047749
2938.360655,-9548.656652,0.000000,153.219100
2938.360992,-10288.862594,-1036.288319,536.266849
2938.361330,-12139.377449,-1110.308913,-153.219100
2938.361667,-9770.718434,-1036.288319,-2145.067394
2938.362005,-9992.780217,-888.247130,-1838.629195
2938.362342,-9178.553681,-2368.659014,-1991.848295
2938.362680,-9104.533087,-2664.741391,0.000000
2938.363017,-9400.615463,-2368.659014,0.000000
2938.363355,-9326.594869,-1998.556043,-459.657299
2938.363692,-9844.739029,-962.267725,459.657299
2938.364030,-10214.842000,-888.247130,0.000000
2938.364367,-10732.986159,-1110.308913,306.438199
2938.364705,-9844.739029,-518.144159,0.000000
2938.365042,-10066.800811,222.061783,1838.629195
2938.365380,-10510.924376,-888.247130,1762.019645
2938.365717,-10140.821405,-222.061783,2145.067394
2938.366055,-9474.636058,814.226536,1991.848295
2938.366392,-9992.780217,2146.597232,1838.629195
2938.366730,-10362.883188,1924.535449,1225.752797
2938.367067,-10436.903782,1110.308913,383.047749
2938.367405,-11029.068536,1850.514855,459.657299
2938.367742,-9252.574275,1554.432478,-612.876398
2938.368080,-10140.821405,1036.288319,-383.047749
2938.368417,-9992.780217,0.000000,-689.485948
2938.368755,-10584.944971,0.000000,-919.314598
2938.369092,-8734.430116,0.000000,-842.705048
2938.369430,-8734.430116,-592.164754,0.000000
2938.369767,-8956.491898,-1480.411884,1225.752797
2938.370105,-10436.903782,-1702.473667,459.657299
2938.370442,-10584.944971,-740.205942,0.000000
2938.370780,-10362.883188,-740.205942,-459.657299
2938.371117,-10214.842000,-1850.514855,229.828649
2938.371455,-9326.594869,-2220.617826,459.657299
2938.371792,-10066.800811,-2294.638420,1532.190996
2938.372130,-8882.471304,-814.226536,1378.971896
2938.372467,-9992.780217,-1554.432478,2068.457845
2938.372805,-10955.047942,-592.164754,1225.752797
2938.373142,-11769.274478,-370.102971,842.705048
2938.373480,-10658.965565,0.000000,383.047749
2938.373817,-10510.924376,296.082377,612.876398
2938.374154,-10140.821405,-888.247130,766.095498
2938.374492,-10510.924376,-1036.288319,919.314598
2938.374829,-9918.759623,-148.041188,536.266849
2938.375167,-9474.636058,-222.061783,536.266849
2938.375504,-9844.739029,0.000000,229.828649
2938.375842,-10140.821405,-1036.288319,-995.924147
2938.376179,-10436.903782,0.000000,-919.314598
2938.376517,-9844.739029,0.000000,-1685.410096
2938.376854,-10140.821405,-962.267725,-306.438199
2938.377192,-9252.574275,-2072.576638,-689.485948
2938.377529,-9622.677246,-1702.473667,153.219100
2938.377867,-9474.636058,-814.226536,612.876398
2938.378204,-8512.368333,0.000000,995.924147
2938.378542,-9400.615463,-888.247130,1838.629195
2938.378879,-10807.006753,-296.082377,1838.629195
2938.379217,-10658.965565,1184.329507,383.047749
2938.379554,-9622.677246,1702.473667,306.438199
2938.379892,-10066.800811,888.247130,766.095498
2938.380229,-9770.718434,518.144159,0.000000
2938.380567,-11177.109724,518.144159,612.876398
2938.380904,-9178.553681,1184.329507,0.000000
2938.381242,-9770.718434,370.102971,0.000000
2938.381579,-9992.780217,814.226536,229.828649
2938.381917,-10955.047942,666.185348,-459.657299
2938.382254,-9918.759623,518.144159,-1685.410096
2938.382592,-9326.594869,74.020594,-1455.581446
2938.382929,-10140.821405,-296.082377,-612.876398
2938.383267,-10658.965565,-814.226536,-1532.190996
2938.383604,-10066.800811,-740.205942,-1762.019645
2938.383942,-8660.409521,-1184.329507,-842.705048
2938.384279,-9918.759623,-2294.638420,766.095498
2938.384617,-10140.821405,-1924.535449,536.266849
2938.384954,-10807.006753,-1554.432478,536.266849
2938.385292,-9770.718434,-1924.535449,-306.438199
2938.385629,-10510.924376,-1480.411884,995.924147
2938.385967,-11399.171507,-2072.576638,1608.800546
2938.386304,-10362.883188,-1110.308913,1608.800546
2938.386642,-9992.780217,-592.164754,2145.067394
2938.386979,-9548.656652,0.000000,2528.115143
2938.387317,-9992.780217,518.144159,1225.752797
2938.387654,-10288.862594,444.123565,1455.581446
2938.387992,-11251.130318,1036.288319,842.705048
2938.388329,-9252.574275,1184.329507,0.000000
2938.388667,-10732.986159,1480.411884,1225.752797
2938.389004,-9770.718434,74.020594,229.828649
2938.389342,-10214.842000,740.205942,842.705048
2938.389679,-9030.512492,444.123565,459.657299
2938.390017,-9770.718434,666.185348,1149.143247
2938.390354,-9622.677246,222.061783,842.705048
2938.390692,-10362.883188,222.061783,-612.876398
2938.391029,-9474.636058,592.164754,-842.705048
2938.391367,-8882.471304,370.102971,-919.314598
2938.391704,-9992.780217,-518.144159,536.266849
2938.392042,-10066.800811,74.020594,-766.095498
2938.392379,-11177.109724,-296.082377,76.609550
2938.392717,-9622.677246,-518.144159,153.219100
2938.393054,-9474.636058,-962.267725,1608.800546
2938.393392,-9770.718434,-592.164754,2451.505594
2938.393729,-11177.109724,-370.102971,2068.457845
2938.394067,-10066.800811,-74.020594,689.485948
2938.394404,-8956.491898,296.082377,306.438199
2938.394741,-10881.027347,296.082377,229.828649
2938.395079,-11103.089130,0.000000,-459.657299
2938.395416,-10584.944971,592.164754,-1608.800546
2938.395754,-9400.615463,0.000000,-1302.362347
2938.396091,-9992.780217,0.000000,-306.438199
2938.396429,-9400.615463,-1480.411884,-1225.752797
2938.396766,-10214.842000,-1480.411884,-459.657299
2938.397103,-8882.471304,-1776.494261,-536.266849
2938.397441,-9622.677246,-888.247130,-689.485948
2938.397778,-10362.883188,-2516.700203,-919.314598
2938.398116,-10955.047942,-1554.432478,-766.095498
2938.398453,-9696.697840,-1776.494261,-689.485948
2938.398791,-9474.636058,-296.082377,383.047749
2938.399128,-10362.883188,-518.144159,229.828649
2938.399465,-10807.006753,-1332.370696,612.876398
2938.399803,-10955.047942,-1332.370696,1378.971896
2938.400140,-9548.656652,-814.226536,1685.410096
2938.400478,-10658.965565,444.123565,3447.429741
2938.400815,-10732.986159,592.164754,1991.848295
2938.401153,-11177.109724,1110.308913,2068.457845
2938.401490,-9252.574275,814.226536,1225.752797
2938.401827,-9918.759623,1480.411884,1762.019645
2938.402165,-9770.718434,1480.411884,1915.238745
2938.402502,-10732.986159,296.082377,919.314598
2938.402840,-9400.615463,740.205942,-459.657299
2938.403177,-8142.265362,592.164754,-536.266849
2938.403515,-9030.512492,1554.432478,1149.143247
2938.403852,-9622.677246,148.041188,-153.219100
2938.404189,-10807.006753,814.226536,-229.828649
2938.404527,-9178.553681,296.082377,-1838.629195
2938.404864,-9770.718434,-222.061783,-459.657299
2938.405202,-9326.594869,-1554.432478,306.438199
2938.405539,-9252.574275,-1406.391290,459.657299
2938.405877,-9400.615463,-2294.638420,766.095498
2938.406214,-9178.553681,-666.185348,689.485948
2938.406551,-10362.883188,-1332.370696,153.219100
2938.406889,-11843.295072,-888.247130,-229.828649
2938.407226,-11547.212695,-1332.370696,-766.095498
2938.407564,-10436.903782,0.000000,689.485948
2938.407901,-11769.274478,0.000000,842.705048
2938.408239,-10436.903782,-888.247130,459.657299
2938.408576,-11029.068536,-518.144159,919.314598
2938.408913,-9474.636058,-444.123565,459.657299
2938.409251,-10658.965565,814.226536,1149.143247
2938.409588,-10658.965565,-370.102971,459.657299
2938.409926,-11103.089130,0.000000,-306.438199
2938.410263,-9770.718434,-148.041188,-995.924147
2938.410600,-9474.636058,296.082377,-612.876398
2938.410938,-9400.615463,-148.041188,-383.047749
2938.411275,-10214.842000,-518.144159,-689.485948
2938.411613,-9992.780217,0.000000,-1532.190996
2938.411950,-8586.388927,0.000000,-1762.019645
2938.412288,-9030.512492,74.020594,459.657299
2938.412625,-9400.615463,-1184.329507,459.657299
2938.412962,-10658.965565,148.041188,1302.362347
2938.413300,-9474.636058,592.164754,0.000000
2938.413637,-9548.656652,592.164754,306.438199
2938.413975,-9770.718434,148.041188,1225.752797
2938.414312,-10214.842000,0.000000,1838.629195
2938.414650,-10066.800811,814.226536,1072.533697
2938.414987,-9474.636058,2072.576638,842.705048
2938.415324,-9622.677246,1998.556043,766.095498
2938.415662,-10881.027347,666.185348,919.314598
2938.415999,-11251.130318,1110.308913,1149.143247
2938.416337,-10140.821405,1480.411884,842.705048
2938.416674,-10362.883188,1406.391290,1072.533697
2938.417012,-9770.718434,444.123565,306.438199
2938.417349,-11251.130318,-444.123565,-229.828649
2938.417686,-9030.512492,-666.185348,-1149.143247
2938.418024,-8438.347739,-518.144159,-766.095498
2938.418361,-9474.636058,-1554.432478,229.828649
2938.418699,-10214.842000,-962.267725,-689.485948
2938.419036,-10436.903782,-962.267725,-1455.581446
2938.419374,-10436.903782,-1406.391290,-919.314598
2938.419711,-10436.903782,-2220.617826,0.000000
2938.420048,-9918.759623,-2960.823768,842.705048
2938.420386,-10362.883188,-2960.823768,1532.190996
2938.420723,-9326.594869,-2516.700203,612.876398
2938.421061,-9844.739029,-2146.597232,1072.533697
2938.421398,-10140.821405,-2516.700203,2145.067394
2938.421736,-11547.212695,-1036.288319,1455.581446
2938.422073,-10807.006753,0.000000,153.219100
2938.422410,-10214.842000,740.205942,689.485948
2938.422748,-9326.594869,74.020594,0.000000
2938.423085,-10140.821405,0.000000,1072.533697
2938.423423,-9918.759623,592.164754,1378.971896
2938.423760,-9918.759623,740.205942,76.609550
2938.424098,-10658.965565,1258.350101,842.705048
2938.424435,-9992.780217,518.144159,-459.657299
2938.424772,-10807.006753,1036.288319,76.609550
2938.425110,-9400.615463,740.205942,-536.266849
2938.425447,-9844.739029,1702.473667,-459.657299
2938.425785,-9326.594869,0.000000,-1378.971896
2938.426122,-10436.903782,0.000000,-1608.800546
2938.426460,-9622.677246,-222.061783,-689.485948
2938.426797,-9104.533087,0.000000,-612.876398
2938.427134,-8438.347739,74.020594,612.876398
2938.427472,-9104.533087,-370.102971,919.314598
2938.427809,-10214.842000,296.082377,1302.362347
2938.428147,-10955.047942,370.102971,76.609550
2938.428484,-11103.089130,-222.061783,689.485948
2938.428821,-9696.697840,-296.082377,766.095498
2938.429159,-11251.130318,-592.164754,1762.019645
2938.429496,-9252.574275,-592.164754,306.438199
2938.429834,-8216.285956,740.205942,1072.533697
2938.430171,-8882.471304,-592.164754,1378.971896
2938.430509,-11251.130318,370.102971,1302.362347
2938.430846,-11621.233289,1036.288319,-306.438199
2938.431183,-11029.068536,1184.329507,-612.876398
2938.431521,-10955.047942,0.000000,-612.876398
2938.431858,-10584.944971,-1110.308913,-153.219100
2938.432196,-10510.924376,-1110.308913,-383.047749
2938.432533,-8956.491898,-2146.597232,-766.095498
2938.432871,-8660.409521,-1258.350101,-536.266849
2938.433208,-9992.780217,-1554.432478,153.219100
2938.433545,-12065.356855,-1406.391290,689.485948
2938.433883,-10436.903782,-814.226536,-689.485948
2938.434220,-10955.047942,-444.123565,689.485948
2938.434558,-10066.800811,-1258.350101,1532.190996
2938.434895,-10436.903782,-962.267725,1149.143247
2938.435233,-10066.800811,-1702.473667,2068.457845
2938.435570,-8438.347739,-370.102971,1455.581446
2938.435907,-9474.636058,-148.041188,2451.505594
2938.436245,-10436.903782,444.123565,2451.505594
2938.436582,-10584.944971,1776.494261,842.705048
2938.436920,-9252.574275,1480.411884,76.609550
2938.437257,-9918.759623,1924.535449,1225.752797
2938.437595,-9548.656652,1924.535449,612.876398
2938.437932,-11473.192101,1776.494261,459.657299
2938.438269,-9696.697840,1332.370696,-1149.143247
2938.438607,-8364.327145,1258.350101,-689.485948
2938.438944,-8734.430116,592.164754,612.876398
2938.439282,-9844.739029,518.144159,995.924147
2938.439619,-9918.759623,888.247130,-383.047749
2938.439957,-9548.656652,962.267725,-1991.848295
2938.440294,-10584.944971,370.102971,-1072.533697
2938.440631,-10288.862594,-740.205942,-995.924147
2938.440969,-10510.924376,-1406.391290,-1225.752797
2938.441306,-8734.430116,-1850.514855,-1532.190996
2938.441644,-8808.450710,-1184.329507,-306.438199
2938.441981,-9252.574275,-1998.556043,1149.143247
2938.442319,-10436.903782,-2294.638420,1532.190996
2938.442656,-10510.924376,-962.267725,612.876398
2938.442993,-10510.924376,518.144159,0.000000
2938.443331,-11251.130318,-592.164754,842.705048
2938.443668,-11325.150913,-1332.370696,842.705048
2938.444006,-11029.068536,-1776.494261,842.705048
2938.444343,-9178.553681,-1332.370696,536.266849
2938.444681,-9178.553681,-814.226536,1302.362347
2938.445018,-9770.718434,-962.267725,1532.190996
2938.445355,-11399.171507,-1036.288319,536.266849
2938.445693,-9474.636058,-296.082377,-1378.971896
2938.446030,-9770.718434,666.185348,-1149.143247
2938.446368,-10436.903782,-222.061783,-612.876398
2938.446705,-11251.130318,-814.226536,-1149.143247
2938.447042,-10214.842000,-1184.329507,-1455.581446
2938.447380,-9104.533087,-814.226536,-1225.752797
2938.447717,-8660.409521,-1110.308913,1149.143247
2938.448055,-9992.780217,-1850.514855,1915.238745
2938.448392,-10436.903782,-296.082377,1762.019645
2938.448730,-9104.533087,444.123565,306.438199
2938.449067,-10658.965565,740.205942,1455.581446
2938.449404,-11177.109724,-148.041188,1302.362347
2938.449742,-12361.439231,-370.102971,1762.019645
2938.450079,-9548.656652,518.144159,919.314598
2938.450417,-7476.080014,962.267725,1225.752797
2938.450754,-8586.388927,592.164754,2145.067394
2938.451092,-10214.842000,592.164754,1991.848295
2938.451429,-10732.986159,2220.617826,612.876398
2938.451766,-9770.718434,2590.720797,-383.047749
2938.452104,-11251.130318,2220.617826,-306.438199
2938.452441,-10807.006753,518.144159,-306.438199
2938.452779,-11251.130318,-74.020594,-459.657299
2938.453116,-7772.162391,-592.164754,-1762.019645
2938.453454,-8142.265362,-740.205942,0.000000
2938.453791,-9104.533087,-1332.370696,459.657299
2938.454128,-11177.109724,-1332.370696,0.000000
2938.454466,-10362.883188,-444.123565,-1378.971896
2938.454803,-10140.821405,222.061783,-1915.238745
2938.455141,-11103.089130,-1184.329507,-536.266849
2938.455478,-11325.150913,-1702.473667,-1149.143247
2938.455816,-10140.821405,-2960.823768,-536.266849
2938.456153,-8512.368333,-2664.741391,-459.657299
2938.456490,-8808.450710,-2442.679609,459.657299
2938.456828,-9548.656652,-2812.782580,2757.943793
2938.457165,-10658.965565,-1480.411884,2451.505594
2938.457503,-9622.677246,-370.102971,995.924147
2938.457840,-10732.986159,0.000000,1915.238745
2938.458178,-11103.089130,148.041188,1378.971896
2938.458515,-11695.253884,222.061783,766.095498
2938.458852,-11103.089130,592.164754,-536.266849
2938.459190,-9548.656652,1332.370696,-612.876398
2938.459527,-9474.636058,0.000000,0.000000
2938.459865,-9696.697840,296.082377,1378.971896
2938.460202,-9474.636058,814.226536,76.609550
2938.460540,-9400.615463,1332.370696,-383.047749
2938.460877,-10955.047942,1258.350101,536.266849
2938.461214,-10658.965565,0.000000,-689.485948
2938.461552,-11399.171507,814.226536,0.000000
2938.461889,-9474.636058,148.041188,-689.485948
2938.462227,-8438.347739,-222.061783,383.047749
2938.462564,-8660.409521,-1480.411884,1455.581446
2938.462902,-8956.491898,-518.144159,1838.629195
2938.463239,-9252.574275,74.020594,1149.143247
2938.463576,-9104.533087,592.164754,689.485948
2938.463914,-10732.986159,0.000000,1532.190996
2938.464251,-11473.192101,-888.247130,1149.143247
2938.464589,-11251.130318,148.041188,1072.533697
2938.464926,-9030.512492,0.000000,306.438199
2938.465263,-9252.574275,-962.267725,1149.143247
2938.465601,-8586.388927,-888.247130,1455.581446
2938.465938,-10955.047942,-592.164754,1378.971896
2938.466276,-9622.677246,1184.329507,-76.609550
2938.466613,-10214.842000,1406.391290,-1225.752797
2938.466951,-11843.295072,-592.164754,-1225.752797
2938.467288,-11103.089130,-814.226536,-2145.067394
2938.467625,-10807.006753,-1036.288319,-1532.190996
2938.467963,-9696.697840,-1850.514855,-1532.190996
2938.468300,-8882.471304,-2516.700203,-536.266849
2938.468638,-9992.780217,-3404.947333,612.876398
2938.468975,-11029.068536,-3034.844362,612.876398
2938.469313,-9030.512492,-1554.432478,229.828649
2938.469650,-10066.800811,-1036.288319,689.485948
2938.469987,-10510.924376,-1480.411884,842.705048
2938.470325,-12287.418637,-962.267725,153.219100
2938.470662,-10807.006753,-1258.350101,-995.924147
2938.471000,-8956.491898,-370.102971,0.000000
2938.471337,-9918.759623,-814.226536,1838.629195
2938.471675,-10436.903782,-222.061783,2911.162892
2938.472012,-9770.718434,1258.350101,1378.971896
2938.472349,-8808.450710,1036.288319,1685.410096
2938.472687,-10140.821405,1332.370696,2298.286494
2938.473024,-10362.883188,1554.432478,766.095498
2938.473362,-11621.233289,2294.638420,-459.657299
2938.473699,-10066.800811,1702.473667,-1838.629195
2938.474037,-9252.574275,666.185348,-919.314598
2938.474374,-8660.409521,-222.061783,153.219100
2938.474711,-9548.656652,444.123565,536.266849
2938.475049,-9474.636058,1184.329507,-229.828649
2938.475386,-9400.615463,1332.370696,-2068.457845
2938.475724,-10436.903782,296.082377,-1072.533697
2938.476061,-10732.986159,-740.205942,-995.924147
2938.476399,-10510.924376,-1036.288319,-1455.581446
2938.476736,-9104.533087,-1850.514855,-842.705048
2938.477073,-8808.450710,-1924.535449,459.657299
2938.477411,-8660.409521,-1998.556043,919.314598
2938.477748,-11177.109724,-2072.576638,2145.067394
2938.478086,-10510.924376,-370.102971,1149.143247
2938.478423,-10510.924376,-296.082377,919.314598
2938.478761,-11843.295072,-518.144159,1455.581446
2938.479098,-11251.130318,-814.226536,612.876398
2938.479435,-10955.047942,-1110.308913,689.485948
2938.479773,-9326.594869,-1258.350101,919.314598
2938.480110,-9252.574275,-888.247130,689.485948
2938.480448,-10214.842000,-962.267725,1608.800546
2938.480785,-10955.047942,-962.267725,0.000000
2938.481123,-9030.512492,0.000000,-766.095498
2938.481460,-9992.780217,296.082377,-153.219100
2938.481797,-10362.883188,0.000000,0.000000
2938.482135,-11843.295072,0.000000,-612.876398
2938.482472,-11029.068536,-888.247130,-1225.752797
2938.482810,-9622.677246,-1036.288319,-1225.752797
2938.483147,-9252.574275,-2146.597232,919.314598
2938.483484,-9844.739029,-1554.432478,1838.629195
2938.483822,-9326.594869,-1332.370696,1225.752797
2938.484159,-8364.327145,370.102971,766.095498
2938.484497,-9696.697840,444.123565,689.485948
2938.484834,-10510.924376,74.020594,1302.362347
2938.485172,-11621.233289,222.061783,1455.581446
2938.485509,-9918.759623,1036.288319,153.219100
2938.485846,-9696.697840,592.164754,995.924147
2938.486184,-9030.512492,518.144159,1532.190996
2938.486521,-9252.574275,222.061783,2298.286494
2938.486859,-9030.512492,1554.432478,1302.362347
2938.487196,-9030.512492,1924.535449,0.000000
2938.487534,-11399.171507,2294.638420,0.000000
2938.487871,-11843.295072,962.267725,-1838.629195
2938.488208,-11621.233289,296.082377,-2298.286494
2938.488546,-9252.574275,-592.164754,-1915.238745
2938.488883,-9252.574275,-592.164754,-1378.971896
2938.489221,-8438.347739,-1258.350101,-612.876398
2938.489558,-10362.883188,-2294.638420,-76.609550
2938.489896,-9474.636058,-888.247130,-1149.143247
2938.490233,-10362.883188,-1036.288319,-306.438199
2938.490570,-11547.212695,-1036.288319,306.438199
2938.490908,-10955.047942,-1628.453072,-919.314598
2938.491245,-11325.150913,-1924.535449,306.438199
2938.491583,-9326.594869,-1332.370696,0.000000
2938.491920,-9252.574275,-2294.638420,459.657299
2938.492258,-10732.986159,-2368.659014,1838.629195
2938.492595,-10214.842000,-2220.617826,1762.019645
2938.492932,-9252.574275,-518.144159,1608.800546
2938.493270,-9400.615463,-148.041188,2068.457845
2938.493607,-10140.821405,0.000000,2298.286494
2938.493945,-12139.377449,740.205942,1378.971896
2938.494282,-11547.212695,666.185348,-383.047749
2938.494620,-10140.821405,592.164754,0.000000
2938.494957,-9696.697840,-296.082377,536.266849
2938.495294,-9326.594869,-592.164754,1302.362347
2938.495632,-9474.636058,0.000000,995.924147
2938.495969,-8660.409521,888.247130,-536.266849
2938.496306,-9548.656652,1184.329507,-153.219100
2938.496644,-10955.047942,222.061783,-612.876398
2938.496981,-11251.130318,148.041188,-306.438199
2938.497318,-9770.718434,0.000000,-1302.362347
2938.497656,-9474.636058,222.061783,0.000000
2938.497993,-9104.533087,-888.247130,536.266849
2938.498330,-9918.759623,-1776.494261,1762.019645
2938.498668,-8660.409521,-296.082377,689.485948
2938.499005,-9030.512492,74.020594,995.924147
2938.499342,-9992.780217,814.226536,1838.629195
2938.499680,-11103.089130,-74.020594,766.095498
2938.500017,-12139.377449,222.061783,459.657299
2938.500354,-10066.800811,74.020594,-612.876398
2938.500692,-9400.615463,-444.123565,229.828649
2938.501029,-9178.553681,-444.123565,1072.533697
2938.501366,-10140.821405,-592.164754,1225.752797
2938.501704,-8512.368333,518.144159,-612.876398
2938.502041,-10066.800811,444.123565,-536.266849
2938.502378,-10584.944971,74.020594,0.000000
2938.502716,-11547.212695,-740.205942,-1149.143247
2938.503053,-11029.068536,-296.082377,-1455.581446
2938.503390,-9918.759623,-814.226536,-1991.848295
2938.503728,-9770.718434,-1998.556043,-1455.581446
2938.504065,-9104.533087,-2738.761985,-383.047749
2938.504402,-9770.718434,-3404.947333,612.876398
2938.504740,-9030.512492,-1406.391290,153.219100
2938.505077,-9474.636058,-962.267725,383.047749
2938.505414,-10510.924376,-888.247130,306.438199
2938.505752,-11325.150913,-1110.308913,766.095498
2938.506089,-10881.027347,-444.123565,76.609550
2938.506426,-10436.903782,-296.082377,689.485948
2938.506764,-9622.677246,-1184.329507,1838.629195
2938.507101,-10214.842000,-296.082377,2681.334243
2938.507438,-9696.697840,0.000000,1838.629195
2938.507776,-8364.327145,888.247130,1302.362347
2938.508113,-9400.615463,1184.329507,1378.971896
2938.508450,-10510.924376,444.123565,1072.533697
2938.508788,-11621.233289,2368.659014,459.657299
2938.509125,-10214.842000,2368.659014,-766.095498
2938.509462,-9992.780217,1184.329507,-689.485948
2938.509800,-9326.594869,296.082377,-536.266849
2938.510137,-10214.842000,-370.102971,919.314598
2938.510474,-8808.450710,518.144159,0.000000
2938.510812,-8808.450710,148.041188,-536.266849
2938.511149,-9918.759623,-592.164754,153.219100
2938.511486,-11177.109724,-1258.350101,-306.438199
2938.511824,-11251.130318,-592.164754,-229.828649
2938.512161,-9326.594869,-740.205942,-1302.362347
2938.512498,-9030.512492,-1332.370696,0.000000
2938.512836,-9252.574275,-2146.597232,306.438199
2938.513173,-11251.130318,-1332.370696,1685.410096
2938.513510,-9844.739029,-1184.329507,689.485948
2938.513848,-9548.656652,-740.205942,689.485948
2938.514185,-10214.842000,-370.102971,1762.019645
2938.514522,-10732.986159,-814.226536,1608.800546
2938.514860,-10955.047942,444.123565,0.000000
2938.515197,-10436.903782,-666.185348,-153.219100
2938.515534,-9844.739029,-518.144159,-766.095498
2938.515872,-10288.862594,-740.205942,-612.876398
2938.516209,-10658.965565,-962.267725,0.000000
2938.516546,-7846.182985,-148.041188,-1072.533697
2938.516884,-9548.656652,-666.185348,612.876398
2938.517221,-10288.862594,-962.267725,612.876398
2938.517558,-11547.212695,-148.041188,-459.657299
2938.517896,-11399.171507,-666.185348,-1225.752797
2938.518233,-10584.944971,-740.205942,-766.095498
2938.518570,-9474.636058,-1998.556043,306.438199
2938.518908,-10584.944971,-1850.514855,1991.848295
2938.519245,-9696.697840,-1110.308913,1149.143247
2938.519582,-8438.347739,0.000000,76.609550
2938.519920,-8882.471304,-296.082377,1532.190996
2938.520257,-10362.883188,222.061783,1915.238745
2938.520594,-11325.150913,1184.329507,1838.629195
2938.520932,-10214.842000,1554.432478,153.219100
2938.521269,-9474.636058,1036.288319,766.095498
2938.521606,-9474.636058,888.247130,2451.505594
2938.521944,-10362.883188,814.226536,2757.943793
2938.522281,-9104.533087,962.267725,1302.362347
2938.522618,-9400.615463,1406.391290,766.095498
2938.522956,-9696.697840,2368.659014,612.876398
2938.523293,-11029.068536,1036.288319,-766.095498
2938.523630,-10362.883188,1628.453072,-1302.362347
2938.523968,-8660.409521,370.102971,-2834.553343
2938.524305,-9178.553681,-222.061783,-1685.410096
2938.524642,-9474.636058,-962.267725,-995.924147
2938.524980,-10955.047942,-1258.350101,-76.609550
2938.525317,-9844.739029,-1036.288319,-919.314598
2938.525654,-9326.594869,-1332.370696,-689.485948
2938.525992,-10288.862594,-2368.659014,995.924147
2938.526329,-11177.109724,-2220.617826,1149.143247
2938.526666,-9992.780217,-1406.391290,-536.266849
2938.527004,-9992.780217,-1480.411884,459.657299
2938.527341,-10658.965565,-1776.494261,76.609550
2938.527678,-10955.047942,-1554.432478,536.266849
2938.528016,-11325.150913,-1554.432478,766.095498
2938.528353,-8216.285956,0.000000,153.219100
2938.528690,-9770.718434,0.000000,1532.190996
2938.529028,-10584.944971,296.082377,2068.457845
2938.529365,-11547.212695,740.205942,1225.752797
2938.529702,-11399.171507,1184.329507,383.047749
2938.530040,-10807.006753,1628.453072,0.000000
2938.530377,-10362.883188,444.123565,0.000000
2938.530714,-10955.047942,74.020594,612.876398
2938.531052,-9326.594869,0.000000,76.609550
2938.531389,-8438.347739,1184.329507,-766.095498
2938.531726,-9326.594869,444.123565,0.000000
2938.532064,-10066.800811,0.000000,-459.657299
2938.532401,-10214.842000,-592.164754,-306.438199
2938.532738,-9252.574275,74.020594,-842.705048
2938.533076,-9178.553681,296.082377,612.876398
2938.533413,-9030.512492,-962.267725,229.828649
2938.533750,-10140.821405,-518.144159,1378.971896
2938.534088,-8660.409521,-592.164754,153.219100
2938.534425,-7846.182985,0.000000,1302.362347
2938.534762,-8808.450710,0.000000,2145.067394
2938.535100,-11473.192101,-296.082377,2298.286494
2938.535437,-11325.150913,666.185348,689.485948
2938.535774,-10214.842000,296.082377,0.000000
2938.536112,-10510.924376,592.164754,995.924147
2938.536449,-9770.718434,-1036.288319,689.485948
2938.536786,-11029.068536,-1036.288319,1608.800546
2938.537124,-9252.574275,222.061783,-76.609550
2938.537461,-9770.718434,-370.102971,0.000000
2938.537799,-11399.171507,-518.144159,689.485948
2938.538136,-11473.192101,-814.226536,-919.314598
2938.538473,-10140.821405,-1110.308913,-1608.800546
2938.538811,-9770.718434,-222.061783,-1915.238745
2938.539148,-9844.739029,-1924.535449,-1608.800546
2938.539485,-10732.986159,-2738.761985,-842.705048
2938.539823,-10881.027347,-2960.823768,-76.609550
2938.540160,-8364.327145,-1850.514855,-1302.362347
2938.540497,-9400.615463,-2072.576638,995.924147
2938.540835,-9992.780217,-1924.535449,1455.581446
2938.541172,-10510.924376,-1258.350101,766.095498
2938.541509,-9622.677246,-296.082377,76.609550
2938.541847,-10140.821405,0.000000,766.095498
2938.542184,-10436.903782,-222.061783,1149.143247
2938.542521,-11177.109724,222.061783,1685.410096
2938.542859,-9178.553681,1184.329507,919.314598
2938.543196,-8734.430116,2072.576638,842.705048
2938.543533,-9474.636058,1480.411884,1685.410096
2938.543871,-10881.027347,962.267725,919.314598
2938.544208,-10807.006753,2368.659014,-383.047749
2938.544545,-9178.553681,2368.659014,-1149.143247
2938.544883,-9400.615463,2072.576638,-612.876398
2938.545220,-9918.759623,222.061783,0.000000
2938.545557,-9548.656652,1628.453072,-229.828649
2938.545895,-9918.759623,1110.308913,-1302.362347
2938.546232,-9696.697840,888.247130,0.000000
2938.546569,-10436.903782,-444.123565,153.219100
2938.546907,-11399.171507,-1628.453072,842.705048
2938.547244,-9474.636058,-740.205942,842.705048
2938.547581,-8216.285956,-296.082377,-306.438199
2938.547919,-8808.450710,-1036.288319,612.876398
2938.548256,-9918.759623,-1480.411884,689.485948
2938.548593,-11473.192101,-1110.308913,1225.752797
2938.548931,-10510.924376,-518.144159,459.657299
2938.549268,-11029.068536,0.000000,1302.362347
2938.549605,-10807.006753,-1110.308913,1838.629195
2938.549943,-10658.965565,-1036.288319,2068.457845
2938.550280,-9400.615463,-888.247130,1991.848295
2938.550617,-9844.739029,-740.205942,1532.190996
2938.550955,-9770.718434,-740.205942,1378.971896
2938.551292,-11399.171507,-740.205942,842.705048
2938.551629,-11547.212695,-1110.308913,-459.657299
2938.551967,-9252.574275,0.000000,-1532.190996
2938.552304,-9622.677246,-1110.308913,-229.828649
2938.552641,-9474.636058,-1776.494261,536.266849
2938.552979,-9622.677246,-814.226536,-306.438199
2938.553316,-9622.677246,0.000000,-1072.533697
2938.553653,-10140.821405,-518.144159,76.609550
2938.553991,-10362.883188,-1480.411884,229.828649
2938.554328,-11843.295072,-444.123565,1762.019645
2938.554665,-10510.924376,74.020594,995.924147
2938.555003,-9252.574275,0.000000,153.219100
2938.555340,-9178.553681,0.000000,1072.533697
2938.555677,-10140.821405,-370.102971,1532.190996
2938.556015,-11103.089130,370.102971,919.314598
2938.556352,-9104.533087,592.164754,0.000000
2938.556689,-8882.471304,1480.411884,1149.143247
2938.557027,-9696.697840,1480.411884,1149.143247
2938.557364,-10584.944971,2294.638420,1149.143247
2938.557701,-10510.924376,1850.514855,0.000000
2938.558039,-9992.780217,1628.453072,-153.219100
2938.558376,-9770.718434,666.185348,0.000000
2938.558713,-10584.944971,296.082377,0.000000
2938.559051,-8882.471304,0.000000,-1532.190996
2938.559388,-8660.409521,0.000000,-2145.067394
2938.559725,-9474.636058,-222.061783,-2145.067394
2938.560063,-9178.553681,-518.144159,-2374.896044
2938.560400,-10955.047942,-814.226536,-1608.800546
2938.560737,-9770.718434,-1258.350101,-2528.115143
2938.561075,-9918.759623,-1554.432478,-995.924147
2938.561412,-10214.842000,-2368.659014,0.000000
2938.561749,-11251.130318,-2812.782580,766.095498
2938.562087,-9474.636058,-2072.576638,612.876398
2938.562424,-9400.615463,-2146.597232,1685.410096
2938.562761,-10584.944971,-2146.597232,2374.896044
2938.563099,-11695.253884,-1258.350101,2221.676944
2938.563436,-12287.418637,-222.061783,1225.752797
2938.563773,-10658.965565,-370.102971,-153.219100
2938.564111,-9992.780217,296.082377,766.095498
2938.564448,-9770.718434,-222.061783,1072.533697
2938.564785,-10288.862594,0.000000,1225.752797
2938.565123,-8808.450710,-370.102971,383.047749
2938.565460,-9622.677246,1480.411884,1225.752797
2938.565797,-10140.821405,222.061783,1991.848295
2938.566135,-11843.295072,888.247130,1302.362347
2938.566472,-10510.924376,222.061783,76.609550
2938.566809,-10066.800811,962.267725,689.485948
2938.567147,-9178.553681,0.000000,842.705048
2938.567484,-9622.677246,-444.123565,612.876398
2938.567821,-8660.409521,-666.185348,0.000000
2938.568159,-8586.388927,74.020594,-306.438199
2938.568496,-9474.636058,444.123565,76.609550
2938.568833,-8734.430116,0.000000,-153.219100
2938.569171,-9918.759623,1332.370696,1532.190996
2938.569508,-10066.800811,740.205942,0.000000
2938.569845,-10584.944971,2072.576638,229.828649
2938.570183,-10436.903782,222.061783,919.314598
2938.570520,-11917.315666,592.164754,2451.505594
2938.570857,-9696.697840,0.000000,766.095498
2938.571195,-9474.636058,740.205942,1149.143247
2938.571532,-9400.615463,296.082377,1378.971896
2938.571869,-10288.862594,-148.041188,76.609550
2938.572207,-11547.212695,592.164754,-612.876398
2938.572544,-9770.718434,222.061783,-1991.848295
2938.572881,-9992.780217,444.123565,-919.314598
2938.573219,-10288.862594,-148.041188,-995.924147
2938.573556,-10732.986159,-1628.453072,-1072.533697
2938.573893,-9770.718434,-1850.514855,-1608.800546
2938.574231,-9326.594869,-1480.411884,-1762.019645
2938.574568,-8660.409521,-2368.659014,-1302.362347
2938.574905,-10288.862594,-2886.803174,0.000000
2938.575243,-11547.212695,-2590.720797,459.657299
2938.575580,-10436.903782,-2146.597232,-536.266849
2938.575917,-9400.615463,-2220.617826,612.876398
2938.576255,-10140.821405,-2664.741391,1302.362347
2938.576592,-10658.965565,-3034.844362,1991.848295
2938.576929,-9696.697840,-1924.535449,1378.971896
2938.577267,-9622.677246,-222.061783,2145.067394
2938.577604,-9770.718434,-666.185348,2528.115143
2938.577941,-11251.130318,592.164754,2298.286494
2938.578279,-10436.903782,1184.329507,842.705048
2938.578616,-10510.924376,2072.576638,229.828649
2938.578953,-10140.821405,1332.370696,766.095498
2938.579291,-10362.883188,1036.288319,1225.752797
2938.579628,-9548.656652,962.267725,0.000000
2938.579965,-8290.306550,1258.350101,-306.438199
2938.580303,-8882.471304,814.226536,306.438199
2938.580640,-9178.553681,592.164754,1072.533697
2938.580977,-10955.047942,1110.308913,1072.533697
2938.581315,-10362.883188,1110.308913,0.000000
2938.581652,-10510.924376,1184.329507,-1072.533697
2938.581989,-9696.697840,-296.082377,-306.438199
2938.582327,-10288.862594,-1110.308913,383.047749
2938.582664,-8808.450710,-1998.556043,-383.047749
2938.583001,-8068.244768,-592.164754,-612.876398
2938.583339,-8586.388927,-1110.308913,-76.609550
2938.583676,-10066.800811,-1702.473667,306.438199
2938.584013,-10881.027347,-148.041188,0.000000
2938.584351,-10066.800811,296.082377,306.438199
2938.584688,-10807.006753,370.102971,1149.143247
2938.585025,-10807.006753,-1110.308913,1149.143247
2938.585363,-12139.377449,-666.185348,1608.800546
2938.585700,-9400.615463,-1480.411884,1225.752797
2938.586037,-9844.739029,-1036.288319,1838.629195
2938.586375,-9844.739029,-1480.411884,1455.581446
2938.586712,-10807.006753,74.020594,153.219100
2938.587049,-10584.944971,962.267725,-1685.410096
2938.587387,-10510.924376,666.185348,-3064.381992
2938.587724,-10584.944971,-222.061783,-2221.676944
2938.588061,-10955.047942,-962.267725,-1225.752797
2938.588399,-9770.718434,-1258.350101,-1455.581446
2938.588736,-8808.450710,-592.164754,-1302.362347
2938.589073,-8660.409521,-888.247130,536.266849
2938.589411,-8956.491898,-1776.494261,1762.019645
2938.589748,-11399.171507,-1110.308913,2604.724693
2938.590085,-10955.047942,-296.082377,1608.800546
2938.590423,-10288.862594,740.205942,536.266849
2938.590760,-9844.739029,-592.164754,766.095498
2938.591097,-10140.821405,-296.082377,1685.410096
2938.591435,-9252.574275,222.061783,229.828649
2938.591772,-8660.409521,888.247130,229.828649
2938.592109,-8734.430116,1480.411884,995.924147
2938.592447,-9696.697840,1036.288319,1378.971896
2938.592784,-11029.068536,2146.597232,1072.533697
2938.593121,-9844.739029,2146.597232,459.657299
2938.593459,-10658.965565,2220.617826,689.485948
2938.593796,-10214.842000,962.267725,0.000000
2938.594134,-11621.233289,814.226536,76.609550
2938.594471,-9548.656652,-222.061783,-919.314598
2938.594808,-8512.368333,-370.102971,-1149.143247
2938.595146,-8290.306550,-1406.391290,229.828649
2938.595483,-9844.739029,-518.144159,-306.438199
2938.595820,-10584.944971,-962.267725,-766.095498
2938.596158,-10362.883188,-814.226536,-1532.190996
2938.596495,-10066.800811,-1184.329507,-766.095498
2938.596833,-11029.068536,-2886.803174,612.876398
2938.597170,-11399.171507,-2590.720797,919.314598
2938.597507,-9400.615463,-2812.782580,-612.876398
2938.597845,-9474.636058,-3108.864956,1532.190996
2938.598182,-9400.615463,-3404.947333,1838.629195
2938.598519,-9844.739029,-1776.494261,2298.286494
2938.598857,-10732.986159,-74.020594,1685.410096
2938.599194,-11251.130318,814.226536,-229.828649
2938.599532,-11473.192101,0.000000,0.000000
2938.599869,-11325.150913,-148.041188,536.266849
2938.600206,-10214.842000,-740.205942,-766.095498
2938.600544,-8734.430116,-666.185348,0.000000
2938.600881,-8438.347739,-518.144159,842.705048
2938.601219,-9030.512492,-814.226536,995.924147
2938.601556,-11103.089130,148.041188,1455.581446
2938.601893,-10214.842000,1258.350101,-306.438199
2938.602231,-10881.027347,1332.370696,-1072.533697
2938.602568,-10732.986159,0.000000,-536.266849
2938.602905,-11251.130318,-592.164754,-766.095498
2938.603243,-9474.636058,-666.185348,-1455.581446
2938.603580,-7994.224174,-666.185348,-459.657299
2938.603918,-7920.203579,-888.247130,842.705048
2938.604255,-9474.636058,-962.267725,1149.143247
2938.604592,-10955.047942,740.205942,1455.581446
2938.604930,-10288.862594,1406.391290,153.219100
2938.605267,-11029.068536,1110.308913,383.047749
2938.605604,-10807.006753,1036.288319,76.609550
2938.605942,-11991.336260,518.144159,919.314598
2938.606279,-9178.553681,370.102971,-459.657299
2938.606617,-8142.265362,666.185348,0.000000
2938.606954,-9030.512492,0.000000,1991.848295
2938.607291,-10436.903782,296.082377,2068.457845
2938.607629,-10436.903782,888.247130,536.266849
2938.607966,-10658.965565,962.267725,-383.047749
2938.608303,-10807.006753,814.226536,-306.438199
2938.608641,-11325.150913,-370.102971,0.000000
2938.608978,-10955.047942,-1480.411884,-383.047749
2938.609316,-7476.080014,-1628.453072,-1762.019645
2938.609653,-8364.327145,-1628.453072,0.000000
2938.609990,-9474.636058,-2664.741391,0.000000
2938.610328,-11251.130318,-2072.576638,0.000000
2938.610665,-10732.986159,-1110.308913,-536.266849
2938.611002,-10066.800811,-962.267725,-306.438199
2938.611340,-10584.944971,-1110.308913,919.314598
2938.611677,-11473.192101,-1776.494261,995.924147
2938.612015,-10658.965565,-2072.576638,919.314598
2938.612352,-8512.368333,-1628.453072,1302.362347
2938.612689,-9252.574275,-1924.535449,3370.820191
2938.613027,-10214.842000,-1036.288319,3294.210641
2938.613364,-11695.253884,740.205942,2528.115143
2938.613701,-9992.780217,2738.761985,842.705048
2938.614039,-10584.944971,2368.659014,0.000000
2938.614376,-10584.944971,1850.514855,306.438199
2938.614714,-11399.171507,1036.288319,-383.047749
2938.615051,-9622.677246,296.082377,-1225.752797
2938.615388,-7920.203579,962.267725,-1225.752797
2938.615726,-8142.265362,-444.123565,536.266849
2938.616063,-10066.800811,-666.185348,766.095498
2938.616401,-9696.697840,222.061783,-153.219100
2938.616738,-8734.430116,1332.370696,-766.095498
2938.617075,-10066.800811,1184.329507,-383.047749
2938.617413,-11695.253884,-1036.288319,-766.095498
2938.617750,-11621.233289,-666.185348,-689.485948
2938.618087,-8290.306550,-1110.308913,-2528.115143
2938.618425,-8290.306550,-1258.350101,-1225.752797
2938.618762,-9178.553681,-1776.494261,0.000000
2938.619100,-9696.697840,-1776.494261,536.266849
2938.619437,-10066.800811,-222.061783,0.000000
2938.619774,-9770.718434,888.247130,0.000000
2938.620112,-11325.150913,592.164754,919.314598
2938.620449,-12509.480420,-370.102971,842.705048
2938.620786,-12065.356855,-74.020594,229.828649
2938.621124,-9104.533087,-518.144159,0.000000
2938.621461,-9770.718434,-444.123565,1532.190996
2938.621799,-9474.636058,-1998.556043,1608.800546
2938.622136,-10584.944971,-1406.391290,1149.143247
2938.622473,-9770.718434,-148.041188,0.000000
2938.622811,-9992.780217,592.164754,-1149.143247
2938.623148,-10807.006753,-370.102971,-536.266849
2938.623485,-11029.068536,-1184.329507,-1378.971896
2938.623823,-9844.739029,-1332.370696,-1915.238745
2938.624160,-8290.306550,-1332.370696,-1532.190996
2938.624498,-8586.388927,-2072.576638,1225.752797
2938.624835,-9622.677246,-2886.803174,1838.629195
2938.625172,-10881.027347,-1924.535449,1915.238745
2938.625510,-9474.636058,-370.102971,1302.362347
2938.625847,-9770.718434,-444.123565,1991.848295
2938.626184,-9918.759623,-740.205942,2681.334243
2938.626522,-11547.212695,-148.041188,3140.991542
2938.626859,-10807.006753,296.082377,1302.362347
2938.627197,-9474.636058,962.267725,536.266849
2938.627534,-9548.656652,962.267725,1378.971896
2938.627871,-9844.739029,666.185348,1225.752797
2938.628209,-9548.656652,2072.576638,995.924147
2938.628546,-9548.656652,3256.906145,0.000000
2938.628883,-10362.883188,3034.844362,-229.828649
2938.629221,-11547.212695,1850.514855,-1378.971896
2938.629558,-12583.501014,1184.329507,-842.705048
2938.629896,-9548.656652,0.000000,-1838.629195
2938.630233,-8956.491898,-962.267725,0.000000
2938.630570,-7994.224174,-2146.597232,536.266849
2938.630908,-9104.533087,-1406.391290,842.705048
2938.631245,-9178.553681,-592.164754,-1072.533697
2938.631583,-9474.636058,-666.185348,-1762.019645
2938.631920,-10881.027347,-592.164754,-1838.629195
2938.632257,-11695.253884,-888.247130,-1532.190996
2938.632595,-11177.109724,-1406.391290,-1532.190996
2938.632932,-8438.347739,-1406.391290,-2221.676944
2938.633269,-8956.491898,-2220.617826,-229.828649
2938.633607,-9474.636058,-3034.844362,1685.410096
2938.633944,-10288.862594,-2886.803174,1149.143247
2938.634282,-9918.759623,-740.205942,1378.971896
2938.634619,-10362.883188,222.061783,1762.019645
2938.634956,-11103.089130,0.000000,2068.457845
2938.635294,-12435.459826,0.000000,1378.971896
2938.635631,-11399.171507,518.144159,0.000000
2938.635968,-10510.924376,0.000000,-383.047749
2938.636306,-9474.636058,-222.061783,76.609550
2938.636643,-9400.615463,-148.041188,612.876398
2938.636981,-10288.862594,148.041188,536.266849
2938.637318,-9992.780217,592.164754,-383.047749
2938.637655,-9770.718434,518.144159,-842.705048
2938.637993,-9844.739029,222.061783,-536.266849
2938.638330,-10732.986159,-518.144159,0.000000
2938.638667,-9918.759623,-740.205942,0.000000
2938.639005,-8956.491898,-888.247130,689.485948
2938.639342,-8660.409521,-1258.350101,1685.410096
2938.639680,-9252.574275,-888.247130,2145.067394
2938.640017,-9178.553681,-222.061783,2145.067394
2938.640354,-9326.594869,222.061783,1762.019645
2938.640692,-10066.800811,1332.370696,1302.362347
2938.641029,-10510.924376,1110.308913,995.924147
2938.641366,-12361.439231,1480.411884,842.705048
2938.641704,-10732.986159,0.000000,-1225.752797
2938.642041,-9696.697840,296.082377,0.000000
2938.642379,-7920.203579,-444.123565,1302.362347
2938.642716,-9400.615463,-148.041188,1762.019645
2938.643053,-9400.615463,962.267725,536.266849
2938.643391,-10658.965565,1036.288319,-306.438199
2938.643728,-11103.089130,518.144159,-689.485948
2938.644065,-11843.295072,74.020594,-995.924147
2938.644403,-12065.356855,-370.102971,-766.095498
2938.644740,-9622.677246,-1036.288319,-1915.238745
2938.645078,-8364.327145,-1776.494261,-1608.800546
2938.645415,-8882.471304,-2368.659014,-1072.533697
2938.645752,-9696.697840,-3330.926739,459.657299
2938.646090,-9696.697840,-2368.659014,-306.438199
2938.646427,-10288.862594,-1924.535449,0.000000
2938.646764,-9844.739029,-1480.411884,689.485948
2938.647102,-11473.192101,-1480.411884,766.095498
2938.647439,-10584.944971,-1776.494261,0.000000
2938.647777,-8808.450710,-1258.350101,76.609550
2938.648114,-9474.636058,-962.267725,1378.971896
2938.648451,-10288.862594,-1406.391290,1991.848295
2938.648789,-10807.006753,-370.102971,1225.752797
2938.649126,-9992.780217,444.123565,1302.362347
2938.649464,-9992.780217,1406.391290,995.924147
2938.649801,-10362.883188,2220.617826,1072.533697
2938.650138,-11547.212695,1628.453072,689.485948
2938.650476,-10807.006753,1850.514855,-919.314598
2938.650813,-9918.759623,1776.494261,-1149.143247
2938.651150,-9400.615463,296.082377,-306.438199
2938.651488,-9918.759623,-148.041188,0.000000
2938.651825,-8956.491898,-666.185348,-153.219100
2938.652163,-8364.327145,888.247130,-153.219100
2938.652500,-8586.388927,666.185348,0.000000
2938.652837,-10510.924376,148.041188,536.266849
2938.653175,-11917.315666,296.082377,536.266849
2938.653512,-10881.027347,0.000000,-1685.410096
2938.653849,-9918.759623,0.000000,-306.438199
2938.654187,-8438.347739,-1480.411884,76.609550
2938.654524,-9326.594869,-1998.556043,1455.581446
2938.654862,-8660.409521,-962.267725,1608.800546
2938.655199,-9474.636058,518.144159,1302.362347
2938.655536,-10658.965565,296.082377,1072.533697
2938.655874,-11917.315666,0.000000,612.876398
2938.656211,-11917.315666,296.082377,919.314598
2938.656548,-9844.739029,592.164754,383.047749
2938.656886,-9474.636058,-518.144159,1072.533697
2938.657223,-9326.594869,-1258.350101,919.314598
2938.657561,-10658.965565,-1110.308913,766.095498
2938.657898,-8882.471304,-518.144159,-229.828649
2938.658235,-9696.697840,-518.144159,-766.095498
2938.658573,-9844.739029,-296.082377,0.000000
2938.658910,-11399.171507,-962.267725,0.000000
2938.659247,-10658.965565,-1332.370696,-766.095498
2938.659585,-9474.636058,-1036.288319,-1225.752797
2938.659922,-9770.718434,-1850.514855,0.000000
2938.660260,-9770.718434,-2516.700203,1455.581446
2938.660597,-10066.800811,-1258.350101,1378.971896
2938.660934,-9400.615463,0.000000,612.876398
2938.661272,-9548.656652,-962.267725,459.657299
2938.661609,-9918.759623,-518.144159,1838.629195
2938.661946,-11399.171507,74.020594,2145.067394
2938.662284,-10436.903782,1554.432478,536.266849
2938.662621,-10732.986159,1184.329507,612.876398
2938.662959,-9770.718434,1110.308913,612.876398
2938.663296,-9992.780217,444.123565,1149.143247
2938.663633,-8808.450710,296.082377,1149.143247
2938.663971,-8142.265362,1776.494261,612.876398
2938.664308,-10362.883188,1036.288319,612.876398
2938.664646,-11399.171507,1332.370696,229.828649
2938.664983,-11695.253884,962.267725,-919.314598
2938.665320,-9770.718434,518.144159,-1762.019645
2938.665658,-8586.388927,148.041188,-1302.362347
2938.665995,-8512.368333,-1924.535449,-689.485948
2938.666332,-9548.656652,-1998.556043,-153.219100
2938.666670,-8882.471304,-1036.288319,-1608.800546
2938.667007,-10288.862594,-962.267725,-766.095498
2938.667345,-10362.883188,-888.247130,-536.266849
2938.667682,-11103.089130,-2146.597232,76.609550
2938.668019,-11991.336260,-1036.288319,612.876398
2938.668357,-9252.574275,-1332.370696,-689.485948
2938.668694,-10066.800811,-2146.597232,536.266849
2938.669031,-10658.965565,-3034.844362,1378.971896
2938.669369,-10584.944971,-2220.617826,1685.410096
2938.669706,-9696.697840,-740.205942,1225.752797
2938.670044,-9474.636058,-666.185348,1532.190996
2938.670381,-9770.718434,222.061783,1302.362347
2938.670718,-11621.233289,74.020594,1455.581446
2938.671056,-11103.089130,1184.329507,383.047749
2938.671393,-10510.924376,1110.308913,0.000000
2938.671730,-10584.944971,0.000000,919.314598
2938.672068,-10658.965565,-592.164754,842.705048
2938.672405,-10066.800811,-888.247130,689.485948
2938.672743,-7920.203579,444.123565,-153.219100
2938.673080,-8660.409521,-666.185348,766.095498
2938.673417,-10214.842000,148.041188,383.047749
2938.673755,-10955.047942,74.020594,-1225.752797
2938.674092,-9696.697840,814.226536,-1838.629195
2938.674429,-9474.636058,296.082377,-689.485948
2938.674767,-9548.656652,-296.082377,153.219100
2938.675104,-10140.821405,-296.082377,1762.019645
2938.675442,-9252.574275,666.185348,383.047749
2938.675779,-8660.409521,148.041188,1532.190996
2938.676116,-10066.800811,888.247130,1915.238745
2938.676454,-10955.047942,518.144159,1455.581446
2938.676791,-11917.315666,1480.411884,1455.581446
2938.677128,-10140.821405,1036.288319,-536.266849
2938.677466,-9992.780217,1110.308913,0.000000
2938.677803,-9474.636058,888.247130,153.219100
2938.678141,-10362.883188,518.144159,-536.266849
2938.678478,-9030.512492,444.123565,-1685.410096
2938.678815,-9178.553681,666.185348,-1149.143247
2938.679153,-9548.656652,0.000000,-459.657299
2938.679490,-11251.130318,-592.164754,0.000000
2938.679828,-11103.089130,74.020594,-383.047749
2938.680165,-9622.677246,-814.226536,-1532.190996
2938.680502,-10140.821405,-1258.350101,0.000000
2938.680840,-9844.739029,-2368.659014,306.438199
2938.681177,-10584.944971,-2442.679609,383.047749
2938.681514,-9548.656652,-1480.411884,-919.314598
2938.681852,-9326.594869,-2220.617826,-612.876398
2938.682189,-9548.656652,-1406.391290,383.047749
2938.682527,-10807.006753,-1702.473667,842.705048
2938.682864,-10288.862594,-962.267725,0.000000
2938.683201,-9474.636058,-740.205942,459.657299
2938.683539,-10510.924376,-370.102971,2834.553343
2938.683876,-11251.130318,-370.102971,2757.943793
2938.684213,-10807.006753,-370.102971,2145.067394
2938.684551,-9844.739029,592.164754,2068.457845
2938.684888,-9992.780217,370.102971,2221.676944
2938.685226,-10214.842000,222.061783,2068.457845
2938.685563,-10288.862594,1110.308913,919.314598
2938.685900,-9474.636058,1184.329507,-842.705048
2938.686238,-9770.718434,1702.473667,-689.485948
2938.686575,-9770.718434,814.226536,-1532.190996
2938.686912,-10732.986159,-296.082377,-842.705048
2938.687250,-8808.450710,0.000000,-1302.362347
2938.687587,-7920.203579,666.185348,-842.705048
2938.687925,-9252.574275,-888.247130,306.438199
2938.688262,-10214.842000,-1110.308913,0.000000
2938.688599,-11325.150913,-740.205942,0.000000
2938.688937,-9918.759623,-1036.288319,-536.266849
2938.689274,-9918.759623,-222.061783,536.266849
2938.689611,-10362.883188,-1776.494261,536.266849
2938.689949,-10658.965565,-1258.350101,0.000000
2938.690286,-9178.553681,-1036.288319,-536.266849
2938.690624,-9992.780217,-888.247130,1378.971896
2938.690961,-10362.883188,-592.164754,1302.362347
2938.691298,-11769.274478,-814.226536,842.705048
2938.691636,-11251.130318,-148.041188,612.876398
2938.691973,-9696.697840,0.000000,0.000000
2938.692310,-9844.739029,518.144159,919.314598
2938.692648,-10732.986159,-962.267725,153.219100
2938.692985,-10881.027347,-222.061783,-459.657299
2938.693323,-9104.533087,-296.082377,-1762.019645
2938.693660,-9844.739029,-888.247130,-383.047749
2938.693997,-9770.718434,-592.164754,-536.266849
2938.694335,-10510.924376,-1258.350101,0.000000
2938.694672,-9178.553681,-370.102971,-1302.362347
2938.695009,-9178.553681,-888.247130,-612.876398
2938.695347,-9696.697840,-814.226536,383.047749
2938.695684,-10140.821405,-1184.329507,1378.971896
2938.696021,-10658.965565,-1110.308913,1685.410096
2938.696359,-9992.780217,-370.102971,1149.143247
2938.696696,-10214.842000,-740.205942,1915.238745
2938.697033,-9918.759623,-444.123565,1685.410096
2938.697371,-10732.986159,74.020594,1532.190996
2938.697708,-9178.553681,814.226536,536.266849
2938.698045,-9252.574275,2516.700203,842.705048
2938.698383,-9696.697840,1480.411884,689.485948
2938.698720,-11547.212695,1702.473667,766.095498
2938.699058,-9844.739029,1998.556043,0.000000
2938.699395,-9548.656652,2516.700203,1149.143247
2938.699732,-10584.944971,1628.453072,1608.800546
2938.700070,-10436.903782,740.205942,689.485948
2938.700407,-10214.842000,962.267725,459.657299
2938.700744,-9474.636058,222.061783,-536.266849
2938.701082,-9844.739029,148.041188,0.000000
2938.701419,-9770.718434,-740.205942,-1455.581446
2938.701756,-9918.759623,-814.226536,-1532.190996
2938.702094,-9030.512492,-1036.288319,-2451.505594
2938.702431,-8956.491898,-888.247130,-1455.581446
2938.702768,-9104.533087,-1628.453072,-689.485948
2938.703106,-11251.130318,-1628.453072,229.828649
2938.703443,-10288.862594,-1554.432478,-612.876398
2938.703780,-9474.636058,-1258.350101,-306.438199
2938.704118,-9992.780217,-1554.432478,1378.971896
2938.704455,-11177.109724,-1924.535449,2145.067394
2938.704792,-11621.233289,-1258.350101,1608.800546
2938.705130,-10510.924376,0.000000,459.657299
2938.705467,-11103.089130,-222.061783,1455.581446
2938.705804,-10288.862594,-296.082377,1149.143247
2938.706142,-10658.965565,-222.061783,1149.143247
2938.706479,-10140.821405,518.144159,0.000000
2938.706816,-9770.718434,962.267725,0.000000
2938.707154,-9474.636058,222.061783,76.609550
2938.707491,-10510.924376,0.000000,612.876398
2938.707828,-10362.883188,296.082377,76.609550
2938.708166,-10140.821405,666.185348,-536.266849
2938.708503,-10807.006753,-888.247130,-919.314598
2938.708840,-8734.430116,-1258.350101,-766.095498
2938.709178,-8956.491898,-1628.453072,0.000000
2938.709515,-8142.265362,-1332.370696,0.000000
2938.709853,-8068.244768,-814.226536,612.876398
2938.710190,-9178.553681,-1184.329507,383.047749
2938.710527,-11325.150913,-592.164754,1072.533697
2938.710865,-10436.903782,444.123565,-459.657299
2938.711202,-10510.924376,888.247130,306.438199
2938.711539,-10140.821405,-962.267725,842.705048
2938.711877,-10066.800811,-444.123565,1685.410096
2938.712214,-10436.903782,74.020594,1762.019645
2938.712551,-9918.759623,0.000000,995.924147
2938.712889,-9622.677246,444.123565,689.485948
2938.713226,-10732.986159,0.000000,229.828649
2938.713563,-12213.398043,592.164754,842.705048
2938.713901,-9474.636058,0.000000,-1608.800546
2938.714238,-10214.842000,370.102971,-919.314598
2938.714575,-9770.718434,-814.226536,-919.314598
2938.714913,-10362.883188,-666.185348,-919.314598
2938.715250,-9400.615463,-1554.432478,-842.705048
2938.715587,-9548.656652,-1258.350101,-1302.362347
2938.715925,-9770.718434,-2146.597232,-766.095498
2938.716262,-9770.718434,-1924.535449,0.000000
2938.716599,-10362.883188,-1480.411884,229.828649
2938.716937,-10362.883188,-1184.329507,-612.876398
2938.717274,-10140.821405,-1332.370696,-612.876398
2938.717611,-9696.697840,-1332.370696,-842.705048
2938.717949,-10510.924376,-2072.576638,1225.752797
2938.718286,-8734.430116,-1702.473667,842.705048
2938.718623,-8882.471304,-592.164754,1608.800546
2938.718961,-9474.636058,-148.041188,3140.991542
2938.719298,-11177.109724,1406.391290,3447.429741
2938.719635,-11103.089130,1184.329507,919.314598
2938.719973,-10436.903782,2294.638420,612.876398
2938.720310,-10362.883188,1702.473667,919.314598
2938.720647,-10807.006753,1924.535449,919.314598
2938.720985,-10732.986159,1406.391290,536.266849
2938.721322,-9178.553681,1628.453072,76.609550
2938.721660,-8586.388927,1628.453072,842.705048
2938.721997,-8956.491898,1110.308913,612.876398
2938.722334,-10732.986159,1184.329507,1455.581446
2938.722672,-10066.800811,444.123565,0.000000
2938.723009,-10214.842000,1480.411884,153.219100
2938.723346,-9992.780217,-370.102971,-689.485948
2938.723684,-10066.800811,-370.102971,-153.219100
2938.724021,-9474.636058,-666.185348,0.000000
2938.724358,-9178.553681,-296.082377,536.266849
2938.724696,-9400.615463,-518.144159,-229.828649
2938.725033,-9548.656652,-1184.329507,-383.047749
2938.725370,-11399.171507,-592.164754,536.266849
2938.725708,-10140.821405,-666.185348,0.000000
2938.726045,-10955.047942,0.000000,689.485948
2938.726382,-10288.862594,-1036.288319,919.314598
2938.726720,-10732.986159,-1628.453072,2221.676944
2938.727057,-10214.842000,-1480.411884,2374.896044
2938.727394,-9178.553681,-962.267725,1225.752797
2938.727732,-9030.512492,-518.144159,1991.848295
2938.728069,-11695.253884,-296.082377,612.876398
2938.728406,-11029.068536,0.000000,-1302.362347
2938.728744,-9992.780217,740.205942,-2451.505594
2938.729081,-10658.965565,-740.205942,-1149.143247
2938.729418,-9992.780217,-1184.329507,-1532.190996
2938.729756,-10584.944971,-1998.556043,-1302.362347
2938.730093,-9178.553681,-1924.535449,-1225.752797
2938.730430,-8734.430116,-1702.473667,0.000000
2938.730768,-9474.636058,-2072.576638,689.485948
2938.731105,-10362.883188,-2220.617826,1762.019645
2938.731442,-10510.924376,-1628.453072,995.924147
2938.731780,-10214.842000,148.041188,995.924147
2938.732117,-10955.047942,-518.144159,689.485948
2938.732455,-11029.068536,-740.205942,536.266849
2938.732792,-9992.780217,-1554.432478,0.000000
2938.733129,-8216.285956,-148.041188,459.657299
2938.733467,-7994.224174,222.061783,842.705048
2938.733804,-9326.594869,222.061783,1455.581446
2938.734141,-10807.006753,814.226536,1072.533697
2938.734479,-9844.739029,1036.288319,306.438199
2938.734816,-10732.986159,2960.823768,383.047749
2938.735153,-10955.047942,1776.494261,842.705048
2938.735491,-11695.253884,592.164754,-842.705048
2938.735828,-9918.759623,-1110.308913,-536.266849
2938.736165,-9252.574275,0.000000,-306.438199
2938.736503,-8216.285956,-962.267725,-229.828649
2938.736840,-8808.450710,-1036.288319,-612.876398
2938.737177,-10658.965565,0.000000,-612.876398
2938.737515,-10288.862594,370.102971,-2911.162892
2938.737852,-11029.068536,148.041188,-2145.067394
2938.738189,-11325.150913,-814.226536,-1532.190996
2938.738527,-11251.130318,-1184.329507,-383.047749
2938.738864,-9770.718434,-1702.473667,76.609550
2938.739201,-8956.491898,-2146.597232,1225.752797
2938.739539,-8882.471304,-2146.597232,2451.505594
2938.739876,-10214.842000,-1554.432478,3294.210641
2938.740213,-11103.089130,-666.185348,2068.457845
2938.740551,-10955.047942,1036.288319,919.314598
2938.740888,-11399.171507,444.123565,919.314598
2938.741225,-10288.862594,-444.123565,689.485948
2938.741563,-10584.944971,0.000000,1378.971896
2938.741900,-8660.409521,666.185348,0.000000
2938.742237,-8586.388927,1184.329507,0.000000
2938.742575,-9178.553681,0.000000,383.047749
2938.742912,-10214.842000,518.144159,383.047749
2938.743250,-10214.842000,814.226536,-153.219100
2938.743587,-10658.965565,1554.432478,459.657299
2938.743924,-10436.903782,1036.288319,459.657299
2938.744262,-11029.068536,0.000000,536.266849
2938.744599,-10658.965565,-740.205942,842.705048
2938.744936,-8586.388927,-518.144159,153.219100
2938.745274,-8808.450710,-1554.432478,842.705048
2938.745611,-9030.512492,-814.226536,689.485948
2938.745948,-10436.903782,-370.102971,1225.752797
2938.746286,-9030.512492,1036.288319,-306.438199
2938.746623,-9548.656652,1776.494261,-459.657299
2938.746960,-11843.295072,296.082377,306.438199
2938.747298,-12361.439231,666.185348,689.485948
2938.747635,-10510.924376,74.020594,-229.828649
2938.747972,-9252.574275,-222.061783,919.314598
2938.748310,-8512.368333,-1184.329507,1532.190996
2938.748647,-9622.677246,-1850.514855,1915.238745
2938.748984,-9992.780217,0.000000,1149.143247
2938.749322,-8882.471304,1036.288319,-995.924147
2938.749659,-10658.965565,0.000000,-153.219100
2938.749996,-11769.274478,-888.247130,-995.924147
2938.750334,-11695.253884,-814.226536,-1762.019645
2938.750671,-9548.656652,-1036.288319,-2451.505594
2938.751008,-8364.327145,-1702.473667,-2451.505594
2938.751346,-8438.347739,-2368.659014,-1378.971896
2938.751683,-9844.739029,-2516.700203,-306.438199
2938.752020,-9548.656652,-1776.494261,-612.876398
2938.752358,-9992.780217,-1554.432478,-1149.143247
2938.752695,-11843.295072,-1406.391290,0.000000
2938.753032,-11843.295072,-1850.514855,612.876398
2938.753370,-11177.109724,-2368.659014,1455.581446
2938.753707,-8956.491898,-1702.473667,1302.362347
2938.754044,-8734.430116,-1406.391290,2374.896044
2938.754382,-9178.553681,-1110.308913,2757.943793
2938.754719,-11399.171507,148.041188,2911.162892
2938.755057,-10807.006753,962.267725,1072.533697
2938.755394,-10658.965565,2812.782580,612.876398
2938.755731,-10732.986159,740.205942,1378.971896
2938.756069,-11843.295072,1702.473667,536.266849
2938.756406,-10584.944971,666.185348,-383.047749
2938.756743,-8734.430116,1036.288319,-76.609550
2938.757081,-7254.018232,-296.082377,536.266849
2938.757418,-8512.368333,-518.144159,1838.629195
2938.757755,-10362.883188,222.061783,2298.286494
2938.758093,-9474.636058,814.226536,-766.095498
2938.758430,-9474.636058,1332.370696,-612.876398
2938.758767,-10658.965565,0.000000,-612.876398
2938.759105,-11029.068536,0.000000,-153.219100
2938.759442,-9622.677246,-296.082377,-1225.752797
2938.759779,-8660.409521,-222.061783,-612.876398
2938.760117,-8956.491898,-2368.659014,-229.828649
2938.760454,-9622.677246,-2220.617826,919.314598
2938.760791,-9326.594869,-296.082377,1149.143247
2938.761129,-8734.430116,74.020594,229.828649
2938.761466,-11029.068536,666.185348,612.876398
2938.761803,-12731.542202,-222.061783,306.438199
2938.762141,-12583.501014,518.144159,229.828649
2938.762478,-10066.800811,-222.061783,0.000000
2938.762815,-9326.594869,-814.226536,0.000000
2938.763153,-9178.553681,-1036.288319,1378.971896
2938.763490,-11103.089130,-296.082377,1532.190996
2938.763827,-10436.903782,296.082377,-383.047749
2938.764165,-10066.800811,888.247130,-1991.848295
2938.764502,-11473.192101,592.164754,-1302.362347
2938.764839,-12435.459826,0.000000,-1532.190996
2938.765177,-11621.233289,-592.164754,-1915.238745
2938.765514,-8808.450710,-1036.288319,-2604.724693
2938.765852,-8438.347739,-2368.659014,383.047749
2938.766189,-8512.368333,-2664.741391,919.314598
2938.766526,-9474.636058,-1332.370696,1838.629195
2938.766864,-9400.615463,-370.102971,1149.143247
2938.767201,-9770.718434,444.123565,612.876398
2938.767538,-11103.089130,-444.123565,919.314598
2938.767876,-11621.233289,0.000000,1378.971896
2938.768213,-10436.903782,-296.082377,612.876398
2938.768550,-8660.409521,74.020594,1225.752797
2938.768888,-8364.327145,222.061783,1838.629195
2938.769225,-8512.368333,0.000000,2451.505594
2938.769562,-9548.656652,666.185348,2298.286494
2938.769900,-8734.430116,1480.411884,383.047749
2938.770237,-10658.965565,2590.720797,842.705048
2938.770574,-11843.295072,1480.411884,306.438199
2938.770912,-11917.315666,962.267725,-306.438199
2938.771249,-9696.697840,0.000000,-689.485948
2938.771586,-9030.512492,518.144159,153.219100
2938.771924,-9030.512492,-740.205942,0.000000
2938.772261,-9918.759623,-370.102971,0.000000
2938.772598,-10140.821405,-1184.329507,-536.266849
2938.772936,-9178.553681,-740.205942,-1685.410096
2938.773273,-10807.006753,-518.144159,-229.828649
2938.773610,-11547.212695,-888.247130,-306.438199
2938.773948,-11473.192101,-962.267725,-842.705048
2938.774285,-9770.718434,-1554.432478,-1149.143247
2938.774622,-10066.800811,-2294.638420,536.266849
2938.774960,-9474.636058,-3108.864956,995.924147
2938.775297,-9992.780217,-3256.906145,2145.067394
2938.775634,-9252.574275,-888.247130,1838.629195
2938.775972,-9918.759623,74.020594,1455.581446
2938.776309,-10658.965565,-148.041188,995.924147
2938.776647,-12139.377449,-444.123565,306.438199
2938.776984,-11769.274478,-592.164754,383.047749
2938.777321,-9474.636058,0.000000,-536.266849
2938.777659,-8882.471304,0.000000,0.000000
2938.777996,-8882.471304,-740.205942,0.000000
2938.778333,-8882.471304,74.020594,0.000000
2938.778671,-9030.512492,888.247130,-995.924147
2938.779008,-10288.862594,1480.411884,-612.876398
2938.779345,-11177.109724,592.164754,-536.266849
2938.779683,-11547.212695,444.123565,-919.314598
2938.780020,-10510.924376,0.000000,-536.266849
2938.780357,-9400.615463,-148.041188,766.095498
2938.780695,-9326.594869,-1036.288319,919.314598
2938.781032,-9178.553681,-1110.308913,1532.190996
2938.781369,-9400.615463,-666.185348,919.314598
2938.781707,-8660.409521,444.123565,229.828649
2938.782044,-10288.862594,1258.350101,612.876398
2938.782381,-11325.150913,148.041188,229.828649
2938.782719,-11325.150913,1258.350101,0.000000
2938.783056,-9992.780217,962.267725,0.000000
2938.783393,-10066.800811,888.247130,1149.143247
2938.783731,-9104.533087,-814.226536,995.924147
2938.784068,-9844.739029,-962.267725,1685.410096
2938.784405,-9252.574275,0.000000,1532.190996
2938.784743,-9030.512492,0.000000,76.609550
2938.785080,-10362.883188,518.144159,689.485948
2938.785417,-10658.965565,-592.164754,-612.876398
2938.785755,-11251.130318,-518.144159,-536.266849
2938.786092,-10214.842000,-888.247130,-1378.971896
2938.786429,-10362.883188,-1110.308913,-766.095498
2938.786767,-9030.512492,-2146.597232,-919.314598
2938.787104,-9992.780217,-2442.679609,306.438199
2938.787441,-9474.636058,-2294.638420,0.000000
2938.787779,-9400.615463,-1406.391290,153.219100
2938.788116,-10288.862594,-1554.432478,842.705048
2938.788454,-11621.233289,-1776.494261,536.266849
2938.788791,-11769.274478,-1258.350101,153.219100
2938.789128,-10214.842000,-740.205942,842.705048
2938.789466,-9918.759623,-962.267725,1762.019645
2938.789803,-9622.677246,-888.247130,2145.067394
2938.790140,-10288.862594,-370.102971,2604.724693
2938.790478,-9400.615463,444.123565,1608.800546
2938.790815,-9326.594869,1850.514855,1302.362347
2938.791152,-9992.780217,1406.391290,1225.752797
2938.791490,-11251.130318,1258.350101,612.876398
2938.791827,-10881.027347,1406.391290,-995.924147
2938.792164,-9992.780217,1406.391290,-1225.752797
2938.792502,-8956.491898,0.000000,-919.314598
2938.792839,-8734.430116,-74.020594,-383.047749
2938.793176,-8586.388927,148.041188,-153.219100
2938.793514,-8438.347739,962.267725,-536.266849
2938.793851,-8808.450710,1332.370696,-612.876398
2938.794188,-10288.862594,1110.308913,-689.485948
2938.794526,-11843.295072,0.000000,-612.876398
2938.794863,-10732.986159,-814.226536,-1991.848295
2938.795200,-10436.903782,-1480.411884,-383.047749
2938.795538,-8586.388927,-1258.350101,-383.047749
2938.795875,-8808.450710,-1850.514855,612.876398
2938.796213,-9400.615463,-888.247130,1225.752797
2938.796550,-9474.636058,0.000000,0.000000
2938.796887,-10658.965565,518.144159,0.000000
2938.797224,-11695.253884,296.082377,-383.047749
2938.797562,-11177.109724,444.123565,0.000000
2938.797899,-10807.006753,-370.102971,0.000000
2938.798236,-10140.821405,-814.226536,229.828649
2938.798573,-8734.430116,-1110.308913,1225.752797
2938.798911,-10658.965565,-1628.453072,2834.553343
2938.799248,-10214.842000,-1184.329507,1149.143247
2938.799585,-9844.739029,-1110.308913,842.705048
2938.799923,-10584.944971,-740.205942,459.657299
2938.800260,-11029.068536,-1480.411884,0.000000
2938.800597,-11029.068536,-666.185348,-919.314598
2938.800934,-9548.656652,-740.205942,-2068.457845
2938.801272,-8956.491898,-1184.329507,-1225.752797
2938.801609,-9326.594869,-2072.576638,0.000000
2938.801946,-9844.739029,-1554.432478,612.876398
2938.802284,-9474.636058,-740.205942,612.876398
2938.802621,-10658.965565,-74.020594,1608.800546
2938.802958,-10288.862594,518.144159,1455.581446
2938.803295,-11917.315666,0.000000,2451.505594
2938.803633,-10807.006753,296.082377,2451.505594
2938.803970,-9326.594869,814.226536,1762.019645
2938.804307,-9992.780217,518.144159,1915.238745
2938.804645,-9770.718434,370.102971,1072.533697
2938.804982,-9474.636058,1184.329507,536.266849
2938.805319,-8882.471304,1628.453072,306.438199
2938.805656,-8808.450710,2516.700203,0.000000
2938.805994,-10214.842000,1850.514855,0.000000
2938.806331,-11103.089130,1998.556043,-459.657299
2938.806668,-9992.780217,814.226536,-995.924147
2938.807005,-10214.842000,666.185348,-536.266849
2938.807343,-9178.553681,-962.267725,-612.876398
2938.807680,-9622.677246,-1258.350101,153.219100
2938.808017,-9474.636058,-666.185348,-766.095498
2938.808355,-9104.533087,-666.185348,-1225.752797
2938.808692,-9696.697840,-222.061783,-229.828649
2938.809029,-10881.027347,-1036.288319,-689.485948
2938.809366,-11621.233289,-518.144159,-1072.533697
2938.809704,-11103.089130,-814.226536,-1608.800546
2938.810041,-10066.800811,-1258.350101,-1149.143247
2938.810378,-9474.636058,-2664.741391,-536.266849
2938.810716,-10807.006753,-2516.700203,1915.238745
2938.811053,-8882.471304,-1554.432478,1455.581446
2938.811390,-9622.677246,-222.061783,919.314598
2938.811727,-11177.109724,-296.082377,1072.533697
2938.812065,-11843.295072,-518.144159,766.095498
2938.812402,-11547.212695,-888.247130,1455.581446
2938.812739,-10732.986159,0.000000,919.314598
2938.813077,-9622.677246,-370.102971,1072.533697
2938.813414,-9992.780217,-1406.391290,1225.752797
2938.813751,-9844.739029,-1184.329507,689.485948
2938.814088,-8290.306550,-518.144159,-766.095498
2938.814426,-9252.574275,74.020594,76.609550
2938.814763,-10140.821405,370.102971,-612.876398
2938.815100,-10881.027347,-666.185348,-689.485948
2938.815437,-10066.800811,-74.020594,-536.266849
2938.815775,-9474.636058,-148.041188,306.438199
2938.816112,-10140.821405,-592.164754,1225.752797
2938.816449,-10140.821405,-962.267725,1685.410096
2938.816787,-9474.636058,-370.102971,2221.676944
2938.817124,-8586.388927,74.020594,2145.067394
2938.817461,-8734.430116,148.041188,2604.724693
2938.817798,-10881.027347,-148.041188,3370.820191
2938.818136,-11917.315666,1702.473667,2298.286494
2938.818473,-10288.862594,1628.453072,0.000000
2938.818810,-10732.986159,2294.638420,612.876398
2938.819148,-9474.636058,518.144159,0.000000
2938.819485,-10066.800811,0.000000,1225.752797
2938.819822,-9474.636058,666.185348,0.000000
2938.820159,-9178.553681,1184.329507,-689.485948
2938.820497,-10436.903782,518.144159,0.000000
2938.820834,-11029.068536,-444.123565,-153.219100
2938.821171,-10510.924376,222.061783,-536.266849
2938.821508,-10066.800811,0.000000,-766.095498
2938.821846,-10436.903782,-962.267725,-612.876398
2938.822183,-10362.883188,-1702.473667,-1532.190996
2938.822520,-11177.109724,-2072.576638,-766.095498
2938.822858,-8586.388927,-1480.411884,-2374.896044
2938.823195,-8882.471304,-1554.432478,-1072.533697
2938.823532,-10066.800811,-1554.432478,-306.438199
2938.823869,-10807.006753,-1998.556043,0.000000
2938.824207,-10436.903782,-888.247130,0.000000
2938.824544,-9770.718434,-962.267725,0.000000
2938.824881,-10732.986159,-888.247130,766.095498
2938.825219,-10584.944971,-1480.411884,1685.410096
2938.825556,-9918.759623,0.000000,1685.410096
2938.825893,-9474.636058,0.000000,1455.581446
2938.826230,-9474.636058,296.082377,1378.971896
2938.826568,-9992.780217,592.164754,1302.362347
2938.826905,-11695.253884,888.247130,1608.800546
2938.827242,-10066.800811,1628.453072,-383.047749
2938.827580,-9918.759623,1776.494261,-612.876398
2938.827917,-10066.800811,518.144159,-153.219100
2938.828254,-9696.697840,-296.082377,0.000000
2938.828591,-9474.636058,222.061783,306.438199
2938.828929,-8660.409521,592.164754,0.000000
2938.829266,-9622.677246,0.000000,306.438199
2938.829603,-10732.986159,-1184.329507,612.876398
2938.829940,-10140.821405,74.020594,0.000000
2938.830278,-9770.718434,444.123565,153.219100
2938.830615,-10658.965565,296.082377,306.438199
2938.830952,-9844.739029,-962.267725,0.000000
2938.831290,-10288.862594,-1258.350101,1225.752797
2938.831627,-9326.594869,-814.226536,766.095498
2938.831964,-8808.450710,-222.061783,995.924147
2938.832301,-9474.636058,-222.061783,1608.800546
2938.832639,-10658.965565,0.000000,1762.019645
2938.832976,-10732.986159,370.102971,536.266849
2938.833313,-9844.739029,740.205942,306.438199
2938.833651,-9696.697840,0.000000,1072.533697
2938.833988,-10288.862594,-444.123565,689.485948
2938.834325,-11251.130318,-148.041188,766.095498
2938.834662,-9696.697840,-296.082377,-689.485948
2938.835000,-9252.574275,-1184.329507,-383.047749
2938.835337,-9474.636058,-962.267725,-153.219100
2938.835674,-10732.986159,-1184.329507,0.000000
2938.836012,-9844.739029,-592.164754,-1608.800546
2938.836349,-9770.718434,-592.164754,-1838.629195
2938.836686,-10807.006753,-1258.350101,-689.485948
2938.837023,-10658.965565,-1332.370696,-612.876398
2938.837361,-10288.862594,-962.267725,536.266849
2938.837698,-9474.636058,-814.226536,689.485948
2938.838035,-10066.800811,-148.041188,1072.533697
2938.838372,-10807.006753,-592.164754,1455.581446
2938.838710,-11029.068536,-592.164754,1915.238745
2938.839047,-9474.636058,-370.102971,1072.533697
2938.839384,-9548.656652,74.020594,1608.800546
2938.839722,-9918.759623,592.164754,1149.143247
2938.840059,-10214.842000,740.205942,1149.143247
2938.840396,-10584.944971,740.205942,689.485948
2938.840733,-8734.430116,1184.329507,-306.438199
2938.841071,-8956.491898,1110.308913,76.609550
2938.841408,-9770.718434,296.082377,689.485948
2938.841745,-9844.739029,666.185348,-383.047749
2938.842083,-8956.491898,296.082377,-1149.143247
2938.842420,-9770.718434,222.061783,0.000000
2938.842757,-9844.739029,-962.267725,-1072.533697
2938.843094,-11103.089130,-814.226536,-383.047749
2938.843432,-9252.574275,-814.226536,-766.095498
2938.843769,-8512.368333,-1258.350101,-689.485948
2938.844106,-9326.594869,-1628.453072,0.000000
2938.844443,-10658.965565,-1998.556043,766.095498
2938.844781,-10881.027347,-1702.473667,229.828649
2938.845118,-9844.739029,-1554.432478,0.000000
2938.845455,-10955.047942,-740.205942,1072.533697
2938.845793,-10955.047942,-1110.308913,1532.190996
2938.846130,-11547.212695,-888.247130,1302.362347
2938.846467,-9992.780217,-518.144159,383.047749
2938.846804,-10510.924376,0.000000,1455.581446
2938.847142,-10807.006753,0.000000,1455.581446
2938.847479,-11843.295072,-518.144159,1302.362347
2938.847816,-10288.862594,0.000000,612.876398
2938.848154,-9474.636058,592.164754,459.657299
2938.848491,-9844.739029,370.102971,842.705048
2938.848828,-10140.821405,666.185348,383.047749
2938.849165,-9992.780217,74.020594,0.000000
2938.849503,-9326.594869,0.000000,-689.485948
2938.849840,-9326.594869,222.061783,-306.438199
2938.850177,-10214.842000,-1110.308913,0.000000
2938.850515,-9992.780217,-1184.329507,0.000000
2938.850852,-7772.162391,-740.205942,-919.314598
2938.851189,-8808.450710,74.020594,-76.609550
2938.851526,-9474.636058,0.000000,229.828649
2938.851864,-10362.883188,-592.164754,0.000000
2938.852201,-10066.800811,0.000000,-383.047749
2938.852538,-9844.739029,222.061783,689.485948
2938.852875,-10066.800811,222.061783,1225.752797
2938.853213,-10140.821405,0.000000,1838.629195
2938.853550,-10807.006753,-222.061783,1455.581446
2938.853887,-9400.615463,518.144159,229.828649
2938.854225,-10214.842000,962.267725,1225.752797
2938.854562,-10510.924376,0.000000,1378.971896
2938.854899,-11473.192101,74.020594,919.314598
2938.855236,-10140.821405,74.020594,-306.438199
2938.855574,-10066.800811,1480.411884,-459.657299
2938.855911,-10732.986159,-148.041188,-612.876398
2938.856248,-10510.924376,-1184.329507,0.000000
2938.856586,-9770.718434,-370.102971,-1685.410096
2938.856923,-10066.800811,-888.247130,-459.657299
2938.857260,-9844.739029,-888.247130,-612.876398
2938.857597,-9326.594869,-1480.411884,-1225.752797
2938.857935,-11399.171507,-1480.411884,-153.219100
2938.858272,-10214.842000,-962.267725,-1838.629195
2938.858609,-10066.800811,-1554.432478,-689.485948
2938.858947,-10584.944971,-2146.597232,153.219100
2938.859284,-10436.903782,-2294.638420,1072.533697
2938.859621,-9696.697840,-1258.350101,1149.143247
2938.859958,-9474.636058,-1110.308913,1378.971896
2938.860296,-9548.656652,-592.164754,1915.238745
2938.860633,-10140.821405,-518.144159,1685.410096
2938.860970,-10732.986159,740.205942,1838.629195
2938.861307,-9992.780217,1258.350101,612.876398
2938.861645,-10732.986159,962.267725,842.705048
2938.861982,-10881.027347,814.226536,842.705048
2938.862319,-9696.697840,518.144159,459.657299
2938.862657,-8882.471304,1480.411884,536.266849
2938.862994,-9474.636058,1776.494261,459.657299
2938.863331,-9548.656652,74.020594,153.219100
2938.863668,-10510.924376,444.123565,842.705048
2938.864006,-9992.780217,888.247130,76.609550
2938.864343,-9474.636058,1110.308913,-306.438199
2938.864680,-9770.718434,296.082377,-995.924147
2938.865018,-9770.718434,0.000000,-689.485948
2938.865355,-10362.883188,-888.247130,-229.828649
2938.865692,-8956.491898,222.061783,-919.314598
2938.866029,-10140.821405,0.000000,0.000000
2938.866367,-9844.739029,-592.164754,-153.219100
2938.866704,-10658.965565,-148.041188,229.828649
2938.867041,-10955.047942,-370.102971,919.314598
2938.867378,-10732.986159,-74.020594,1685.410096
2938.867716,-9474.636058,-1110.308913,612.876398
2938.868053,-10658.965565,-1110.308913,2145.067394
2938.868390,-9474.636058,-444.123565,612.876398
2938.868728,-9770.718434,-370.102971,1072.533697
2938.869065,-9844.739029,-592.164754,1149.143247
2938.869402,-9696.697840,0.000000,306.438199
2938.869739,-11029.068536,222.061783,459.657299
2938.870077,-9844.739029,0.000000,-995.924147
2938.870414,-9844.739029,-592.164754,-842.705048
2938.870751,-10214.842000,-1184.329507,-995.924147
2938.871089,-10732.986159,-1776.494261,-459.657299
2938.871426,-9030.512492,-1554.432478,-1532.190996
2938.871763,-8882.471304,-1554.432478,-383.047749
2938.872100,-9326.594869,-1850.514855,153.219100
2938.872438,-10362.883188,-1258.350101,842.705048
2938.872775,-11621.233289,-592.164754,919.314598
2938.873112,-11103.089130,-296.082377,459.657299
2938.873450,-10436.903782,-888.247130,459.657299
2938.873787,-10066.800811,-740.205942,842.705048
2938.874124,-10362.883188,-1036.288319,1762.019645
2938.874461,-9252.574275,-296.082377,1608.800546
2938.874799,-9104.533087,0.000000,1302.362347
2938.875136,-9548.656652,370.102971,1532.190996
2938.875473,-11029.068536,1554.432478,1378.971896
2938.875810,-10658.965565,1258.350101,1455.581446
2938.876148,-10066.800811,1924.535449,536.266849
2938.876485,-9548.656652,1702.473667,229.828649
2938.876822,-10732.986159,740.205942,689.485948
2938.877160,-10807.006753,148.041188,153.219100
2938.877497,-8364.327145,-370.102971,-842.705048
2938.877834,-8660.409521,148.041188,383.047749
2938.878171,-8808.450710,0.000000,-1149.143247
2938.878509,-10362.883188,-444.123565,-995.924147
2938.878846,-9992.780217,-666.185348,-2145.067394
2938.879183,-9326.594869,-666.185348,-1685.410096
2938.879521,-8956.491898,-1480.411884,-1225.752797
2938.879858,-10807.006753,-1924.535449,766.095498
2938.880195,-10658.965565,-2072.576638,-689.485948
2938.880532,-9844.739029,-1554.432478,-689.485948
2938.880870,-9474.636058,-1628.453072,842.705048
2938.881207,-10214.842000,-2146.597232,2068.457845
2938.881544,-11473.192101,-1184.329507,2145.067394
2938.881882,-9844.739029,0.000000,766.095498
2938.882219,-11177.109724,148.041188,536.266849
2938.882556,-11399.171507,-740.205942,612.876398
2938.882893,-11547.212695,-962.267725,1455.581446
2938.883231,-9992.780217,-1184.329507,306.438199
2938.883568,-8734.430116,0.000000,536.266849
2938.883905,-8956.491898,740.205942,0.000000
2938.884242,-10732.986159,592.164754,459.657299
2938.884580,-10436.903782,296.082377,-689.485948
2938.884917,-9474.636058,740.205942,-689.485948
2938.885254,-10807.006753,222.061783,0.000000
2938.885592,-10955.047942,518.144159,0.000000
2938.885929,-11251.130318,-1258.350101,229.828649
2938.886266,-8290.306550,-814.226536,-612.876398
2938.886603,-7772.162391,-592.164754,229.828649
2938.886941,-8956.491898,-370.102971,1072.533697
2938.887278,-9844.739029,-148.041188,1378.971896
2938.887615,-9696.697840,0.000000,612.876398
2938.887953,-10140.821405,1628.453072,459.657299
2938.888290,-10362.883188,962.267725,536.266849
2938.888627,-11473.192101,518.144159,1915.238745
2938.888964,-10214.842000,518.144159,919.314598
2938.889302,-9178.553681,1332.370696,306.438199
2938.889639,-8956.491898,666.185348,1149.143247
2938.889976,-9474.636058,222.061783,1302.362347
2938.890313,-10732.986159,814.226536,1532.190996
2938.890651,-10288.862594,1480.411884,-689.485948
2938.890988,-10214.842000,1702.473667,-536.266849
2938.891325,-10658.965565,0.000000,-612.876398
2938.891663,-11325.150913,-666.185348,689.485948
2938.892000,-9326.594869,-666.185348,-995.924147
2938.892337,-9104.533087,-1110.308913,-766.095498
2938.892674,-9030.512492,-1406.391290,-536.266849
2938.893012,-8882.471304,-1480.411884,-1072.533697
2938.893349,-10807.006753,-1480.411884,-536.266849
2938.893686,-10436.903782,-1184.329507,-1149.143247
2938.894023,-10658.965565,-1258.350101,-1532.190996
2938.894361,-10807.006753,-1850.514855,-919.314598
2938.894698,-11473.192101,-2072.576638,536.266849
2938.895035,-9104.533087,-2738.761985,0.000000
2938.895372,-9252.574275,-2072.576638,2068.457845
2938.895709,-8956.491898,-2368.659014,2451.505594
2938.896047,-10807.006753,-1258.350101,2451.505594
2938.896384,-10510.924376,74.020594,1762.019645
2938.896721,-10436.903782,1332.370696,1378.971896
2938.897058,-11399.171507,962.267725,1455.581446
2938.897396,-11103.089130,74.020594,689.485948
2938.897733,-10955.047942,74.020594,766.095498
2938.898070,-9030.512492,888.247130,0.000000
2938.898407,-8438.347739,222.061783,306.438199
2938.898744,-8882.471304,-222.061783,0.000000
2938.899082,-9178.553681,814.226536,0.000000
2938.899419,-9400.615463,1702.473667,-842.705048
2938.899756,-10510.924376,1924.535449,-995.924147
2938.900093,-10881.027347,740.205942,-1991.848295
2938.900430,-11103.089130,0.000000,-689.485948
2938.900768,-9992.780217,-962.267725,-536.266849
2938.901105,-8216.285956,-592.164754,459.657299
2938.901442,-9178.553681,-1184.329507,1838.629195
2938.901779,-9770.718434,-2368.659014,1608.800546
2938.902117,-10066.800811,-666.185348,1072.533697
2938.902454,-9696.697840,-518.144159,1302.362347
2938.902791,-10807.006753,0.000000,1149.143247
2938.903128,-10807.006753,-1406.391290,306.438199
2938.903465,-11695.253884,0.000000,1302.362347
2938.903803,-9844.739029,-592.164754,612.876398
2938.904140,-9326.594869,370.102971,1149.143247
2938.904477,-9622.677246,-814.226536,919.314598
2938.904814,-10436.903782,-740.205942,842.705048
2938.905152,-10658.965565,74.020594,76.609550
2938.905489,-10140.821405,962.267725,-842.705048
2938.905826,-10066.800811,0.000000,306.438199
2938.906163,-11177.109724,-74.020594,-306.438199
2938.906500,-11843.295072,-962.267725,-689.485948
2938.906838,-10066.800811,-592.164754,-1532.190996
2938.907175,-9548.656652,-1998.556043,-842.705048
2938.907512,-8882.471304,-2516.700203,0.000000
2938.907849,-9326.594869,-1702.473667,1072.533697
2938.908186,-9400.615463,-296.082377,229.828649
2938.908524,-9844.739029,518.144159,-536.266849
2938.908861,-10288.862594,148.041188,-612.876398
2938.909198,-12361.439231,222.061783,-306.438199
2938.909535,-11621.233289,-814.226536,229.828649
2938.909873,-8660.409521,296.082377,612.876398
2938.910210,-8290.306550,-296.082377,1532.190996
2938.910547,-9474.636058,592.164754,2451.505594
2938.910884,-10066.800811,1924.535449,1685.410096
2938.911221,-9400.615463,2812.782580,536.266849
2938.911559,-9770.718434,2442.679609,766.095498
2938.911896,-10510.924376,2072.576638,459.657299
2938.912233,-11547.212695,2664.741391,153.219100
2938.912570,-10436.903782,1332.370696,-1225.752797
2938.912908,-8808.450710,814.226536,-1149.143247
2938.913245,-8438.347739,-370.102971,-995.924147
2938.913582,-9030.512492,-444.123565,-459.657299
2938.913919,-9844.739029,-296.082377,-306.438199
2938.914256,-8882.471304,296.082377,-1149.143247
2938.914594,-9696.697840,-222.061783,-1225.752797
2938.914931,-11325.150913,-1110.308913,-383.047749
2938.915268,-12361.439231,-1258.350101,229.828649
2938.915605,-10732.986159,-1998.556043,-383.047749
2938.915942,-9326.594869,-1628.453072,76.609550
2938.916280,-8808.450710,-2590.720797,1838.629195
2938.916617,-9622.677246,-2368.659014,2298.286494
2938.916954,-9844.739029,-1628.453072,919.314598
2938.917291,-9918.759623,-592.164754,0.000000
2938.917629,-11177.109724,-296.082377,919.314598
2938.917966,-11621.233289,-666.185348,229.828649
2938.918303,-11843.295072,-1110.308913,1149.143247
2938.918640,-9918.759623,-740.205942,766.095498
2938.918977,-9252.574275,-962.267725,1685.410096
2938.919315,-9696.697840,-666.185348,1762.019645
2938.919652,-9918.759623,-1036.288319,689.485948
2938.919989,-9474.636058,-740.205942,0.000000
2938.920326,-9918.759623,74.020594,0.000000
2938.920664,-10658.965565,148.041188,0.000000
2938.921001,-11177.109724,370.102971,-459.657299
2938.921338,-10362.883188,-888.247130,-995.924147
2938.921675,-8882.471304,-296.082377,-1532.190996
2938.922012,-9178.553681,-888.247130,-536.266849
2938.922350,-9548.656652,-1036.288319,612.876398
2938.922687,-9844.739029,-888.247130,459.657299
2938.923024,-9104.533087,814.226536,842.705048
2938.923361,-9918.759623,1850.514855,1302.362347
2938.923698,-10584.944971,962.267725,1532.190996
2938.924036,-11769.274478,1850.514855,1455.581446
2938.924373,-11103.089130,888.247130,306.438199
2938.924710,-9918.759623,1480.411884,0.000000
2938.925047,-8808.450710,-74.020594,459.657299
2938.925385,-9252.574275,296.082377,995.924147
2938.925722,-8808.450710,296.082377,383.047749
2938.926059,-8586.388927,1480.411884,-383.047749
2938.926396,-9474.636058,1554.432478,-612.876398
2938.926733,-10288.862594,1036.288319,-1072.533697
2938.927071,-12213.398043,-444.123565,-306.438199
2938.927408,-10955.047942,-592.164754,-1378.971896
2938.927745,-9474.636058,-1184.329507,-536.266849
2938.928082,-9178.553681,-1850.514855,229.828649
2938.928419,-8808.450710,-2738.761985,76.609550
2938.928757,-9178.553681,-1702.473667,153.219100
2938.929094,-10066.800811,-740.205942,-383.047749
2938.929431,-11251.130318,-666.185348,-689.485948
2938.929768,-12583.501014,-740.205942,-1378.971896
2938.930106,-12213.398043,-1554.432478,-1302.362347
2938.930443,-9918.759623,-1258.350101,-919.314598
2938.930780,-9844.739029,-1924.535449,1532.190996
2938.931117,-9474.636058,-1998.556043,2757.943793
2938.931454,-9844.739029,-1776.494261,2757.943793
2938.931792,-10066.800811,222.061783,3064.381992
2938.932129,-10955.047942,1702.473667,2451.505594
2938.932466,-11843.295072,814.226536,2221.676944
2938.932803,-11843.295072,1480.411884,1149.143247
2938.933141,-10436.903782,592.164754,383.047749
2938.933478,-9252.574275,740.205942,459.657299
2938.933815,-7846.182985,-592.164754,229.828649
2938.934152,-8216.285956,-592.164754,1302.362347
2938.934489,-9400.615463,-148.041188,995.924147
2938.934827,-9030.512492,1406.391290,-383.047749
2938.935164,-9622.677246,1850.514855,-612.876398
2938.935501,-10140.821405,1628.453072,-2068.457845
2938.935838,-10362.883188,0.000000,-842.705048
2938.936175,-9844.739029,0.000000,-995.924147
2938.936513,-8808.450710,-370.102971,0.000000
2938.936850,-9770.718434,-1480.411884,1455.581446
2938.937187,-9844.739029,-1628.453072,1532.190996
2938.937524,-9918.759623,-1036.288319,842.705048
2938.937862,-9548.656652,-74.020594,766.095498
2938.938199,-9696.697840,0.000000,306.438199
2938.938536,-10288.862594,370.102971,-459.657299
2938.938873,-11621.233289,222.061783,612.876398
2938.939210,-10955.047942,592.164754,-689.485948
2938.939548,-10732.986159,-518.144159,153.219100
2938.939885,-9918.759623,-1332.370696,0.000000
2938.940222,-9474.636058,-1554.432478,153.219100
2938.940559,-9918.759623,-518.144159,1072.533697
2938.940897,-9252.574275,-518.144159,-459.657299
2938.941234,-9622.677246,-814.226536,-1225.752797
2938.941571,-10955.047942,-666.185348,-842.705048
2938.941908,-11843.295072,-1184.329507,-919.314598
2938.942245,-9844.739029,-1184.329507,-1991.848295
2938.942583,-10214.842000,-2442.679609,-766.095498
2938.942920,-8882.471304,-2664.741391,-383.047749
2938.943257,-8142.265362,-3108.864956,0.000000
2938.943594,-8586.388927,-1924.535449,919.314598
2938.943931,-9474.636058,-666.185348,536.266849
2938.944269,-10807.006753,-296.082377,0.000000
2938.944606,-11991.336260,0.000000,383.047749
2938.944943,-11917.315666,-1406.391290,766.095498
2938.945280,-10881.027347,-592.164754,2145.067394
2938.945618,-9326.594869,0.000000,1838.629195
2938.945955,-9326.594869,592.164754,3140.991542
2938.946292,-9548.656652,370.102971,3064.381992
2938.946629,-9548.656652,1702.473667,1225.752797
2938.946966,-10732.986159,1850.514855,2298.286494
2938.947304,-10436.903782,2146.597232,612.876398
2938.947641,-11251.130318,2960.823768,306.438199
2938.947978,-11251.130318,1924.535449,-1072.533697
2938.948315,-9548.656652,1924.535449,-1378.971896
2938.948652,-9622.677246,592.164754,-766.095498
2938.948990,-8586.388927,-518.144159,306.438199
2938.949327,-8364.327145,0.000000,76.609550
2938.949664,-9030.512492,296.082377,0.000000
2938.950001,-9696.697840,-222.061783,-766.095498
2938.950339,-9844.739029,-296.082377,-689.485948
2938.950676,-11325.150913,-666.185348,-153.219100
2938.951013,-9844.739029,-370.102971,-1915.238745
2938.951350,-9474.636058,-1036.288319,-76.609550
2938.951687,-9326.594869,-1628.453072,612.876398
2938.952025,-9474.636058,-1776.494261,1302.362347
2938.952362,-10066.800811,-1332.370696,1915.238745
2938.952699,-10214.842000,-222.061783,1991.848295
2938.953036,-10658.965565,0.000000,1149.143247
2938.953374,-11325.150913,0.000000,536.266849
2938.953711,-11547.212695,0.000000,0.000000
2938.954048,-10214.842000,148.041188,0.000000
2938.954385,-10288.862594,0.000000,306.438199
2938.954722,-10436.903782,296.082377,76.609550
2938.955060,-10584.944971,-592.164754,306.438199
2938.955397,-9474.636058,-148.041188,-459.657299
2938.955734,-9622.677246,-592.164754,459.657299
2938.956071,-9992.780217,148.041188,-229.828649
2938.956408,-10955.047942,0.000000,-689.485948
2938.956746,-11325.150913,-1184.329507,-1225.752797
2938.957083,-9696.697840,-592.164754,-1225.752797
2938.957420,-9474.636058,-1480.411884,-383.047749
2938.957757,-9844.739029,-1628.453072,1685.410096
2938.958095,-9030.512492,-1184.329507,536.266849
2938.958432,-8882.471304,-592.164754,1149.143247
2938.958769,-9548.656652,74.020594,1455.581446
2938.959106,-9918.759623,0.000000,1378.971896
2938.959443,-11621.233289,518.144159,1762.019645
2938.959781,-11029.068536,888.247130,995.924147
2938.960118,-10140.821405,740.205942,1378.971896
2938.960455,-10214.842000,444.123565,1455.581446
2938.960792,-9474.636058,-444.123565,919.314598
2938.961130,-9104.533087,-444.123565,1149.143247
2938.961467,-8438.347739,444.123565,536.266849
2938.961804,-9474.636058,592.164754,459.657299
2938.962141,-10732.986159,814.226536,-229.828649
2938.962478,-11621.233289,222.061783,-459.657299
2938.962816,-10362.883188,0.000000,-1685.410096
2938.963153,-10288.862594,0.000000,-612.876398
2938.963490,-9548.656652,-1480.411884,0.000000
2938.963827,-9548.656652,-2294.638420,153.219100
2938.964164,-9400.615463,-2590.720797,0.000000
2938.964502,-9918.759623,-1628.453072,76.609550
2938.964839,-10732.986159,-1554.432478,0.000000
2938.965176,-10807.006753,-1258.350101,-229.828649
2938.965513,-11399.171507,-1258.350101,76.609550
2938.965851,-9992.780217,-1036.288319,-459.657299
2938.966188,-9992.780217,-1924.535449,306.438199
2938.966525,-9696.697840,-2368.659014,1685.410096
2938.966862,-10214.842000,-2368.659014,2451.505594
2938.967199,-8956.491898,-888.247130,2298.286494
2938.967537,-9400.615463,0.000000,2068.457845
2938.967874,-10436.903782,148.041188,1302.362347
2938.968211,-11177.109724,888.247130,383.047749
2938.968548,-10362.883188,666.185348,-1149.143247
2938.968885,-9326.594869,1406.391290,-1532.190996
2938.969223,-9918.759623,0.000000,-842.705048
2938.969560,-10584.944971,0.000000,-153.219100
2938.969897,-9178.553681,518.144159,-1608.800546
2938.970234,-8586.388927,1702.473667,-1149.143247
2938.970572,-9474.636058,1184.329507,-536.266849
2938.970909,-10214.842000,296.082377,-1072.533697
2938.971246,-11325.150913,444.123565,0.000000
2938.971583,-10584.944971,148.041188,-995.924147
2938.971920,-10436.903782,1110.308913,229.828649
2938.972258,-10658.965565,-222.061783,229.828649
2938.972595,-10807.006753,-1406.391290,766.095498
2938.972932,-9030.512492,0.000000,612.876398
2938.973269,-8364.327145,222.061783,612.876398
2938.973607,-9474.636058,-518.144159,1685.410096
2938.973944,-9696.697840,0.000000,459.657299
2938.974281,-10584.944971,888.247130,612.876398
2938.974618,-10955.047942,1924.535449,-383.047749
2938.974955,-10214.842000,444.123565,0.000000
2938.975293,-10214.842000,0.000000,612.876398
2938.975630,-9474.636058,222.061783,1225.752797
2938.975967,-8882.471304,-74.020594,1072.533697
2938.976304,-9252.574275,518.144159,766.095498
2938.976641,-9992.780217,0.000000,536.266849
2938.976979,-11251.130318,0.000000,0.000000
2938.977316,-10732.986159,-444.123565,-1838.629195
2938.977653,-9474.636058,74.020594,-1302.362347
2938.977990,-9844.739029,-1258.350101,-612.876398
2938.978328,-9400.615463,-1776.494261,-153.219100
2938.978665,-10066.800811,-1332.370696,0.000000
2938.979002,-9400.615463,-814.226536,153.219100
2938.979339,-10140.821405,-1110.308913,1838.629195
2938.979676,-10658.965565,-1702.473667,2145.067394
2938.980014,-10881.027347,-518.144159,2145.067394
2938.980351,-10955.047942,-518.144159,1991.848295
2938.980688,-10584.944971,222.061783,1915.238745
2938.981025,-10066.800811,-518.144159,1302.362347
2938.981363,-10066.800811,0.000000,2145.067394
2938.981700,-9104.533087,0.000000,919.314598
2938.982037,-8734.430116,666.185348,459.657299
2938.982374,-9400.615463,0.000000,1072.533697
2938.982711,-9326.594869,74.020594,842.705048
2938.983049,-10140.821405,1258.350101,0.000000
2938.983386,-10066.800811,962.267725,0.000000
2938.983723,-10362.883188,518.144159,0.000000
2938.984060,-9992.780217,-740.205942,-1225.752797
2938.984397,-10362.883188,-814.226536,-842.705048
2938.984735,-9252.574275,-1110.308913,-1838.629195
2938.985072,-9030.512492,-1480.411884,-1455.581446
2938.985409,-9622.677246,-1554.432478,-612.876398
2938.985746,-9104.533087,-1850.514855,-1838.629195
2938.986084,-11325.150913,-962.267725,-459.657299
2938.986421,-10510.924376,-1036.288319,-1915.238745
2938.986758,-10510.924376,-1258.350101,-383.047749
2938.987095,-10732.986159,-1924.535449,153.219100
2938.987432,-10807.006753,-1850.514855,842.705048
2938.987770,-9844.739029,-962.267725,1532.190996
2938.988107,-10732.986159,-666.185348,1532.190996
2938.988444,-10288.862594,-1184.329507,995.924147
2938.988781,-11029.068536,-444.123565,842.705048
2938.989119,-10807.006753,-740.205942,612.876398
2938.989456,-9178.553681,-222.061783,229.828649
2938.989793,-10140.821405,0.000000,919.314598
2938.990130,-9474.636058,814.226536,0.000000
2938.990467,-9770.718434,296.082377,-459.657299
2938.990805,-9400.615463,222.061783,-612.876398
2938.991142,-9548.656652,-148.041188,306.438199
2938.991479,-10214.842000,-296.082377,766.095498
2938.991816,-10955.047942,148.041188,689.485948
2938.992153,-9548.656652,-814.226536,0.000000
2938.992491,-8586.388927,0.000000,1225.752797
2938.992828,-9474.636058,-592.164754,842.705048
2938.993165,-10214.842000,-74.020594,1762.019645
2938.993502,-9918.759623,-518.144159,1225.752797
2938.993840,-9548.656652,0.000000,536.266849
2938.994177,-10436.903782,1110.308913,1072.533697
2938.994514,-10362.883188,444.123565,612.876398
2938.994851,-10658.965565,1480.411884,1149.143247
2938.995188,-9918.759623,518.144159,1149.143247
2938.995526,-9548.656652,1924.535449,1455.581446
2938.995863,-9622.677246,148.041188,1532.190996
2938.996200,-10658.965565,814.226536,1838.629195
2938.996537,-9770.718434,1110.308913,383.047749
2938.996874,-10362.883188,1332.370696,0.000000
2938.997212,-10214.842000,1036.288319,-306.438199
2938.997549,-10066.800811,370.102971,-1302.362347
2938.997886,-9770.718434,-518.144159,-383.047749
2938.998223,-8882.471304,-444.123565,-1532.190996
2938.998560,-9622.677246,0.000000,-459.657299
2938.998898,-10436.903782,-888.247130,-1302.362347
2938.999235,-10214.842000,-666.185348,-1991.848295
2938.999572,-9696.697840,-1628.453072,-1838.629195
2938.999909,-9326.594869,-1702.473667,-919.314598
2939.000246,-8808.450710,-2368.659014,-536.266849
2939.000584,-9992.780217,-2146.597232,229.828649
2939.000921,-10288.862594,-2368.659014,229.828649
