#time,accel_x,accel_y,accel_z
2972.675374,-9992.780217,-444.123565,689.485948
2972.675711,-10066.800811,-1332.370696,459.657299
2972.676049,-9400.615463,-148.041188,-153.219100
2972.676386,-9474.636058,-814.226536,76.609550
2972.676724,-9918.759623,-296.082377,-689.485948
2972.677061,-10658.965565,-814.226536,-842.705048
2972.677399,-9548.656652,-1332.370696,-1149.143247
2972.677736,-8956.491898,-1480.411884,-919.314598
2972.678074,-9326.594869,-1184.329507,-383.047749
2972.678411,-9770.718434,-1554.432478,-612.876398
2972.678749,-10140.821405,-1258.350101,0.000000
2972.679087,-9252.574275,-1258.350101,-153.219100
2972.679424,-9548.656652,-592.164754,0.000000
2972.679762,-10881.027347,0.000000,306.438199
2972.680099,-10807.006753,-962.267725,-689.485948
2972.680437,-9622.677246,-518.144159,0.000000
2972.680774,-9252.574275,148.041188,459.657299
2972.681112,-10288.862594,1036.288319,536.266849
2972.681449,-10881.027347,592.164754,-919.314598
2972.681787,-10140.821405,-888.247130,-1762.019645
2972.682124,-9474.636058,-444.123565,-536.266849
2972.682462,-9252.574275,-370.102971,383.047749
2972.682800,-10362.883188,0.000000,459.657299
2972.683137,-11177.109724,-296.082377,-2298.286494
2972.683475,-10436.903782,-1258.350101,-3447.429741
2972.683812,-9548.656652,-2590.720797,-1915.238745
2972.684150,-9474.636058,-2886.803174,-1608.800546
2972.684487,-9548.656652,-3108.864956,-2681.334243
2972.684825,-9992.780217,-3256.906145,-4136.915689
2972.685162,-8734.430116,-4071.132681,-4213.525239
2972.685500,-9030.512492,-4145.153275,-2451.505594
2972.685837,-10362.883188,-4071.132681,-919.314598
2972.686175,-10807.006753,-3330.926739,-3140.991542
2972.686512,-11399.171507,-3627.009116,-4136.915689
2972.686850,-11029.068536,-3997.112087,-4060.306139
2972.687188,-9326.594869,-4737.318029,-2374.896044
2972.687525,-8808.450710,-4737.318029,-1149.143247
2972.687863,-9030.512492,-3701.029710,-459.657299
2972.688200,-9844.739029,-2590.720797,-689.485948
2972.688538,-11029.068536,-1184.329507,-1225.752797
2972.688875,-10807.006753,-1628.453072,-919.314598
2972.689213,-11621.233289,-1184.329507,-2298.286494
2972.689550,-11103.089130,-1702.473667,-2451.505594
2972.689888,-10362.883188,-2516.700203,-2604.724693
2972.690225,-9178.553681,-3404.947333,-2068.457845
2972.690563,-7846.182985,-3849.070898,-1225.752797
2972.690900,-7772.162391,-2812.782580,-1149.143247
2972.691238,-9474.636058,-1184.329507,-995.924147
2972.691576,-11177.109724,-666.185348,-2604.724693
2972.691913,-9918.759623,-1554.432478,-4213.525239
2972.692251,-10288.862594,-1850.514855,-2451.505594
2972.692588,-10807.006753,-2960.823768,-1608.800546
2972.692926,-9770.718434,-3701.029710,-459.657299
2972.693263,-9326.594869,-3182.885551,-459.657299
2972.693601,-8808.450710,-2886.803174,1149.143247
2972.693938,-9178.553681,-2664.741391,229.828649
2972.694276,-9696.697840,-3330.926739,-612.876398
2972.694613,-10140.821405,-2294.638420,76.609550
2972.694951,-9548.656652,-1628.453072,1225.752797
2972.695288,-9918.759623,1110.308913,536.266849
2972.695626,-11029.068536,814.226536,-766.095498
2972.695964,-12435.459826,-740.205942,-2298.286494
2972.696301,-11843.295072,-2812.782580,-2221.676944
2972.696639,-9992.780217,-3034.844362,-1378.971896
2972.696976,-8882.471304,-3182.885551,-995.924147
2972.697314,-8882.471304,-3404.947333,-2451.505594
2972.697651,-9696.697840,-4367.215058,-2987.772442
2972.697989,-9844.739029,-2960.823768,-3447.429741
2972.698326,-9770.718434,-1776.494261,-3217.601092
2972.698664,-9992.780217,-1036.288319,-4366.744339
2972.699001,-10066.800811,-2220.617826,-4443.353888
2972.699339,-12287.418637,-2812.782580,-2604.724693
2972.699676,-11103.089130,-2664.741391,-2987.772442
2972.700014,-8290.306550,-3108.864956,-2757.943793
2972.700352,-7698.141797,-4219.173869,-689.485948
2972.700689,-9918.759623,-5107.421000,306.438199
2972.701027,-10436.903782,-3108.864956,-1378.971896
2972.701364,-8956.491898,-2442.679609,-3064.381992
2972.701702,-10140.821405,-2368.659014,-1838.629195
2972.702039,-11695.253884,-1184.329507,-2604.724693
2972.702377,-10807.006753,0.000000,-3447.429741
2972.702714,-9178.553681,222.061783,-2221.676944
2972.703052,-8586.388927,-740.205942,0.000000
2972.703389,-9696.697840,444.123565,-842.705048
2972.703727,-11621.233289,-592.164754,-1915.238745
2972.704064,-11029.068536,-370.102971,-1072.533697
2972.704402,-9326.594869,-1110.308913,-1608.800546
2972.704740,-9696.697840,-962.267725,0.000000
2972.705077,-10288.862594,-1110.308913,76.609550
2972.705415,-10510.924376,0.000000,-2298.286494
2972.705752,-10807.006753,-1480.411884,-3677.258390
2972.706090,-10362.883188,-1184.329507,-4443.353888
2972.706427,-10658.965565,-2960.823768,-3064.381992
2972.706765,-9326.594869,-2664.741391,-3140.991542
2972.707102,-7920.203579,-2886.803174,-3753.867940
2972.707440,-9030.512492,-3849.070898,-2374.896044
2972.707777,-8882.471304,-4441.235652,-1378.971896
2972.708115,-8068.244768,-4589.276840,-306.438199
2972.708452,-9548.656652,-3701.029710,2374.896044
2972.708790,-11251.130318,-2442.679609,1685.410096
2972.709128,-11621.233289,-1554.432478,0.000000
2972.709465,-12583.501014,-1998.556043,-536.266849
2972.709803,-10732.986159,-2294.638420,-2374.896044
2972.710140,-10658.965565,-3997.112087,-1838.629195
2972.710478,-9252.574275,-3849.070898,-1532.190996
2972.710815,-8290.306550,-4293.194464,-2374.896044
2972.711153,-9844.739029,-4589.276840,-2834.553343
2972.711490,-9030.512492,-4219.173869,-3983.696590
2972.711828,-9474.636058,-3034.844362,-1762.019645
2972.712165,-10362.883188,-1184.329507,-766.095498
2972.712503,-11251.130318,-740.205942,-1378.971896
2972.712840,-12805.562797,-740.205942,-2068.457845
2972.713178,-12731.542202,-2886.803174,-3140.991542
2972.713516,-11177.109724,-4145.153275,-2757.943793
2972.713853,-8512.368333,-5033.400406,-3370.820191
2972.714191,-7698.141797,-6365.771101,-1762.019645
2972.714528,-7476.080014,-6735.874072,-1455.581446
2972.714866,-7698.141797,-4885.359217,-995.924147
2972.715203,-8660.409521,-1554.432478,-1225.752797
2972.715541,-11029.068536,0.000000,-1685.410096
2972.715878,-11547.212695,1184.329507,-2987.772442
2972.716216,-12731.542202,888.247130,-1225.752797
2972.716553,-11547.212695,740.205942,0.000000
2972.716891,-8512.368333,148.041188,459.657299
2972.717229,-7772.162391,-1628.453072,919.314598
2972.717566,-9770.718434,-3182.885551,2145.067394
2972.717904,-9992.780217,-2442.679609,0.000000
2972.718241,-8660.409521,-962.267725,-153.219100
2972.718579,-10066.800811,444.123565,-1608.800546
2972.718916,-11399.171507,962.267725,-3983.696590
2972.719254,-11695.253884,1184.329507,-5515.887586
2972.719591,-9696.697840,148.041188,-5209.449386
2972.719929,-8142.265362,0.000000,-1915.238745
2972.720266,-8660.409521,-814.226536,229.828649
2972.720604,-9696.697840,-1924.535449,0.000000
2972.720941,-10732.986159,-2960.823768,383.047749
2972.721279,-10658.965565,-3478.967927,153.219100
2972.721617,-10584.944971,-3478.967927,-306.438199
2972.721954,-11103.089130,-4515.256246,-1378.971896
2972.722292,-9474.636058,-4441.235652,-1378.971896
2972.722629,-8512.368333,-2886.803174,0.000000
2972.722967,-8882.471304,-814.226536,1455.581446
2972.723304,-10140.821405,370.102971,306.438199
2972.723642,-11695.253884,1110.308913,306.438199
2972.723979,-13619.789333,1406.391290,-153.219100
2972.724317,-11103.089130,0.000000,-1072.533697
2972.724654,-10658.965565,-1924.535449,1532.190996
2972.724992,-8660.409521,-2886.803174,3064.381992
2972.725329,-8660.409521,-1776.494261,2451.505594
2972.725667,-9252.574275,-1332.370696,1072.533697
2972.726005,-9474.636058,962.267725,689.485948
2972.726342,-11177.109724,1406.391290,0.000000
2972.726680,-11547.212695,2516.700203,-2451.505594
2972.727017,-10362.883188,1776.494261,-2834.553343
2972.727355,-9474.636058,0.000000,-2451.505594
2972.727692,-7476.080014,-222.061783,612.876398
2972.728030,-7254.018232,74.020594,1532.190996
2972.728367,-9474.636058,296.082377,3140.991542
2972.728705,-11769.274478,-74.020594,1991.848295
2972.729042,-12731.542202,-518.144159,919.314598
2972.729380,-11325.150913,-518.144159,0.000000
2972.729717,-8808.450710,-962.267725,536.266849
2972.730055,-8290.306550,-296.082377,1455.581446
2972.730393,-8364.327145,962.267725,459.657299
2972.730730,-8882.471304,2220.617826,-383.047749
2972.731068,-10362.883188,2886.803174,76.609550
2972.731405,-12361.439231,2072.576638,-689.485948
2972.731743,-12805.562797,296.082377,-919.314598
2972.732080,-10881.027347,-1036.288319,-229.828649
2972.732418,-9252.574275,-1850.514855,1608.800546
2972.732755,-8216.285956,-2146.597232,1302.362347
2972.733093,-8364.327145,-2294.638420,1072.533697
2972.733430,-9400.615463,-2220.617826,-689.485948
2972.733768,-11103.089130,-1036.288319,-995.924147
2972.734105,-11695.253884,-962.267725,-2528.115143
2972.734443,-11029.068536,-1406.391290,-2911.162892
2972.734781,-10066.800811,-1702.473667,-1378.971896
2972.735118,-8586.388927,-1850.514855,-689.485948
2972.735456,-8808.450710,-1776.494261,0.000000
2972.735793,-9622.677246,-3034.844362,76.609550
2972.736131,-11325.150913,-3108.864956,459.657299
2972.736468,-10658.965565,-3256.906145,-612.876398
2972.736806,-10732.986159,-3108.864956,995.924147
2972.737143,-10140.821405,-1776.494261,2068.457845
2972.737481,-8882.471304,-666.185348,2451.505594
2972.737818,-9696.697840,1110.308913,2451.505594
2972.738156,-10584.944971,1480.411884,2068.457845
2972.738493,-11917.315666,2294.638420,1378.971896
2972.738831,-11917.315666,1332.370696,689.485948
2972.739169,-11621.233289,518.144159,536.266849
2972.739506,-10510.924376,370.102971,1225.752797
2972.739844,-8660.409521,592.164754,536.266849
2972.740181,-7994.224174,518.144159,153.219100
2972.740519,-8882.471304,296.082377,0.000000
2972.740856,-9400.615463,666.185348,-842.705048
2972.741194,-10066.800811,1184.329507,-2221.676944
2972.741531,-10214.842000,370.102971,-1532.190996
2972.741869,-10066.800811,0.000000,842.705048
2972.742206,-8660.409521,962.267725,459.657299
2972.742544,-8068.244768,592.164754,1455.581446
2972.742881,-9770.718434,-370.102971,2451.505594
2972.743219,-10658.965565,-1924.535449,1149.143247
2972.743557,-10362.883188,-1998.556043,229.828649
2972.743894,-10881.027347,-2146.597232,0.000000
2972.744232,-9474.636058,-1554.432478,-153.219100
2972.744569,-8438.347739,-740.205942,-536.266849
2972.744907,-8364.327145,0.000000,459.657299
2972.745244,-9696.697840,0.000000,919.314598
2972.745582,-11251.130318,-222.061783,689.485948
2972.745919,-12361.439231,74.020594,76.609550
2972.746257,-12139.377449,-1036.288319,689.485948
2972.746594,-10955.047942,-1258.350101,612.876398
2972.746932,-9400.615463,-1998.556043,76.609550
2972.747269,-9548.656652,-1924.535449,383.047749
2972.747607,-10658.965565,-1480.411884,-536.266849
2972.747945,-10955.047942,-1184.329507,-2911.162892
2972.748282,-9844.739029,-1110.308913,-3524.039291
2972.748620,-10214.842000,-1850.514855,-2068.457845
2972.748957,-9548.656652,-1924.535449,-153.219100
2972.749295,-8882.471304,-1332.370696,459.657299
2972.749632,-9178.553681,-518.144159,1762.019645
2972.749970,-11029.068536,0.000000,1838.629195
2972.750307,-11177.109724,74.020594,612.876398
2972.750645,-11325.150913,-814.226536,766.095498
2972.750982,-10732.986159,-962.267725,1762.019645
2972.751320,-9326.594869,74.020594,1762.019645
2972.751657,-8808.450710,148.041188,1302.362347
2972.751995,-8660.409521,1332.370696,1532.190996
2972.752333,-9548.656652,1924.535449,1072.533697
2972.752670,-10510.924376,3256.906145,229.828649
2972.753008,-10955.047942,2442.679609,612.876398
2972.753345,-10288.862594,2368.659014,612.876398
2972.753683,-9400.615463,2220.617826,1685.410096
2972.754020,-9992.780217,1998.556043,1072.533697
2972.754358,-9770.718434,888.247130,842.705048
2972.754695,-10214.842000,148.041188,-459.657299
2972.755033,-9918.759623,-444.123565,-1225.752797
2972.755370,-8956.491898,-888.247130,-1685.410096
2972.755708,-7994.224174,-2072.576638,-842.705048
2972.756045,-8290.306550,-814.226536,-536.266849
2972.756383,-9030.512492,-1036.288319,-995.924147
2972.756721,-10658.965565,-592.164754,-459.657299
2972.757058,-11251.130318,0.000000,-842.705048
2972.757396,-11177.109724,-1036.288319,-76.609550
2972.757733,-10955.047942,-2368.659014,1072.533697
2972.758071,-9696.697840,-3034.844362,1991.848295
2972.758408,-10288.862594,-2368.659014,2681.334243
2972.758746,-10436.903782,-1850.514855,1072.533697
2972.759083,-9918.759623,-1924.535449,459.657299
2972.759421,-10436.903782,-962.267725,383.047749
2972.759758,-10288.862594,-518.144159,0.000000
2972.760096,-11103.089130,0.000000,0.000000
2972.760433,-10732.986159,222.061783,-383.047749
2972.760771,-9622.677246,0.000000,76.609550
2972.761108,-10214.842000,-370.102971,689.485948
2972.761446,-10955.047942,-370.102971,1608.800546
2972.761784,-11029.068536,-1258.350101,1072.533697
2972.762121,-10214.842000,-1036.288319,229.828649
2972.762459,-9400.615463,-666.185348,-536.266849
2972.762796,-9178.553681,-1110.308913,-1302.362347
2972.763134,-9104.533087,-1110.308913,-612.876398
2972.763471,-8216.285956,-1036.288319,-1149.143247
2972.763809,-9770.718434,-592.164754,-306.438199
2972.764146,-10214.842000,666.185348,153.219100
2972.764484,-9844.739029,444.123565,0.000000
2972.764821,-10140.821405,370.102971,1072.533697
2972.765159,-10214.842000,-148.041188,2068.457845
2972.765496,-10288.862594,518.144159,2911.162892
2972.765834,-10066.800811,-74.020594,2221.676944
2972.766172,-9474.636058,444.123565,2068.457845
2972.766509,-10362.883188,1036.288319,2145.067394
2972.766847,-10732.986159,1702.473667,1149.143247
2972.767184,-10584.944971,1924.535449,153.219100
2972.767522,-11251.130318,592.164754,229.828649
2972.767859,-10732.986159,296.082377,-689.485948
2972.768197,-9474.636058,370.102971,-1685.410096
2972.768534,-9548.656652,-148.041188,-612.876398
2972.768872,-9548.656652,-814.226536,-383.047749
2972.769209,-9696.697840,-1184.329507,-153.219100
2972.769547,-9770.718434,-1406.391290,0.000000
2972.769884,-10288.862594,-1628.453072,76.609550
2972.770222,-11029.068536,-2294.638420,-153.219100
2972.770560,-10214.842000,-2738.761985,-995.924147
2972.770897,-9622.677246,-2220.617826,153.219100
2972.771235,-9696.697840,-1776.494261,689.485948
2972.771572,-9474.636058,-1184.329507,-306.438199
2972.771910,-9622.677246,-518.144159,-459.657299
2972.772247,-10584.944971,-1110.308913,0.000000
2972.772585,-11029.068536,0.000000,995.924147
2972.772922,-10510.924376,-740.205942,995.924147
2972.773260,-10214.842000,0.000000,2145.067394
2972.773597,-9844.739029,444.123565,2451.505594
2972.773935,-10288.862594,592.164754,1915.238745
2972.774272,-10807.006753,1110.308913,1532.190996
2972.774610,-9918.759623,518.144159,1378.971896
2972.774948,-9844.739029,2072.576638,1225.752797
2972.775285,-10066.800811,1850.514855,-842.705048
2972.775623,-9918.759623,1406.391290,-766.095498
2972.775960,-9770.718434,1184.329507,-612.876398
2972.776298,-8808.450710,666.185348,0.000000
2972.776635,-9326.594869,592.164754,383.047749
2972.776973,-9400.615463,0.000000,-229.828649
2972.777310,-9474.636058,222.061783,-383.047749
2972.777648,-9622.677246,518.144159,-612.876398
2972.777985,-9992.780217,-222.061783,-689.485948
2972.778323,-9844.739029,-814.226536,306.438199
2972.778660,-10214.842000,-592.164754,0.000000
2972.778998,-9918.759623,-592.164754,1149.143247
2972.779336,-9770.718434,148.041188,1685.410096
2972.779673,-9992.780217,370.102971,1149.143247
2972.780011,-10436.903782,592.164754,1302.362347
2972.780348,-10732.986159,-296.082377,612.876398
2972.780686,-10140.821405,-592.164754,536.266849
2972.781023,-10510.924376,-518.144159,689.485948
2972.781361,-9844.739029,0.000000,536.266849
2972.781698,-10214.842000,-962.267725,153.219100
2972.782036,-11251.130318,-444.123565,0.000000
2972.782373,-10362.883188,-888.247130,-1149.143247
2972.782711,-10362.883188,-444.123565,-383.047749
2972.783048,-10362.883188,-1332.370696,0.000000
2972.783386,-9548.656652,-1554.432478,-1455.581446
2972.783724,-9770.718434,-1258.350101,-1378.971896
2972.784061,-9770.718434,-1480.411884,-766.095498
2972.784399,-9548.656652,-1924.535449,-306.438199
2972.784736,-9992.780217,-1702.473667,-612.876398
2972.785074,-10140.821405,-1110.308913,0.000000
2972.785411,-10214.842000,-1110.308913,536.266849
2972.785749,-10436.903782,-962.267725,229.828649
2972.786086,-9696.697840,-74.020594,1072.533697
2972.786424,-9844.739029,-518.144159,2145.067394
2972.786761,-9474.636058,666.185348,2451.505594
2972.787099,-10436.903782,1702.473667,1685.410096
2972.787436,-11325.150913,1036.288319,1225.752797
2972.787774,-10214.842000,1332.370696,1149.143247
2972.788112,-9918.759623,2738.761985,1608.800546
2972.788449,-9548.656652,2220.617826,612.876398
2972.788787,-9548.656652,1480.411884,536.266849
2972.789124,-9844.739029,2146.597232,383.047749
2972.789462,-9474.636058,2812.782580,-689.485948
2972.789799,-10288.862594,1702.473667,153.219100
2972.790137,-11029.068536,740.205942,76.609550
2972.790474,-9696.697840,0.000000,-1072.533697
2972.790812,-9252.574275,296.082377,-536.266849
2972.791149,-9178.553681,-592.164754,0.000000
2972.791487,-9030.512492,-814.226536,153.219100
2972.791824,-9844.739029,-1332.370696,-842.705048
2972.792162,-10214.842000,-2220.617826,153.219100
2972.792500,-9622.677246,-1258.350101,459.657299
2972.792837,-10066.800811,-1554.432478,383.047749
2972.793175,-10881.027347,-1850.514855,919.314598
2972.793512,-9844.739029,-1258.350101,306.438199
2972.793850,-10362.883188,-592.164754,1149.143247
2972.794187,-10658.965565,-962.267725,1149.143247
2972.794525,-10658.965565,-1036.288319,229.828649
2972.794862,-11473.192101,-740.205942,1149.143247
2972.795200,-10732.986159,-1036.288319,229.828649
2972.795537,-9474.636058,-740.205942,612.876398
2972.795875,-9918.759623,-888.247130,919.314598
2972.796212,-10288.862594,444.123565,689.485948
2972.796550,-10066.800811,-74.020594,-919.314598
2972.796888,-10510.924376,0.000000,-1302.362347
2972.797225,-10436.903782,-444.123565,-995.924147
2972.797563,-10362.883188,-814.226536,-1225.752797
2972.797900,-9918.759623,-1036.288319,-689.485948
2972.798238,-9548.656652,-444.123565,-383.047749
2972.798575,-9030.512492,222.061783,-536.266849
2972.798913,-8882.471304,148.041188,-689.485948
2972.799250,-10436.903782,0.000000,-76.609550
2972.799588,-10732.986159,-814.226536,-306.438199
2972.799925,-10362.883188,0.000000,689.485948
2972.800263,-9474.636058,74.020594,1991.848295
2972.800600,-8882.471304,740.205942,2757.943793
2972.800938,-9918.759623,2146.597232,3447.429741
2972.801276,-10584.944971,2294.638420,0.000000
2972.801613,-11029.068536,962.267725,383.047749
2972.801951,-10436.903782,666.185348,612.876398
2972.802288,-9474.636058,-370.102971,689.485948
2972.802626,-9104.533087,666.185348,1378.971896
2972.802963,-9030.512492,592.164754,1378.971896
2972.803301,-9548.656652,888.247130,153.219100
2972.803638,-9770.718434,1184.329507,-536.266849
2972.803976,-11399.171507,444.123565,-1225.752797
2972.804313,-11251.130318,0.000000,-1685.410096
2972.804651,-9548.656652,-1036.288319,-2681.334243
2972.804988,-8216.285956,-1258.350101,-689.485948
2972.805326,-8956.491898,-1332.370696,995.924147
2972.805664,-9252.574275,-814.226536,306.438199
2972.806001,-10214.842000,-1110.308913,-919.314598
2972.806339,-11325.150913,-2368.659014,0.000000
2972.806676,-11621.233289,-1554.432478,76.609550
2972.807014,-11547.212695,-1628.453072,229.828649
2972.807351,-9104.533087,-666.185348,459.657299
2972.807689,-8660.409521,-2072.576638,1302.362347
2972.808026,-9696.697840,-222.061783,1838.629195
2972.808364,-9992.780217,888.247130,1608.800546
2972.808701,-11695.253884,592.164754,2374.896044
2972.809039,-11769.274478,74.020594,766.095498
2972.809376,-10658.965565,740.205942,459.657299
2972.809714,-9844.739029,814.226536,1915.238745
2972.810052,-9474.636058,444.123565,1762.019645
2972.810389,-8882.471304,1258.350101,1149.143247
2972.810727,-9474.636058,518.144159,-919.314598
2972.811064,-10362.883188,1110.308913,-1072.533697
2972.811402,-10214.842000,1036.288319,-1915.238745
2972.811739,-9622.677246,-74.020594,-1302.362347
2972.812077,-8882.471304,-296.082377,0.000000
2972.812414,-9104.533087,-296.082377,1072.533697
2972.812752,-8882.471304,0.000000,2068.457845
2972.813089,-9252.574275,0.000000,919.314598
2972.813427,-11103.089130,-740.205942,995.924147
2972.813764,-11547.212695,0.000000,536.266849
2972.814102,-10362.883188,-1702.473667,-689.485948
2972.814440,-9104.533087,-1628.453072,306.438199
2972.814777,-8882.471304,-1258.350101,1455.581446
2972.815115,-9030.512492,-740.205942,919.314598
2972.815452,-9770.718434,0.000000,-306.438199
2972.815790,-11695.253884,-444.123565,536.266849
2972.816127,-12139.377449,148.041188,0.000000
2972.816465,-11251.130318,-666.185348,-536.266849
2972.816802,-10140.821405,-296.082377,1225.752797
2972.817140,-9326.594869,-666.185348,1149.143247
2972.817477,-9474.636058,-148.041188,919.314598
2972.817815,-10066.800811,-296.082377,766.095498
2972.818152,-11399.171507,-296.082377,0.000000
2972.818490,-11843.295072,-444.123565,-1455.581446
2972.818828,-11029.068536,-888.247130,-2528.115143
2972.819165,-8734.430116,-1258.350101,-1991.848295
2972.819503,-8586.388927,-1850.514855,0.000000
2972.819840,-8142.265362,-1480.411884,689.485948
2972.820178,-9178.553681,-888.247130,-306.438199
2972.820515,-10658.965565,-222.061783,536.266849
2972.820853,-11029.068536,0.000000,76.609550
2972.821190,-11029.068536,0.000000,-153.219100
2972.821528,-10658.965565,-222.061783,1762.019645
2972.821865,-8882.471304,-592.164754,2451.505594
2972.822203,-8142.265362,962.267725,2528.115143
2972.822540,-9104.533087,2146.597232,2145.067394
2972.822878,-10955.047942,2146.597232,689.485948
2972.823216,-11325.150913,1480.411884,-612.876398
2972.823553,-9992.780217,1332.370696,-153.219100
2972.823891,-8808.450710,1406.391290,1072.533697
2972.824228,-9104.533087,1332.370696,2068.457845
2972.824566,-9548.656652,2294.638420,1225.752797
2972.824903,-10362.883188,1776.494261,536.266849
2972.825241,-10955.047942,1480.411884,-76.609550
2972.825578,-11547.212695,1184.329507,-536.266849
2972.825916,-11029.068536,0.000000,-1762.019645
2972.826253,-9326.594869,-1110.308913,-2068.457845
2972.826591,-8438.347739,-2368.659014,-919.314598
2972.826928,-7476.080014,-2294.638420,0.000000
2972.827266,-8956.491898,-1110.308913,306.438199
2972.827604,-10955.047942,-1998.556043,76.609550
2972.827941,-11399.171507,-2146.597232,-919.314598
2972.828279,-11251.130318,-2516.700203,0.000000
2972.828616,-10288.862594,-2368.659014,1838.629195
2972.828954,-9104.533087,-2368.659014,2911.162892
2972.829291,-10288.862594,-962.267725,2681.334243
2972.829629,-10658.965565,-518.144159,76.609550
2972.829966,-11177.109724,-666.185348,76.609550
2972.830304,-11399.171507,-962.267725,612.876398
2972.830639,-11103.089130,-1258.350101,0.000000
2972.830977,-9770.718434,-148.041188,153.219100
2972.831315,-10214.842000,-814.226536,689.485948
2972.831652,-9548.656652,148.041188,229.828649
2972.831990,-9474.636058,814.226536,-995.924147
2972.832327,-10584.944971,148.041188,-689.485948
2972.832665,-10732.986159,222.061783,-919.314598
2972.833003,-10955.047942,-1184.329507,-995.924147
2972.833340,-8956.491898,-296.082377,-842.705048
2972.833678,-8142.265362,-1776.494261,766.095498
2972.834015,-8290.306550,-296.082377,1072.533697
2972.834353,-8808.450710,74.020594,-76.609550
2972.834691,-10288.862594,0.000000,-383.047749
2972.835028,-10658.965565,222.061783,-536.266849
2972.835366,-10140.821405,0.000000,-153.219100
2972.835703,-9622.677246,-222.061783,919.314598
2972.836041,-9030.512492,518.144159,1378.971896
2972.836378,-9030.512492,370.102971,2757.943793
2972.836716,-9844.739029,2368.659014,1532.190996
2972.837054,-10658.965565,888.247130,1149.143247
2972.837391,-11843.295072,740.205942,1455.581446
2972.837729,-11029.068536,0.000000,612.876398
2972.838066,-10658.965565,0.000000,229.828649
2972.838404,-9918.759623,0.000000,995.924147
2972.838742,-8808.450710,814.226536,229.828649
2972.839079,-9400.615463,666.185348,-306.438199
2972.839417,-10881.027347,296.082377,-995.924147
2972.839754,-11399.171507,296.082377,-1455.581446
2972.840092,-10584.944971,-1406.391290,-2221.676944
2972.840430,-9252.574275,-2146.597232,-153.219100
2972.840767,-8734.430116,-3552.988522,766.095498
2972.841105,-9326.594869,-2516.700203,2068.457845
2972.841442,-9474.636058,-2072.576638,689.485948
2972.841780,-10510.924376,-1850.514855,383.047749
2972.842118,-11251.130318,-1110.308913,0.000000
2972.842455,-11251.130318,-2442.679609,-536.266849
2972.842793,-10362.883188,-1776.494261,612.876398
2972.843130,-9622.677246,-2442.679609,1838.629195
2972.843468,-8734.430116,-1184.329507,2374.896044
2972.843806,-8808.450710,0.000000,2451.505594
2972.844143,-11547.212695,1332.370696,2604.724693
2972.844481,-12583.501014,1258.350101,0.000000
2972.844818,-11917.315666,666.185348,-536.266849
2972.845156,-10881.027347,1036.288319,459.657299
2972.845494,-9770.718434,444.123565,1149.143247
2972.845831,-8882.471304,814.226536,842.705048
2972.846169,-7920.203579,1480.411884,-536.266849
2972.846506,-10214.842000,666.185348,-229.828649
2972.846844,-10658.965565,1406.391290,-1762.019645
2972.847181,-10066.800811,1258.350101,-2451.505594
2972.847519,-9770.718434,-296.082377,-536.266849
2972.847857,-8512.368333,-1480.411884,0.000000
2972.848194,-7920.203579,-444.123565,1149.143247
2972.848532,-8808.450710,0.000000,766.095498
2972.848869,-10288.862594,-370.102971,459.657299
2972.849207,-11621.233289,-222.061783,-766.095498
2972.849545,-11251.130318,-1110.308913,-2374.896044
2972.849882,-9696.697840,-1258.350101,-842.705048
2972.850220,-9030.512492,-1776.494261,1455.581446
2972.850557,-8512.368333,-518.144159,1455.581446
2972.850895,-9474.636058,370.102971,689.485948
2972.851233,-11843.295072,0.000000,1225.752797
2972.851570,-12213.398043,370.102971,229.828649
2972.851908,-12657.521608,-666.185348,-459.657299
2972.852245,-10658.965565,0.000000,229.828649
2972.852583,-9178.553681,-592.164754,995.924147
2972.852921,-9178.553681,-444.123565,536.266849
2972.853258,-9104.533087,-1554.432478,-689.485948
2972.853596,-9622.677246,-1110.308913,0.000000
2972.853933,-11473.192101,-666.185348,-1072.533697
2972.854271,-11843.295072,-1258.350101,-1838.629195
2972.854609,-10214.842000,-1554.432478,-1991.848295
2972.854946,-8512.368333,-2516.700203,-383.047749
2972.855284,-8216.285956,-1998.556043,612.876398
2972.855621,-8216.285956,-1776.494261,1149.143247
2972.855959,-10066.800811,-1406.391290,1762.019645
2972.856296,-11177.109724,-814.226536,1225.752797
2972.856634,-11251.130318,0.000000,-153.219100
2972.856972,-10214.842000,-592.164754,383.047749
2972.857309,-10066.800811,-814.226536,1915.238745
2972.857647,-8734.430116,-222.061783,2911.162892
2972.857984,-9326.594869,962.267725,2298.286494
2972.858322,-10214.842000,1998.556043,2528.115143
2972.858660,-11399.171507,1850.514855,1225.752797
2972.858997,-11547.212695,888.247130,0.000000
2972.859335,-10436.903782,740.205942,76.609550
2972.859672,-9104.533087,592.164754,1685.410096
2972.860010,-8660.409521,1184.329507,1455.581446
2972.860348,-8586.388927,1628.453072,-383.047749
2972.860685,-9844.739029,444.123565,-612.876398
2972.861023,-10881.027347,1184.329507,-689.485948
2972.861360,-11843.295072,-222.061783,-2221.676944
2972.861698,-10362.883188,-1184.329507,-1762.019645
2972.862036,-8660.409521,-2664.741391,-919.314598
2972.862373,-7772.162391,-2664.741391,0.000000
2972.862711,-8438.347739,-1554.432478,536.266849
2972.863048,-9770.718434,-1850.514855,306.438199
2972.863386,-10732.986159,-740.205942,-459.657299
2972.863724,-11843.295072,-1184.329507,-1532.190996
2972.864061,-11917.315666,-2072.576638,-383.047749
2972.864399,-10955.047942,-2590.720797,766.095498
2972.864736,-9104.533087,-1406.391290,1532.190996
2972.865074,-9178.553681,-1110.308913,1302.362347
2972.865412,-9548.656652,-740.205942,689.485948
2972.865749,-11029.068536,-740.205942,76.609550
2972.866087,-11029.068536,-888.247130,-229.828649
2972.866424,-10732.986159,-1332.370696,842.705048
2972.866762,-11029.068536,-740.205942,1225.752797
2972.867099,-10214.842000,0.000000,0.000000
2972.867437,-8882.471304,74.020594,-459.657299
2972.867775,-9548.656652,-444.123565,-306.438199
2972.868112,-10732.986159,0.000000,0.000000
2972.868450,-10214.842000,-370.102971,-1225.752797
2972.868787,-9918.759623,-296.082377,-612.876398
2972.869125,-10066.800811,-888.247130,-919.314598
2972.869463,-9474.636058,-222.061783,-536.266849
2972.869800,-8882.471304,370.102971,-536.266849
2972.870138,-9326.594869,0.000000,-153.219100
2972.870475,-10140.821405,518.144159,612.876398
2972.870813,-10140.821405,444.123565,0.000000
2972.871151,-10288.862594,0.000000,1072.533697
2972.871488,-10140.821405,148.041188,2068.457845
2972.871826,-9030.512492,222.061783,1915.238745
2972.872163,-8956.491898,1332.370696,2145.067394
2972.872501,-10066.800811,1184.329507,2298.286494
2972.872839,-10881.027347,2516.700203,1532.190996
2972.873176,-11325.150913,444.123565,-306.438199
2972.873514,-10732.986159,518.144159,-612.876398
2972.873851,-9770.718434,-296.082377,-306.438199
2972.874189,-8142.265362,-592.164754,-229.828649
2972.874527,-7402.059420,-740.205942,229.828649
2972.874864,-9622.677246,-962.267725,1608.800546
2972.875202,-10955.047942,0.000000,536.266849
2972.875539,-11177.109724,-296.082377,-1532.190996
2972.875877,-11843.295072,-1332.370696,-766.095498
2972.876214,-9992.780217,-2072.576638,-766.095498
2972.876552,-9252.574275,-2072.576638,229.828649
2972.876890,-9548.656652,-1924.535449,306.438199
2972.877227,-10140.821405,-1628.453072,-766.095498
2972.877565,-10732.986159,-2146.597232,0.000000
2972.877902,-10807.006753,-2812.782580,-306.438199
2972.878240,-10066.800811,-2146.597232,1455.581446
2972.878578,-10955.047942,-1998.556043,2911.162892
2972.878915,-9918.759623,-1110.308913,1838.629195
2972.879253,-9474.636058,-444.123565,1072.533697
2972.879590,-10436.903782,74.020594,1378.971896
2972.879928,-10807.006753,666.185348,1225.752797
2972.880266,-10955.047942,148.041188,1225.752797
2972.880603,-11029.068536,370.102971,919.314598
2972.880941,-10066.800811,444.123565,76.609550
2972.881278,-9104.533087,370.102971,-689.485948
2972.881616,-8216.285956,370.102971,-306.438199
2972.881954,-8956.491898,0.000000,-229.828649
2972.882291,-9622.677246,1184.329507,-383.047749
2972.882629,-10066.800811,1332.370696,-1838.629195
2972.882966,-10288.862594,222.061783,-2068.457845
2972.883304,-9696.697840,-888.247130,-1302.362347
2972.883642,-8734.430116,148.041188,0.000000
2972.883979,-8660.409521,148.041188,536.266849
2972.884317,-9326.594869,-740.205942,842.705048
2972.884654,-10732.986159,0.000000,0.000000
2972.884992,-10436.903782,-1628.453072,-306.438199
2972.885330,-10214.842000,-370.102971,153.219100
2972.885667,-9400.615463,-518.144159,919.314598
2972.886005,-9400.615463,-148.041188,306.438199
2972.886342,-9474.636058,-814.226536,689.485948
2972.886680,-11029.068536,-370.102971,1455.581446
2972.887017,-10140.821405,0.000000,919.314598
2972.887355,-11769.274478,296.082377,1608.800546
2972.887693,-11251.130318,-74.020594,1915.238745
2972.888030,-11029.068536,-444.123565,0.000000
2972.888368,-10510.924376,-592.164754,0.000000
2972.888705,-9474.636058,-1036.288319,0.000000
2972.889043,-10362.883188,-1110.308913,0.000000
2972.889381,-11399.171507,0.000000,-306.438199
2972.889718,-10807.006753,-370.102971,-2528.115143
2972.890056,-10066.800811,-666.185348,-1455.581446
2972.890393,-9992.780217,-1258.350101,0.000000
2972.890731,-8882.471304,-1628.453072,0.000000
2972.891069,-9326.594869,-1036.288319,536.266849
2972.891406,-10510.924376,-1702.473667,1455.581446
2972.891744,-10214.842000,-1628.453072,1072.533697
2972.892081,-9622.677246,-1036.288319,1072.533697
2972.892419,-10140.821405,-1258.350101,2451.505594
2972.892757,-9474.636058,0.000000,1378.971896
2972.893094,-9104.533087,-444.123565,612.876398
2972.893432,-9400.615463,1036.288319,842.705048
2972.893769,-9326.594869,666.185348,306.438199
2972.894107,-10436.903782,1924.535449,536.266849
2972.894445,-10288.862594,1332.370696,153.219100
2972.894782,-9622.677246,888.247130,383.047749
2972.895120,-9844.739029,1924.535449,1608.800546
2972.895457,-9992.780217,1702.473667,1302.362347
2972.895795,-10658.965565,592.164754,-612.876398
2972.896132,-11325.150913,148.041188,-1838.629195
2972.896470,-10955.047942,74.020594,-689.485948
2972.896808,-9474.636058,-740.205942,-842.705048
2972.897145,-8586.388927,-888.247130,-1838.629195
2972.897483,-9252.574275,-1332.370696,-689.485948
2972.897820,-9178.553681,-1924.535449,-1991.848295
2972.898158,-9696.697840,-1850.514855,-842.705048
2972.898496,-10881.027347,-2368.659014,459.657299
2972.898833,-11029.068536,-1554.432478,1072.533697
2972.899171,-10732.986159,-2220.617826,1149.143247
2972.899508,-9844.739029,-1850.514855,1915.238745
2972.899846,-9474.636058,-1406.391290,1455.581446
2972.900184,-10658.965565,-1850.514855,995.924147
2972.900521,-10510.924376,-1332.370696,459.657299
2972.900859,-10214.842000,-592.164754,-383.047749
2972.901196,-10732.986159,-148.041188,229.828649
2972.901534,-10140.821405,0.000000,0.000000
2972.901872,-9918.759623,0.000000,383.047749
2972.902209,-9992.780217,74.020594,612.876398
2972.902547,-10140.821405,666.185348,306.438199
2972.902884,-10140.821405,740.205942,306.438199
2972.903222,-10881.027347,-148.041188,383.047749
2972.903560,-10436.903782,296.082377,-229.828649
2972.903897,-10140.821405,74.020594,-459.657299
2972.904235,-9696.697840,296.082377,153.219100
2972.904572,-9400.615463,-1110.308913,-153.219100
2972.904910,-9844.739029,74.020594,153.219100
2972.905248,-9400.615463,518.144159,-459.657299
2972.905585,-9844.739029,148.041188,-153.219100
2972.905923,-9474.636058,-222.061783,842.705048
2972.906260,-8734.430116,0.000000,1532.190996
2972.906598,-9252.574275,740.205942,2528.115143
2972.906935,-9474.636058,1480.411884,2451.505594
2972.907273,-10732.986159,1628.453072,1991.848295
2972.907611,-11399.171507,1850.514855,536.266849
2972.907948,-10658.965565,666.185348,1072.533697
2972.908286,-10362.883188,1184.329507,1149.143247
2972.908623,-9178.553681,814.226536,459.657299
2972.908961,-9030.512492,222.061783,459.657299
2972.909299,-10066.800811,592.164754,76.609550
2972.909636,-9622.677246,74.020594,-1532.190996
2972.909974,-10436.903782,370.102971,-1149.143247
2972.910311,-10955.047942,-666.185348,-689.485948
2972.910649,-10066.800811,-666.185348,-612.876398
2972.910987,-10584.944971,-592.164754,-612.876398
2972.911324,-10436.903782,-1258.350101,-612.876398
2972.911662,-9548.656652,-1924.535449,0.000000
2972.911999,-10584.944971,-2220.617826,0.000000
2972.912337,-10362.883188,-2590.720797,0.000000
2972.912675,-10288.862594,-2146.597232,-612.876398
2972.913012,-10066.800811,-2294.638420,0.000000
2972.913350,-9326.594869,-2664.741391,0.000000
2972.913687,-10140.821405,-2072.576638,1455.581446
2972.914025,-9844.739029,-1036.288319,1762.019645
2972.914363,-10510.924376,0.000000,1378.971896
2972.914700,-10658.965565,888.247130,1225.752797
2972.915038,-10584.944971,592.164754,1532.190996
2972.915375,-11473.192101,148.041188,842.705048
2972.915713,-10436.903782,0.000000,229.828649
2972.916050,-9474.636058,222.061783,689.485948
2972.916388,-8882.471304,888.247130,459.657299
2972.916726,-8290.306550,1110.308913,-689.485948
2972.917063,-9844.739029,1850.514855,-1302.362347
2972.917401,-10658.965565,296.082377,-1455.581446
2972.917738,-11325.150913,-222.061783,-1225.752797
2972.918076,-9474.636058,222.061783,-919.314598
2972.918414,-8438.347739,0.000000,383.047749
2972.918751,-8586.388927,0.000000,1302.362347
2972.919089,-9400.615463,-592.164754,995.924147
2972.919426,-10140.821405,148.041188,1072.533697
2972.919764,-10807.006753,-1036.288319,383.047749
2972.920102,-11325.150913,-740.205942,229.828649
2972.920439,-10214.842000,-888.247130,-536.266849
2972.920777,-9770.718434,74.020594,842.705048
2972.921114,-9326.594869,-296.082377,612.876398
2972.921452,-9178.553681,-518.144159,76.609550
2972.921790,-10510.924376,0.000000,612.876398
2972.922127,-11177.109724,-370.102971,-459.657299
2972.922465,-10584.944971,592.164754,76.609550
2972.922802,-11029.068536,148.041188,383.047749
2972.923140,-10732.986159,-444.123565,1149.143247
2972.923478,-9844.739029,666.185348,842.705048
2972.923815,-9474.636058,148.041188,383.047749
2972.924153,-10510.924376,0.000000,536.266849
2972.924490,-10807.006753,-1036.288319,-1302.362347
2972.924828,-10881.027347,-740.205942,-1838.629195
2972.925166,-9548.656652,-1850.514855,-1762.019645
2972.925503,-9178.553681,-1554.432478,-842.705048
2972.925841,-8734.430116,-1924.535449,459.657299
2972.926178,-8586.388927,-370.102971,229.828649
2972.926516,-9696.697840,-518.144159,1378.971896
2972.926853,-11621.233289,-296.082377,1302.362347
2972.927191,-11917.315666,-370.102971,459.657299
2972.927529,-10881.027347,-740.205942,1149.143247
2972.927866,-9918.759623,-814.226536,3370.820191
2972.928204,-8734.430116,888.247130,2374.896044
2972.928541,-9178.553681,592.164754,2374.896044
2972.928879,-10436.903782,888.247130,1762.019645
2972.929216,-10288.862594,444.123565,0.000000
2972.929554,-10584.944971,444.123565,612.876398
2972.929891,-9844.739029,1480.411884,1378.971896
2972.930229,-9178.553681,1036.288319,1685.410096
2972.930566,-9696.697840,2368.659014,1532.190996
2972.930904,-9992.780217,2516.700203,0.000000
2972.931241,-11177.109724,2220.617826,0.000000
2972.931579,-11917.315666,888.247130,-306.438199
2972.931916,-10955.047942,518.144159,-1608.800546
2972.932254,-9474.636058,-592.164754,-1608.800546
2972.932591,-8438.347739,-1998.556043,-612.876398
2972.932929,-7105.977043,-1702.473667,-612.876398
2972.933266,-7846.182985,-1702.473667,-689.485948
2972.933604,-9104.533087,0.000000,-1072.533697
2972.933941,-11695.253884,-1406.391290,-1532.190996
2972.934279,-11991.336260,-1332.370696,-1915.238745
2972.934616,-10140.821405,-2146.597232,-459.657299
2972.934954,-9770.718434,-1332.370696,2528.115143
2972.935291,-9400.615463,-888.247130,2987.772442
2972.935629,-10288.862594,0.000000,1072.533697
2972.935966,-12139.377449,-444.123565,1149.143247
2972.936304,-11695.253884,0.000000,0.000000
2972.936641,-11991.336260,-444.123565,-229.828649
2972.936979,-10584.944971,0.000000,-766.095498
2972.937316,-9326.594869,370.102971,-306.438199
2972.937654,-9770.718434,888.247130,536.266849
2972.937991,-9474.636058,1110.308913,-842.705048
2972.938329,-10510.924376,888.247130,-306.438199
2972.938667,-11695.253884,222.061783,0.000000
2972.939004,-10955.047942,-592.164754,-1838.629195
2972.939342,-9918.759623,-1184.329507,-689.485948
2972.939679,-8660.409521,-1924.535449,1072.533697
2972.940017,-7920.203579,-740.205942,1149.143247
2972.940354,-8438.347739,-666.185348,0.000000
2972.940692,-9326.594869,0.000000,-459.657299
2972.941029,-10066.800811,0.000000,-689.485948
2972.941367,-10436.903782,0.000000,-1072.533697
2972.941704,-9326.594869,-740.205942,459.657299
2972.942042,-8364.327145,-814.226536,1915.238745
2972.942379,-8734.430116,666.185348,2834.553343
2972.942717,-9474.636058,1110.308913,2068.457845
2972.943054,-10807.006753,1850.514855,1762.019645
2972.943392,-12139.377449,888.247130,1455.581446
2972.943729,-12287.418637,1554.432478,536.266849
2972.944067,-10436.903782,592.164754,-383.047749
2972.944404,-9474.636058,74.020594,306.438199
2972.944742,-8660.409521,222.061783,229.828649
2972.945079,-9104.533087,74.020594,-76.609550
2972.945417,-10288.862594,1406.391290,-229.828649
2972.945754,-11399.171507,-296.082377,-842.705048
2972.946092,-11917.315666,0.000000,-1378.971896
2972.946429,-10140.821405,-1406.391290,-1225.752797
2972.946767,-10288.862594,-2146.597232,536.266849
2972.947104,-9622.677246,-2738.761985,689.485948
2972.947442,-8364.327145,-2220.617826,0.000000
2972.947779,-9178.553681,-2294.638420,459.657299
2972.948117,-10214.842000,-2368.659014,0.000000
2972.948454,-11251.130318,-2368.659014,383.047749
2972.948792,-11029.068536,-2072.576638,-459.657299
2972.949129,-8290.306550,-2368.659014,919.314598
2972.949467,-8956.491898,-962.267725,2681.334243
2972.949804,-10214.842000,-148.041188,3140.991542
2972.950142,-10510.924376,592.164754,2145.067394
2972.950479,-11251.130318,666.185348,1915.238745
2972.950817,-11621.233289,666.185348,919.314598
2972.951154,-10881.027347,1110.308913,536.266849
2972.951492,-10510.924376,370.102971,383.047749
2972.951829,-8438.347739,444.123565,-306.438199
2972.952167,-8438.347739,1628.453072,-536.266849
2972.952504,-9622.677246,2220.617826,-536.266849
2972.952842,-10214.842000,1850.514855,-1072.533697
2972.953179,-11621.233289,1554.432478,-1225.752797
2972.953517,-11029.068536,1258.350101,-1838.629195
2972.953854,-9770.718434,-518.144159,-536.266849
2972.954192,-9696.697840,-222.061783,1455.581446
2972.954529,-8586.388927,-592.164754,1455.581446
2972.954867,-9844.739029,888.247130,1455.581446
2972.955204,-9992.780217,-370.102971,0.000000
2972.955542,-10510.924376,-518.144159,-536.266849
2972.955879,-10066.800811,-1258.350101,0.000000
2972.956217,-9400.615463,-370.102971,-536.266849
2972.956554,-9474.636058,-888.247130,995.924147
2972.956892,-9326.594869,370.102971,842.705048
2972.957229,-9696.697840,296.082377,229.828649
2972.957567,-10732.986159,0.000000,612.876398
2972.957904,-10066.800811,0.000000,1072.533697
2972.958242,-10955.047942,0.000000,995.924147
2972.958579,-10955.047942,0.000000,1225.752797
2972.958917,-10066.800811,74.020594,76.609550
2972.959254,-10140.821405,0.000000,0.000000
2972.959592,-10510.924376,-296.082377,-689.485948
2972.959929,-10436.903782,0.000000,-1302.362347
2972.960267,-10955.047942,-1258.350101,-1072.533697
2972.960604,-9474.636058,-1258.350101,-2068.457845
2972.960942,-9252.574275,-2516.700203,-306.438199
2972.961279,-9844.739029,-2294.638420,1991.848295
2972.961617,-9104.533087,-962.267725,1149.143247
2972.961954,-10214.842000,-666.185348,1225.752797
2972.962292,-11621.233289,-740.205942,1455.581446
2972.962629,-11399.171507,-666.185348,76.609550
2972.962967,-10658.965565,-1628.453072,842.705048
2972.963304,-9326.594869,-2146.597232,2221.676944
2972.963642,-8364.327145,-962.267725,2451.505594
2972.963979,-9178.553681,592.164754,1991.848295
2972.964317,-9252.574275,1036.288319,612.876398
2972.964654,-10140.821405,592.164754,689.485948
2972.964992,-11325.150913,740.205942,306.438199
2972.965329,-10362.883188,1480.411884,229.828649
2972.965667,-10214.842000,1036.288319,919.314598
2972.966004,-9252.574275,1776.494261,153.219100
2972.966342,-9474.636058,1406.391290,0.000000
2972.966679,-9918.759623,1332.370696,-612.876398
2972.967017,-10436.903782,222.061783,-459.657299
2972.967354,-10955.047942,0.000000,-1378.971896
2972.967692,-9548.656652,-518.144159,-2681.334243
2972.968029,-9474.636058,-1406.391290,-1915.238745
2972.968367,-9252.574275,-1702.473667,-306.438199
2972.968704,-9030.512492,-1332.370696,-1072.533697
2972.969042,-9770.718434,-962.267725,-306.438199
2972.969379,-10955.047942,-888.247130,-536.266849
2972.969717,-10732.986159,-1036.288319,0.000000
2972.970054,-10881.027347,-2146.597232,383.047749
2972.970392,-11251.130318,-2368.659014,2528.115143
2972.970729,-9474.636058,-1554.432478,2681.334243
2972.971067,-10214.842000,-518.144159,2068.457845
2972.971404,-10362.883188,222.061783,689.485948
2972.971742,-10658.965565,-74.020594,-383.047749
2972.972079,-11621.233289,-370.102971,-459.657299
2972.972417,-10140.821405,-148.041188,-1225.752797
2972.972754,-9770.718434,-296.082377,0.000000
2972.973092,-9474.636058,74.020594,536.266849
2972.973429,-8882.471304,0.000000,-766.095498
2972.973767,-9326.594869,814.226536,0.000000
2972.974105,-10732.986159,0.000000,459.657299
2972.974442,-10955.047942,-592.164754,-459.657299
2972.974780,-9992.780217,0.000000,-995.924147
2972.975117,-9622.677246,-1036.288319,459.657299
2972.975455,-9474.636058,-666.185348,842.705048
2972.975792,-9178.553681,-370.102971,383.047749
2972.976130,-9918.759623,0.000000,536.266849
2972.976467,-9844.739029,-814.226536,612.876398
2972.976805,-10362.883188,74.020594,0.000000
2972.977142,-9622.677246,-148.041188,689.485948
2972.977480,-10066.800811,-814.226536,2374.896044
2972.977817,-9474.636058,666.185348,2374.896044
2972.978155,-9770.718434,1184.329507,1532.190996
2972.978492,-9770.718434,1702.473667,2298.286494
2972.978830,-11547.212695,1332.370696,1532.190996
2972.979167,-11029.068536,1184.329507,0.000000
2972.979505,-10881.027347,1628.453072,-995.924147
2972.979842,-10362.883188,-518.144159,-612.876398
2972.980180,-8956.491898,-1480.411884,-459.657299
2972.980517,-7476.080014,-1184.329507,-766.095498
2972.980855,-7698.141797,-1184.329507,919.314598
2972.981192,-10140.821405,-1332.370696,1225.752797
2972.981530,-11399.171507,-592.164754,-842.705048
2972.981867,-11029.068536,-444.123565,-1378.971896
2972.982205,-10732.986159,-1628.453072,-229.828649
2972.982542,-11177.109724,-1776.494261,612.876398
2972.982880,-10066.800811,-1480.411884,-689.485948
2972.983217,-9474.636058,-2146.597232,459.657299
2972.983555,-9992.780217,-1628.453072,306.438199
2972.983892,-10732.986159,-1850.514855,-153.219100
2972.984230,-11325.150913,-1702.473667,229.828649
2972.984567,-10732.986159,-1258.350101,842.705048
2972.984905,-10732.986159,-296.082377,919.314598
2972.985242,-10362.883188,370.102971,383.047749
2972.985580,-9696.697840,518.144159,842.705048
2972.985917,-9844.739029,-148.041188,2068.457845
2972.986255,-10214.842000,1554.432478,919.314598
2972.986592,-9992.780217,1628.453072,76.609550
2972.986930,-11251.130318,444.123565,459.657299
2972.987267,-9844.739029,740.205942,-842.705048
2972.987605,-9178.553681,148.041188,-1149.143247
2972.987942,-8660.409521,370.102971,-459.657299
2972.988280,-8512.368333,222.061783,-459.657299
2972.988617,-9622.677246,1184.329507,-1455.581446
2972.988955,-9400.615463,666.185348,-2451.505594
2972.989292,-9770.718434,-592.164754,-1685.410096
2972.989630,-9548.656652,0.000000,0.000000
2972.989967,-9474.636058,0.000000,229.828649
2972.990305,-9622.677246,-518.144159,766.095498
2972.990642,-9844.739029,0.000000,919.314598
2972.990980,-10288.862594,74.020594,229.828649
2972.991317,-10732.986159,-888.247130,153.219100
2972.991655,-11251.130318,-1258.350101,536.266849
2972.991992,-10436.903782,-666.185348,995.924147
2972.992330,-10140.821405,74.020594,1149.143247
2972.992667,-10288.862594,370.102971,1455.581446
2972.993005,-10066.800811,518.144159,306.438199
2972.993342,-10362.883188,0.000000,689.485948
2972.993680,-10955.047942,444.123565,612.876398
2972.994017,-11325.150913,-592.164754,459.657299
2972.994355,-10362.883188,-592.164754,459.657299
2972.994692,-9548.656652,-1332.370696,0.000000
2972.995030,-9992.780217,-1924.535449,612.876398
2972.995367,-9696.697840,-1110.308913,0.000000
2972.995705,-9622.677246,-1036.288319,-459.657299
2972.996042,-9992.780217,-1480.411884,-689.485948
2972.996380,-9252.574275,-1850.514855,-995.924147
2972.996717,-10362.883188,-1702.473667,153.219100
2972.997055,-9844.739029,-1702.473667,383.047749
2972.997392,-9326.594869,-1480.411884,459.657299
2972.997730,-9326.594869,-740.205942,995.924147
2972.998067,-10066.800811,-814.226536,1915.238745
2972.998405,-10658.965565,-296.082377,2374.896044
2972.998742,-11029.068536,-1628.453072,2528.115143
2972.999080,-9696.697840,0.000000,1838.629195
2972.999417,-9548.656652,444.123565,1838.629195
2972.999755,-10140.821405,888.247130,1838.629195
2973.000092,-9474.636058,1036.288319,459.657299
2973.000430,-10066.800811,814.226536,229.828649
2973.000767,-10288.862594,1628.453072,536.266849
2973.001105,-10214.842000,1480.411884,229.828649
2973.001442,-10288.862594,1036.288319,229.828649
2973.001780,-9326.594869,740.205942,-306.438199
2973.002117,-10066.800811,962.267725,-612.876398
2973.002455,-10732.986159,148.041188,-153.219100
2973.002792,-10436.903782,-370.102971,-2068.457845
2973.003130,-8808.450710,-1184.329507,-2221.676944
2973.003467,-8956.491898,-1480.411884,-2068.457845
2973.003805,-8882.471304,-2072.576638,-1149.143247
2973.004142,-9252.574275,-1258.350101,-1378.971896
2973.004480,-10066.800811,-1628.453072,-459.657299
2973.004817,-10658.965565,-1924.535449,153.219100
2973.005155,-10658.965565,-1332.370696,919.314598
2973.005492,-10955.047942,-1258.350101,1225.752797
2973.005830,-10510.924376,-1850.514855,1762.019645
2973.006167,-10140.821405,-1332.370696,1225.752797
2973.006505,-9770.718434,-1332.370696,995.924147
2973.006842,-10436.903782,-1184.329507,1225.752797
2973.007180,-10288.862594,-740.205942,76.609550
2973.007517,-10732.986159,-444.123565,536.266849
2973.007855,-9918.759623,740.205942,-536.266849
2973.008192,-10436.903782,666.185348,-383.047749
2973.008530,-10955.047942,0.000000,1072.533697
2973.008867,-9992.780217,0.000000,-76.609550
2973.009205,-10066.800811,0.000000,459.657299
2973.009543,-10362.883188,518.144159,383.047749
2973.009880,-10510.924376,370.102971,-459.657299
2973.010218,-9992.780217,0.000000,-1072.533697
2973.010555,-9474.636058,-370.102971,-383.047749
2973.010893,-9326.594869,222.061783,306.438199
2973.011230,-9548.656652,74.020594,536.266849
2973.011568,-9992.780217,148.041188,306.438199
2973.011905,-9918.759623,-518.144159,383.047749
2973.012243,-10362.883188,0.000000,1762.019645
2973.012580,-9474.636058,0.000000,2604.724693
2973.012918,-9548.656652,592.164754,2757.943793
2973.013255,-9622.677246,1480.411884,2757.943793
2973.013593,-10288.862594,1184.329507,1838.629195
2973.013930,-11029.068536,1110.308913,842.705048
2973.014268,-10362.883188,444.123565,612.876398
2973.014605,-9992.780217,814.226536,306.438199
2973.014943,-9548.656652,740.205942,612.876398
2973.015280,-9696.697840,592.164754,-536.266849
2973.015618,-9770.718434,222.061783,-689.485948
2973.015955,-9918.759623,-296.082377,-1149.143247
2973.016293,-9844.739029,-518.144159,-919.314598
2973.016630,-11103.089130,-666.185348,-1149.143247
2973.016968,-10362.883188,-888.247130,-1302.362347
2973.017305,-9696.697840,-1036.288319,-842.705048
2973.017643,-10214.842000,-1702.473667,-229.828649
2973.017980,-9474.636058,-1850.514855,-383.047749
2973.018318,-10510.924376,-2146.597232,-76.609550
2973.018655,-11325.150913,-2960.823768,-459.657299
2973.018993,-9770.718434,-2442.679609,0.000000
2973.019330,-10584.944971,-2220.617826,536.266849
2973.019668,-9696.697840,-1628.453072,76.609550
2973.020005,-9400.615463,-1332.370696,689.485948
2973.020343,-10066.800811,-666.185348,689.485948
2973.020680,-9992.780217,-148.041188,1149.143247
2973.021018,-10436.903782,0.000000,1915.238745
2973.021355,-11251.130318,-74.020594,2528.115143
2973.021693,-10658.965565,-370.102971,2374.896044
2973.022030,-10436.903782,370.102971,1762.019645
2973.022368,-10140.821405,370.102971,1685.410096
2973.022705,-8956.491898,1184.329507,0.000000
2973.023043,-9548.656652,148.041188,-383.047749
2973.023380,-10510.924376,370.102971,-842.705048
2973.023718,-9474.636058,814.226536,-1532.190996
2973.024055,-9918.759623,814.226536,-1225.752797
2973.024393,-9400.615463,296.082377,-306.438199
2973.024730,-9252.574275,74.020594,-612.876398
2973.025068,-9326.594869,222.061783,0.000000
2973.025405,-10066.800811,74.020594,0.000000
2973.025743,-9844.739029,-370.102971,612.876398
2973.026080,-10214.842000,-666.185348,842.705048
2973.026418,-10140.821405,-740.205942,1225.752797
2973.026755,-9474.636058,-740.205942,1455.581446
2973.027093,-9770.718434,-666.185348,1762.019645
2973.027430,-9622.677246,0.000000,1455.581446
2973.027768,-9918.759623,148.041188,0.000000
2973.028105,-10214.842000,0.000000,0.000000
2973.028443,-10732.986159,0.000000,536.266849
2973.028780,-10584.944971,-296.082377,919.314598
2973.029118,-9918.759623,0.000000,536.266849
2973.029455,-10066.800811,0.000000,1072.533697
2973.029793,-10584.944971,-370.102971,536.266849
2973.030130,-10881.027347,-740.205942,229.828649
2973.030468,-10066.800811,-1332.370696,-842.705048
2973.030805,-9474.636058,-1480.411884,-842.705048
2973.031142,-9918.759623,-1998.556043,-995.924147
2973.031480,-9252.574275,-1850.514855,-1149.143247
2973.031817,-9400.615463,-2220.617826,0.000000
2973.032155,-10066.800811,-666.185348,229.828649
2973.032492,-10807.006753,-740.205942,0.000000
2973.032830,-11843.295072,-666.185348,612.876398
2973.033167,-10658.965565,-1480.411884,1149.143247
2973.033504,-9622.677246,-666.185348,1149.143247
2973.033842,-9696.697840,0.000000,1532.190996
2973.034179,-10214.842000,296.082377,2681.334243
2973.034517,-10140.821405,296.082377,612.876398
2973.034854,-9992.780217,1110.308913,-76.609550
2973.035192,-10436.903782,888.247130,1455.581446
2973.035529,-10066.800811,1850.514855,766.095498
2973.035867,-9252.574275,1258.350101,766.095498
2973.036204,-9474.636058,2368.659014,536.266849
2973.036541,-9474.636058,1628.453072,766.095498
2973.036879,-9326.594869,2516.700203,0.000000
2973.037216,-9770.718434,1554.432478,-766.095498
2973.037554,-10214.842000,592.164754,0.000000
2973.037891,-10362.883188,592.164754,-689.485948
2973.038229,-9548.656652,222.061783,-2145.067394
2973.038566,-8512.368333,-740.205942,-1302.362347
2973.038903,-9252.574275,-1184.329507,-612.876398
2973.039241,-9178.553681,-888.247130,-1378.971896
2973.039578,-9844.739029,74.020594,-1378.971896
2973.039916,-10955.047942,-666.185348,-766.095498
2973.040253,-10362.883188,-1850.514855,-1149.143247
2973.040591,-10807.006753,-1924.535449,306.438199
2973.040928,-10436.903782,-1776.494261,1762.019645
2973.041265,-10732.986159,-1628.453072,2451.505594
2973.041603,-9252.574275,-1110.308913,1838.629195
2973.041940,-9770.718434,-888.247130,1225.752797
2973.042278,-11251.130318,-518.144159,995.924147
2973.042615,-11621.233289,-740.205942,0.000000
2973.042953,-10658.965565,-1184.329507,-383.047749
2973.043290,-9696.697840,-518.144159,76.609550
2973.043628,-9918.759623,222.061783,1532.190996
2973.043965,-9622.677246,592.164754,306.438199
2973.044302,-9622.677246,148.041188,-383.047749
2973.044640,-10658.965565,-222.061783,383.047749
2973.044977,-10807.006753,0.000000,459.657299
2973.045315,-10214.842000,-518.144159,0.000000
2973.045652,-10140.821405,-740.205942,153.219100
2973.045990,-9474.636058,-962.267725,766.095498
2973.046327,-8586.388927,-296.082377,229.828649
2973.046664,-8882.471304,296.082377,689.485948
2973.047002,-9474.636058,0.000000,383.047749
2973.047339,-10140.821405,-518.144159,-459.657299
2973.047677,-10214.842000,0.000000,0.000000
2973.048014,-9474.636058,518.144159,1532.190996
2973.048352,-9622.677246,592.164754,2528.115143
2973.048689,-9030.512492,1776.494261,2068.457845
2973.049026,-9400.615463,1628.453072,919.314598
2973.049364,-10436.903782,1184.329507,1302.362347
2973.049701,-11103.089130,518.144159,1072.533697
2973.050039,-10807.006753,148.041188,0.000000
2973.050376,-10288.862594,296.082377,1149.143247
2973.050714,-10436.903782,888.247130,536.266849
2973.051051,-9326.594869,888.247130,-1149.143247
2973.051389,-9474.636058,0.000000,-1685.410096
2973.051726,-10066.800811,-1332.370696,-1378.971896
2973.052063,-10955.047942,-1184.329507,-1915.238745
2973.052401,-10732.986159,-1776.494261,-1762.019645
2973.052738,-10510.924376,-2072.576638,-612.876398
2973.053076,-9548.656652,-3108.864956,0.000000
2973.053413,-9104.533087,-2368.659014,229.828649
2973.053751,-9326.594869,-2072.576638,612.876398
2973.054088,-11325.150913,-2368.659014,536.266849
2973.054425,-11695.253884,-2664.741391,-1072.533697
2973.054763,-10436.903782,-2294.638420,-919.314598
2973.055100,-9696.697840,-2442.679609,842.705048
2973.055438,-9252.574275,-1480.411884,2374.896044
2973.055775,-8882.471304,-592.164754,1532.190996
2973.056113,-10584.944971,592.164754,842.705048
2973.056450,-10732.986159,740.205942,1149.143247
2973.056787,-10955.047942,814.226536,766.095498
2973.057125,-10732.986159,0.000000,383.047749
2973.057462,-9548.656652,1184.329507,612.876398
2973.057800,-10066.800811,1258.350101,1225.752797
2973.058137,-8956.491898,1998.556043,-76.609550
2973.058475,-8808.450710,1110.308913,-306.438199
2973.058812,-10732.986159,1332.370696,0.000000
2973.059150,-9696.697840,740.205942,-1532.190996
2973.059487,-10732.986159,1036.288319,-1455.581446
2973.059824,-9400.615463,592.164754,-689.485948
2973.060162,-7846.182985,222.061783,306.438199
2973.060499,-8808.450710,1702.473667,306.438199
2973.060837,-9030.512492,1184.329507,153.219100
2973.061174,-11029.068536,1110.308913,459.657299
2973.061512,-11695.253884,0.000000,-383.047749
2973.061849,-10807.006753,0.000000,76.609550
2973.062186,-9474.636058,148.041188,1072.533697
2973.062524,-9474.636058,0.000000,1838.629195
2973.062861,-8660.409521,1110.308913,1532.190996
2973.063199,-9474.636058,222.061783,1608.800546
2973.063536,-10584.944971,296.082377,1532.190996
2973.063874,-11399.171507,-444.123565,459.657299
2973.064211,-10955.047942,1258.350101,383.047749
2973.064548,-9844.739029,-444.123565,0.000000
2973.064886,-10436.903782,0.000000,1378.971896
2973.065223,-9400.615463,74.020594,0.000000
2973.065561,-9474.636058,-666.185348,-1225.752797
2973.065898,-10066.800811,-2146.597232,0.000000
2973.066236,-10807.006753,-888.247130,-1225.752797
2973.066573,-11621.233289,-2294.638420,-1149.143247
2973.066911,-9992.780217,-2294.638420,-1608.800546
2973.067248,-9030.512492,-2664.741391,0.000000
2973.067585,-8734.430116,-1554.432478,1762.019645
2973.067923,-10140.821405,-1184.329507,612.876398
2973.068260,-11177.109724,-962.267725,0.000000
2973.068598,-11399.171507,-1406.391290,0.000000
2973.068935,-10807.006753,-1850.514855,-306.438199
2973.069273,-10140.821405,-1776.494261,1608.800546
2973.069610,-9178.553681,-1110.308913,3447.429741
2973.069947,-8882.471304,296.082377,2681.334243
2973.070285,-10066.800811,74.020594,2221.676944
2973.070622,-10881.027347,1332.370696,1915.238745
2973.070960,-10436.903782,1554.432478,612.876398
2973.071297,-10584.944971,962.267725,0.000000
2973.071635,-9474.636058,444.123565,-919.314598
2973.071972,-8660.409521,1406.391290,459.657299
2973.072309,-7994.224174,1776.494261,1149.143247
2973.072647,-9178.553681,518.144159,0.000000
2973.072984,-10732.986159,962.267725,-306.438199
2973.073322,-11251.130318,-296.082377,-919.314598
2973.073659,-10214.842000,-444.123565,-1072.533697
2973.073997,-10140.821405,-1776.494261,153.219100
2973.074334,-9400.615463,-1702.473667,153.219100
2973.074672,-8438.347739,-888.247130,-766.095498
2973.075009,-9400.615463,-592.164754,-766.095498
2973.075346,-10658.965565,74.020594,-842.705048
2973.075684,-12213.398043,-1258.350101,-1225.752797
2973.076021,-11695.253884,-1258.350101,-1378.971896
2973.076359,-9770.718434,-1480.411884,76.609550
2973.076696,-9918.759623,-1332.370696,2068.457845
2973.077034,-8882.471304,-1184.329507,1838.629195
2973.077371,-9622.677246,-518.144159,1302.362347
2973.077708,-10807.006753,-814.226536,1455.581446
2973.078046,-11769.274478,-518.144159,536.266849
2973.078383,-11769.274478,-888.247130,612.876398
2973.078721,-10214.842000,-370.102971,229.828649
2973.079058,-8882.471304,-592.164754,536.266849
2973.079396,-8882.471304,222.061783,612.876398
2973.079733,-8808.450710,0.000000,0.000000
2973.080070,-9696.697840,0.000000,-459.657299
2973.080408,-10214.842000,-74.020594,-689.485948
2973.080745,-10214.842000,-148.041188,-1532.190996
2973.081083,-10362.883188,-370.102971,-536.266849
2973.081420,-9622.677246,-1184.329507,919.314598
2973.081758,-8438.347739,0.000000,612.876398
2973.082095,-8956.491898,148.041188,919.314598
2973.082433,-10732.986159,592.164754,1685.410096
2973.082770,-10881.027347,222.061783,306.438199
2973.083107,-10436.903782,370.102971,766.095498
2973.083445,-10510.924376,592.164754,2145.067394
2973.083782,-9770.718434,1036.288319,2604.724693
2973.084120,-9474.636058,2590.720797,1762.019645
2973.084457,-9326.594869,2368.659014,919.314598
2973.084795,-10658.965565,1702.473667,919.314598
2973.085132,-11547.212695,1628.453072,229.828649
2973.085469,-10955.047942,1776.494261,-689.485948
2973.085807,-9326.594869,0.000000,0.000000
2973.086144,-8956.491898,148.041188,689.485948
2973.086482,-8808.450710,0.000000,766.095498
2973.086819,-9548.656652,592.164754,-383.047749
2973.087157,-10140.821405,-888.247130,-383.047749
2973.087494,-10658.965565,-888.247130,-995.924147
2973.087831,-10436.903782,-1184.329507,-1532.190996
2973.088169,-9696.697840,-1998.556043,-1378.971896
2973.088506,-9326.594869,-2368.659014,153.219100
2973.088844,-9326.594869,-1850.514855,-306.438199
2973.089181,-9770.718434,-1776.494261,-689.485948
2973.089519,-11325.150913,-1776.494261,-536.266849
2973.089856,-10732.986159,-2072.576638,-995.924147
2973.090194,-10955.047942,-2664.741391,229.828649
2973.090531,-10584.944971,-1406.391290,612.876398
2973.090868,-9252.574275,-1702.473667,1762.019645
2973.091206,-9770.718434,-370.102971,1762.019645
2973.091543,-10066.800811,-518.144159,1225.752797
2973.091881,-11103.089130,0.000000,1838.629195
2973.092218,-11103.089130,0.000000,995.924147
2973.092556,-10881.027347,0.000000,1072.533697
2973.092893,-10658.965565,0.000000,1149.143247
2973.093230,-9474.636058,222.061783,995.924147
2973.093568,-8586.388927,666.185348,0.000000
2973.093905,-8882.471304,888.247130,-306.438199
2973.094243,-9696.697840,1036.288319,-919.314598
2973.094580,-9622.677246,370.102971,-1455.581446
2973.094918,-10214.842000,0.000000,-1685.410096
2973.095255,-9696.697840,-814.226536,-919.314598
2973.095592,-9622.677246,-370.102971,919.314598
2973.095930,-8734.430116,-296.082377,1608.800546
2973.096267,-8882.471304,0.000000,2145.067394
2973.096605,-10066.800811,370.102971,1915.238745
2973.096942,-11177.109724,-666.185348,842.705048
2973.097280,-10881.027347,-740.205942,459.657299
2973.097617,-9622.677246,-666.185348,536.266849
2973.097955,-9992.780217,74.020594,612.876398
2973.098292,-9770.718434,666.185348,612.876398
2973.098629,-8956.491898,592.164754,0.000000
2973.098967,-9548.656652,296.082377,612.876398
2973.099304,-10881.027347,592.164754,612.876398
2973.099642,-11473.192101,0.000000,0.000000
2973.099979,-11843.295072,-518.144159,76.609550
2973.100317,-10436.903782,-1110.308913,306.438199
2973.100654,-8734.430116,-444.123565,383.047749
2973.100991,-8882.471304,-814.226536,995.924147
2973.101329,-9622.677246,-962.267725,459.657299
2973.101666,-11177.109724,-1184.329507,-1455.581446
2973.102004,-11769.274478,-1480.411884,-2298.286494
2973.102341,-10658.965565,-2146.597232,-2298.286494
2973.102679,-9474.636058,-2738.761985,-536.266849
2973.103016,-8660.409521,-1702.473667,536.266849
2973.103353,-8882.471304,-2220.617826,612.876398
2973.103691,-9622.677246,-740.205942,1072.533697
2973.104028,-11177.109724,-1554.432478,536.266849
2973.104366,-11325.150913,-1628.453072,459.657299
2973.104703,-10955.047942,-962.267725,995.924147
2973.105041,-10955.047942,148.041188,2145.067394
2973.105378,-9548.656652,666.185348,1838.629195
2973.105716,-9400.615463,444.123565,1149.143247
2973.106053,-10436.903782,1332.370696,1455.581446
2973.106390,-10436.903782,1776.494261,229.828649
2973.106728,-10807.006753,1702.473667,0.000000
2973.107065,-10955.047942,1332.370696,0.000000
2973.107403,-9474.636058,1554.432478,-306.438199
2973.107740,-8882.471304,2516.700203,-536.266849
2973.108078,-8882.471304,1628.453072,-612.876398
2973.108415,-10066.800811,1406.391290,-536.266849
2973.108752,-11621.233289,666.185348,-766.095498
2973.109090,-10140.821405,0.000000,-689.485948
2973.109427,-9548.656652,-814.226536,-459.657299
2973.109765,-9326.594869,-1702.473667,153.219100
2973.110102,-9252.574275,-444.123565,229.828649
2973.110440,-9104.533087,-814.226536,0.000000
2973.110777,-9548.656652,-740.205942,76.609550
2973.111114,-10140.821405,-740.205942,-459.657299
2973.111452,-10658.965565,-740.205942,-383.047749
2973.111789,-9992.780217,-518.144159,306.438199
2973.112127,-9474.636058,-740.205942,229.828649
2973.112464,-10658.965565,222.061783,842.705048
2973.112802,-9992.780217,-222.061783,536.266849
2973.113139,-10066.800811,-740.205942,1532.190996
2973.113477,-10881.027347,-518.144159,1225.752797
2973.113814,-11177.109724,-370.102971,1455.581446
2973.114151,-10955.047942,-666.185348,1608.800546
2973.114489,-9992.780217,-666.185348,1302.362347
2973.114826,-9474.636058,74.020594,383.047749
2973.115164,-10288.862594,-222.061783,0.000000
2973.115501,-10658.965565,-296.082377,-612.876398
2973.115839,-10510.924376,-1332.370696,-842.705048
2973.116176,-9400.615463,-592.164754,-1532.190996
2973.116513,-8882.471304,-1406.391290,-383.047749
2973.116851,-10066.800811,-1702.473667,1302.362347
2973.117188,-9030.512492,-1480.411884,383.047749
2973.117526,-10362.883188,-1258.350101,842.705048
2973.117863,-11177.109724,-740.205942,1302.362347
2973.118201,-9844.739029,-740.205942,153.219100
2973.118538,-10140.821405,-962.267725,1302.362347
2973.118875,-9474.636058,-370.102971,2068.457845
2973.119213,-9104.533087,0.000000,2068.457845
2973.119550,-9474.636058,1258.350101,1455.581446
2973.119888,-10584.944971,592.164754,919.314598
2973.120225,-10807.006753,666.185348,995.924147
2973.120563,-11621.233289,1036.288319,995.924147
2973.120900,-10214.842000,222.061783,0.000000
2973.121238,-9400.615463,666.185348,536.266849
2973.121575,-9178.553681,0.000000,153.219100
2973.121912,-9400.615463,0.000000,-459.657299
2973.122250,-10288.862594,-444.123565,-1378.971896
2973.122587,-10436.903782,-444.123565,-1378.971896
2973.122925,-10658.965565,-740.205942,-2221.676944
2973.123262,-9696.697840,-1332.370696,-1685.410096
2973.123600,-8956.491898,-2146.597232,-1072.533697
2973.123937,-8882.471304,-3034.844362,0.000000
2973.124274,-9474.636058,-2072.576638,842.705048
2973.124612,-10214.842000,-2516.700203,689.485948
2973.124949,-11547.212695,-2368.659014,153.219100
2973.125287,-10807.006753,-1924.535449,-383.047749
2973.125624,-10955.047942,-1110.308913,229.828649
2973.125962,-10362.883188,-1850.514855,1455.581446
2973.126299,-9326.594869,-592.164754,1149.143247
2973.126636,-10214.842000,0.000000,919.314598
2973.126974,-9918.759623,0.000000,1302.362347
2973.127311,-10584.944971,814.226536,1302.362347
2973.127649,-11251.130318,1332.370696,1685.410096
2973.127986,-10955.047942,1998.556043,842.705048
2973.128324,-11103.089130,1924.535449,-612.876398
2973.128661,-9844.739029,666.185348,0.000000
2973.128998,-9252.574275,1480.411884,-153.219100
2973.129336,-9474.636058,444.123565,919.314598
2973.129673,-9770.718434,592.164754,1072.533697
2973.130011,-9844.739029,888.247130,-612.876398
2973.130348,-10436.903782,740.205942,-842.705048
2973.130686,-8808.450710,0.000000,-1072.533697
2973.131023,-7624.121203,-592.164754,0.000000
2973.131360,-8882.471304,518.144159,1302.362347
2973.131697,-10436.903782,0.000000,153.219100
2973.132035,-10732.986159,148.041188,-229.828649
2973.132372,-10658.965565,-296.082377,229.828649
2973.132709,-10066.800811,-592.164754,1302.362347
2973.133046,-9474.636058,-1480.411884,1915.238745
2973.133384,-9548.656652,-1184.329507,2451.505594
2973.133721,-9844.739029,962.267725,919.314598
2973.134058,-10584.944971,-148.041188,153.219100
2973.134395,-11103.089130,-296.082377,153.219100
2973.134733,-11177.109724,296.082377,229.828649
2973.135070,-11251.130318,814.226536,0.000000
2973.135407,-11029.068536,222.061783,306.438199
2973.135744,-9178.553681,-1036.288319,536.266849
2973.136082,-8586.388927,-888.247130,-919.314598
2973.136419,-10288.862594,-740.205942,-383.047749
2973.136756,-11177.109724,-1110.308913,0.000000
2973.137093,-10584.944971,-1850.514855,-1225.752797
2973.137431,-9992.780217,-1776.494261,-1072.533697
2973.137768,-10066.800811,-666.185348,-383.047749
2973.138105,-9622.677246,-2072.576638,-459.657299
2973.138442,-9548.656652,-1776.494261,153.219100
2973.138780,-9548.656652,-1554.432478,-842.705048
2973.139117,-9474.636058,-1184.329507,842.705048
2973.139454,-10807.006753,-888.247130,1149.143247
2973.139791,-10140.821405,-1110.308913,995.924147
2973.140129,-10214.842000,296.082377,1915.238745
2973.140466,-10658.965565,296.082377,2451.505594
2973.140803,-9918.759623,1850.514855,766.095498
2973.141140,-9918.759623,1184.329507,536.266849
2973.141478,-10362.883188,814.226536,995.924147
2973.141815,-9474.636058,1036.288319,995.924147
2973.142152,-9474.636058,2294.638420,689.485948
2973.142489,-9622.677246,1554.432478,842.705048
2973.142827,-10362.883188,1480.411884,229.828649
2973.143164,-9770.718434,1998.556043,-383.047749
2973.143501,-9326.594869,740.205942,-995.924147
2973.143838,-10436.903782,814.226536,76.609550
2973.144176,-9992.780217,-444.123565,-383.047749
2973.144513,-9400.615463,-666.185348,-995.924147
2973.144850,-9326.594869,-1258.350101,0.000000
2973.145187,-8808.450710,-1036.288319,0.000000
2973.145525,-10140.821405,-1184.329507,-459.657299
2973.145862,-10066.800811,-1924.535449,-1072.533697
2973.146199,-10288.862594,-1480.411884,-459.657299
2973.146536,-11029.068536,-2220.617826,229.828649
2973.146874,-9696.697840,-1776.494261,459.657299
2973.147211,-9844.739029,-1776.494261,2374.896044
2973.147548,-10658.965565,-1554.432478,2068.457845
2973.147885,-10140.821405,-888.247130,995.924147
2973.148223,-10362.883188,-1036.288319,536.266849
2973.148560,-10658.965565,-1406.391290,1149.143247
2973.148897,-10807.006753,-1110.308913,995.924147
2973.149234,-10807.006753,-444.123565,0.000000
2973.149572,-9548.656652,0.000000,0.000000
2973.149909,-9992.780217,-296.082377,229.828649
2973.150246,-9474.636058,-222.061783,-153.219100
2973.150583,-10066.800811,74.020594,-1225.752797
2973.150920,-10807.006753,74.020594,-1149.143247
2973.151258,-10362.883188,-962.267725,-1608.800546
2973.151595,-9474.636058,-370.102971,-1072.533697
2973.151932,-9474.636058,-370.102971,229.828649
2973.152269,-9400.615463,-592.164754,766.095498
2973.152607,-9770.718434,370.102971,0.000000
2973.152944,-10214.842000,-370.102971,76.609550
2973.153281,-11029.068536,-222.061783,689.485948
2973.153618,-9992.780217,-148.041188,-153.219100
2973.153956,-9770.718434,-370.102971,1149.143247
2973.154293,-9474.636058,518.144159,2681.334243
2973.154630,-9178.553681,814.226536,1762.019645
2973.154967,-9918.759623,2294.638420,689.485948
2973.155305,-10288.862594,1406.391290,-153.219100
2973.155642,-10955.047942,1702.473667,0.000000
2973.155979,-10732.986159,666.185348,383.047749
2973.156316,-10584.944971,1628.453072,689.485948
2973.156654,-10066.800811,518.144159,459.657299
2973.156991,-9400.615463,592.164754,612.876398
2973.157328,-8956.491898,592.164754,-229.828649
2973.157665,-9696.697840,-592.164754,-536.266849
2973.158003,-10362.883188,-592.164754,-306.438199
2973.158340,-10362.883188,-1036.288319,-1762.019645
2973.158677,-9770.718434,-666.185348,-2068.457845
2973.159014,-9178.553681,-1184.329507,-1225.752797
2973.159352,-9474.636058,-962.267725,-995.924147
2973.159689,-9474.636058,-740.205942,-612.876398
2973.160026,-10732.986159,-1702.473667,306.438199
2973.160363,-11103.089130,-2664.741391,383.047749
2973.160701,-10658.965565,-2442.679609,919.314598
2973.161038,-11103.089130,-1998.556043,2451.505594
2973.161375,-9548.656652,-962.267725,2681.334243
2973.161712,-9326.594869,-222.061783,2451.505594
2973.162050,-10214.842000,962.267725,1685.410096
2973.162387,-11251.130318,74.020594,612.876398
2973.162724,-11029.068536,370.102971,229.828649
2973.163061,-10288.862594,518.144159,229.828649
2973.163399,-9770.718434,222.061783,689.485948
2973.163736,-9400.615463,1554.432478,1532.190996
2973.164073,-9104.533087,1406.391290,689.485948
2973.164410,-9696.697840,1110.308913,-76.609550
2973.164748,-10140.821405,0.000000,0.000000
2973.165085,-10807.006753,74.020594,306.438199
2973.165422,-9844.739029,0.000000,-536.266849
2973.165759,-8586.388927,-1258.350101,-153.219100
2973.166097,-9252.574275,-370.102971,689.485948
2973.166434,-8882.471304,-296.082377,0.000000
2973.166771,-9770.718434,962.267725,0.000000
2973.167108,-10214.842000,-444.123565,0.000000
2973.167446,-9770.718434,-370.102971,-153.219100
2973.167783,-10732.986159,-1406.391290,-383.047749
2973.168120,-10362.883188,-814.226536,612.876398
2973.168457,-9474.636058,-1110.308913,1685.410096
2973.168795,-10066.800811,-666.185348,995.924147
2973.169132,-10140.821405,0.000000,766.095498
2973.169469,-11251.130318,0.000000,919.314598
2973.169806,-10955.047942,-592.164754,1302.362347
2973.170144,-10510.924376,-1036.288319,0.000000
2973.170481,-10288.862594,-814.226536,76.609550
2973.170818,-9252.574275,-666.185348,76.609550
2973.171155,-9474.636058,-1184.329507,0.000000
2973.171493,-9548.656652,-1110.308913,0.000000
2973.171830,-9548.656652,-1480.411884,-153.219100
2973.172167,-11399.171507,-814.226536,-383.047749
2973.172504,-11621.233289,-1184.329507,-1838.629195
2973.172842,-10436.903782,-1924.535449,-1378.971896
2973.173179,-9844.739029,-2072.576638,-76.609550
2973.173516,-8586.388927,-1554.432478,229.828649
2973.173853,-9252.574275,-888.247130,153.219100
2973.174191,-9474.636058,-1554.432478,-1149.143247
2973.174528,-10066.800811,-592.164754,-536.266849
2973.174865,-10732.986159,-370.102971,153.219100
2973.175202,-10436.903782,-370.102971,1302.362347
2973.175540,-10584.944971,148.041188,2451.505594
2973.175877,-10214.842000,666.185348,2834.553343
2973.176214,-9400.615463,1554.432478,2451.505594
2973.176551,-9918.759623,1184.329507,1685.410096
2973.176889,-10214.842000,1406.391290,1991.848295
2973.177226,-9474.636058,444.123565,536.266849
2973.177563,-9844.739029,1036.288319,459.657299
2973.177900,-9918.759623,2220.617826,306.438199
2973.178237,-9696.697840,2294.638420,-842.705048
2973.178575,-9178.553681,2516.700203,-1149.143247
2973.178912,-9252.574275,1406.391290,-1532.190996
2973.179249,-9548.656652,1850.514855,-1149.143247
2973.179586,-10066.800811,518.144159,-1608.800546
2973.179924,-10066.800811,-666.185348,-995.924147
2973.180261,-10066.800811,-1258.350101,0.000000
2973.180598,-10362.883188,-370.102971,536.266849
2973.180935,-9474.636058,-296.082377,766.095498
2973.181273,-9548.656652,-1258.350101,689.485948
2973.181610,-10881.027347,-888.247130,766.095498
2973.181947,-10732.986159,-1628.453072,-612.876398
2973.182284,-10510.924376,-1036.288319,612.876398
2973.182622,-11251.130318,-1480.411884,1762.019645
2973.182959,-10658.965565,-592.164754,1532.190996
2973.183296,-10066.800811,-74.020594,1302.362347
2973.183633,-9474.636058,-222.061783,1225.752797
2973.183971,-9622.677246,-1184.329507,1378.971896
2973.184308,-9918.759623,-1110.308913,919.314598
2973.184645,-10436.903782,-666.185348,919.314598
2973.184982,-11695.253884,-592.164754,1302.362347
2973.185320,-10881.027347,0.000000,383.047749
2973.185657,-9474.636058,962.267725,0.000000
2973.185994,-9622.677246,0.000000,536.266849
2973.186331,-9400.615463,370.102971,-995.924147
2973.186669,-9770.718434,-1110.308913,-1225.752797
2973.187006,-9548.656652,-1258.350101,-842.705048
2973.187343,-9474.636058,-518.144159,-612.876398
2973.187680,-10288.862594,-592.164754,383.047749
2973.188018,-9770.718434,1258.350101,-229.828649
2973.188355,-9400.615463,0.000000,-383.047749
2973.188692,-10066.800811,74.020594,766.095498
2973.189029,-9474.636058,-592.164754,536.266849
2973.189367,-10658.965565,-370.102971,1225.752797
2973.189704,-10436.903782,-370.102971,2298.286494
2973.190041,-9326.594869,666.185348,1838.629195
2973.190378,-9844.739029,1776.494261,2068.457845
2973.190716,-9918.759623,1110.308913,995.924147
2973.191053,-9696.697840,1776.494261,229.828649
2973.191390,-10214.842000,444.123565,-612.876398
2973.191727,-10288.862594,1258.350101,-459.657299
2973.192065,-10214.842000,1110.308913,-842.705048
2973.192402,-10140.821405,0.000000,-229.828649
2973.192739,-9474.636058,0.000000,-995.924147
2973.193076,-8734.430116,-1332.370696,-766.095498
2973.193414,-9326.594869,-1036.288319,153.219100
2973.193751,-10140.821405,-2220.617826,-536.266849
2973.194088,-10066.800811,-2442.679609,-1378.971896
2973.194425,-9844.739029,-3108.864956,-689.485948
2973.194763,-10584.944971,-2442.679609,229.828649
2973.195100,-10362.883188,-1776.494261,0.000000
2973.195437,-9770.718434,-1628.453072,-766.095498
2973.195774,-9696.697840,-3182.885551,-306.438199
2973.196112,-10807.006753,-2664.741391,0.000000
2973.196449,-10066.800811,-2442.679609,766.095498
2973.196786,-10362.883188,-1406.391290,1991.848295
2973.197123,-10807.006753,-1480.411884,2374.896044
2973.197461,-11177.109724,592.164754,2221.676944
2973.197798,-11103.089130,962.267725,1455.581446
2973.198135,-10955.047942,370.102971,919.314598
2973.198472,-11177.109724,0.000000,1072.533697
2973.198810,-11029.068536,444.123565,153.219100
2973.199147,-9622.677246,592.164754,689.485948
2973.199484,-9548.656652,740.205942,1378.971896
2973.199821,-9030.512492,1184.329507,-306.438199
2973.200159,-9474.636058,666.185348,-306.438199
2973.200496,-10288.862594,1258.350101,-612.876398
2973.200833,-9770.718434,148.041188,-1532.190996
2973.201170,-9474.636058,0.000000,-1225.752797
2973.201508,-8660.409521,-148.041188,76.609550
2973.201845,-8290.306550,-444.123565,919.314598
2973.202182,-8882.471304,1332.370696,612.876398
2973.202519,-9770.718434,0.000000,0.000000
2973.202857,-10140.821405,1036.288319,306.438199
2973.203194,-10881.027347,-444.123565,306.438199
2973.203531,-10955.047942,148.041188,76.609550
2973.203868,-9770.718434,-296.082377,919.314598
2973.204206,-10066.800811,0.000000,1685.410096
2973.204543,-9178.553681,518.144159,919.314598
2973.204880,-9030.512492,-370.102971,1072.533697
2973.205217,-10807.006753,666.185348,919.314598
2973.205555,-10881.027347,-74.020594,76.609550
2973.205892,-10881.027347,0.000000,76.609550
2973.206229,-10807.006753,222.061783,76.609550
2973.206566,-10807.006753,444.123565,229.828649
2973.206903,-9030.512492,814.226536,-612.876398
2973.207241,-9622.677246,0.000000,-1149.143247
2973.207578,-11251.130318,-592.164754,-689.485948
2973.207915,-11029.068536,-1184.329507,-2681.334243
2973.208252,-10436.903782,-2368.659014,-1532.190996
2973.208590,-9844.739029,-2516.700203,0.000000
2973.208927,-8882.471304,-1776.494261,536.266849
2973.209264,-9474.636058,-444.123565,842.705048
2973.209601,-10066.800811,-444.123565,612.876398
2973.209939,-10955.047942,-592.164754,536.266849
2973.210276,-10881.027347,-1184.329507,536.266849
2973.210613,-9992.780217,-1258.350101,1455.581446
2973.210950,-10066.800811,-888.247130,2221.676944
2973.211288,-9992.780217,0.000000,2528.115143
2973.211625,-8438.347739,592.164754,1915.238745
2973.211962,-9770.718434,1110.308913,2451.505594
2973.212299,-9770.718434,1702.473667,1838.629195
2973.212637,-10584.944971,888.247130,306.438199
2973.212974,-10881.027347,1184.329507,0.000000
2973.213311,-9844.739029,1184.329507,76.609550
2973.213648,-9474.636058,1554.432478,-229.828649
2973.213986,-9030.512492,1924.535449,0.000000
2973.214323,-9178.553681,962.267725,689.485948
2973.214660,-10362.883188,1258.350101,-306.438199
2973.214997,-10214.842000,740.205942,-1302.362347
2973.215335,-10807.006753,-370.102971,-612.876398
2973.215672,-10584.944971,-1776.494261,-689.485948
2973.216009,-10140.821405,-1998.556043,-612.876398
2973.216346,-9474.636058,0.000000,383.047749
2973.216684,-9030.512492,-1258.350101,0.000000
2973.217021,-9326.594869,-1184.329507,0.000000
2973.217358,-10658.965565,-1184.329507,-459.657299
2973.217695,-10584.944971,-1702.473667,0.000000
2973.218033,-11103.089130,-1850.514855,1072.533697
2973.218370,-10436.903782,-2072.576638,1378.971896
2973.218707,-9770.718434,-1184.329507,1608.800546
2973.219044,-9474.636058,-1258.350101,1762.019645
2973.219382,-10288.862594,-962.267725,1302.362347
2973.219719,-11177.109724,-1258.350101,0.000000
2973.220056,-10732.986159,-1258.350101,0.000000
2973.220393,-10066.800811,-1332.370696,153.219100
2973.220731,-9844.739029,-888.247130,-153.219100
2973.221068,-9400.615463,-888.247130,153.219100
2973.221405,-9696.697840,-1332.370696,-1072.533697
2973.221742,-9992.780217,-444.123565,-1225.752797
2973.222080,-9474.636058,-370.102971,-1762.019645
2973.222417,-10066.800811,-1628.453072,-842.705048
2973.222754,-10658.965565,-1924.535449,-76.609550
2973.223091,-10807.006753,-1184.329507,1225.752797
2973.223429,-10436.903782,74.020594,1149.143247
2973.223766,-10732.986159,-592.164754,1608.800546
2973.224103,-10436.903782,0.000000,1149.143247
2973.224440,-9178.553681,0.000000,0.000000
2973.224778,-8956.491898,0.000000,229.828649
2973.225115,-9030.512492,370.102971,842.705048
2973.225452,-9252.574275,962.267725,0.000000
2973.225789,-10066.800811,1628.453072,76.609550
2973.226127,-10140.821405,1702.473667,766.095498
2973.226464,-9770.718434,2368.659014,1149.143247
2973.226801,-9918.759623,1110.308913,1378.971896
2973.227138,-9844.739029,962.267725,1685.410096
2973.227476,-9918.759623,666.185348,1455.581446
2973.227813,-10584.944971,222.061783,536.266849
2973.228150,-9104.533087,0.000000,-76.609550
2973.228487,-9326.594869,-370.102971,-229.828649
2973.228825,-10066.800811,592.164754,-1302.362347
2973.229162,-10066.800811,666.185348,-2451.505594
2973.229499,-9918.759623,0.000000,-2528.115143
2973.229836,-9918.759623,-1036.288319,-1762.019645
2973.230174,-10584.944971,-1554.432478,-919.314598
2973.230511,-10436.903782,-444.123565,-842.705048
2973.230848,-10066.800811,-814.226536,0.000000
2973.231185,-10658.965565,-1332.370696,919.314598
2973.231523,-10362.883188,-1406.391290,766.095498
2973.231860,-10584.944971,-1480.411884,2068.457845
2973.232197,-10881.027347,-1702.473667,1915.238745
2973.232534,-10732.986159,-1258.350101,2068.457845
2973.232872,-10881.027347,-222.061783,1762.019645
2973.233209,-10362.883188,370.102971,1762.019645
2973.233546,-9918.759623,666.185348,766.095498
2973.233884,-10066.800811,74.020594,76.609550
2973.234221,-9474.636058,-148.041188,536.266849
2973.234558,-9326.594869,-74.020594,842.705048
2973.234895,-9696.697840,592.164754,766.095498
2973.235233,-9770.718434,-370.102971,1149.143247
2973.235570,-10807.006753,-222.061783,153.219100
2973.235907,-10066.800811,222.061783,0.000000
2973.236245,-9622.677246,888.247130,-919.314598
2973.236582,-9104.533087,-296.082377,0.000000
2973.236919,-9622.677246,-740.205942,536.266849
2973.237256,-9474.636058,-666.185348,0.000000
2973.237594,-9474.636058,444.123565,536.266849
2973.237931,-10140.821405,0.000000,995.924147
2973.238268,-10066.800811,296.082377,-229.828649
2973.238606,-10362.883188,-222.061783,689.485948
2973.238943,-9918.759623,74.020594,1149.143247
2973.239280,-9844.739029,-296.082377,689.485948
2973.239617,-11399.171507,0.000000,842.705048
2973.239955,-10436.903782,518.144159,383.047749
2973.240292,-9770.718434,-148.041188,0.000000
2973.240629,-9770.718434,148.041188,995.924147
2973.240967,-9474.636058,0.000000,536.266849
2973.241304,-9400.615463,-370.102971,306.438199
2973.241641,-10362.883188,-518.144159,689.485948
2973.241978,-10807.006753,222.061783,-842.705048
2973.242316,-10288.862594,0.000000,-919.314598
2973.242653,-10288.862594,-1258.350101,-1225.752797
2973.242990,-10214.842000,-888.247130,-919.314598
2973.243328,-9622.677246,-1628.453072,-1685.410096
2973.243665,-8956.491898,-1702.473667,-1378.971896
2973.244002,-10066.800811,-3108.864956,-153.219100
2973.244339,-10288.862594,-2886.803174,0.000000
2973.244677,-10066.800811,-2368.659014,-459.657299
2973.245014,-9918.759623,-1850.514855,306.438199
2973.245351,-8956.491898,-1332.370696,76.609550
2973.245689,-9178.553681,-1998.556043,1302.362347
2973.246026,-10288.862594,-1850.514855,2298.286494
2973.246363,-10362.883188,-592.164754,1378.971896
2973.246700,-11547.212695,-296.082377,1915.238745
2973.247038,-10658.965565,1110.308913,1225.752797
2973.247375,-10288.862594,888.247130,1762.019645
2973.247712,-11473.192101,1480.411884,2068.457845
2973.248050,-9992.780217,1110.308913,536.266849
2973.248387,-9622.677246,666.185348,1378.971896
2973.248724,-9844.739029,1110.308913,919.314598
2973.249062,-8734.430116,1628.453072,-306.438199
2973.249399,-10214.842000,1924.535449,-612.876398
2973.249736,-10658.965565,222.061783,-536.266849
2973.250073,-9770.718434,814.226536,-1149.143247
2973.250411,-9770.718434,148.041188,-995.924147
2973.250748,-8956.491898,-444.123565,-766.095498
2973.251085,-8734.430116,-1258.350101,-153.219100
2973.251423,-10436.903782,-1406.391290,0.000000
2973.251760,-9474.636058,-1110.308913,-459.657299
2973.252097,-9030.512492,-1480.411884,-612.876398
2973.252434,-10140.821405,-1554.432478,0.000000
2973.252772,-9622.677246,-1184.329507,-612.876398
2973.253109,-9400.615463,0.000000,0.000000
2973.253446,-9992.780217,0.000000,842.705048
2973.253784,-10732.986159,0.000000,689.485948
2973.254121,-10955.047942,0.000000,766.095498
2973.254458,-10807.006753,0.000000,1072.533697
2973.254795,-10584.944971,0.000000,1685.410096
2973.255133,-10658.965565,-222.061783,1072.533697
2973.255470,-11177.109724,0.000000,612.876398
2973.255807,-9844.739029,-592.164754,689.485948
2973.256145,-9548.656652,0.000000,0.000000
2973.256482,-9474.636058,0.000000,76.609550
2973.256819,-11251.130318,-222.061783,-689.485948
2973.257156,-10881.027347,-518.144159,-1762.019645
2973.257494,-10214.842000,0.000000,-1608.800546
2973.257831,-9696.697840,-592.164754,-383.047749
2973.258168,-9326.594869,-592.164754,536.266849
2973.258506,-9696.697840,-814.226536,766.095498
2973.258843,-9918.759623,-518.144159,612.876398
2973.259180,-9992.780217,-1258.350101,1072.533697
2973.259517,-10658.965565,-1110.308913,1915.238745
2973.259855,-10140.821405,-814.226536,1838.629195
2973.260192,-9326.594869,-222.061783,2145.067394
2973.260529,-9326.594869,962.267725,2451.505594
2973.260867,-9622.677246,740.205942,612.876398
2973.261204,-9622.677246,1480.411884,306.438199
2973.261541,-9696.697840,1258.350101,306.438199
2973.261878,-9844.739029,1332.370696,229.828649
2973.262216,-9844.739029,148.041188,689.485948
2973.262553,-9400.615463,518.144159,1762.019645
2973.262890,-9326.594869,666.185348,1915.238745
2973.263228,-10436.903782,444.123565,612.876398
2973.263565,-10214.842000,814.226536,-536.266849
2973.263902,-10584.944971,-148.041188,-842.705048
2973.264240,-10658.965565,370.102971,-689.485948
2973.264577,-10288.862594,148.041188,-1762.019645
2973.264914,-9918.759623,-296.082377,-1608.800546
2973.265251,-9770.718434,-1258.350101,-919.314598
2973.265589,-10066.800811,-666.185348,-1685.410096
2973.265926,-10658.965565,-1332.370696,-689.485948
2973.266263,-10881.027347,-1258.350101,-1149.143247
2973.266601,-10436.903782,-2368.659014,-306.438199
2973.266938,-10362.883188,-2294.638420,1302.362347
2973.267275,-10140.821405,-2368.659014,2911.162892
2973.267612,-10955.047942,-1998.556043,3677.258390
2973.267950,-10140.821405,-888.247130,2298.286494
2973.268287,-10362.883188,-666.185348,536.266849
2973.268624,-10510.924376,-888.247130,995.924147
2973.268962,-9992.780217,-592.164754,536.266849
2973.269299,-9474.636058,-592.164754,383.047749
2973.269636,-8734.430116,-814.226536,153.219100
2973.269973,-9178.553681,74.020594,536.266849
2973.270311,-9844.739029,-888.247130,229.828649
2973.270648,-9770.718434,148.041188,-689.485948
2973.270985,-9992.780217,0.000000,-689.485948
2973.271323,-10436.903782,-740.205942,-229.828649
2973.271660,-9474.636058,-370.102971,-383.047749
2973.271997,-9400.615463,-888.247130,0.000000
2973.272334,-9622.677246,0.000000,1302.362347
2973.272672,-9696.697840,0.000000,76.609550
2973.273009,-10214.842000,888.247130,153.219100
2973.273346,-11029.068536,444.123565,0.000000
2973.273684,-11177.109724,222.061783,-766.095498
2973.274021,-10584.944971,-296.082377,-536.266849
2973.274358,-9326.594869,0.000000,995.924147
2973.274695,-10140.821405,814.226536,1838.629195
2973.275033,-10436.903782,1924.535449,766.095498
2973.275370,-10288.862594,1184.329507,-229.828649
2973.275707,-10436.903782,-222.061783,-153.219100
2973.276045,-9622.677246,0.000000,-153.219100
2973.276382,-9326.594869,-444.123565,842.705048
2973.276719,-9104.533087,0.000000,1072.533697
2973.277056,-9104.533087,-296.082377,842.705048
2973.277394,-10066.800811,1184.329507,-612.876398
2973.277731,-10066.800811,296.082377,-1302.362347
2973.278068,-10510.924376,-1184.329507,-1072.533697
2973.278406,-10288.862594,-1924.535449,-459.657299
2973.278743,-9474.636058,-1776.494261,-1149.143247
2973.279080,-8734.430116,-1776.494261,229.828649
2973.279418,-9474.636058,-1776.494261,536.266849
2973.279755,-10288.862594,-814.226536,-306.438199
2973.280092,-11251.130318,-1184.329507,-689.485948
2973.280429,-11621.233289,-962.267725,-229.828649
2973.280767,-11029.068536,-1702.473667,842.705048
2973.281104,-10658.965565,-1258.350101,1455.581446
2973.281441,-9770.718434,-962.267725,1455.581446
2973.281779,-9992.780217,296.082377,2451.505594
2973.282116,-11029.068536,1036.288319,1915.238745
2973.282453,-10584.944971,888.247130,919.314598
2973.282790,-10955.047942,592.164754,1915.238745
2973.283128,-11325.150913,518.144159,1838.629195
2973.283465,-9844.739029,666.185348,229.828649
2973.283802,-9030.512492,962.267725,1532.190996
2973.284140,-8956.491898,518.144159,1378.971896
2973.284477,-9104.533087,518.144159,0.000000
2973.284814,-8734.430116,518.144159,-766.095498
2973.285151,-9326.594869,74.020594,-459.657299
2973.285489,-9622.677246,-518.144159,-1225.752797
2973.285826,-9474.636058,-666.185348,-995.924147
2973.286163,-9770.718434,0.000000,-689.485948
2973.286501,-9548.656652,-1258.350101,459.657299
2973.286838,-8882.471304,-370.102971,0.000000
2973.287175,-8734.430116,-370.102971,0.000000
2973.287512,-10288.862594,-666.185348,919.314598
2973.287850,-11473.192101,-1258.350101,0.000000
2973.288187,-10807.006753,-1850.514855,0.000000
2973.288524,-9770.718434,-962.267725,1608.800546
2973.288862,-9992.780217,-592.164754,2451.505594
2973.289199,-10732.986159,666.185348,1532.190996
2973.289536,-10510.924376,444.123565,0.000000
2973.289873,-11177.109724,0.000000,0.000000
2973.290211,-11029.068536,-296.082377,-153.219100
2973.290548,-10436.903782,0.000000,0.000000
2973.290885,-10362.883188,-962.267725,689.485948
2973.291223,-10510.924376,-1258.350101,1149.143247
2973.291560,-9622.677246,148.041188,76.609550
2973.291897,-9474.636058,-370.102971,-612.876398
2973.292234,-9474.636058,-888.247130,-689.485948
2973.292572,-9252.574275,-1850.514855,-1762.019645
2973.292909,-9548.656652,-1776.494261,-1225.752797
2973.293246,-9844.739029,-2146.597232,0.000000
2973.293584,-8956.491898,-1480.411884,0.000000
2973.293921,-9326.594869,74.020594,0.000000
2973.294258,-9326.594869,-888.247130,229.828649
2973.294596,-10140.821405,-666.185348,76.609550
2973.294933,-10881.027347,-1036.288319,76.609550
2973.295270,-10436.903782,-1554.432478,919.314598
2973.295607,-9918.759623,-740.205942,1685.410096
2973.295945,-10288.862594,592.164754,2604.724693
2973.296282,-9252.574275,2664.741391,1378.971896
2973.296619,-9548.656652,1924.535449,1072.533697
2973.296957,-11103.089130,1628.453072,1532.190996
2973.297294,-11473.192101,1628.453072,-842.705048
2973.297631,-10955.047942,666.185348,-459.657299
2973.297968,-10140.821405,888.247130,919.314598
2973.298306,-8956.491898,740.205942,919.314598
2973.298643,-9770.718434,1480.411884,1378.971896
2973.298980,-9326.594869,1332.370696,-229.828649
2973.299318,-10436.903782,518.144159,-919.314598
2973.299655,-10436.903782,222.061783,-1762.019645
2973.299992,-10584.944971,-444.123565,-1991.848295
2973.300329,-10140.821405,-962.267725,-1838.629195
2973.300667,-9400.615463,-1480.411884,-459.657299
2973.301004,-8586.388927,-888.247130,1072.533697
2973.301341,-9104.533087,-1554.432478,689.485948
2973.301679,-10214.842000,-592.164754,612.876398
2973.302016,-11177.109724,-1332.370696,153.219100
2973.302353,-11325.150913,-2294.638420,766.095498
2973.302690,-10955.047942,-2072.576638,1915.238745
2973.303028,-9252.574275,-1258.350101,2221.676944
2973.303365,-8882.471304,148.041188,2298.286494
2973.303702,-9622.677246,370.102971,919.314598
2973.304040,-10584.944971,74.020594,0.000000
2973.304377,-10362.883188,222.061783,0.000000
2973.304714,-10881.027347,296.082377,459.657299
2973.305051,-11029.068536,148.041188,1149.143247
2973.305389,-10214.842000,370.102971,842.705048
2973.305726,-10288.862594,1258.350101,459.657299
2973.306063,-10510.924376,814.226536,76.609550
2973.306401,-10362.883188,296.082377,-459.657299
2973.306738,-10362.883188,-1406.391290,-1302.362347
2973.307075,-9622.677246,-1480.411884,-383.047749
2973.307412,-9326.594869,-1184.329507,153.219100
2973.307750,-9844.739029,-1036.288319,459.657299
2973.308087,-9474.636058,148.041188,76.609550
2973.308424,-9400.615463,0.000000,459.657299
2973.308762,-9918.759623,74.020594,689.485948
2973.309099,-10658.965565,-444.123565,76.609550
2973.309436,-11473.192101,-1480.411884,1072.533697
2973.309774,-10584.944971,-1628.453072,1915.238745
2973.310111,-9400.615463,-444.123565,1991.848295
2973.310448,-9474.636058,814.226536,1762.019645
2973.310785,-9252.574275,222.061783,689.485948
2973.311123,-9474.636058,0.000000,536.266849
2973.311460,-10066.800811,370.102971,0.000000
2973.311797,-10066.800811,814.226536,-612.876398
2973.312135,-10066.800811,444.123565,-459.657299
2973.312472,-10140.821405,296.082377,-536.266849
2973.312809,-10362.883188,1036.288319,-612.876398
2973.313146,-9992.780217,296.082377,-919.314598
2973.313484,-10066.800811,-370.102971,-76.609550
2973.313821,-10362.883188,-1554.432478,0.000000
2973.314158,-9918.759623,-1776.494261,-766.095498
2973.314496,-10658.965565,-1406.391290,-919.314598
2973.314833,-10881.027347,-2146.597232,0.000000
2973.315170,-10214.842000,-1184.329507,-919.314598
2973.315507,-9622.677246,-666.185348,-1302.362347
2973.315845,-9548.656652,-296.082377,0.000000
2973.316182,-9548.656652,-1184.329507,-612.876398
2973.316519,-10881.027347,-1776.494261,919.314598
2973.316857,-10436.903782,-1184.329507,1072.533697
2973.317194,-9770.718434,-296.082377,1991.848295
2973.317531,-11103.089130,888.247130,3140.991542
2973.317868,-10658.965565,962.267725,1532.190996
2973.318206,-9252.574275,444.123565,1838.629195
2973.318543,-9474.636058,0.000000,1838.629195
2973.318880,-9030.512492,-296.082377,1455.581446
2973.319218,-9252.574275,0.000000,2068.457845
2973.319555,-9696.697840,1258.350101,1838.629195
2973.319892,-9548.656652,1406.391290,0.000000
2973.320229,-9548.656652,1184.329507,-1072.533697
2973.320567,-9918.759623,888.247130,-383.047749
2973.320904,-9178.553681,0.000000,-1455.581446
2973.321241,-8882.471304,-370.102971,-1302.362347
2973.321579,-9474.636058,-296.082377,306.438199
2973.321916,-10140.821405,-1332.370696,612.876398
2973.322253,-11399.171507,222.061783,919.314598
2973.322590,-11251.130318,-148.041188,536.266849
2973.322928,-10510.924376,-148.041188,-153.219100
2973.323265,-10140.821405,-1332.370696,-76.609550
2973.323602,-9770.718434,-1184.329507,383.047749
2973.323940,-9844.739029,-888.247130,1378.971896
2973.324277,-10955.047942,-370.102971,1532.190996
2973.324614,-11399.171507,1332.370696,459.657299
2973.324952,-10584.944971,1036.288319,306.438199
2973.325289,-10881.027347,740.205942,306.438199
2973.325626,-9548.656652,0.000000,0.000000
2973.325963,-9548.656652,-1036.288319,0.000000
2973.326301,-9400.615463,74.020594,-153.219100
2973.326638,-9844.739029,-888.247130,-76.609550
2973.326975,-8956.491898,222.061783,0.000000
2973.327313,-8438.347739,0.000000,-536.266849
2973.327650,-9548.656652,-444.123565,76.609550
2973.327987,-9474.636058,-740.205942,-1608.800546
2973.328324,-9252.574275,-1036.288319,-1685.410096
2973.328662,-10362.883188,-1184.329507,-919.314598
2973.328999,-8956.491898,-1110.308913,-766.095498
2973.329336,-10140.821405,-592.164754,919.314598
2973.329674,-10362.883188,-1406.391290,1455.581446
2973.330011,-9770.718434,-148.041188,1762.019645
2973.330348,-10510.924376,-666.185348,1532.190996
2973.330685,-10881.027347,-888.247130,1149.143247
2973.331023,-10881.027347,-592.164754,1378.971896
2973.331360,-10510.924376,0.000000,1302.362347
2973.331697,-9770.718434,888.247130,2298.286494
2973.332035,-9918.759623,1554.432478,1608.800546
2973.332372,-10807.006753,1406.391290,1532.190996
2973.332709,-10658.965565,740.205942,-383.047749
2973.333046,-10214.842000,74.020594,0.000000
2973.333384,-10066.800811,666.185348,536.266849
2973.333721,-9252.574275,-518.144159,76.609550
2973.334058,-9548.656652,0.000000,229.828649
2973.334396,-9178.553681,-740.205942,842.705048
2973.334733,-9548.656652,-888.247130,0.000000
2973.335070,-10362.883188,-1554.432478,-306.438199
2973.335408,-9548.656652,-1110.308913,-1149.143247
2973.335745,-9252.574275,-1850.514855,-229.828649
2973.336083,-9696.697840,-1628.453072,-995.924147
2973.336420,-9622.677246,-1406.391290,-536.266849
2973.336757,-9844.739029,-1776.494261,0.000000
2973.337095,-9844.739029,-1702.473667,229.828649
2973.337432,-10288.862594,-1480.411884,153.219100
2973.337769,-11029.068536,-1702.473667,229.828649
2973.338107,-10140.821405,-1184.329507,766.095498
2973.338444,-10288.862594,-444.123565,1685.410096
2973.338781,-11177.109724,1110.308913,1608.800546
2973.339119,-11029.068536,0.000000,995.924147
2973.339456,-11103.089130,666.185348,842.705048
2973.339793,-9992.780217,814.226536,306.438199
2973.340131,-9770.718434,814.226536,919.314598
2973.340468,-9622.677246,518.144159,383.047749
2973.340805,-9622.677246,0.000000,76.609550
2973.341143,-9992.780217,1184.329507,306.438199
2973.341480,-9252.574275,518.144159,-383.047749
2973.341817,-9992.780217,1332.370696,0.000000
2973.342155,-10584.944971,74.020594,-1072.533697
2973.342492,-10214.842000,-740.205942,-1149.143247
2973.342829,-8512.368333,-666.185348,-919.314598
2973.343167,-8438.347739,-1110.308913,612.876398
2973.343504,-8956.491898,0.000000,995.924147
2973.343841,-9548.656652,-1110.308913,612.876398
2973.344179,-10066.800811,592.164754,536.266849
2973.344516,-9844.739029,-444.123565,-459.657299
2973.344853,-10584.944971,148.041188,766.095498
2973.345191,-10288.862594,0.000000,1378.971896
2973.345528,-10214.842000,296.082377,689.485948
2973.345865,-9918.759623,296.082377,153.219100
2973.346203,-10658.965565,444.123565,0.000000
2973.346540,-10510.924376,-370.102971,1302.362347
2973.346877,-9622.677246,74.020594,383.047749
2973.347215,-9844.739029,0.000000,536.266849
2973.347552,-10807.006753,518.144159,153.219100
2973.347889,-10807.006753,-148.041188,-1378.971896
2973.348227,-10436.903782,222.061783,-1455.581446
2973.348564,-9474.636058,-1110.308913,-1225.752797
2973.348901,-10362.883188,-740.205942,306.438199
2973.349239,-9918.759623,-1184.329507,-459.657299
2973.349576,-10214.842000,-1258.350101,-1149.143247
2973.349913,-10807.006753,-1406.391290,-536.266849
2973.350251,-11103.089130,-2442.679609,-842.705048
2973.350588,-9770.718434,-740.205942,0.000000
2973.350925,-8956.491898,-1702.473667,689.485948
2973.351263,-9992.780217,-740.205942,1378.971896
2973.351600,-10584.944971,-666.185348,306.438199
2973.351937,-11029.068536,-888.247130,229.828649
2973.352275,-9622.677246,-666.185348,1225.752797
2973.352612,-9474.636058,-370.102971,2068.457845
2973.352949,-10658.965565,1332.370696,2681.334243
2973.353287,-11103.089130,518.144159,1915.238745
2973.353624,-9918.759623,888.247130,2145.067394
2973.353961,-9918.759623,666.185348,1685.410096
2973.354299,-9474.636058,1480.411884,1149.143247
2973.354636,-9474.636058,1776.494261,689.485948
2973.354973,-9474.636058,814.226536,-612.876398
2973.355311,-9178.553681,962.267725,-1302.362347
2973.355648,-8808.450710,1184.329507,-919.314598
2973.355985,-9548.656652,1406.391290,0.000000
2973.356323,-10066.800811,518.144159,-1225.752797
2973.356660,-10362.883188,0.000000,-1532.190996
2973.356998,-10436.903782,-296.082377,-766.095498
2973.357335,-9770.718434,-1480.411884,0.000000
2973.357672,-9770.718434,-1406.391290,766.095498
2973.358010,-9326.594869,-1924.535449,306.438199
2973.358347,-9696.697840,-1480.411884,689.485948
2973.358684,-10066.800811,-962.267725,76.609550
2973.359022,-11103.089130,-1110.308913,842.705048
2973.359359,-11251.130318,-888.247130,536.266849
2973.359696,-10362.883188,-1110.308913,153.219100
2973.360034,-9918.759623,-74.020594,919.314598
2973.360371,-10288.862594,-1184.329507,0.000000
2973.360708,-10658.965565,-1258.350101,1532.190996
2973.361046,-10732.986159,-1406.391290,1072.533697
2973.361383,-9992.780217,-592.164754,612.876398
2973.361720,-9548.656652,-296.082377,919.314598
2973.362058,-11103.089130,-1258.350101,0.000000
2973.362395,-10214.842000,-148.041188,-1302.362347
2973.362732,-9474.636058,-666.185348,-1915.238745
2973.363070,-9548.656652,-370.102971,0.000000
2973.363407,-9474.636058,-962.267725,-1225.752797
2973.363744,-9474.636058,-370.102971,-1915.238745
2973.364082,-10510.924376,-296.082377,-1302.362347
2973.364419,-10066.800811,-1554.432478,-1225.752797
2973.364756,-10584.944971,-1406.391290,689.485948
2973.365094,-9992.780217,-1480.411884,1685.410096
2973.365431,-9622.677246,-592.164754,2451.505594
2973.365768,-10214.842000,-666.185348,2068.457845
2973.366106,-10732.986159,148.041188,1991.848295
2973.366443,-9474.636058,592.164754,1378.971896
2973.366780,-10362.883188,814.226536,1302.362347
2973.367118,-9918.759623,1850.514855,919.314598
2973.367455,-9696.697840,1924.535449,383.047749
2973.367792,-10288.862594,2072.576638,1225.752797
2973.368130,-9844.739029,1776.494261,0.000000
2973.368467,-8956.491898,1850.514855,459.657299
2973.368804,-10140.821405,1998.556043,766.095498
2973.369142,-10214.842000,370.102971,-612.876398
2973.369479,-10140.821405,740.205942,-1225.752797
2973.369816,-9178.553681,0.000000,-1072.533697
2973.370154,-9252.574275,-592.164754,-612.876398
2973.370491,-9104.533087,0.000000,-689.485948
2973.370828,-8808.450710,-296.082377,-1225.752797
2973.371166,-9696.697840,-740.205942,-919.314598
2973.371503,-11251.130318,-1924.535449,-842.705048
2973.371840,-10658.965565,-1036.288319,-383.047749
2973.372178,-10658.965565,-1776.494261,-383.047749
2973.372515,-9844.739029,-1850.514855,459.657299
2973.372852,-9548.656652,-1628.453072,766.095498
2973.373190,-10288.862594,-1628.453072,1915.238745
2973.373527,-10658.965565,-1332.370696,1072.533697
2973.373864,-10510.924376,-1332.370696,1302.362347
2973.374202,-10288.862594,-74.020594,995.924147
2973.374539,-10732.986159,-1258.350101,229.828649
2973.374876,-10732.986159,0.000000,1685.410096
2973.375214,-9474.636058,0.000000,1378.971896
2973.375551,-8734.430116,592.164754,1072.533697
2973.375888,-10881.027347,444.123565,1838.629195
2973.376226,-11251.130318,962.267725,0.000000
2973.376563,-10584.944971,444.123565,-306.438199
2973.376900,-10066.800811,-740.205942,-459.657299
2973.377238,-9178.553681,0.000000,76.609550
2973.377575,-9918.759623,296.082377,459.657299
2973.377913,-9252.574275,0.000000,383.047749
2973.378250,-9474.636058,0.000000,306.438199
2973.378587,-10066.800811,-370.102971,306.438199
2973.378925,-10510.924376,222.061783,0.000000
2973.379262,-9548.656652,0.000000,-306.438199
2973.379599,-9696.697840,148.041188,1149.143247
2973.379937,-9474.636058,0.000000,383.047749
2973.380274,-10436.903782,-296.082377,1378.971896
2973.380611,-9992.780217,0.000000,2298.286494
2973.380949,-9622.677246,-1258.350101,995.924147
2973.381286,-9622.677246,666.185348,1378.971896
2973.381623,-9622.677246,148.041188,76.609550
2973.381961,-10732.986159,-444.123565,306.438199
2973.382298,-9918.759623,-666.185348,0.000000
2973.382635,-10214.842000,-666.185348,536.266849
2973.382973,-9474.636058,666.185348,919.314598
2973.383310,-10362.883188,-666.185348,306.438199
2973.383647,-10658.965565,-296.082377,-842.705048
2973.383985,-10214.842000,-1924.535449,-2221.676944
2973.384322,-10214.842000,-1184.329507,-766.095498
2973.384659,-9252.574275,-1110.308913,-1378.971896
2973.384997,-9400.615463,-1628.453072,-1762.019645
2973.385334,-10732.986159,-1850.514855,-1455.581446
2973.385671,-10955.047942,-2072.576638,-1302.362347
2973.386009,-10732.986159,-1258.350101,-612.876398
2973.386346,-9770.718434,-1110.308913,229.828649
2973.386683,-10732.986159,-1184.329507,995.924147
2973.387021,-10658.965565,-1036.288319,153.219100
2973.387358,-9844.739029,-666.185348,383.047749
2973.387695,-9770.718434,-592.164754,2987.772442
2973.388033,-9844.739029,0.000000,2757.943793
2973.388370,-9622.677246,1184.329507,1149.143247
2973.388707,-10658.965565,888.247130,76.609550
2973.389045,-10362.883188,1554.432478,689.485948
2973.389382,-10140.821405,1480.411884,1072.533697
2973.389719,-10362.883188,1258.350101,1838.629195
2973.390057,-10066.800811,1850.514855,1455.581446
2973.390394,-9548.656652,1480.411884,995.924147
2973.390731,-8660.409521,962.267725,0.000000
2973.391069,-8438.347739,74.020594,536.266849
2973.391406,-9918.759623,0.000000,229.828649
2973.391743,-9622.677246,296.082377,-766.095498
2973.392081,-9770.718434,592.164754,-1608.800546
2973.392418,-9770.718434,814.226536,-459.657299
2973.392755,-9548.656652,518.144159,-1149.143247
2973.393093,-10140.821405,148.041188,0.000000
2973.393430,-10140.821405,-2072.576638,-842.705048
2973.393767,-9252.574275,-1924.535449,0.000000
2973.394105,-9326.594869,-1480.411884,842.705048
2973.394442,-10658.965565,-1480.411884,2221.676944
2973.394779,-11251.130318,-666.185348,2298.286494
2973.395117,-11251.130318,-148.041188,842.705048
2973.395454,-10732.986159,518.144159,536.266849
2973.395791,-10140.821405,-962.267725,842.705048
2973.396129,-11251.130318,-444.123565,612.876398
2973.396466,-10288.862594,-1184.329507,229.828649
2973.396803,-10510.924376,-666.185348,0.000000
2973.397141,-9992.780217,74.020594,-306.438199
2973.397478,-10140.821405,-518.144159,-842.705048
2973.397815,-10066.800811,-370.102971,-766.095498
2973.398153,-9622.677246,-1776.494261,-919.314598
2973.398490,-9622.677246,-1480.411884,76.609550
2973.398828,-10288.862594,-1110.308913,-1225.752797
2973.399165,-9696.697840,-1480.411884,-689.485948
2973.399502,-9474.636058,-962.267725,229.828649
2973.399840,-9104.533087,-1628.453072,689.485948
2973.400177,-10288.862594,-518.144159,1532.190996
2973.400514,-10140.821405,0.000000,842.705048
2973.400852,-10510.924376,-148.041188,995.924147
2973.401189,-11251.130318,-296.082377,1149.143247
2973.401526,-10955.047942,222.061783,1225.752797
2973.401864,-9622.677246,814.226536,2451.505594
2973.402201,-10066.800811,1332.370696,2374.896044
2973.402538,-9400.615463,1924.535449,1455.581446
2973.402876,-9770.718434,1776.494261,612.876398
2973.403213,-10584.944971,1480.411884,1685.410096
2973.403550,-10510.924376,518.144159,153.219100
2973.403888,-10140.821405,1110.308913,689.485948
2973.404225,-9844.739029,1258.350101,1302.362347
2973.404562,-9326.594869,740.205942,459.657299
2973.404900,-8586.388927,740.205942,-229.828649
2973.405237,-9030.512492,-740.205942,-612.876398
2973.405574,-9622.677246,-962.267725,-1072.533697
2973.405912,-9252.574275,-1776.494261,-1532.190996
2973.406249,-9548.656652,-2368.659014,-1455.581446
2973.406586,-10288.862594,-1480.411884,-995.924147
2973.406924,-9252.574275,-1628.453072,-1149.143247
2973.407261,-9326.594869,-518.144159,0.000000
2973.407598,-10288.862594,-1628.453072,-536.266849
2973.407936,-11547.212695,-2146.597232,-1072.533697
2973.408273,-10214.842000,-2368.659014,-919.314598
2973.408610,-10658.965565,-2590.720797,383.047749
2973.408948,-10214.842000,-1628.453072,1685.410096
2973.409285,-10881.027347,-1850.514855,1455.581446
2973.409622,-9844.739029,-592.164754,995.924147
2973.409960,-10584.944971,-592.164754,1149.143247
2973.410297,-10732.986159,-444.123565,306.438199
2973.410634,-10288.862594,-518.144159,229.828649
2973.410972,-10955.047942,370.102971,1225.752797
2973.411309,-10436.903782,888.247130,766.095498
2973.411646,-10288.862594,888.247130,-612.876398
2973.411984,-10214.842000,1110.308913,-766.095498
2973.412321,-9548.656652,-74.020594,-689.485948
2973.412658,-9622.677246,370.102971,-766.095498
2973.412996,-9548.656652,222.061783,-1225.752797
2973.413333,-10510.924376,-1406.391290,-306.438199
2973.413670,-8660.409521,148.041188,1072.533697
2973.414008,-9400.615463,370.102971,1225.752797
2973.414345,-9918.759623,1258.350101,1378.971896
2973.414682,-9474.636058,518.144159,0.000000
2973.415020,-9992.780217,1702.473667,229.828649
2973.415357,-11325.150913,222.061783,689.485948
2973.415694,-9696.697840,222.061783,1149.143247
2973.416032,-9844.739029,1036.288319,2298.286494
2973.416369,-10140.821405,814.226536,2221.676944
2973.416706,-9844.739029,1184.329507,536.266849
2973.417044,-10214.842000,1406.391290,0.000000
2973.417381,-9474.636058,888.247130,0.000000
2973.417718,-10362.883188,-666.185348,306.438199
2973.418056,-10510.924376,-148.041188,0.000000
2973.418393,-9622.677246,814.226536,306.438199
2973.418730,-9844.739029,444.123565,612.876398
2973.419068,-10140.821405,370.102971,229.828649
2973.419405,-10881.027347,-444.123565,0.000000
2973.419743,-11473.192101,-888.247130,-766.095498
2973.420080,-9918.759623,-1998.556043,-1608.800546
2973.420417,-9918.759623,-2442.679609,-536.266849
2973.420755,-9770.718434,-1998.556043,-689.485948
2973.421092,-9622.677246,-2368.659014,-1378.971896
2973.421429,-9474.636058,-1184.329507,-1302.362347
2973.421767,-9400.615463,-1850.514855,-689.485948
2973.422104,-10881.027347,-1554.432478,-153.219100
2973.422441,-10140.821405,-1628.453072,-229.828649
2973.422779,-10288.862594,-962.267725,1149.143247
2973.423116,-10658.965565,-740.205942,3447.429741
2973.423453,-10658.965565,-962.267725,2757.943793
2973.423791,-10510.924376,148.041188,4136.915689
2973.424128,-10732.986159,148.041188,3064.381992
2973.424465,-10510.924376,518.144159,2221.676944
2973.424803,-10066.800811,518.144159,612.876398
2973.425140,-10140.821405,74.020594,1532.190996
2973.425477,-9474.636058,888.247130,229.828649
2973.425815,-9770.718434,1480.411884,-766.095498
2973.426152,-8956.491898,2294.638420,-1225.752797
2973.426489,-8808.450710,1036.288319,-1378.971896
2973.426827,-10066.800811,1332.370696,-689.485948
2973.427164,-9622.677246,666.185348,-2681.334243
2973.427501,-9696.697840,-444.123565,-1455.581446
2973.427839,-10436.903782,-666.185348,766.095498
2973.428176,-9844.739029,-1554.432478,76.609550
2973.428513,-9548.656652,-444.123565,919.314598
2973.428851,-9400.615463,-740.205942,1608.800546
2973.429188,-10066.800811,-1628.453072,1302.362347
2973.429525,-10955.047942,-1406.391290,383.047749
2973.429863,-11177.109724,-1554.432478,995.924147
2973.430200,-10140.821405,-518.144159,1302.362347
2973.430537,-10510.924376,-444.123565,766.095498
2973.430875,-10732.986159,888.247130,0.000000
2973.431212,-10510.924376,740.205942,-459.657299
2973.431549,-9400.615463,-592.164754,383.047749
2973.431886,-8512.368333,-1998.556043,995.924147
2973.432224,-10658.965565,-1998.556043,229.828649
2973.432561,-10658.965565,-370.102971,-1302.362347
2973.432898,-10140.821405,148.041188,-1302.362347
2973.433235,-8956.491898,148.041188,-229.828649
2973.433573,-10881.027347,-666.185348,-383.047749
2973.433910,-10510.924376,-518.144159,-842.705048
2973.434247,-9030.512492,-888.247130,-1072.533697
2973.434584,-10288.862594,-592.164754,766.095498
2973.434922,-11177.109724,-1332.370696,1378.971896
2973.435259,-11325.150913,-1850.514855,0.000000
2973.435596,-10510.924376,0.000000,0.000000
2973.435933,-9696.697840,-1036.288319,766.095498
2973.436271,-8956.491898,-222.061783,1302.362347
2973.436608,-9326.594869,-814.226536,1225.752797
2973.436945,-10436.903782,-740.205942,919.314598
2973.437282,-10066.800811,0.000000,536.266849
2973.437619,-10214.842000,1850.514855,1302.362347
2973.437957,-9696.697840,2220.617826,1455.581446
2973.438294,-9474.636058,2368.659014,612.876398
2973.438631,-9622.677246,1554.432478,995.924147
2973.438968,-9918.759623,666.185348,842.705048
2973.439306,-9548.656652,0.000000,1378.971896
2973.439643,-9844.739029,814.226536,1991.848295
2973.439980,-9844.739029,1110.308913,153.219100
2973.440317,-9770.718434,1924.535449,-689.485948
2973.440655,-9696.697840,1036.288319,-842.705048
2973.440992,-9844.739029,0.000000,-1991.848295
2973.441329,-9770.718434,-296.082377,-2834.553343
2973.441666,-9326.594869,-1480.411884,-2451.505594
2973.442004,-9252.574275,-1480.411884,-612.876398
2973.442341,-9622.677246,-2368.659014,76.609550
2973.442678,-10214.842000,-518.144159,536.266849
2973.443015,-10584.944971,-1258.350101,0.000000
2973.443353,-10881.027347,-1776.494261,153.219100
2973.443690,-10510.924376,-1480.411884,0.000000
2973.444027,-10955.047942,-1998.556043,229.828649
2973.444364,-11325.150913,-1924.535449,1991.848295
2973.444702,-10584.944971,-1036.288319,1225.752797
2973.445039,-10214.842000,0.000000,689.485948
2973.445376,-9474.636058,296.082377,842.705048
2973.445713,-9548.656652,0.000000,842.705048
2973.446050,-10658.965565,-666.185348,536.266849
2973.446388,-9992.780217,-518.144159,76.609550
2973.446725,-9992.780217,0.000000,766.095498
2973.447062,-10140.821405,296.082377,459.657299
2973.447399,-9844.739029,888.247130,536.266849
2973.447737,-10066.800811,370.102971,229.828649
2973.448074,-9548.656652,148.041188,-995.924147
2973.448411,-9326.594869,-666.185348,-1302.362347
2973.448748,-10362.883188,-962.267725,-306.438199
2973.449086,-8660.409521,-1184.329507,0.000000
2973.449423,-9474.636058,-592.164754,1149.143247
2973.449760,-10140.821405,518.144159,1608.800546
2973.450097,-9770.718434,518.144159,1149.143247
2973.450435,-11029.068536,370.102971,2145.067394
2973.450772,-9474.636058,-666.185348,459.657299
2973.451109,-9918.759623,0.000000,1302.362347
2973.451446,-10732.986159,74.020594,1532.190996
2973.451784,-10658.965565,0.000000,1608.800546
2973.452121,-9918.759623,1036.288319,1762.019645
2973.452458,-10066.800811,296.082377,842.705048
2973.452795,-9992.780217,370.102971,459.657299
2973.453133,-9992.780217,-518.144159,766.095498
2973.453470,-10214.842000,-518.144159,0.000000
2973.453807,-10066.800811,-666.185348,0.000000
2973.454144,-9548.656652,74.020594,-459.657299
2973.454481,-9474.636058,-296.082377,-536.266849
2973.454819,-10214.842000,-444.123565,-76.609550
2973.455156,-9918.759623,-370.102971,-842.705048
2973.455493,-9622.677246,-1110.308913,-1532.190996
2973.455830,-11177.109724,-2812.782580,-689.485948
2973.456168,-10214.842000,-1924.535449,-1072.533697
2973.456505,-9548.656652,-2220.617826,-995.924147
2973.456842,-9252.574275,-888.247130,-459.657299
2973.457179,-9548.656652,-1628.453072,306.438199
2973.457517,-10288.862594,-1184.329507,306.438199
2973.457854,-9474.636058,-1628.453072,0.000000
2973.458191,-10732.986159,-1184.329507,1608.800546
2973.458528,-11251.130318,74.020594,2298.286494
2973.458866,-11251.130318,370.102971,1225.752797
2973.459203,-10658.965565,962.267725,1762.019645
2973.459540,-9844.739029,740.205942,1762.019645
2973.459877,-9622.677246,1332.370696,919.314598
2973.460215,-9474.636058,296.082377,536.266849
2973.460552,-9548.656652,592.164754,536.266849
2973.460889,-9326.594869,1184.329507,-76.609550
2973.461226,-9844.739029,1628.453072,-766.095498
2973.461564,-9770.718434,1258.350101,-383.047749
2973.461901,-9696.697840,1406.391290,-383.047749
2973.462238,-9252.574275,1998.556043,-306.438199
2973.462575,-9178.553681,814.226536,-1378.971896
2973.462912,-9844.739029,0.000000,76.609550
2973.463250,-10881.027347,-740.205942,459.657299
2973.463587,-10288.862594,-962.267725,-383.047749
2973.463924,-9844.739029,0.000000,459.657299
2973.464261,-9770.718434,-222.061783,536.266849
2973.464599,-9844.739029,0.000000,-536.266849
2973.464936,-9474.636058,-962.267725,-383.047749
2973.465273,-10288.862594,-1258.350101,1302.362347
2973.465610,-11177.109724,-666.185348,1455.581446
2973.465948,-11473.192101,0.000000,689.485948
2973.466285,-10584.944971,888.247130,1149.143247
2973.466622,-10140.821405,-444.123565,1455.581446
2973.466959,-9918.759623,-592.164754,1762.019645
2973.467297,-9770.718434,-370.102971,766.095498
2973.467634,-10140.821405,-1258.350101,1225.752797
2973.467971,-9548.656652,-1036.288319,383.047749
2973.468308,-10955.047942,-666.185348,-383.047749
2973.468646,-9548.656652,74.020594,-1455.581446
2973.468983,-9030.512492,-740.205942,-1532.190996
2973.469320,-9622.677246,-740.205942,-1072.533697
2973.469657,-9178.553681,-444.123565,-2298.286494
2973.469995,-9548.656652,-1332.370696,-766.095498
2973.470332,-10436.903782,-1924.535449,842.705048
2973.470669,-9992.780217,-1184.329507,612.876398
2973.471006,-9992.780217,-370.102971,1149.143247
2973.471343,-10881.027347,-666.185348,842.705048
2973.471681,-9696.697840,0.000000,1225.752797
2973.472018,-9844.739029,-814.226536,1072.533697
2973.472355,-10584.944971,-370.102971,1455.581446
2973.472692,-10288.862594,518.144159,1532.190996
2973.473030,-10214.842000,740.205942,919.314598
2973.473367,-10214.842000,1406.391290,1532.190996
2973.473704,-10436.903782,2220.617826,995.924147
2973.474041,-10140.821405,1406.391290,1072.533697
2973.474379,-9918.759623,666.185348,842.705048
2973.474716,-9326.594869,962.267725,0.000000
2973.475053,-9178.553681,296.082377,0.000000
2973.475390,-11399.171507,444.123565,-1225.752797
2973.475728,-10658.965565,222.061783,-2451.505594
2973.476065,-8882.471304,-370.102971,-1072.533697
2973.476402,-8808.450710,-888.247130,229.828649
2973.476739,-8956.491898,-1628.453072,-766.095498
2973.477077,-9474.636058,-2072.576638,-766.095498
2973.477414,-9770.718434,-1924.535449,-1685.410096
2973.477751,-10436.903782,-2368.659014,536.266849
2973.478088,-11325.150913,-962.267725,-153.219100
2973.478426,-9252.574275,-1332.370696,-1302.362347
2973.478763,-10436.903782,-1480.411884,0.000000
2973.479100,-9178.553681,-2294.638420,306.438199
2973.479437,-9548.656652,-2664.741391,1302.362347
2973.479774,-11251.130318,-1406.391290,1838.629195
2973.480112,-11251.130318,-222.061783,995.924147
2973.480449,-11177.109724,370.102971,229.828649
2973.480786,-11251.130318,-296.082377,1302.362347
2973.481123,-11399.171507,592.164754,2451.505594
2973.481461,-10214.842000,296.082377,995.924147
2973.481798,-9696.697840,592.164754,306.438199
2973.482135,-9474.636058,888.247130,459.657299
2973.482472,-10807.006753,296.082377,306.438199
2973.482810,-10955.047942,1480.411884,0.000000
2973.483147,-10066.800811,518.144159,-689.485948
2973.483484,-9696.697840,740.205942,-689.485948
2973.483821,-8956.491898,148.041188,-689.485948
2973.484159,-9400.615463,-370.102971,-76.609550
2973.484496,-8956.491898,-666.185348,0.000000
2973.484833,-8734.430116,-518.144159,0.000000
2973.485170,-9474.636058,444.123565,383.047749
2973.485508,-9992.780217,222.061783,1302.362347
2973.485845,-9548.656652,148.041188,1302.362347
2973.486182,-9400.615463,0.000000,1149.143247
2973.486519,-9474.636058,0.000000,1838.629195
2973.486857,-9918.759623,518.144159,2374.896044
2973.487194,-11325.150913,592.164754,1302.362347
2973.487531,-10658.965565,740.205942,0.000000
2973.487868,-9770.718434,370.102971,-76.609550
2973.488205,-10140.821405,222.061783,536.266849
2973.488543,-9474.636058,592.164754,459.657299
2973.488880,-9918.759623,-222.061783,76.609550
2973.489217,-10436.903782,1332.370696,-995.924147
2973.489554,-10214.842000,814.226536,-1608.800546
2973.489892,-11325.150913,222.061783,-612.876398
2973.490229,-11399.171507,-962.267725,-689.485948
2973.490566,-10732.986159,-814.226536,-1532.190996
2973.490903,-9770.718434,-1110.308913,-1149.143247
2973.491241,-9178.553681,-2072.576638,-229.828649
2973.491578,-9844.739029,-2072.576638,229.828649
2973.491915,-10955.047942,-2294.638420,-459.657299
2973.492252,-10362.883188,-2294.638420,-1149.143247
2973.492590,-10584.944971,-2442.679609,-229.828649
2973.492927,-9474.636058,-1776.494261,689.485948
2973.493264,-8586.388927,-2664.741391,1455.581446
2973.493601,-8734.430116,-1776.494261,2528.115143
2973.493939,-10214.842000,-1110.308913,2451.505594
2973.494276,-11177.109724,-370.102971,995.924147
2973.494613,-10658.965565,740.205942,1072.533697
2973.494950,-11029.068536,74.020594,1991.848295
2973.495288,-10140.821405,74.020594,1225.752797
2973.495625,-9178.553681,666.185348,842.705048
2973.495962,-9844.739029,740.205942,1149.143247
2973.496299,-8586.388927,1554.432478,459.657299
2973.496636,-10140.821405,1184.329507,-76.609550
2973.496974,-10214.842000,1036.288319,0.000000
2973.497311,-10732.986159,148.041188,0.000000
2973.497648,-11029.068536,814.226536,536.266849
2973.497985,-10214.842000,814.226536,-689.485948
2973.498323,-9474.636058,370.102971,-612.876398
2973.498660,-9696.697840,-740.205942,153.219100
2973.498997,-9622.677246,-1184.329507,-612.876398
2973.499334,-10436.903782,-370.102971,-459.657299
2973.499672,-10955.047942,-1406.391290,-229.828649
2973.500009,-9844.739029,-1110.308913,-689.485948
2973.500346,-9400.615463,-1554.432478,229.828649
2973.500683,-9474.636058,-1702.473667,1608.800546
2973.501021,-9918.759623,-222.061783,1378.971896
2973.501358,-10288.862594,-592.164754,76.609550
2973.501695,-10658.965565,-962.267725,306.438199
2973.502032,-10658.965565,-1628.453072,612.876398
2973.502370,-9400.615463,-444.123565,1072.533697
2973.502707,-9770.718434,-666.185348,1225.752797
2973.503044,-10658.965565,-1258.350101,689.485948
2973.503381,-10066.800811,-518.144159,0.000000
2973.503719,-9474.636058,222.061783,-689.485948
2973.504056,-9400.615463,-518.144159,-1149.143247
2973.504393,-10214.842000,-666.185348,-842.705048
2973.504730,-10955.047942,-666.185348,-1532.190996
