#time,accel_x,accel_y,accel_z
3275.301975,-9548.656652,-1850.514855,2451.505594
3275.302313,-9844.739029,-1184.329507,1838.629195
3275.302651,-9992.780217,0.000000,1838.629195
3275.302989,-9992.780217,296.082377,2068.457845
3275.303328,-10066.800811,-148.041188,1838.629195
3275.303666,-10066.800811,-592.164754,1685.410096
3275.304004,-9548.656652,-222.061783,1455.581446
3275.304342,-9770.718434,-592.164754,1302.362347
3275.304680,-9548.656652,-740.205942,612.876398
3275.305018,-9252.574275,-1258.350101,1072.533697
3275.305356,-8956.491898,-1258.350101,689.485948
3275.305694,-9104.533087,-1258.350101,919.314598
3275.306032,-9844.739029,-666.185348,1685.410096
3275.306370,-9770.718434,-962.267725,1762.019645
3275.306708,-9918.759623,-444.123565,1991.848295
3275.307047,-9696.697840,0.000000,2451.505594
3275.307385,-10584.944971,-370.102971,3677.258390
3275.307723,-10658.965565,-666.185348,3524.039291
3275.308061,-11103.089130,-1036.288319,4213.525239
3275.308399,-10362.883188,0.000000,3753.867940
3275.308737,-11325.150913,-1332.370696,4060.306139
3275.309075,-11473.192101,-1628.453072,3907.087040
3275.309413,-10140.821405,-2294.638420,2757.943793
3275.309751,-10288.862594,-1184.329507,2911.162892
3275.310089,-10066.800811,-1480.411884,2221.676944
3275.310428,-9326.594869,-2886.803174,766.095498
3275.310766,-9474.636058,-2516.700203,1072.533697
3275.311104,-9474.636058,-2960.823768,2528.115143
3275.311442,-9622.677246,-2960.823768,1991.848295
3275.311780,-9548.656652,-4071.132681,2068.457845
3275.312118,-10140.821405,-4219.173869,2757.943793
3275.312456,-9918.759623,-4515.256246,2911.162892
3275.312794,-10436.903782,-4737.318029,3370.820191
3275.313132,-10140.821405,-4959.379811,3370.820191
3275.313470,-10066.800811,-4737.318029,2911.162892
3275.313809,-9696.697840,-5107.421000,4596.572988
3275.314147,-9622.677246,-5255.462188,3830.477490
3275.314485,-10066.800811,-5033.400406,5362.668486
3275.314823,-10732.986159,-3849.070898,5132.839837
3275.315161,-9918.759623,-2960.823768,3064.381992
3275.315499,-10362.883188,-1776.494261,2911.162892
3275.315837,-10584.944971,-2442.679609,2681.334243
3275.316175,-9400.615463,-3404.947333,3370.820191
3275.316513,-9548.656652,-2738.761985,3907.087040
3275.316851,-10066.800811,-2220.617826,3140.991542
3275.317189,-10881.027347,-1702.473667,1838.629195
3275.317528,-10584.944971,-2886.803174,919.314598
3275.317866,-9030.512492,-3034.844362,2145.067394
3275.318204,-8956.491898,-3552.988522,2911.162892
3275.318542,-9844.739029,-3034.844362,2987.772442
3275.318880,-10288.862594,-2072.576638,459.657299
3275.319218,-9474.636058,-2146.597232,-689.485948
3275.319556,-9622.677246,-2960.823768,-766.095498
3275.319894,-9918.759623,-4885.359217,1762.019645
3275.320232,-9474.636058,-3478.967927,1838.629195
3275.320570,-8216.285956,-3108.864956,536.266849
3275.320909,-9770.718434,-3182.885551,1991.848295
3275.321247,-11843.295072,-5033.400406,2987.772442
3275.321585,-11473.192101,-4441.235652,3370.820191
3275.321923,-10140.821405,-2072.576638,3217.601092
3275.322261,-9918.759623,666.185348,1838.629195
3275.322599,-11399.171507,-296.082377,842.705048
3275.322937,-11621.233289,-1850.514855,-766.095498
3275.323275,-8068.244768,-1554.432478,229.828649
3275.323613,-8216.285956,-1110.308913,3907.087040
3275.323951,-11769.274478,-1036.288319,4519.963438
3275.324289,-13101.645173,-740.205942,689.485948
3275.324627,-10658.965565,0.000000,-919.314598
3275.324965,-8956.491898,740.205942,-766.095498
3275.325302,-9696.697840,370.102971,459.657299
3275.325640,-10436.903782,74.020594,689.485948
3275.325977,-8586.388927,-370.102971,229.828649
3275.326315,-9844.739029,-518.144159,2757.943793
3275.326653,-11769.274478,296.082377,3217.601092
3275.326990,-11325.150913,592.164754,919.314598
3275.327328,-10066.800811,592.164754,766.095498
3275.327665,-9548.656652,-888.247130,76.609550
3275.328003,-8586.388927,-888.247130,2068.457845
3275.328341,-7624.121203,222.061783,3983.696590
3275.328678,-9030.512492,0.000000,5362.668486
3275.329016,-11325.150913,1332.370696,2451.505594
3275.329353,-12361.439231,1924.535449,612.876398
3275.329691,-10658.965565,3404.947333,1915.238745
3275.330029,-9104.533087,1850.514855,2451.505594
3275.330366,-7994.224174,1184.329507,2987.772442
3275.330704,-9252.574275,1036.288319,3140.991542
3275.331041,-10584.944971,1258.350101,2451.505594
3275.331379,-10807.006753,1702.473667,536.266849
3275.331716,-10732.986159,1258.350101,-689.485948
3275.332054,-9844.739029,222.061783,-1149.143247
3275.332392,-8438.347739,0.000000,-2068.457845
3275.332729,-8956.491898,148.041188,-842.705048
3275.333067,-9770.718434,-1110.308913,-2145.067394
3275.333404,-10807.006753,-1110.308913,-3524.039291
3275.333742,-10436.903782,-1480.411884,-1915.238745
3275.334080,-9918.759623,-2146.597232,-1225.752797
3275.334417,-10066.800811,-3034.844362,-229.828649
3275.334755,-10436.903782,-4589.276840,612.876398
3275.335092,-8956.491898,-3330.926739,1685.410096
3275.335430,-10140.821405,-3182.885551,1455.581446
3275.335768,-11695.253884,-2294.638420,1302.362347
3275.336105,-11991.336260,-1184.329507,-689.485948
3275.336443,-11103.089130,-2442.679609,-1149.143247
3275.336780,-9918.759623,-2664.741391,229.828649
3275.337118,-9548.656652,-1554.432478,1225.752797
3275.337455,-9474.636058,-1480.411884,536.266849
3275.337793,-9622.677246,-1406.391290,-1378.971896
3275.338131,-10362.883188,-1406.391290,-1302.362347
3275.338468,-10658.965565,-1628.453072,0.000000
3275.338806,-9622.677246,-2072.576638,1149.143247
3275.339143,-9178.553681,-1554.432478,2681.334243
3275.339481,-9844.739029,-296.082377,1149.143247
3275.339819,-10214.842000,444.123565,-536.266849
3275.340156,-11399.171507,-148.041188,-1915.238745
3275.340494,-10214.842000,-1036.288319,-1532.190996
3275.340831,-9178.553681,-2368.659014,76.609550
3275.341169,-8956.491898,-1776.494261,2298.286494
3275.341507,-9252.574275,-1036.288319,1149.143247
3275.341844,-9104.533087,-1924.535449,0.000000
3275.342182,-9252.574275,-1628.453072,0.000000
3275.342519,-9326.594869,-2072.576638,1685.410096
3275.342857,-9474.636058,-592.164754,3217.601092
3275.343195,-9918.759623,444.123565,3524.039291
3275.343532,-11769.274478,962.267725,2987.772442
3275.343870,-11843.295072,1628.453072,766.095498
3275.344207,-10881.027347,444.123565,0.000000
3275.344545,-9622.677246,-592.164754,1455.581446
3275.344882,-9400.615463,-1332.370696,2068.457845
3275.345220,-9474.636058,-740.205942,2145.067394
3275.345558,-9622.677246,74.020594,229.828649
3275.345895,-9622.677246,-74.020594,-2298.286494
3275.346233,-10214.842000,-666.185348,-1991.848295
3275.346570,-9992.780217,-1184.329507,-1378.971896
3275.346908,-8956.491898,-518.144159,229.828649
3275.347246,-9992.780217,296.082377,766.095498
3275.347583,-11103.089130,296.082377,-995.924147
3275.347921,-11325.150913,-296.082377,-2298.286494
3275.348258,-11103.089130,-962.267725,-2528.115143
3275.348596,-9918.759623,-2368.659014,-995.924147
3275.348934,-9696.697840,-2664.741391,383.047749
3275.349271,-9992.780217,-1184.329507,1532.190996
3275.349609,-9474.636058,-296.082377,0.000000
3275.349946,-9844.739029,666.185348,-689.485948
3275.350284,-10288.862594,370.102971,-995.924147
3275.350621,-10732.986159,222.061783,383.047749
3275.350959,-10214.842000,1406.391290,2834.553343
3275.351297,-10362.883188,2516.700203,3447.429741
3275.351634,-11103.089130,2960.823768,2145.067394
3275.351972,-11843.295072,2664.741391,0.000000
3275.352309,-10214.842000,2146.597232,-919.314598
3275.352647,-8808.450710,1110.308913,459.657299
3275.352985,-8586.388927,962.267725,1685.410096
3275.353322,-9474.636058,1850.514855,1455.581446
3275.353660,-9696.697840,2072.576638,-1838.629195
3275.353997,-9918.759623,2590.720797,-3524.039291
3275.354335,-9992.780217,2368.659014,-2528.115143
3275.354673,-9252.574275,666.185348,-1608.800546
3275.355010,-8586.388927,296.082377,0.000000
3275.355348,-9918.759623,592.164754,1225.752797
3275.355685,-10584.944971,666.185348,383.047749
3275.356023,-10881.027347,-296.082377,-612.876398
3275.356360,-10362.883188,-1628.453072,-536.266849
3275.356698,-9252.574275,-3034.844362,-153.219100
3275.357036,-9696.697840,-2590.720797,2834.553343
3275.357373,-10510.924376,-1480.411884,3064.381992
3275.357711,-10881.027347,-1406.391290,383.047749
3275.358048,-11177.109724,-296.082377,-1149.143247
3275.358386,-10807.006753,-888.247130,-919.314598
3275.358724,-9844.739029,-740.205942,842.705048
3275.359061,-9992.780217,-1406.391290,2374.896044
3275.359399,-10732.986159,-962.267725,2451.505594
3275.359736,-10140.821405,-592.164754,0.000000
3275.360074,-11399.171507,-2072.576638,-1072.533697
3275.360412,-10288.862594,-3034.844362,-1378.971896
3275.360749,-8216.285956,-3627.009116,-1608.800546
3275.361087,-8734.430116,-2368.659014,1149.143247
3275.361424,-10066.800811,-2072.576638,1072.533697
3275.361762,-10510.924376,-1554.432478,-1762.019645
3275.362100,-10140.821405,-2072.576638,-2145.067394
3275.362437,-9770.718434,-1628.453072,-995.924147
3275.362775,-9918.759623,-2294.638420,766.095498
3275.363112,-9844.739029,-2516.700203,2451.505594
3275.363450,-9178.553681,-1332.370696,2145.067394
3275.363787,-9992.780217,-1110.308913,1608.800546
3275.364125,-10436.903782,-1110.308913,76.609550
3275.364463,-9770.718434,-740.205942,0.000000
3275.364800,-8956.491898,-1480.411884,1455.581446
3275.365138,-8734.430116,-296.082377,3370.820191
3275.365475,-10066.800811,1036.288319,2911.162892
3275.365813,-10584.944971,2072.576638,1378.971896
3275.366151,-10732.986159,1554.432478,-153.219100
3275.366488,-10658.965565,1258.350101,-842.705048
3275.366826,-9992.780217,518.144159,689.485948
3275.367163,-9252.574275,0.000000,2374.896044
3275.367501,-9252.574275,222.061783,1455.581446
3275.367839,-9474.636058,-296.082377,-1072.533697
3275.368176,-11177.109724,0.000000,-2374.896044
3275.368514,-10214.842000,-1628.453072,-3064.381992
3275.368851,-9104.533087,-2368.659014,-1991.848295
3275.369189,-8734.430116,-2738.761985,229.828649
3275.369526,-9548.656652,-2442.679609,919.314598
3275.369864,-10214.842000,-962.267725,-612.876398
3275.370202,-10658.965565,-1332.370696,-1532.190996
3275.370539,-10510.924376,-1702.473667,-995.924147
3275.370877,-9770.718434,-2442.679609,842.705048
3275.371214,-10658.965565,-1850.514855,3140.991542
3275.371552,-10362.883188,-592.164754,2451.505594
3275.371890,-11029.068536,-518.144159,689.485948
3275.372227,-11991.336260,814.226536,0.000000
3275.372565,-11177.109724,-222.061783,0.000000
3275.372902,-9844.739029,222.061783,0.000000
3275.373240,-9622.677246,0.000000,1762.019645
3275.373578,-9622.677246,1110.308913,2221.676944
3275.373915,-10658.965565,2072.576638,229.828649
3275.374253,-10658.965565,1850.514855,-1685.410096
3275.374590,-10066.800811,1406.391290,-1378.971896
3275.374928,-10066.800811,1036.288319,76.609550
3275.375265,-9400.615463,1258.350101,1455.581446
3275.375603,-9548.656652,2664.741391,0.000000
3275.375941,-9918.759623,1924.535449,-1608.800546
3275.376278,-10510.924376,740.205942,-3064.381992
3275.376616,-9992.780217,222.061783,-2298.286494
3275.376953,-8142.265362,0.000000,76.609550
3275.377291,-8660.409521,74.020594,2221.676944
3275.377629,-9770.718434,740.205942,2374.896044
3275.377966,-10362.883188,1406.391290,0.000000
3275.378304,-10362.883188,1702.473667,229.828649
3275.378641,-10214.842000,1184.329507,1225.752797
3275.378979,-10066.800811,518.144159,2681.334243
3275.379317,-9622.677246,1258.350101,2911.162892
3275.379654,-10066.800811,1406.391290,1991.848295
3275.379992,-10584.944971,1628.453072,459.657299
3275.380329,-11103.089130,370.102971,-1455.581446
3275.380667,-10436.903782,-518.144159,-1915.238745
3275.381005,-9030.512492,-814.226536,-1072.533697
3275.381342,-8512.368333,-1924.535449,536.266849
3275.381680,-9326.594869,-814.226536,995.924147
3275.382017,-10436.903782,-1110.308913,0.000000
3275.382355,-10214.842000,-740.205942,-1915.238745
3275.382692,-10658.965565,-1850.514855,-1915.238745
3275.383030,-10955.047942,-2442.679609,-612.876398
3275.383368,-10066.800811,-2960.823768,919.314598
3275.383705,-9992.780217,-2590.720797,1072.533697
3275.384043,-10732.986159,-2072.576638,153.219100
3275.384380,-11621.233289,-2664.741391,-1608.800546
3275.384718,-10881.027347,-3108.864956,-1762.019645
3275.385056,-9400.615463,-3775.050304,-229.828649
3275.385393,-8734.430116,-2960.823768,2298.286494
3275.385731,-9548.656652,-1480.411884,3064.381992
3275.386068,-11029.068536,-222.061783,1838.629195
3275.386406,-10510.924376,-296.082377,1455.581446
3275.386744,-10658.965565,74.020594,1838.629195
3275.387081,-10584.944971,74.020594,2681.334243
3275.387419,-9918.759623,444.123565,3447.429741
3275.387756,-10658.965565,1480.411884,3447.429741
3275.388094,-9696.697840,1480.411884,459.657299
3275.388431,-10362.883188,1110.308913,-612.876398
3275.388769,-9400.615463,444.123565,-1455.581446
3275.389107,-7772.162391,-592.164754,-1532.190996
3275.389444,-8216.285956,-740.205942,536.266849
3275.389782,-9030.512492,1110.308913,153.219100
3275.390119,-9992.780217,592.164754,-1991.848295
3275.390457,-9252.574275,592.164754,-2298.286494
3275.390795,-9474.636058,74.020594,-842.705048
3275.391132,-10436.903782,-296.082377,1532.190996
3275.391470,-10584.944971,-518.144159,2374.896044
3275.391807,-9770.718434,-666.185348,2145.067394
3275.392145,-11029.068536,-962.267725,1455.581446
3275.392483,-10658.965565,-1036.288319,0.000000
3275.392820,-10436.903782,-1480.411884,0.000000
3275.393158,-9104.533087,-1776.494261,306.438199
3275.393495,-8882.471304,-518.144159,1608.800546
3275.393833,-11103.089130,0.000000,1915.238745
3275.394170,-10732.986159,740.205942,-1685.410096
3275.394508,-10362.883188,814.226536,-1838.629195
3275.394846,-10955.047942,222.061783,-612.876398
3275.395183,-9696.697840,-666.185348,229.828649
3275.395521,-10436.903782,-370.102971,1225.752797
3275.395858,-9548.656652,0.000000,1378.971896
3275.396196,-9992.780217,-666.185348,-1149.143247
3275.396534,-11917.315666,-518.144159,-919.314598
3275.396871,-10214.842000,-1258.350101,-2221.676944
3275.397209,-8734.430116,-1258.350101,-1608.800546
3275.397546,-9252.574275,-1406.391290,0.000000
3275.397884,-9918.759623,-666.185348,689.485948
3275.398222,-10214.842000,592.164754,-766.095498
3275.398559,-10288.862594,814.226536,-306.438199
3275.398897,-10362.883188,518.144159,229.828649
3275.399234,-10436.903782,-148.041188,2145.067394
3275.399572,-10214.842000,740.205942,3677.258390
3275.399910,-9622.677246,1554.432478,3217.601092
3275.400247,-10214.842000,2220.617826,1991.848295
3275.400585,-10658.965565,1258.350101,689.485948
3275.400922,-10140.821405,1258.350101,383.047749
3275.401260,-8364.327145,1776.494261,1838.629195
3275.401597,-8734.430116,2220.617826,1838.629195
3275.401935,-9918.759623,2220.617826,1072.533697
3275.402273,-9918.759623,3923.091493,-1685.410096
3275.402610,-10140.821405,2442.679609,-689.485948
3275.402948,-10066.800811,2294.638420,-612.876398
3275.403285,-9104.533087,74.020594,229.828649
3275.403623,-9992.780217,-74.020594,2145.067394
3275.403961,-9622.677246,222.061783,612.876398
3275.404298,-10140.821405,-814.226536,-1072.533697
3275.404636,-10881.027347,-1554.432478,-1072.533697
3275.404973,-9474.636058,-2516.700203,-1532.190996
3275.405311,-8586.388927,-2442.679609,459.657299
3275.405649,-9918.759623,-2368.659014,1532.190996
3275.405986,-10807.006753,-1480.411884,689.485948
3275.406324,-10955.047942,-1776.494261,0.000000
3275.406661,-10807.006753,-1332.370696,0.000000
3275.406999,-9548.656652,-1850.514855,689.485948
3275.407336,-10362.883188,-2294.638420,2451.505594
3275.407674,-10436.903782,-1924.535449,3447.429741
3275.408012,-10140.821405,-1258.350101,2451.505594
3275.408349,-10955.047942,0.000000,536.266849
3275.408687,-12065.356855,-1332.370696,-459.657299
3275.409024,-10214.842000,-1110.308913,-1225.752797
3275.409362,-8364.327145,-1406.391290,-383.047749
3275.409700,-8660.409521,-888.247130,919.314598
3275.410037,-9622.677246,-148.041188,612.876398
3275.410375,-10881.027347,74.020594,-842.705048
3275.410712,-10066.800811,592.164754,-1915.238745
3275.411050,-10140.821405,-296.082377,-1302.362347
3275.411388,-10362.883188,-148.041188,229.828649
3275.411725,-9696.697840,-962.267725,1685.410096
3275.412063,-9178.553681,-74.020594,1455.581446
3275.412400,-9400.615463,518.144159,76.609550
3275.412738,-11325.150913,0.000000,-76.609550
3275.413075,-10066.800811,-592.164754,-689.485948
3275.413413,-8438.347739,-740.205942,612.876398
3275.413751,-9474.636058,-296.082377,3294.210641
3275.414088,-9548.656652,1480.411884,2221.676944
3275.414426,-10066.800811,1850.514855,0.000000
3275.414763,-10584.944971,1998.556043,0.000000
3275.415101,-9918.759623,1406.391290,383.047749
3275.415439,-10140.821405,888.247130,1838.629195
3275.415776,-10140.821405,592.164754,2221.676944
3275.416114,-9696.697840,1184.329507,1149.143247
3275.416451,-9918.759623,370.102971,-842.705048
3275.416789,-10732.986159,74.020594,-2145.067394
3275.417127,-9770.718434,-592.164754,-2604.724693
3275.417464,-9104.533087,-1702.473667,-1225.752797
3275.417802,-9252.574275,-888.247130,229.828649
3275.418139,-10214.842000,-1036.288319,0.000000
3275.418477,-10732.986159,-518.144159,-1532.190996
3275.418815,-10140.821405,-1184.329507,-2221.676944
3275.419152,-10584.944971,-2220.617826,-306.438199
3275.419490,-10510.924376,-2516.700203,1685.410096
3275.419827,-10140.821405,-1776.494261,2604.724693
3275.420165,-10288.862594,-592.164754,1762.019645
3275.420502,-10510.924376,-1554.432478,536.266849
3275.420840,-11177.109724,-1258.350101,-612.876398
3275.421178,-9844.739029,-1184.329507,-459.657299
3275.421515,-9178.553681,-666.185348,1225.752797
3275.421853,-8882.471304,-740.205942,2604.724693
3275.422190,-9992.780217,962.267725,2451.505594
3275.422528,-10214.842000,1480.411884,1225.752797
3275.422865,-10362.883188,2294.638420,153.219100
3275.423203,-10214.842000,1850.514855,536.266849
3275.423540,-11029.068536,1554.432478,2068.457845
3275.423878,-10510.924376,1628.453072,2221.676944
3275.424215,-9104.533087,2442.679609,612.876398
3275.424552,-9400.615463,1184.329507,-383.047749
3275.424890,-10658.965565,1036.288319,-2221.676944
3275.425227,-9252.574275,296.082377,-2911.162892
3275.425565,-8216.285956,0.000000,-1455.581446
3275.425902,-8660.409521,0.000000,612.876398
3275.426239,-10288.862594,296.082377,1378.971896
3275.426577,-10807.006753,1554.432478,-995.924147
3275.426914,-10214.842000,1036.288319,-1532.190996
3275.427252,-10288.862594,74.020594,536.266849
3275.427589,-10436.903782,-1554.432478,1608.800546
3275.427927,-10140.821405,-1332.370696,3064.381992
3275.428264,-9770.718434,370.102971,2451.505594
3275.428601,-10214.842000,0.000000,383.047749
3275.428939,-11177.109724,-592.164754,-919.314598
3275.429276,-10510.924376,-1998.556043,-1455.581446
3275.429614,-8438.347739,-1554.432478,-766.095498
3275.429951,-9104.533087,-740.205942,1532.190996
3275.430289,-10732.986159,-444.123565,1225.752797
3275.430626,-10510.924376,0.000000,-1685.410096
3275.430963,-10214.842000,0.000000,-1991.848295
3275.431301,-10140.821405,-1406.391290,-919.314598
3275.431638,-10510.924376,-2368.659014,612.876398
3275.431976,-10288.862594,-2516.700203,1532.190996
3275.432313,-9918.759623,-1480.411884,766.095498
3275.432650,-9696.697840,-1924.535449,-1149.143247
3275.432988,-11473.192101,-1998.556043,-1762.019645
3275.433325,-10584.944971,-2368.659014,-1838.629195
3275.433663,-8364.327145,-2442.679609,0.000000
3275.434000,-8808.450710,-1702.473667,1991.848295
3275.434338,-10436.903782,-814.226536,2145.067394
3275.434675,-10584.944971,296.082377,536.266849
3275.435012,-10288.862594,370.102971,0.000000
3275.435350,-10436.903782,518.144159,1991.848295
3275.435687,-10288.862594,518.144159,3140.991542
3275.436025,-10362.883188,814.226536,4060.306139
3275.436362,-9770.718434,1776.494261,2681.334243
3275.436700,-9104.533087,1924.535449,383.047749
3275.437037,-10288.862594,1628.453072,-612.876398
3275.437374,-9474.636058,1036.288319,-2298.286494
3275.437712,-8142.265362,592.164754,-1072.533697
3275.438049,-9030.512492,1332.370696,766.095498
3275.438387,-9770.718434,1480.411884,-612.876398
3275.438724,-10362.883188,1998.556043,-2145.067394
3275.439061,-10140.821405,1850.514855,-2681.334243
3275.439399,-9622.677246,-592.164754,-1685.410096
3275.439736,-9326.594869,-592.164754,842.705048
3275.440074,-9770.718434,-1776.494261,2298.286494
3275.440411,-10362.883188,-888.247130,1838.629195
3275.440749,-10584.944971,-1036.288319,-1072.533697
3275.441086,-12065.356855,-814.226536,-1378.971896
3275.441423,-10510.924376,-2294.638420,-2068.457845
3275.441761,-8438.347739,-2442.679609,-689.485948
3275.442098,-9474.636058,-1850.514855,2451.505594
3275.442436,-10510.924376,0.000000,1532.190996
3275.442773,-11621.233289,370.102971,-229.828649
3275.443111,-10955.047942,148.041188,-766.095498
3275.443448,-10066.800811,-370.102971,0.000000
3275.443785,-9770.718434,-962.267725,2221.676944
3275.444123,-10288.862594,-370.102971,3370.820191
3275.444460,-9696.697840,370.102971,2298.286494
3275.444798,-10881.027347,222.061783,0.000000
3275.445135,-11325.150913,74.020594,-1762.019645
3275.445472,-10066.800811,-592.164754,-2451.505594
3275.445810,-9252.574275,-740.205942,76.609550
3275.446147,-9178.553681,-148.041188,1685.410096
3275.446485,-9696.697840,370.102971,76.609550
3275.446822,-9918.759623,1184.329507,-1838.629195
3275.447160,-9918.759623,370.102971,-1532.190996
3275.447497,-10140.821405,296.082377,-229.828649
3275.447834,-9918.759623,-296.082377,1762.019645
3275.448172,-9474.636058,518.144159,3524.039291
3275.448509,-9474.636058,1036.288319,2528.115143
3275.448847,-10584.944971,1480.411884,689.485948
3275.449184,-11547.212695,592.164754,-229.828649
3275.449521,-9622.677246,-296.082377,-1455.581446
3275.449859,-8364.327145,518.144159,689.485948
3275.450196,-9252.574275,74.020594,3217.601092
3275.450534,-9696.697840,962.267725,1608.800546
3275.450871,-10214.842000,1628.453072,-1532.190996
3275.451209,-10807.006753,1776.494261,-1915.238745
3275.451546,-10214.842000,0.000000,-1532.190996
3275.451883,-9696.697840,-1406.391290,1149.143247
3275.452221,-9548.656652,-1036.288319,2451.505594
3275.452558,-9178.553681,-666.185348,1225.752797
3275.452896,-11177.109724,-592.164754,-383.047749
3275.453233,-12065.356855,-1480.411884,-3294.210641
3275.453571,-10066.800811,-3034.844362,-3524.039291
3275.453908,-8734.430116,-3552.988522,-995.924147
3275.454245,-9178.553681,-3330.926739,1149.143247
3275.454583,-10807.006753,-2368.659014,1149.143247
3275.454920,-11029.068536,-1480.411884,-1378.971896
3275.455258,-9844.739029,-2294.638420,-2374.896044
3275.455595,-10066.800811,-2294.638420,-766.095498
3275.455932,-9622.677246,-3182.885551,1762.019645
3275.456270,-9622.677246,-1776.494261,3294.210641
3275.456607,-10732.986159,-1110.308913,3524.039291
3275.456945,-11325.150913,-518.144159,1532.190996
3275.457282,-10881.027347,-592.164754,0.000000
3275.457620,-10584.944971,-1184.329507,0.000000
3275.457957,-8882.471304,-814.226536,1685.410096
3275.458294,-9252.574275,740.205942,3370.820191
3275.458632,-10436.903782,2072.576638,2145.067394
3275.458969,-11029.068536,1406.391290,-766.095498
3275.459307,-10362.883188,1924.535449,-1225.752797
3275.459644,-9696.697840,1110.308913,-612.876398
3275.459982,-10214.842000,1036.288319,1455.581446
3275.460319,-9548.656652,666.185348,2068.457845
3275.460656,-9030.512492,1776.494261,842.705048
3275.460994,-9992.780217,1110.308913,-995.924147
3275.461331,-10584.944971,0.000000,-1838.629195
3275.461669,-9178.553681,-592.164754,-1302.362347
3275.462006,-8142.265362,-1702.473667,766.095498
3275.462343,-8438.347739,0.000000,2145.067394
3275.462681,-10066.800811,296.082377,1532.190996
3275.463018,-10436.903782,888.247130,-536.266849
3275.463356,-10066.800811,74.020594,-1991.848295
3275.463693,-10066.800811,-444.123565,76.609550
3275.464031,-9844.739029,-740.205942,2528.115143
3275.464368,-9622.677246,-518.144159,2528.115143
3275.464705,-9548.656652,0.000000,1915.238745
3275.465043,-10881.027347,296.082377,-919.314598
3275.465380,-11843.295072,-444.123565,-1838.629195
3275.465718,-11103.089130,-666.185348,-1762.019645
3275.466055,-9400.615463,-1036.288319,-612.876398
3275.466393,-9548.656652,-1110.308913,1378.971896
3275.466730,-10807.006753,-518.144159,-842.705048
3275.467067,-10288.862594,-962.267725,-2374.896044
3275.467405,-10066.800811,-1554.432478,-2528.115143
3275.467742,-10140.821405,-2294.638420,-306.438199
3275.468080,-10436.903782,-2294.638420,536.266849
3275.468417,-10288.862594,-1776.494261,2145.067394
3275.468754,-10214.842000,-444.123565,1225.752797
3275.469092,-11251.130318,-1036.288319,-689.485948
3275.469429,-12139.377449,-1036.288319,-1302.362347
3275.469767,-10066.800811,-1184.329507,-1532.190996
3275.470104,-9030.512492,-1924.535449,1455.581446
3275.470442,-9622.677246,-592.164754,3753.867940
3275.470779,-9992.780217,1036.288319,1991.848295
3275.471116,-10214.842000,2146.597232,383.047749
3275.471454,-10288.862594,1628.453072,-153.219100
3275.471791,-9992.780217,1258.350101,1685.410096
3275.472129,-9992.780217,740.205942,3064.381992
3275.472466,-9104.533087,2664.741391,3294.210641
3275.472804,-9474.636058,2590.720797,1762.019645
3275.473141,-10510.924376,2072.576638,-995.924147
3275.473478,-10214.842000,1628.453072,-1991.848295
3275.473816,-8956.491898,-222.061783,-1378.971896
3275.474153,-8142.265362,0.000000,153.219100
3275.474491,-10140.821405,0.000000,1302.362347
3275.474828,-10362.883188,296.082377,-1072.533697
3275.475165,-8882.471304,74.020594,-3677.258390
3275.475503,-9548.656652,-370.102971,-2451.505594
3275.475840,-10732.986159,-1554.432478,0.000000
3275.476178,-10436.903782,-1776.494261,1225.752797
3275.476515,-9918.759623,-1480.411884,2374.896044
3275.476853,-10510.924376,-666.185348,229.828649
3275.477190,-11917.315666,-1036.288319,0.000000
3275.477527,-12361.439231,-2294.638420,-995.924147
3275.477865,-9326.594869,-3108.864956,-612.876398
3275.478202,-8808.450710,-2886.803174,2068.457845
3275.478540,-10584.944971,-1924.535449,3140.991542
3275.478877,-10955.047942,-1036.288319,689.485948
3275.479215,-10658.965565,-592.164754,-1455.581446
3275.479552,-10066.800811,-592.164754,-1685.410096
3275.479889,-10288.862594,-2146.597232,153.219100
3275.480227,-10362.883188,-1998.556043,1608.800546
3275.480564,-9474.636058,-1184.329507,2298.286494
3275.480902,-9696.697840,-814.226536,1225.752797
3275.481239,-10955.047942,-666.185348,-383.047749
3275.481576,-11399.171507,-1110.308913,-2604.724693
3275.481914,-9178.553681,-2368.659014,-2145.067394
3275.482251,-8290.306550,-1628.453072,0.000000
3275.482589,-9696.697840,-2294.638420,2068.457845
3275.482926,-9992.780217,0.000000,0.000000
3275.483264,-9548.656652,-74.020594,-1838.629195
3275.483601,-10066.800811,0.000000,-612.876398
3275.483938,-9696.697840,-518.144159,459.657299
3275.484276,-10214.842000,-814.226536,2757.943793
3275.484613,-9844.739029,1406.391290,4596.572988
3275.484951,-9400.615463,1924.535449,2834.553343
3275.485288,-11177.109724,1850.514855,1072.533697
3275.485626,-11473.192101,1036.288319,-383.047749
3275.485963,-9548.656652,444.123565,0.000000
3275.486300,-8808.450710,0.000000,1378.971896
3275.486638,-9548.656652,888.247130,2451.505594
3275.486975,-9696.697840,1480.411884,0.000000
3275.487313,-10214.842000,1406.391290,-1991.848295
3275.487650,-9178.553681,666.185348,-2911.162892
3275.487987,-8956.491898,-814.226536,-1838.629195
3275.488325,-10140.821405,-740.205942,1225.752797
3275.488662,-9844.739029,-814.226536,1149.143247
3275.489000,-9622.677246,74.020594,0.000000
3275.489337,-11251.130318,-1258.350101,-1838.629195
3275.489675,-11695.253884,-1924.535449,-2221.676944
3275.490012,-9770.718434,-2516.700203,-995.924147
3275.490349,-9400.615463,-2886.803174,842.705048
3275.490687,-10066.800811,-2220.617826,1455.581446
3275.491024,-10436.903782,-1628.453072,-229.828649
3275.491362,-10807.006753,-814.226536,-995.924147
3275.491699,-10214.842000,-1554.432478,-459.657299
3275.492037,-10066.800811,-1628.453072,1455.581446
3275.492374,-10288.862594,0.000000,3447.429741
3275.492711,-10881.027347,0.000000,4519.963438
3275.493049,-10510.924376,1110.308913,3217.601092
3275.493386,-11695.253884,1184.329507,536.266849
3275.493724,-11917.315666,666.185348,306.438199
3275.494061,-9918.759623,666.185348,0.000000
3275.494398,-8882.471304,0.000000,1225.752797
3275.494736,-8882.471304,1110.308913,995.924147
3275.495073,-8512.368333,1406.391290,-1302.362347
3275.495411,-9178.553681,1776.494261,-2451.505594
3275.495748,-9474.636058,962.267725,-2451.505594
3275.496086,-9548.656652,666.185348,-995.924147
3275.496423,-9400.615463,0.000000,459.657299
3275.496760,-8586.388927,518.144159,1532.190996
3275.497098,-9548.656652,1628.453072,1532.190996
3275.497435,-11251.130318,0.000000,0.000000
3275.497773,-10732.986159,666.185348,-1225.752797
3275.498110,-9474.636058,-666.185348,-842.705048
3275.498448,-9622.677246,-666.185348,1608.800546
3275.498785,-10362.883188,-370.102971,1762.019645
3275.499122,-10066.800811,518.144159,0.000000
3275.499460,-9992.780217,518.144159,-1072.533697
3275.499797,-9400.615463,296.082377,-1302.362347
3275.500135,-10140.821405,74.020594,153.219100
3275.500472,-10436.903782,-666.185348,1608.800546
3275.500809,-9844.739029,296.082377,2604.724693
3275.501147,-10732.986159,444.123565,1302.362347
3275.501484,-11991.336260,-296.082377,-459.657299
3275.501822,-11029.068536,-1998.556043,-1838.629195
3275.502159,-9474.636058,-2442.679609,-1302.362347
3275.502497,-9252.574275,-2368.659014,383.047749
3275.502834,-9696.697840,-2368.659014,0.000000
3275.503171,-9770.718434,-2442.679609,-1149.143247
3275.503509,-9474.636058,-1850.514855,-3370.820191
3275.503846,-9622.677246,-2220.617826,-1915.238745
3275.504184,-10732.986159,-2368.659014,0.000000
3275.504521,-9844.739029,-2664.741391,1915.238745
3275.504859,-9696.697840,-1702.473667,2757.943793
3275.505196,-10140.821405,-1184.329507,2068.457845
3275.505533,-11695.253884,-962.267725,1838.629195
3275.505871,-11251.130318,-814.226536,1532.190996
3275.506208,-9918.759623,-1110.308913,1838.629195
3275.506546,-9696.697840,-370.102971,3677.258390
3275.506883,-10362.883188,0.000000,3524.039291
3275.507220,-9548.656652,1110.308913,1608.800546
3275.507558,-9252.574275,962.267725,-1302.362347
3275.507895,-9622.677246,1998.556043,-536.266849
3275.508233,-9770.718434,1998.556043,0.000000
3275.508570,-9474.636058,592.164754,612.876398
3275.508908,-9400.615463,1998.556043,1685.410096
3275.509245,-9548.656652,1184.329507,689.485948
3275.509582,-10881.027347,1332.370696,-612.876398
3275.509920,-10807.006753,0.000000,-1378.971896
3275.510257,-9252.574275,-1258.350101,-1378.971896
3275.510595,-8586.388927,-2220.617826,459.657299
3275.510932,-9844.739029,-1258.350101,1225.752797
3275.511270,-10066.800811,-370.102971,0.000000
3275.511607,-10140.821405,-666.185348,-2298.286494
3275.511944,-10066.800811,-74.020594,-2374.896044
3275.512282,-10288.862594,-1628.453072,-1225.752797
3275.512619,-9400.615463,-1554.432478,766.095498
3275.512957,-9474.636058,-962.267725,2221.676944
3275.513294,-10288.862594,-592.164754,1149.143247
3275.513631,-11399.171507,-370.102971,0.000000
3275.513969,-11843.295072,-666.185348,-995.924147
3275.514306,-10066.800811,-1702.473667,153.219100
3275.514644,-9474.636058,-2368.659014,2068.457845
3275.514981,-10214.842000,-592.164754,2834.553343
3275.515319,-10140.821405,74.020594,-306.438199
3275.515656,-10436.903782,296.082377,-2145.067394
3275.515993,-9992.780217,-222.061783,-1608.800546
3275.516331,-9918.759623,-888.247130,-536.266849
3275.516668,-9696.697840,-296.082377,919.314598
3275.517006,-9696.697840,148.041188,1225.752797
3275.517343,-10140.821405,74.020594,-459.657299
3275.517681,-11621.233289,0.000000,-1378.971896
3275.518018,-11251.130318,-1036.288319,-1378.971896
3275.518355,-8956.491898,-888.247130,-306.438199
3275.518693,-9030.512492,-1184.329507,2374.896044
3275.519030,-10362.883188,518.144159,3140.991542
3275.519368,-10288.862594,740.205942,153.219100
3275.519705,-9696.697840,1184.329507,-919.314598
3275.520042,-9844.739029,1036.288319,0.000000
3275.520380,-10066.800811,962.267725,2681.334243
3275.520717,-9696.697840,1554.432478,3140.991542
3275.521055,-9992.780217,2368.659014,3524.039291
3275.521392,-9992.780217,2590.720797,1762.019645
3275.521730,-10807.006753,1628.453072,-153.219100
3275.522067,-11177.109724,888.247130,-766.095498
3275.522404,-8734.430116,888.247130,-919.314598
3275.522742,-8882.471304,-518.144159,1991.848295
3275.523079,-9104.533087,74.020594,1915.238745
3275.523417,-9400.615463,444.123565,-1455.581446
3275.523754,-9622.677246,666.185348,-2604.724693
3275.524091,-10436.903782,-296.082377,-3830.477490
3275.524429,-10362.883188,-1036.288319,-1532.190996
3275.524766,-10807.006753,-1776.494261,1455.581446
3275.525103,-9918.759623,-1258.350101,1685.410096
3275.525441,-9992.780217,-740.205942,0.000000
3275.525778,-11695.253884,-1480.411884,-1532.190996
3275.526115,-11103.089130,-2072.576638,-1608.800546
3275.526453,-9844.739029,-3034.844362,-153.219100
3275.526790,-10066.800811,-2664.741391,2681.334243
3275.527127,-10140.821405,-1628.453072,2757.943793
3275.527465,-10807.006753,-888.247130,1455.581446
3275.527802,-10140.821405,74.020594,-383.047749
3275.528139,-10140.821405,-296.082377,-612.876398
3275.528477,-9992.780217,-370.102971,1532.190996
3275.528814,-10214.842000,-518.144159,3830.477490
3275.529151,-10066.800811,222.061783,3907.087040
3275.529489,-10362.883188,1332.370696,459.657299
3275.529826,-10362.883188,1258.350101,-1225.752797
3275.530163,-10732.986159,0.000000,-1455.581446
3275.530500,-8882.471304,-962.267725,-995.924147
3275.530838,-8142.265362,-444.123565,919.314598
3275.531175,-9326.594869,296.082377,995.924147
3275.531512,-9326.594869,592.164754,-1532.190996
3275.531850,-9548.656652,0.000000,-2068.457845
3275.532187,-10140.821405,-148.041188,-1378.971896
3275.532524,-9252.574275,-296.082377,1302.362347
3275.532862,-10288.862594,-814.226536,3140.991542
3275.533199,-9844.739029,222.061783,2374.896044
3275.533536,-10362.883188,74.020594,1149.143247
3275.533874,-11843.295072,0.000000,306.438199
3275.534211,-10658.965565,-444.123565,-459.657299
3275.534548,-9326.594869,-1628.453072,1302.362347
3275.534886,-9474.636058,-814.226536,2681.334243
3275.535223,-9548.656652,0.000000,1915.238745
3275.535560,-10214.842000,1110.308913,-306.438199
3275.535898,-10214.842000,0.000000,-1455.581446
3275.536235,-9548.656652,74.020594,-1455.581446
3275.536572,-9474.636058,0.000000,306.438199
3275.536910,-9622.677246,-814.226536,766.095498
3275.537247,-9548.656652,-518.144159,1225.752797
3275.537584,-10214.842000,-740.205942,-1225.752797
3275.537922,-10881.027347,-814.226536,-2145.067394
3275.538259,-10510.924376,-1406.391290,-3064.381992
3275.538596,-9548.656652,-2516.700203,-1685.410096
3275.538934,-9030.512492,-2886.803174,0.000000
3275.539271,-9548.656652,-2294.638420,1149.143247
3275.539608,-10288.862594,-1184.329507,-76.609550
3275.539946,-10510.924376,-740.205942,-1455.581446
3275.540283,-10584.944971,-370.102971,-383.047749
3275.540620,-9992.780217,-1110.308913,919.314598
3275.540958,-10288.862594,-740.205942,3753.867940
3275.541295,-10214.842000,518.144159,4290.134789
3275.541632,-10510.924376,1628.453072,2911.162892
3275.541970,-11251.130318,1406.391290,1072.533697
3275.542307,-10881.027347,1628.453072,-1302.362347
3275.542644,-9326.594869,518.144159,689.485948
3275.542981,-9178.553681,444.123565,3600.648841
3275.543319,-8882.471304,740.205942,2298.286494
3275.543656,-9178.553681,1924.535449,-383.047749
3275.543993,-10436.903782,2220.617826,-1915.238745
3275.544331,-9696.697840,1480.411884,-1991.848295
3275.544668,-9992.780217,222.061783,153.219100
3275.545005,-9252.574275,1036.288319,1608.800546
3275.545343,-9030.512492,814.226536,1302.362347
3275.545680,-10288.862594,592.164754,-383.047749
3275.546017,-10214.842000,-296.082377,-2528.115143
3275.546355,-10140.821405,-1924.535449,-1838.629195
3275.546692,-8956.491898,-1554.432478,306.438199
3275.547029,-8734.430116,-2146.597232,2145.067394
3275.547367,-9696.697840,-888.247130,1455.581446
3275.547704,-10658.965565,-148.041188,-459.657299
3275.548041,-10807.006753,-148.041188,-1302.362347
3275.548379,-11029.068536,-444.123565,153.219100
3275.548716,-10510.924376,-1554.432478,1302.362347
3275.549053,-10066.800811,-444.123565,3064.381992
3275.549391,-10807.006753,74.020594,2987.772442
3275.549728,-10214.842000,592.164754,459.657299
3275.550065,-11399.171507,0.000000,-1302.362347
3275.550403,-11325.150913,-962.267725,-842.705048
3275.550740,-9474.636058,-1406.391290,0.000000
3275.551077,-9326.594869,-592.164754,1762.019645
3275.551415,-9918.759623,0.000000,1225.752797
3275.551752,-10066.800811,0.000000,-1072.533697
3275.552089,-10436.903782,0.000000,-2068.457845
3275.552427,-9918.759623,296.082377,-1838.629195
3275.552764,-9844.739029,-1480.411884,0.000000
3275.553101,-9548.656652,-1332.370696,1685.410096
3275.553439,-9622.677246,-592.164754,1838.629195
3275.553776,-9844.739029,296.082377,0.000000
3275.554113,-10362.883188,-518.144159,-1072.533697
3275.554451,-10288.862594,-370.102971,-766.095498
3275.554788,-9030.512492,-1332.370696,459.657299
3275.555125,-8882.471304,-962.267725,3524.039291
3275.555462,-10066.800811,1258.350101,3600.648841
3275.555800,-10288.862594,1184.329507,612.876398
3275.556137,-10658.965565,2368.659014,-995.924147
3275.556474,-10658.965565,1184.329507,-612.876398
3275.556812,-9770.718434,1036.288319,229.828649
3275.557149,-9992.780217,666.185348,2221.676944
3275.557486,-9696.697840,1480.411884,1455.581446
3275.557824,-9622.677246,1776.494261,-1149.143247
3275.558161,-11325.150913,740.205942,-2528.115143
3275.558498,-10214.842000,0.000000,-3064.381992
3275.558836,-9252.574275,-1258.350101,-1532.190996
3275.559173,-9326.594869,-814.226536,1455.581446
3275.559510,-10066.800811,-370.102971,536.266849
3275.559848,-10510.924376,-666.185348,-1991.848295
3275.560185,-10510.924376,-1258.350101,-2987.772442
3275.560522,-9918.759623,-2072.576638,-1072.533697
3275.560860,-9326.594869,-2590.720797,1225.752797
3275.561197,-9622.677246,-2516.700203,3217.601092
3275.561534,-9844.739029,-1702.473667,2068.457845
3275.561872,-10066.800811,-1628.453072,459.657299
3275.562209,-11103.089130,-1332.370696,306.438199
3275.562546,-11103.089130,-2146.597232,536.266849
3275.562884,-9622.677246,-1850.514855,1991.848295
3275.563221,-9844.739029,-962.267725,4443.353888
3275.563558,-10066.800811,0.000000,4060.306139
3275.563896,-10066.800811,962.267725,536.266849
3275.564233,-10807.006753,888.247130,-383.047749
3275.564570,-10362.883188,148.041188,-306.438199
3275.564908,-9770.718434,0.000000,612.876398
3275.565245,-9918.759623,74.020594,2528.115143
3275.565582,-9770.718434,1406.391290,1072.533697
3275.565920,-9252.574275,1184.329507,-1302.362347
3275.566257,-10881.027347,1110.308913,-2298.286494
3275.566594,-10362.883188,222.061783,-2604.724693
3275.566932,-9622.677246,-666.185348,-306.438199
3275.567269,-8734.430116,-888.247130,1532.190996
3275.567606,-9178.553681,-666.185348,1072.533697
3275.567944,-9918.759623,888.247130,-229.828649
3275.568281,-10510.924376,222.061783,-1455.581446
3275.568618,-9770.718434,-370.102971,-842.705048
3275.568955,-9918.759623,-1332.370696,1455.581446
3275.569293,-9844.739029,-370.102971,3600.648841
3275.569630,-9622.677246,814.226536,1072.533697
3275.569967,-10658.965565,370.102971,-306.438199
3275.570305,-10584.944971,296.082377,-1149.143247
3275.570642,-9400.615463,-1036.288319,-1608.800546
3275.570979,-9030.512492,-296.082377,536.266849
3275.571317,-9474.636058,-962.267725,2681.334243
3275.571654,-10066.800811,592.164754,689.485948
3275.571991,-10732.986159,518.144159,-1072.533697
3275.572329,-11251.130318,888.247130,-2451.505594
3275.572666,-10658.965565,-740.205942,-1072.533697
3275.573003,-9770.718434,-1628.453072,0.000000
3275.573341,-9918.759623,-1184.329507,2145.067394
3275.573678,-9844.739029,-296.082377,766.095498
3275.574015,-10584.944971,-740.205942,-1532.190996
3275.574353,-11843.295072,-1110.308913,-2451.505594
3275.574690,-10510.924376,-1998.556043,-1685.410096
3275.575027,-9030.512492,-2072.576638,0.000000
3275.575365,-8438.347739,-1850.514855,1225.752797
3275.575702,-9400.615463,-814.226536,2068.457845
3275.576039,-10140.821405,-296.082377,766.095498
3275.576377,-10436.903782,-518.144159,459.657299
3275.576714,-9918.759623,148.041188,919.314598
3275.577051,-10881.027347,-592.164754,3524.039291
3275.577389,-10584.944971,740.205942,4443.353888
3275.577726,-9474.636058,1628.453072,2911.162892
3275.578063,-9400.615463,2294.638420,1149.143247
3275.578401,-10510.924376,1850.514855,-536.266849
3275.578738,-10584.944971,1702.473667,-153.219100
3275.579075,-8882.471304,888.247130,76.609550
3275.579413,-8808.450710,592.164754,1762.019645
3275.579750,-9252.574275,2220.617826,766.095498
3275.580087,-10732.986159,1924.535449,-995.924147
3275.580425,-10955.047942,1554.432478,-3064.381992
3275.580762,-9622.677246,666.185348,-2757.943793
3275.581099,-10140.821405,-518.144159,306.438199
3275.581436,-9844.739029,-1110.308913,2451.505594
3275.581774,-8734.430116,-740.205942,1149.143247
3275.582111,-9992.780217,-740.205942,-612.876398
3275.582448,-11251.130318,-740.205942,-1838.629195
3275.582786,-10807.006753,-1702.473667,-1149.143247
3275.583123,-9326.594869,-2516.700203,229.828649
3275.583460,-8882.471304,-1332.370696,2221.676944
3275.583798,-10584.944971,-518.144159,2757.943793
3275.584135,-11177.109724,-370.102971,-306.438199
3275.584472,-10140.821405,0.000000,-1225.752797
3275.584810,-10584.944971,-1110.308913,-229.828649
3275.585147,-10584.944971,-1480.411884,1608.800546
3275.585484,-10140.821405,-962.267725,2221.676944
3275.585822,-9622.677246,-518.144159,1532.190996
3275.586159,-9770.718434,-222.061783,-459.657299
3275.586496,-11325.150913,-518.144159,-1608.800546
3275.586834,-10658.965565,-1480.411884,-1838.629195
3275.587171,-8882.471304,-1850.514855,0.000000
3275.587508,-9178.553681,-1332.370696,995.924147
3275.587846,-9548.656652,-370.102971,153.219100
3275.588183,-10214.842000,-592.164754,-1685.410096
3275.588520,-10214.842000,-518.144159,-1608.800546
3275.588858,-10066.800811,-1258.350101,0.000000
3275.589195,-10066.800811,-1184.329507,1455.581446
3275.589532,-10510.924376,-1184.329507,2604.724693
3275.589870,-9622.677246,74.020594,2145.067394
3275.590207,-9992.780217,0.000000,842.705048
3275.590544,-11103.089130,74.020594,153.219100
3275.590882,-9992.780217,148.041188,-229.828649
3275.591219,-9030.512492,148.041188,1149.143247
3275.591556,-9326.594869,1110.308913,2451.505594
3275.591894,-9992.780217,1554.432478,1991.848295
3275.592231,-10881.027347,1924.535449,-689.485948
3275.592568,-10214.842000,2072.576638,-995.924147
3275.592906,-10214.842000,592.164754,0.000000
3275.593243,-9548.656652,-592.164754,995.924147
3275.593580,-8882.471304,-148.041188,1762.019645
3275.593918,-9178.553681,74.020594,1302.362347
3275.594255,-9992.780217,-740.205942,-1302.362347
3275.594592,-10362.883188,-740.205942,-2834.553343
3275.594929,-10140.821405,-1480.411884,-2757.943793
3275.595267,-8438.347739,-1924.535449,-1685.410096
3275.595604,-8956.491898,-2072.576638,383.047749
3275.595941,-9844.739029,-1850.514855,0.000000
3275.596279,-9770.718434,-1480.411884,-1378.971896
3275.596616,-10510.924376,-1184.329507,-766.095498
3275.596953,-10510.924376,-2220.617826,76.609550
3275.597291,-10807.006753,-2146.597232,1762.019645
3275.597628,-11103.089130,-1702.473667,2757.943793
3275.597965,-10436.903782,-592.164754,2145.067394
3275.598303,-10955.047942,0.000000,766.095498
3275.598640,-11695.253884,-592.164754,-229.828649
3275.598977,-10658.965565,0.000000,-536.266849
3275.599315,-9548.656652,-666.185348,1685.410096
3275.599652,-9770.718434,148.041188,2298.286494
3275.599989,-9992.780217,592.164754,1225.752797
3275.600327,-9548.656652,888.247130,-1225.752797
3275.600664,-9548.656652,1184.329507,-1455.581446
3275.601001,-10214.842000,296.082377,-306.438199
3275.601339,-9992.780217,222.061783,1072.533697
3275.601676,-9770.718434,592.164754,842.705048
3275.602013,-9400.615463,370.102971,-383.047749
3275.602351,-9030.512492,740.205942,-2068.457845
3275.602688,-9918.759623,-370.102971,-1378.971896
3275.603025,-8808.450710,-740.205942,-689.485948
3275.603363,-7476.080014,-370.102971,153.219100
3275.603700,-9844.739029,-370.102971,2757.943793
3275.604037,-10288.862594,962.267725,689.485948
3275.604375,-10732.986159,814.226536,-612.876398
3275.604712,-10140.821405,370.102971,153.219100
3275.605049,-9770.718434,444.123565,766.095498
3275.605387,-10584.944971,-222.061783,2757.943793
3275.605724,-10288.862594,0.000000,3064.381992
3275.606061,-9400.615463,592.164754,1072.533697
3275.606399,-10362.883188,740.205942,-306.438199
3275.606736,-11917.315666,518.144159,-536.266849
3275.607073,-10658.965565,-148.041188,-1302.362347
3275.607410,-9030.512492,-518.144159,-229.828649
3275.607748,-9326.594869,0.000000,1149.143247
3275.608085,-10288.862594,74.020594,0.000000
3275.608422,-10881.027347,-74.020594,-2068.457845
3275.608760,-9548.656652,-666.185348,-2987.772442
3275.609097,-9622.677246,-1702.473667,-1378.971896
3275.609434,-10140.821405,-2590.720797,766.095498
3275.609772,-9400.615463,-2590.720797,1915.238745
3275.610109,-9326.594869,-1998.556043,689.485948
3275.610446,-10066.800811,-1924.535449,-766.095498
3275.610784,-11325.150913,-1480.411884,-842.705048
3275.611121,-9844.739029,-2294.638420,-842.705048
3275.611458,-8808.450710,-2072.576638,919.314598
3275.611796,-9030.512492,-1924.535449,3064.381992
3275.612133,-9844.739029,-296.082377,2221.676944
3275.612470,-10140.821405,74.020594,689.485948
3275.612808,-10955.047942,518.144159,0.000000
3275.613145,-10362.883188,0.000000,995.924147
3275.613482,-10732.986159,592.164754,2911.162892
3275.613820,-10658.965565,1480.411884,2911.162892
3275.614157,-9770.718434,1702.473667,919.314598
3275.614494,-10066.800811,1184.329507,-612.876398
3275.614832,-10955.047942,888.247130,-1532.190996
3275.615169,-8956.491898,0.000000,-1685.410096
3275.615506,-9178.553681,-444.123565,995.924147
3275.615844,-8956.491898,-370.102971,153.219100
3275.616181,-9918.759623,0.000000,-766.095498
3275.616518,-10140.821405,370.102971,-2604.724693
3275.616856,-9104.533087,-814.226536,-2451.505594
3275.617193,-9696.697840,-1998.556043,229.828649
3275.617530,-9696.697840,-1998.556043,1915.238745
3275.617868,-9326.594869,-1406.391290,2757.943793
3275.618205,-9992.780217,-444.123565,612.876398
3275.618542,-10807.006753,-1850.514855,-689.485948
3275.618880,-11177.109724,-1628.453072,-1149.143247
3275.619217,-10140.821405,-2146.597232,306.438199
3275.619554,-8808.450710,-1924.535449,1838.629195
3275.619891,-9474.636058,-814.226536,2834.553343
3275.620229,-11103.089130,0.000000,1378.971896
3275.620566,-11103.089130,592.164754,-612.876398
3275.620903,-10955.047942,148.041188,-306.438199
3275.621241,-10881.027347,-148.041188,1302.362347
3275.621578,-10955.047942,-666.185348,2834.553343
3275.621915,-9844.739029,0.000000,2757.943793
3275.622253,-9992.780217,518.144159,612.876398
3275.622590,-11103.089130,222.061783,-229.828649
3275.622927,-11843.295072,0.000000,-1685.410096
3275.623265,-10140.821405,-740.205942,-1838.629195
3275.623602,-8586.388927,-1554.432478,76.609550
3275.623939,-8660.409521,-444.123565,995.924147
3275.624277,-10214.842000,-148.041188,-76.609550
3275.624614,-10214.842000,222.061783,-2374.896044
3275.624951,-9548.656652,592.164754,-1532.190996
3275.625289,-9400.615463,-296.082377,383.047749
3275.625626,-9992.780217,-814.226536,2757.943793
3275.625963,-9548.656652,0.000000,3064.381992
3275.626300,-9474.636058,1184.329507,1532.190996
3275.626638,-10214.842000,1480.411884,0.000000
3275.626975,-10881.027347,888.247130,-766.095498
3275.627312,-9770.718434,-148.041188,229.828649
3275.627649,-8364.327145,370.102971,1149.143247
3275.627987,-9178.553681,1184.329507,1991.848295
3275.628324,-10955.047942,2294.638420,229.828649
3275.628661,-10362.883188,1036.288319,-2681.334243
3275.628999,-10288.862594,1628.453072,-2681.334243
3275.629336,-10066.800811,-222.061783,-919.314598
3275.629673,-10066.800811,-962.267725,1072.533697
3275.630010,-9918.759623,-814.226536,1225.752797
3275.630348,-9918.759623,0.000000,-536.266849
3275.630685,-10881.027347,-888.247130,-2528.115143
3275.631022,-12287.418637,-1554.432478,-2298.286494
3275.631360,-10658.965565,-2442.679609,-842.705048
3275.631697,-8364.327145,-2812.782580,306.438199
3275.632034,-9474.636058,-2442.679609,1991.848295
3275.632371,-10658.965565,-666.185348,306.438199
3275.632709,-11399.171507,-1184.329507,-459.657299
3275.633046,-10436.903782,-962.267725,76.609550
3275.633383,-10140.821405,-1258.350101,1532.190996
3275.633720,-10362.883188,-1480.411884,3370.820191
3275.634058,-10436.903782,-740.205942,3370.820191
3275.634395,-9474.636058,222.061783,2145.067394
3275.634732,-9400.615463,148.041188,612.876398
3275.635070,-10732.986159,370.102971,-612.876398
3275.635407,-10584.944971,-222.061783,-1072.533697
3275.635744,-8438.347739,-666.185348,612.876398
3275.636081,-8586.388927,444.123565,1915.238745
3275.636419,-9252.574275,1036.288319,0.000000
3275.636756,-9918.759623,1924.535449,-1762.019645
3275.637093,-9548.656652,1036.288319,-2757.943793
3275.637430,-9770.718434,444.123565,-1302.362347
3275.637768,-10658.965565,74.020594,1302.362347
3275.638105,-9770.718434,370.102971,1838.629195
3275.638442,-9252.574275,592.164754,995.924147
3275.638780,-10288.862594,222.061783,-1608.800546
3275.639117,-11251.130318,0.000000,-1149.143247
3275.639454,-10066.800811,-814.226536,-995.924147
3275.639791,-9178.553681,-1332.370696,1149.143247
3275.640129,-9844.739029,-666.185348,1991.848295
3275.640466,-10214.842000,0.000000,919.314598
3275.640803,-10362.883188,592.164754,-1378.971896
3275.641140,-10214.842000,370.102971,-689.485948
3275.641478,-9252.574275,-1036.288319,76.609550
3275.641815,-10066.800811,-1406.391290,2757.943793
3275.642152,-10436.903782,-592.164754,3217.601092
3275.642490,-9474.636058,148.041188,0.000000
3275.642827,-10436.903782,-222.061783,-1455.581446
3275.643164,-10955.047942,-1036.288319,-1915.238745
3275.643501,-9178.553681,-2146.597232,-1608.800546
3275.643839,-8438.347739,-2368.659014,76.609550
3275.644176,-9474.636058,-1998.556043,766.095498
3275.644513,-10436.903782,-1184.329507,-1302.362347
3275.644850,-10362.883188,-592.164754,-3447.429741
3275.645188,-10140.821405,-1332.370696,-2681.334243
3275.645525,-9918.759623,-1924.535449,612.876398
3275.645862,-10214.842000,-2442.679609,1838.629195
3275.646200,-10362.883188,-740.205942,2834.553343
3275.646537,-10214.842000,-296.082377,1072.533697
3275.646874,-11991.336260,-444.123565,229.828649
3275.647211,-11991.336260,-296.082377,-76.609550
3275.647549,-9918.759623,-592.164754,383.047749
3275.647886,-9326.594869,-444.123565,3677.258390
3275.648223,-9104.533087,518.144159,3677.258390
3275.648560,-9770.718434,1628.453072,1838.629195
3275.648898,-9992.780217,2368.659014,-689.485948
3275.649235,-9992.780217,1850.514855,153.219100
3275.649572,-9622.677246,1702.473667,919.314598
3275.649910,-9770.718434,444.123565,2451.505594
3275.650247,-9030.512492,1480.411884,2604.724693
3275.650584,-8956.491898,2442.679609,383.047749
3275.650921,-10510.924376,2072.576638,-1149.143247
3275.651259,-11029.068536,222.061783,-3064.381992
3275.651596,-8882.471304,-1036.288319,-2681.334243
3275.651933,-8364.327145,-1554.432478,76.609550
3275.652270,-9104.533087,-1332.370696,919.314598
3275.652608,-9844.739029,-740.205942,-919.314598
3275.652945,-9918.759623,0.000000,-2834.553343
3275.653282,-9548.656652,-296.082377,-2221.676944
3275.653620,-9770.718434,-1406.391290,306.438199
3275.653957,-11177.109724,-2072.576638,3294.210641
3275.654294,-10584.944971,-1036.288319,3064.381992
3275.654631,-11029.068536,-370.102971,1991.848295
3275.654969,-11917.315666,0.000000,306.438199
3275.655306,-11695.253884,-1110.308913,-1302.362347
3275.655643,-10140.821405,-1850.514855,-229.828649
3275.655980,-9178.553681,-1776.494261,2068.457845
3275.656318,-9844.739029,-1184.329507,1915.238745
3275.656655,-10955.047942,814.226536,-306.438199
3275.656992,-10658.965565,592.164754,-3294.210641
3275.657330,-9474.636058,148.041188,-2374.896044
3275.657667,-9400.615463,-1332.370696,-459.657299
3275.658004,-9548.656652,-1554.432478,1915.238745
3275.658341,-9178.553681,-666.185348,2221.676944
3275.658679,-9770.718434,0.000000,536.266849
3275.659016,-11399.171507,296.082377,-1685.410096
3275.659353,-11547.212695,-1184.329507,-1915.238745
3275.659690,-8956.491898,-1554.432478,-766.095498
3275.660028,-8290.306550,-2368.659014,2145.067394
3275.660365,-9030.512492,-740.205942,3217.601092
3275.660702,-9844.739029,296.082377,383.047749
3275.661040,-10658.965565,1184.329507,-1225.752797
3275.661377,-10140.821405,1480.411884,-536.266849
3275.661714,-10214.842000,444.123565,1915.238745
3275.662051,-10436.903782,888.247130,4519.963438
3275.662389,-9474.636058,2886.803174,3677.258390
3275.662726,-10288.862594,1702.473667,1915.238745
3275.663063,-11103.089130,1924.535449,-459.657299
3275.663400,-11325.150913,1184.329507,-1378.971896
3275.663738,-10288.862594,222.061783,306.438199
3275.664075,-8660.409521,-296.082377,689.485948
3275.664412,-9104.533087,74.020594,1072.533697
3275.664750,-9918.759623,592.164754,-995.924147
3275.665087,-8586.388927,296.082377,-4136.915689
3275.665424,-9326.594869,-296.082377,-3524.039291
3275.665761,-10214.842000,-1554.432478,-919.314598
3275.666099,-10214.842000,-1554.432478,1838.629195
3275.666436,-10362.883188,-1776.494261,2298.286494
3275.666773,-9844.739029,-1036.288319,306.438199
3275.667110,-10955.047942,-1924.535449,-1072.533697
3275.667448,-11917.315666,-1998.556043,-995.924147
3275.667785,-9252.574275,-3108.864956,-612.876398
3275.668122,-9252.574275,-2960.823768,2068.457845
3275.668460,-10658.965565,-1924.535449,3524.039291
3275.668797,-10510.924376,-814.226536,306.438199
3275.669134,-10140.821405,814.226536,-612.876398
3275.669471,-10214.842000,-222.061783,-536.266849
3275.669809,-9992.780217,-370.102971,1685.410096
3275.670146,-10214.842000,-222.061783,3983.696590
3275.670483,-10658.965565,962.267725,4366.744339
3275.670821,-10362.883188,1776.494261,919.314598
3275.671158,-11621.233289,1406.391290,-1378.971896
3275.671495,-11029.068536,592.164754,-1991.848295
3275.671832,-8882.471304,-666.185348,-995.924147
3275.672170,-7846.182985,74.020594,1072.533697
3275.672507,-8660.409521,296.082377,1225.752797
3275.672844,-10436.903782,1332.370696,-1302.362347
3275.673181,-10066.800811,518.144159,-4213.525239
3275.673519,-9770.718434,74.020594,-2834.553343
3275.673856,-9918.759623,0.000000,689.485948
3275.674193,-9622.677246,-74.020594,2911.162892
3275.674531,-9326.594869,222.061783,3370.820191
3275.674868,-9844.739029,1184.329507,229.828649
3275.675205,-11325.150913,0.000000,-383.047749
3275.675542,-11991.336260,0.000000,0.000000
3275.675880,-9548.656652,-1480.411884,153.219100
3275.676217,-8956.491898,-592.164754,2374.896044
3275.676554,-9918.759623,444.123565,2298.286494
3275.676891,-9770.718434,222.061783,-536.266849
3275.677229,-9770.718434,740.205942,-1455.581446
3275.677566,-9992.780217,0.000000,-1532.190996
3275.677903,-9918.759623,222.061783,-306.438199
3275.678241,-10732.986159,-666.185348,1225.752797
3275.678578,-10658.965565,0.000000,2221.676944
3275.678915,-9918.759623,0.000000,-1149.143247
3275.679252,-11621.233289,-740.205942,-1762.019645
3275.679590,-11103.089130,-1554.432478,-3064.381992
3275.679927,-9326.594869,-2812.782580,-1608.800546
3275.680264,-9474.636058,-2368.659014,1072.533697
3275.680601,-10214.842000,-2368.659014,1378.971896
3275.680939,-10584.944971,-1110.308913,-766.095498
3275.681276,-10362.883188,-888.247130,-2068.457845
3275.681613,-9844.739029,-740.205942,-306.438199
3275.681951,-9400.615463,-1776.494261,1915.238745
3275.682288,-10510.924376,-1036.288319,3677.258390
3275.682625,-10510.924376,-444.123565,4519.963438
3275.682962,-10436.903782,962.267725,2451.505594
3275.683300,-10955.047942,1036.288319,766.095498
3275.683637,-11177.109724,592.164754,-919.314598
3275.683974,-8512.368333,-296.082377,689.485948
3275.684311,-8216.285956,0.000000,2987.772442
3275.684649,-9474.636058,1554.432478,2911.162892
3275.684986,-9400.615463,2812.782580,-383.047749
3275.685323,-9918.759623,2664.741391,-2221.676944
3275.685661,-9844.739029,1776.494261,-1762.019645
3275.685998,-8882.471304,1406.391290,76.609550
3275.686335,-9622.677246,0.000000,1838.629195
3275.686672,-9400.615463,1924.535449,1685.410096
3275.687010,-10066.800811,666.185348,-459.657299
3275.687347,-11399.171507,222.061783,-1762.019645
3275.687684,-10658.965565,-1480.411884,-2834.553343
3275.688021,-9252.574275,-2146.597232,-306.438199
3275.688359,-8956.491898,-2220.617826,1838.629195
3275.688696,-9474.636058,-1406.391290,1685.410096
3275.689033,-10362.883188,-370.102971,-995.924147
3275.689371,-10584.944971,-444.123565,-1762.019645
3275.689708,-10288.862594,-962.267725,-919.314598
3275.690045,-10362.883188,-1850.514855,1149.143247
3275.690382,-10140.821405,-1258.350101,3524.039291
3275.690720,-10214.842000,-296.082377,3294.210641
3275.691057,-10436.903782,-148.041188,1149.143247
3275.691394,-11103.089130,-1036.288319,-919.314598
3275.691731,-11029.068536,-1036.288319,-1762.019645
3275.692069,-9622.677246,-962.267725,-919.314598
3275.692406,-9992.780217,-1776.494261,1608.800546
3275.692743,-9696.697840,-888.247130,612.876398
3275.693081,-9844.739029,-296.082377,-1532.190996
3275.693418,-9770.718434,0.000000,-1455.581446
3275.693755,-9622.677246,-888.247130,-1302.362347
3275.694092,-10214.842000,-1554.432478,0.000000
3275.694430,-10214.842000,-1332.370696,1915.238745
3275.694767,-9622.677246,-296.082377,1532.190996
3275.695104,-10436.903782,0.000000,919.314598
3275.695441,-11399.171507,-444.123565,-995.924147
3275.695779,-10066.800811,-740.205942,-1685.410096
3275.696116,-8216.285956,-296.082377,0.000000
3275.696453,-8734.430116,-740.205942,2604.724693
3275.696791,-10214.842000,666.185348,2987.772442
3275.697128,-10436.903782,1554.432478,612.876398
3275.697465,-9770.718434,2368.659014,-459.657299
3275.697802,-10214.842000,2072.576638,1072.533697
3275.698140,-10436.903782,1406.391290,2451.505594
3275.698477,-9622.677246,1332.370696,2911.162892
3275.698814,-9400.615463,1776.494261,1685.410096
3275.699151,-10288.862594,2072.576638,383.047749
3275.699489,-11399.171507,444.123565,-2068.457845
3275.699826,-10066.800811,444.123565,-2145.067394
3275.700163,-7772.162391,-1036.288319,-1608.800546
3275.700501,-8438.347739,-1258.350101,229.828649
3275.700838,-9696.697840,-592.164754,0.000000
3275.701175,-10140.821405,-740.205942,-1991.848295
3275.701512,-9918.759623,-888.247130,-2757.943793
3275.701850,-9918.759623,-1554.432478,-1915.238745
3275.702187,-10732.986159,-1554.432478,995.924147
3275.702524,-9918.759623,-2812.782580,2911.162892
3275.702861,-9844.739029,-1776.494261,2681.334243
3275.703199,-10362.883188,-1258.350101,306.438199
3275.703536,-11843.295072,-1406.391290,-536.266849
3275.703873,-11029.068536,-1702.473667,-1225.752797
3275.704211,-9844.739029,-2368.659014,153.219100
3275.704548,-9030.512492,-1776.494261,2834.553343
3275.704885,-10066.800811,-444.123565,2681.334243
3275.705222,-9844.739029,0.000000,612.876398
3275.705560,-10066.800811,740.205942,-536.266849
3275.705897,-10658.965565,222.061783,689.485948
3275.706234,-11103.089130,296.082377,1991.848295
3275.706571,-10510.924376,592.164754,2834.553343
3275.706909,-9992.780217,888.247130,2145.067394
3275.707246,-9770.718434,1184.329507,0.000000
3275.707583,-10807.006753,518.144159,-1378.971896
3275.707921,-10140.821405,0.000000,-2451.505594
3275.708258,-8364.327145,-888.247130,-1532.190996
3275.708595,-8290.306550,-814.226536,766.095498
3275.708932,-9548.656652,74.020594,689.485948
3275.709270,-9696.697840,444.123565,-612.876398
3275.709607,-9770.718434,962.267725,-1532.190996
3275.709944,-10436.903782,666.185348,459.657299
3275.710281,-10658.965565,222.061783,2374.896044
3275.710619,-10510.924376,444.123565,2911.162892
3275.710956,-10732.986159,1406.391290,3447.429741
3275.711293,-10881.027347,370.102971,995.924147
3275.711631,-11029.068536,962.267725,-919.314598
3275.711968,-9770.718434,-222.061783,-1149.143247
3275.712305,-8290.306550,-296.082377,0.000000
3275.712642,-8956.491898,-814.226536,919.314598
3275.712980,-10140.821405,0.000000,766.095498
3275.713317,-9844.739029,1184.329507,-1991.848295
3275.713654,-10436.903782,148.041188,-2298.286494
3275.713992,-10066.800811,-444.123565,-1991.848295
3275.714329,-9178.553681,-1628.453072,-306.438199
3275.714666,-9770.718434,-1924.535449,2068.457845
3275.715003,-9474.636058,-1406.391290,1378.971896
3275.715341,-10362.883188,-1850.514855,-383.047749
3275.715678,-11473.192101,-1924.535449,-2604.724693
3275.716015,-10140.821405,-2294.638420,-3677.258390
3275.716352,-8882.471304,-2738.761985,-1225.752797
3275.716690,-10066.800811,-2664.741391,1532.190996
3275.717027,-10362.883188,-1554.432478,1149.143247
3275.717364,-10436.903782,-666.185348,-153.219100
3275.717702,-10807.006753,296.082377,0.000000
3275.718039,-10732.986159,-296.082377,919.314598
3275.718376,-10955.047942,-814.226536,2374.896044
3275.718713,-11325.150913,74.020594,4749.792088
3275.719051,-10584.944971,1110.308913,3370.820191
3275.719388,-10140.821405,1480.411884,1532.190996
3275.719725,-10955.047942,1628.453072,-766.095498
3275.720062,-9770.718434,1110.308913,-1685.410096
3275.720400,-8142.265362,518.144159,0.000000
3275.720737,-8882.471304,740.205942,1532.190996
3275.721074,-9474.636058,1036.288319,1149.143247
3275.721412,-9178.553681,1702.473667,-1149.143247
3275.721749,-10140.821405,1628.453072,-2374.896044
3275.722086,-9548.656652,296.082377,-1991.848295
3275.722423,-9030.512492,-370.102971,-383.047749
3275.722761,-9178.553681,-1258.350101,2681.334243
3275.723098,-8734.430116,-1110.308913,2451.505594
3275.723435,-9770.718434,0.000000,536.266849
3275.723772,-11325.150913,-740.205942,-919.314598
3275.724110,-10140.821405,-1184.329507,-1915.238745
3275.724447,-8882.471304,-1702.473667,0.000000
3275.724784,-9696.697840,-1850.514855,2757.943793
3275.725122,-9992.780217,-148.041188,1838.629195
3275.725459,-11103.089130,0.000000,153.219100
3275.725796,-11547.212695,296.082377,-536.266849
3275.726133,-11177.109724,-370.102971,0.000000
3275.726471,-11177.109724,-1258.350101,2374.896044
3275.726808,-10140.821405,-1480.411884,3677.258390
3275.727146,-9474.636058,-296.082377,2681.334243
3275.727483,-10732.986159,666.185348,0.000000
3275.727821,-11473.192101,-296.082377,-2604.724693
3275.728158,-10140.821405,-1110.308913,-2834.553343
3275.728495,-9400.615463,-2294.638420,-995.924147
3275.728833,-9622.677246,-1036.288319,459.657299
3275.729170,-9252.574275,-518.144159,153.219100
3275.729508,-9770.718434,-444.123565,-2374.896044
3275.729845,-9696.697840,-1184.329507,-2298.286494
3275.730182,-9400.615463,-1776.494261,-1608.800546
3275.730520,-9548.656652,-1480.411884,612.876398
3275.730857,-10066.800811,-1998.556043,3217.601092
3275.731195,-9844.739029,-296.082377,3677.258390
3275.731532,-10436.903782,592.164754,766.095498
3275.731869,-11029.068536,370.102971,-689.485948
3275.732207,-9844.739029,518.144159,-1378.971896
3275.732544,-9326.594869,-740.205942,1455.581446
3275.732882,-9992.780217,222.061783,4213.525239
3275.733219,-9548.656652,1702.473667,2068.457845
3275.733556,-10881.027347,2294.638420,76.609550
3275.733894,-10362.883188,2590.720797,-2145.067394
3275.734231,-10436.903782,1036.288319,-1532.190996
3275.734569,-10066.800811,888.247130,919.314598
3275.734906,-9178.553681,444.123565,1378.971896
3275.735244,-9104.533087,222.061783,2145.067394
3275.735581,-10510.924376,518.144159,0.000000
3275.735918,-11103.089130,370.102971,-2604.724693
3275.736256,-9548.656652,-370.102971,-3064.381992
3275.736593,-8882.471304,-2220.617826,-842.705048
3275.736931,-9252.574275,-2738.761985,1532.190996
3275.737268,-9696.697840,-2220.617826,1685.410096
3275.737605,-10288.862594,-370.102971,-306.438199
3275.737943,-11103.089130,-740.205942,-1608.800546
3275.738280,-11103.089130,-1850.514855,-689.485948
3275.738618,-9548.656652,-2960.823768,919.314598
3275.738955,-9918.759623,-2146.597232,3677.258390
3275.739292,-9992.780217,-814.226536,3983.696590
3275.739630,-10658.965565,-666.185348,689.485948
3275.739967,-11621.233289,-518.144159,-842.705048
3275.740305,-10436.903782,-666.185348,-1915.238745
3275.740642,-9622.677246,-666.185348,842.705048
3275.740980,-10362.883188,-592.164754,3294.210641
3275.741317,-10140.821405,148.041188,2145.067394
3275.741654,-9918.759623,1480.411884,-536.266849
3275.741992,-10955.047942,962.267725,-1302.362347
3275.742329,-10362.883188,444.123565,-383.047749
3275.742667,-10288.862594,-296.082377,995.924147
3275.743004,-9474.636058,-148.041188,1991.848295
3275.743341,-9474.636058,1258.350101,1378.971896
3275.743679,-10362.883188,444.123565,-1302.362347
3275.744016,-10066.800811,-592.164754,-2528.115143
3275.744354,-9326.594869,-666.185348,-2374.896044
3275.744691,-8068.244768,-1184.329507,612.876398
3275.745028,-8586.388927,-740.205942,2757.943793
3275.745366,-10288.862594,0.000000,1915.238745
3275.745703,-9918.759623,888.247130,-1378.971896
3275.746041,-10436.903782,666.185348,-1608.800546
3275.746378,-10510.924376,444.123565,689.485948
3275.746715,-10066.800811,-962.267725,2298.286494
3275.747053,-9770.718434,74.020594,4366.744339
3275.747390,-9622.677246,1036.288319,2374.896044
3275.747728,-10362.883188,1406.391290,0.000000
3275.748065,-11473.192101,814.226536,-2068.457845
3275.748403,-10658.965565,-814.226536,-1991.848295
3275.748740,-9178.553681,-74.020594,459.657299
3275.749077,-10658.965565,-740.205942,2374.896044
3275.749415,-10436.903782,-296.082377,919.314598
3275.749752,-9770.718434,0.000000,-1838.629195
3275.750090,-10436.903782,-370.102971,-2221.676944
3275.750427,-10140.821405,-1332.370696,-1991.848295
3275.750764,-9696.697840,-2664.741391,-766.095498
3275.751102,-9992.780217,-2294.638420,2451.505594
3275.751439,-10214.842000,-1776.494261,1915.238745
3275.751777,-9992.780217,-1628.453072,0.000000
3275.752114,-11103.089130,-1258.350101,-2298.286494
3275.752451,-9992.780217,-1998.556043,-1532.190996
3275.752789,-9030.512492,-2664.741391,919.314598
3275.753126,-9474.636058,-1702.473667,3677.258390
3275.753464,-10362.883188,0.000000,3140.991542
3275.753801,-11103.089130,666.185348,0.000000
3275.754138,-11177.109724,666.185348,-689.485948
3275.754476,-10362.883188,444.123565,229.828649
3275.754813,-9992.780217,0.000000,2221.676944
3275.755151,-9474.636058,444.123565,3677.258390
3275.755488,-9400.615463,1924.535449,1685.410096
3275.755826,-9992.780217,2220.617826,-612.876398
3275.756163,-10955.047942,1258.350101,-2987.772442
3275.756500,-9622.677246,518.144159,-2068.457845
3275.756838,-7698.141797,-740.205942,0.000000
3275.757175,-8808.450710,0.000000,2757.943793
3275.757513,-9400.615463,1406.391290,383.047749
3275.757850,-10288.862594,666.185348,-2221.676944
3275.758187,-10584.944971,370.102971,-2834.553343
3275.758525,-9622.677246,-1702.473667,-2451.505594
3275.758862,-9548.656652,-1184.329507,1072.533697
3275.759200,-9474.636058,-1850.514855,3677.258390
3275.759537,-8956.491898,-888.247130,1685.410096
3275.759874,-10288.862594,-444.123565,-995.924147
3275.760212,-11325.150913,-592.164754,-1838.629195
3275.760549,-10362.883188,-1332.370696,-1378.971896
3275.760887,-9770.718434,-1628.453072,1225.752797
3275.761224,-10288.862594,-518.144159,3677.258390
3275.761561,-10066.800811,370.102971,1225.752797
3275.761899,-10658.965565,666.185348,-919.314598
3275.762236,-10881.027347,148.041188,-2451.505594
3275.762574,-9992.780217,-1628.453072,-76.609550
3275.762911,-9548.656652,-1036.288319,1838.629195
3275.763249,-10436.903782,-740.205942,2757.943793
3275.763586,-9548.656652,148.041188,995.924147
3275.763923,-10140.821405,0.000000,-1685.410096
3275.764261,-11251.130318,0.000000,-2757.943793
3275.764598,-9770.718434,-888.247130,-2221.676944
3275.764936,-9178.553681,-1258.350101,0.000000
3275.765273,-9326.594869,-1554.432478,1838.629195
3275.765610,-9548.656652,-592.164754,689.485948
3275.765948,-10436.903782,518.144159,-766.095498
3275.766285,-10584.944971,0.000000,-1608.800546
3275.766623,-9474.636058,-222.061783,-76.609550
3275.766960,-9622.677246,-1110.308913,2374.896044
3275.767297,-10140.821405,-740.205942,4673.182538
3275.767635,-10510.924376,1554.432478,2681.334243
3275.767972,-10436.903782,1480.411884,306.438199
3275.768310,-11251.130318,1332.370696,-612.876398
3275.768647,-9696.697840,888.247130,0.000000
3275.768985,-8882.471304,814.226536,2374.896044
3275.769322,-9548.656652,1258.350101,3677.258390
3275.769659,-10436.903782,1406.391290,995.924147
3275.769997,-10658.965565,2294.638420,-1302.362347
3275.770334,-10214.842000,1036.288319,-2987.772442
3275.770672,-8882.471304,-296.082377,-1532.190996
3275.771009,-8808.450710,-1702.473667,689.485948
3275.771346,-9400.615463,-1480.411884,2604.724693
3275.771684,-9400.615463,0.000000,536.266849
3275.772021,-11103.089130,-888.247130,-2145.067394
3275.772359,-10881.027347,-1184.329507,-3447.429741
3275.772696,-9918.759623,-2368.659014,-2604.724693
3275.773033,-9474.636058,-2442.679609,1685.410096
3275.773371,-9474.636058,-2368.659014,2528.115143
3275.773708,-10140.821405,-2220.617826,1149.143247
3275.774046,-10807.006753,-1628.453072,-995.924147
3275.774383,-10955.047942,-1258.350101,-1532.190996
3275.774720,-10436.903782,-1480.411884,76.609550
3275.775058,-10955.047942,-2294.638420,2528.115143
3275.775395,-10362.883188,-888.247130,4366.744339
3275.775733,-10066.800811,0.000000,2451.505594
3275.776070,-10807.006753,518.144159,0.000000
3275.776408,-11769.274478,74.020594,-1225.752797
3275.776745,-10362.883188,-222.061783,-766.095498
3275.777082,-9104.533087,-222.061783,1225.752797
3275.777420,-9326.594869,148.041188,2374.896044
3275.777757,-10066.800811,814.226536,919.314598
3275.778095,-9918.759623,518.144159,-1991.848295
3275.778432,-10066.800811,592.164754,-2221.676944
3275.778769,-9252.574275,0.000000,-1149.143247
3275.779107,-8956.491898,-962.267725,612.876398
3275.779444,-9178.553681,0.000000,2145.067394
3275.779782,-8882.471304,222.061783,612.876398
3275.780119,-9548.656652,296.082377,-995.924147
3275.780456,-10362.883188,0.000000,-1532.190996
3275.780794,-9178.553681,-740.205942,-842.705048
3275.781131,-9178.553681,-1110.308913,2374.896044
3275.781469,-9326.594869,222.061783,2757.943793
3275.781806,-10658.965565,1110.308913,1991.848295
3275.782143,-11843.295072,1036.288319,-766.095498
3275.782481,-10732.986159,740.205942,-842.705048
3275.782818,-9844.739029,0.000000,459.657299
3275.783156,-9770.718434,-814.226536,2298.286494
3275.783493,-9696.697840,444.123565,3140.991542
3275.783831,-10658.965565,296.082377,995.924147
3275.784168,-10732.986159,962.267725,-1915.238745
3275.784505,-11621.233289,0.000000,-2298.286494
3275.784843,-10288.862594,-888.247130,-1532.190996
3275.785180,-8586.388927,-2146.597232,-306.438199
3275.785518,-9252.574275,-1480.411884,1532.190996
3275.785855,-9918.759623,-962.267725,-306.438199
3275.786192,-10140.821405,-1110.308913,-1762.019645
3275.786530,-10436.903782,-1480.411884,-2068.457845
3275.786867,-9696.697840,-2664.741391,-842.705048
3275.787205,-9696.697840,-2146.597232,2374.896044
3275.787542,-10066.800811,-1554.432478,2451.505594
3275.787879,-10066.800811,-148.041188,1149.143247
3275.788217,-10436.903782,-296.082377,-995.924147
3275.788554,-11251.130318,-592.164754,-1455.581446
3275.788892,-10066.800811,-74.020594,229.828649
3275.789229,-9474.636058,-740.205942,2834.553343
3275.789566,-10066.800811,814.226536,4136.915689
3275.789904,-10955.047942,1036.288319,2298.286494
3275.790241,-10955.047942,2590.720797,0.000000
3275.790579,-10140.821405,1776.494261,-842.705048
3275.790916,-10510.924376,962.267725,1838.629195
3275.791254,-9992.780217,1036.288319,2681.334243
3275.791591,-9548.656652,1998.556043,1915.238745
3275.791928,-9474.636058,1998.556043,0.000000
3275.792266,-9770.718434,1776.494261,-2221.676944
3275.792603,-10584.944971,444.123565,-2298.286494
3275.792941,-9178.553681,740.205942,-2298.286494
3275.793278,-8142.265362,-1184.329507,-612.876398
3275.793615,-9548.656652,-888.247130,1762.019645
3275.793953,-9918.759623,-666.185348,0.000000
3275.794290,-9992.780217,-370.102971,-1378.971896
3275.794628,-10362.883188,-740.205942,-842.705048
3275.794965,-9326.594869,-2072.576638,-306.438199
3275.795302,-9548.656652,-2368.659014,2451.505594
3275.795640,-10362.883188,-1850.514855,3600.648841
3275.795977,-9548.656652,0.000000,1302.362347
3275.796315,-11029.068536,-1184.329507,-766.095498
3275.796652,-11917.315666,-370.102971,-1149.143247
3275.796990,-9844.739029,-1110.308913,-766.095498
3275.797327,-9770.718434,-962.267725,1685.410096
3275.797664,-9844.739029,-370.102971,2374.896044
3275.798002,-10436.903782,0.000000,306.438199
3275.798339,-11029.068536,444.123565,-1072.533697
3275.798677,-10881.027347,-518.144159,-1608.800546
3275.799014,-9622.677246,-740.205942,-229.828649
3275.799351,-10066.800811,-2072.576638,1685.410096
3275.799689,-9918.759623,-888.247130,1149.143247
3275.800026,-9252.574275,222.061783,-1532.190996
3275.800364,-10584.944971,-74.020594,-2221.676944
3275.800701,-11029.068536,-1110.308913,-2451.505594
3275.801038,-9622.677246,-2368.659014,-1762.019645
3275.801376,-8882.471304,-1258.350101,842.705048
3275.801713,-9622.677246,-666.185348,1991.848295
3275.802051,-9918.759623,0.000000,536.266849
3275.802388,-9548.656652,518.144159,-1072.533697
3275.802725,-10658.965565,0.000000,536.266849
3275.803063,-9696.697840,444.123565,1685.410096
3275.803400,-9844.739029,222.061783,3370.820191
3275.803738,-10066.800811,370.102971,4290.134789
3275.804075,-9548.656652,2072.576638,2145.067394
3275.804413,-10066.800811,1628.453072,0.000000
3275.804750,-11103.089130,2294.638420,-1302.362347
3275.805087,-9178.553681,444.123565,-1378.971896
3275.805425,-9030.512492,1036.288319,612.876398
3275.805762,-9770.718434,444.123565,766.095498
3275.806100,-10584.944971,814.226536,-689.485948
3275.806437,-10288.862594,0.000000,-1991.848295
3275.806774,-9918.759623,-296.082377,-1608.800546
3275.807112,-9770.718434,-74.020594,-306.438199
3275.807449,-10510.924376,-1776.494261,995.924147
3275.807787,-10436.903782,-1110.308913,1455.581446
3275.808124,-9992.780217,-1702.473667,-153.219100
3275.808461,-11251.130318,-1258.350101,-1149.143247
3275.808799,-11251.130318,-1554.432478,-2221.676944
3275.809136,-10066.800811,-2516.700203,-612.876398
3275.809474,-9104.533087,-2664.741391,1225.752797
3275.809811,-9770.718434,-2146.597232,3140.991542
3275.810148,-10732.986159,-222.061783,1838.629195
3275.810486,-11399.171507,-666.185348,-383.047749
3275.810823,-10732.986159,-370.102971,76.609550
3275.811161,-9696.697840,-1258.350101,1302.362347
3275.811498,-10066.800811,0.000000,3830.477490
3275.811836,-9400.615463,74.020594,3753.867940
3275.812173,-9918.759623,1628.453072,766.095498
3275.812510,-10732.986159,1110.308913,-1302.362347
3275.812848,-11177.109724,1184.329507,-2911.162892
3275.813185,-9252.574275,0.000000,-1991.848295
3275.813523,-9030.512492,0.000000,459.657299
3275.813860,-8882.471304,0.000000,995.924147
3275.814197,-9770.718434,1184.329507,-536.266849
3275.814535,-9844.739029,666.185348,-1838.629195
3275.814872,-10140.821405,740.205942,-1685.410096
3275.815210,-9696.697840,-962.267725,-306.438199
3275.815547,-10288.862594,296.082377,2068.457845
3275.815884,-10140.821405,592.164754,2298.286494
3275.816222,-9844.739029,962.267725,1225.752797
3275.816559,-10436.903782,1110.308913,-383.047749
3275.816897,-10955.047942,0.000000,-919.314598
3275.817234,-9770.718434,0.000000,76.609550
3275.817571,-9474.636058,-444.123565,536.266849
3275.817909,-10066.800811,148.041188,2145.067394
3275.818246,-10066.800811,518.144159,536.266849
3275.818584,-9696.697840,370.102971,-1072.533697
3275.818921,-9770.718434,444.123565,-536.266849
3275.819259,-10214.842000,-888.247130,306.438199
3275.819596,-9770.718434,-814.226536,1762.019645
3275.819933,-9992.780217,-518.144159,1838.629195
3275.820271,-9770.718434,0.000000,0.000000
3275.820608,-10881.027347,-592.164754,-2604.724693
3275.820946,-11029.068536,-1258.350101,-3753.867940
3275.821283,-9030.512492,-2368.659014,-2528.115143
3275.821620,-8290.306550,-2812.782580,-459.657299
3275.821958,-9474.636058,-2442.679609,1532.190996
3275.822295,-10807.006753,-2146.597232,995.924147
3275.822633,-10658.965565,-962.267725,-536.266849
3275.822970,-10807.006753,-888.247130,0.000000
3275.823307,-10732.986159,-1554.432478,1455.581446
3275.823645,-10288.862594,-1998.556043,3217.601092
3275.823982,-10584.944971,-1036.288319,4903.011187
3275.824320,-10510.924376,296.082377,3370.820191
3275.824657,-11177.109724,1110.308913,1072.533697
3275.824995,-11917.315666,962.267725,-919.314598
3275.825332,-9992.780217,0.000000,-1072.533697
3275.825669,-8290.306550,518.144159,2068.457845
3275.826007,-9400.615463,814.226536,3830.477490
3275.826344,-9844.739029,1628.453072,689.485948
3275.826682,-9992.780217,2368.659014,-1302.362347
3275.827019,-10362.883188,1628.453072,-1608.800546
3275.827356,-9770.718434,1702.473667,-536.266849
3275.827694,-9474.636058,518.144159,536.266849
3275.828031,-9178.553681,518.144159,1838.629195
3275.828368,-7994.224174,592.164754,-459.657299
3275.828706,-10214.842000,0.000000,-1455.581446
3275.829043,-11029.068536,0.000000,-2528.115143
3275.829380,-9548.656652,-2960.823768,-1991.848295
3275.829717,-8808.450710,-1406.391290,1455.581446
3275.830055,-9548.656652,-1258.350101,1762.019645
3275.830392,-10658.965565,-962.267725,306.438199
3275.830729,-9992.780217,-740.205942,-2145.067394
3275.831067,-10436.903782,-1110.308913,0.000000
3275.831404,-10955.047942,-1406.391290,1608.800546
3275.831741,-11177.109724,-1628.453072,2834.553343
3275.832079,-11399.171507,-370.102971,2757.943793
3275.832416,-9992.780217,296.082377,229.828649
3275.832753,-11547.212695,-518.144159,-995.924147
3275.833091,-11769.274478,-592.164754,-1838.629195
3275.833428,-9770.718434,-962.267725,-1608.800546
3275.833765,-9326.594869,-1036.288319,919.314598
3275.834102,-10140.821405,-888.247130,1072.533697
3275.834440,-10214.842000,0.000000,-766.095498
3275.834777,-10288.862594,-222.061783,-2145.067394
3275.835114,-9474.636058,-962.267725,-1302.362347
3275.835452,-9400.615463,-888.247130,-153.219100
3275.835789,-10214.842000,-1776.494261,1225.752797
3275.836126,-9844.739029,-1036.288319,1915.238745
3275.836464,-9474.636058,-592.164754,76.609550
3275.836801,-10214.842000,-740.205942,-536.266849
3275.837138,-10584.944971,-740.205942,-1302.362347
3275.837476,-8734.430116,-1480.411884,-306.438199
3275.837813,-8290.306550,-1036.288319,2298.286494
3275.838150,-9474.636058,296.082377,3370.820191
3275.838488,-10362.883188,2368.659014,1225.752797
3275.838825,-10732.986159,2590.720797,-1455.581446
3275.839162,-10140.821405,1480.411884,0.000000
3275.839499,-9474.636058,1258.350101,1532.190996
3275.839837,-9844.739029,1110.308913,4213.525239
3275.840174,-10066.800811,2294.638420,3830.477490
3275.840511,-10214.842000,2146.597232,459.657299
3275.840849,-11621.233289,2146.597232,-1915.238745
3275.841186,-11547.212695,444.123565,-2987.772442
3275.841523,-8586.388927,-370.102971,-2374.896044
3275.841861,-7476.080014,-1480.411884,383.047749
3275.842198,-9622.677246,0.000000,1455.581446
3275.842535,-9622.677246,0.000000,-1302.362347
3275.842873,-10658.965565,74.020594,-3600.648841
3275.843210,-9992.780217,-666.185348,-2757.943793
3275.843547,-9918.759623,-2442.679609,0.000000
3275.843884,-10362.883188,-2664.741391,3447.429741
3275.844222,-9844.739029,-1776.494261,3064.381992
3275.844559,-10140.821405,-1850.514855,1991.848295
3275.844896,-11325.150913,-1406.391290,-919.314598
3275.845234,-11325.150913,-2664.741391,-1685.410096
3275.845571,-9474.636058,-1776.494261,153.219100
3275.845908,-9252.574275,-2368.659014,3064.381992
3275.846246,-10066.800811,-740.205942,2604.724693
3275.846583,-10140.821405,222.061783,229.828649
3275.846920,-9992.780217,1036.288319,-1532.190996
3275.847258,-10214.842000,592.164754,-536.266849
3275.847595,-10658.965565,74.020594,1762.019645
3275.847932,-10658.965565,148.041188,2987.772442
3275.848269,-9770.718434,1406.391290,2374.896044
3275.848607,-10214.842000,1480.411884,612.876398
3275.848944,-11325.150913,1406.391290,-1915.238745
3275.849281,-10658.965565,74.020594,-3064.381992
3275.849619,-8364.327145,-962.267725,-1915.238745
3275.849956,-8142.265362,-1406.391290,306.438199
3275.850293,-8956.491898,-814.226536,1608.800546
3275.850631,-9844.739029,0.000000,-842.705048
3275.850968,-9770.718434,1110.308913,-1838.629195
3275.851305,-9844.739029,518.144159,-1532.190996
3275.851643,-9696.697840,74.020594,995.924147
3275.851980,-10066.800811,-1258.350101,3830.477490
3275.852317,-9696.697840,444.123565,4136.915689
3275.852655,-10066.800811,444.123565,2221.676944
3275.852992,-11769.274478,444.123565,-383.047749
3275.853329,-11103.089130,-666.185348,-2374.896044
3275.853666,-8882.471304,-1702.473667,-689.485948
3275.854004,-8660.409521,-1258.350101,2145.067394
3275.854341,-9104.533087,-370.102971,1762.019645
3275.854678,-10658.965565,0.000000,-919.314598
3275.855016,-10436.903782,518.144159,-2757.943793
3275.855353,-10288.862594,-888.247130,-1532.190996
3275.855690,-10732.986159,-1406.391290,536.266849
3275.856028,-10066.800811,-1776.494261,2145.067394
3275.856365,-10362.883188,-1628.453072,2298.286494
3275.856702,-10362.883188,-814.226536,-612.876398
3275.857040,-11325.150913,-2146.597232,-2987.772442
3275.857377,-11621.233289,-2516.700203,-2757.943793
3275.857714,-9918.759623,-3849.070898,-995.924147
3275.858051,-8290.306550,-2960.823768,1378.971896
3275.858389,-9326.594869,-1850.514855,2221.676944
3275.858726,-10584.944971,0.000000,0.000000
3275.859063,-10214.842000,74.020594,-1685.410096
3275.859401,-10732.986159,-666.185348,-306.438199
3275.859738,-10436.903782,222.061783,2757.943793
3275.860075,-11399.171507,-148.041188,5132.839837
3275.860413,-10584.944971,1702.473667,4903.011187
3275.860750,-9474.636058,1628.453072,1455.581446
3275.861087,-10807.006753,1850.514855,-1149.143247
3275.861425,-10807.006753,1110.308913,-2068.457845
3275.861762,-8364.327145,-370.102971,-536.266849
3275.862099,-7476.080014,444.123565,2145.067394
3275.862437,-9104.533087,1776.494261,2451.505594
3275.862774,-10214.842000,2664.741391,-383.047749
3275.863111,-10362.883188,2590.720797,-3370.820191
3275.863448,-9770.718434,1480.411884,-2604.724693
3275.863786,-9696.697840,222.061783,0.000000
3275.864123,-9252.574275,-962.267725,2528.115143
3275.864460,-8734.430116,-222.061783,2987.772442
3275.864798,-9696.697840,-592.164754,0.000000
3275.865135,-10658.965565,-1184.329507,-2374.896044
3275.865472,-10807.006753,-1258.350101,-2604.724693
3275.865810,-8956.491898,-2812.782580,-689.485948
3275.866147,-8586.388927,-2368.659014,1838.629195
3275.866484,-10066.800811,-1554.432478,2451.505594
3275.866822,-10732.986159,370.102971,-229.828649
3275.867159,-11473.192101,444.123565,-1149.143247
3275.867496,-11177.109724,-592.164754,0.000000
3275.867833,-10214.842000,-1628.453072,1532.190996
3275.868171,-10436.903782,-1184.329507,3983.696590
3275.868508,-10214.842000,-370.102971,3370.820191
3275.868845,-10436.903782,0.000000,0.000000
3275.869183,-11843.295072,-296.082377,-2451.505594
3275.869520,-11399.171507,-740.205942,-2374.896044
3275.869857,-9400.615463,-1776.494261,-1608.800546
3275.870195,-9030.512492,-1332.370696,842.705048
3275.870532,-9474.636058,-962.267725,536.266849
3275.870869,-9474.636058,444.123565,-1532.190996
3275.871207,-9548.656652,-296.082377,-2834.553343
3275.871544,-9770.718434,-962.267725,-1225.752797
3275.871881,-9770.718434,-1924.535449,1378.971896
3275.872219,-9548.656652,-592.164754,3524.039291
3275.872556,-10140.821405,0.000000,3140.991542
3275.872893,-9548.656652,888.247130,383.047749
3275.873230,-10510.924376,0.000000,-536.266849
3275.873568,-10658.965565,-296.082377,-766.095498
3275.873905,-8068.244768,-370.102971,612.876398
3275.874242,-8956.491898,148.041188,3524.039291
3275.874580,-10140.821405,1776.494261,2604.724693
3275.874917,-9622.677246,3108.864956,-995.924147
3275.875254,-10658.965565,2220.617826,-1225.752797
3275.875592,-10510.924376,1998.556043,-919.314598
3275.875929,-10140.821405,740.205942,1072.533697
3275.876266,-9918.759623,222.061783,2911.162892
3275.876604,-9474.636058,148.041188,2145.067394
3275.876941,-9696.697840,222.061783,229.828649
3275.877278,-11103.089130,-222.061783,-2451.505594
3275.877615,-9992.780217,-1776.494261,-3524.039291
3275.877953,-8586.388927,-2368.659014,-2145.067394
3275.878290,-8734.430116,-2664.741391,1149.143247
3275.878627,-9548.656652,-1998.556043,612.876398
3275.878965,-10955.047942,-1554.432478,-1455.581446
3275.879302,-10955.047942,-1258.350101,-2068.457845
3275.879639,-10066.800811,-1554.432478,-1225.752797
3275.879977,-10214.842000,-2738.761985,1532.190996
3275.880314,-10658.965565,-2664.741391,4443.353888
3275.880651,-10288.862594,-1850.514855,2911.162892
3275.880989,-10732.986159,-592.164754,919.314598
3275.881326,-12287.418637,-740.205942,-612.876398
3275.881663,-11177.109724,-962.267725,-1685.410096
3275.882000,-9252.574275,-1628.453072,0.000000
3275.882338,-8956.491898,-666.185348,3140.991542
3275.882675,-10510.924376,148.041188,3294.210641
3275.883012,-10955.047942,1628.453072,-383.047749
3275.883350,-10436.903782,2294.638420,-2374.896044
3275.883687,-10436.903782,592.164754,-229.828649
3275.884024,-10066.800811,296.082377,1685.410096
3275.884362,-10140.821405,74.020594,2987.772442
3275.884699,-8956.491898,1110.308913,1991.848295
3275.885036,-8956.491898,1258.350101,-536.266849
3275.885374,-11029.068536,740.205942,-1991.848295
3275.885711,-9992.780217,148.041188,-2451.505594
3275.886048,-8290.306550,-444.123565,-383.047749
3275.886386,-8734.430116,-666.185348,1762.019645
3275.886723,-9326.594869,740.205942,1072.533697
3275.887060,-9474.636058,1480.411884,-612.876398
3275.887397,-10510.924376,1332.370696,-995.924147
3275.887735,-10140.821405,370.102971,153.219100
3275.888072,-10584.944971,74.020594,2757.943793
3275.888409,-10658.965565,148.041188,4443.353888
3275.888747,-9770.718434,1036.288319,3294.210641
3275.889084,-10214.842000,370.102971,0.000000
3275.889421,-11251.130318,-370.102971,-1762.019645
3275.889759,-10510.924376,-666.185348,-1532.190996
3275.890096,-9770.718434,-740.205942,229.828649
3275.890433,-9474.636058,-1258.350101,919.314598
3275.890771,-9696.697840,-444.123565,-612.876398
3275.891108,-10436.903782,370.102971,-2374.896044
3275.891445,-10732.986159,-296.082377,-3294.210641
3275.891782,-9992.780217,-2146.597232,-2298.286494
3275.892120,-9844.739029,-2590.720797,306.438199
3275.892457,-9844.739029,-3256.906145,2757.943793
3275.892794,-9844.739029,-1776.494261,2298.286494
3275.893132,-11029.068536,-2442.679609,-459.657299
3275.893469,-11621.233289,-1776.494261,-1685.410096
3275.893806,-11103.089130,-2072.576638,-1225.752797
3275.894144,-9178.553681,-2442.679609,536.266849
3275.894481,-8956.491898,-2220.617826,2987.772442
3275.894818,-10807.006753,-740.205942,2987.772442
3275.895156,-9918.759623,592.164754,0.000000
3275.895493,-9770.718434,1258.350101,-919.314598
3275.895830,-10510.924376,740.205942,689.485948
3275.896168,-9992.780217,296.082377,2681.334243
3275.896505,-10066.800811,1406.391290,4136.915689
3275.896842,-9178.553681,1850.514855,2528.115143
3275.897179,-10510.924376,2812.782580,0.000000
3275.897517,-11695.253884,1924.535449,-1302.362347
3275.897854,-10066.800811,1036.288319,-1149.143247
3275.898191,-7698.141797,222.061783,153.219100
3275.898529,-8364.327145,444.123565,1532.190996
3275.898866,-9474.636058,1628.453072,689.485948
3275.899203,-10066.800811,1628.453072,-2604.724693
3275.899541,-9400.615463,1406.391290,-3753.867940
3275.899878,-9400.615463,370.102971,-1838.629195
3275.900215,-9770.718434,-1110.308913,766.095498
3275.900553,-10066.800811,-962.267725,3907.087040
3275.900890,-9474.636058,-296.082377,3294.210641
3275.901227,-10362.883188,-814.226536,153.219100
3275.901564,-11695.253884,-740.205942,-919.314598
3275.901902,-11177.109724,-1924.535449,-612.876398
3275.902239,-9400.615463,-1924.535449,919.314598
3275.902576,-9474.636058,-1628.453072,2374.896044
3275.902914,-10510.924376,-666.185348,1532.190996
3275.903251,-10362.883188,-222.061783,-1149.143247
3275.903588,-10214.842000,-592.164754,-1455.581446
3275.903926,-10584.944971,-888.247130,0.000000
3275.904263,-10436.903782,-1110.308913,1302.362347
3275.904600,-10510.924376,-962.267725,2374.896044
3275.904938,-10214.842000,-370.102971,1608.800546
3275.905275,-10214.842000,-296.082377,-536.266849
3275.905612,-11621.233289,-592.164754,-1532.190996
3275.905950,-10436.903782,-1628.453072,-2298.286494
3275.906287,-8586.388927,-2072.576638,-1685.410096
3275.906624,-9548.656652,-1702.473667,842.705048
3275.906961,-9844.739029,-1332.370696,-153.219100
3275.907299,-9548.656652,-370.102971,-2451.505594
3275.907636,-9548.656652,370.102971,-1378.971896
3275.907973,-9992.780217,-666.185348,0.000000
3275.908311,-9548.656652,0.000000,2068.457845
3275.908648,-10436.903782,0.000000,3907.087040
3275.908985,-10140.821405,1480.411884,3677.258390
3275.909323,-10807.006753,444.123565,2221.676944
3275.909660,-11177.109724,2146.597232,1225.752797
3275.909997,-10066.800811,1036.288319,306.438199
3275.910335,-8660.409521,0.000000,2374.896044
3275.910672,-9474.636058,1332.370696,2834.553343
3275.911009,-10436.903782,2294.638420,1838.629195
3275.911346,-10288.862594,3182.885551,-1225.752797
3275.911684,-10140.821405,1406.391290,-2604.724693
3275.912021,-9696.697840,592.164754,-1838.629195
3275.912358,-8586.388927,296.082377,0.000000
3275.912696,-9030.512492,-962.267725,2068.457845
3275.913033,-9030.512492,-740.205942,1608.800546
3275.913370,-9844.739029,-962.267725,-1762.019645
3275.913708,-11547.212695,-1924.535449,-2145.067394
3275.914045,-10658.965565,-1850.514855,-2451.505594
3275.914382,-8882.471304,-2738.761985,229.828649
3275.914720,-10066.800811,-2664.741391,1991.848295
3275.915057,-9548.656652,-2146.597232,0.000000
3275.915394,-10658.965565,-1406.391290,-2221.676944
3275.915731,-10881.027347,-1554.432478,-1225.752797
3275.916069,-10510.924376,-2442.679609,153.219100
3275.916406,-10510.924376,-1924.535449,2374.896044
3275.916743,-10658.965565,-1554.432478,3447.429741
3275.917081,-10362.883188,0.000000,2145.067394
3275.917418,-11029.068536,-592.164754,153.219100
3275.917755,-11177.109724,-148.041188,-842.705048
3275.918093,-10214.842000,-666.185348,-1608.800546
3275.918430,-9696.697840,-814.226536,1072.533697
3275.918767,-9548.656652,-222.061783,1149.143247
3275.919105,-9622.677246,370.102971,153.219100
3275.919442,-9474.636058,1850.514855,-2604.724693
3275.919779,-9696.697840,1406.391290,-1991.848295
3275.920117,-10436.903782,370.102971,-1072.533697
3275.920454,-9770.718434,-296.082377,153.219100
3275.920791,-9918.759623,222.061783,1762.019645
3275.921128,-8956.491898,592.164754,1072.533697
3275.921466,-9474.636058,1036.288319,0.000000
3275.921803,-10584.944971,0.000000,-689.485948
3275.922140,-9178.553681,222.061783,-766.095498
3275.922478,-8586.388927,-666.185348,2145.067394
3275.922815,-10732.986159,74.020594,2987.772442
3275.923152,-10140.821405,814.226536,1378.971896
3275.923490,-10288.862594,1850.514855,-459.657299
3275.923827,-9992.780217,1184.329507,-536.266849
3275.924164,-9178.553681,222.061783,0.000000
3275.924502,-9622.677246,-222.061783,2528.115143
3275.924839,-10362.883188,-74.020594,3370.820191
3275.925176,-9474.636058,814.226536,1532.190996
3275.925513,-11029.068536,1110.308913,153.219100
3275.925851,-11843.295072,666.185348,-2221.676944
3275.926188,-10214.842000,-962.267725,-2451.505594
3275.926525,-9622.677246,-1480.411884,0.000000
3275.926863,-9548.656652,-1406.391290,842.705048
3275.927200,-10362.883188,-592.164754,0.000000
3275.927537,-10510.924376,-1184.329507,-2451.505594
3275.927875,-10288.862594,-1554.432478,-2221.676944
3275.928212,-10510.924376,-1924.535449,-1302.362347
3275.928549,-10140.821405,-3478.967927,1685.410096
3275.928887,-9474.636058,-2664.741391,2451.505594
3275.929224,-9770.718434,-1628.453072,1915.238745
3275.929561,-10436.903782,-888.247130,153.219100
3275.929898,-11399.171507,-1406.391290,-1149.143247
3275.930236,-10436.903782,-1110.308913,536.266849
3275.930573,-9252.574275,-1702.473667,2298.286494
3275.930910,-9770.718434,-296.082377,4213.525239
3275.931247,-10140.821405,592.164754,2221.676944
3275.931585,-10066.800811,1776.494261,-229.828649
3275.931922,-10436.903782,1184.329507,-229.828649
3275.932259,-10066.800811,1924.535449,0.000000
3275.932597,-9992.780217,814.226536,2145.067394
3275.932934,-9770.718434,1110.308913,2221.676944
3275.933271,-9326.594869,2516.700203,383.047749
3275.933608,-10510.924376,1850.514855,-919.314598
3275.933946,-10732.986159,1554.432478,-2451.505594
3275.934283,-8660.409521,222.061783,-2451.505594
3275.934620,-8956.491898,-814.226536,76.609550
3275.934957,-8660.409521,-592.164754,1532.190996
3275.935295,-9992.780217,0.000000,459.657299
3275.935632,-10362.883188,296.082377,-1762.019645
3275.935969,-10140.821405,0.000000,-2451.505594
3275.936307,-9548.656652,-1554.432478,-229.828649
3275.936644,-9474.636058,-1332.370696,1532.190996
3275.936981,-9474.636058,-1332.370696,3983.696590
3275.937318,-10436.903782,-740.205942,3064.381992
3275.937656,-10807.006753,-148.041188,153.219100
3275.937993,-11473.192101,-370.102971,-1225.752797
3275.938330,-10140.821405,-592.164754,-306.438199
3275.938668,-9474.636058,-1998.556043,995.924147
3275.939005,-10140.821405,-1406.391290,2145.067394
3275.939342,-10214.842000,-1110.308913,383.047749
3275.939679,-9770.718434,0.000000,-1685.410096
3275.940017,-10510.924376,-740.205942,-1991.848295
3275.940354,-9918.759623,-1406.391290,-689.485948
3275.940691,-9252.574275,-2146.597232,612.876398
3275.941028,-9844.739029,-1332.370696,2987.772442
3275.941366,-10436.903782,0.000000,1455.581446
3275.941703,-11029.068536,-592.164754,-1608.800546
3275.942040,-11325.150913,-1036.288319,-2298.286494
3275.942378,-9474.636058,-1702.473667,-1302.362347
3275.942715,-9474.636058,-2590.720797,1762.019645
3275.943052,-9548.656652,-1554.432478,3447.429741
3275.943389,-9844.739029,-888.247130,1532.190996
3275.943727,-9770.718434,518.144159,-995.924147
3275.944064,-11251.130318,444.123565,-1149.143247
3275.944401,-9992.780217,0.000000,1072.533697
3275.944738,-9844.739029,518.144159,3447.429741
3275.945076,-9622.677246,962.267725,4519.963438
3275.945413,-10214.842000,2590.720797,2528.115143
3275.945750,-10362.883188,2368.659014,612.876398
3275.946088,-10732.986159,1998.556043,-306.438199
3275.946425,-10140.821405,592.164754,-306.438199
3275.946762,-9252.574275,1110.308913,995.924147
3275.947099,-9474.636058,592.164754,2145.067394
3275.947437,-9548.656652,888.247130,0.000000
3275.947774,-8956.491898,1406.391290,-3064.381992
3275.948111,-9400.615463,666.185348,-4213.525239
3275.948449,-9548.656652,-370.102971,-2987.772442
3275.948786,-9474.636058,-1924.535449,-306.438199
3275.949123,-9548.656652,-1554.432478,2451.505594
3275.949460,-9178.553681,-1184.329507,1225.752797
3275.949798,-10436.903782,-814.226536,-689.485948
3275.950135,-11843.295072,-1332.370696,-1991.848295
3275.950472,-10584.944971,-2294.638420,-1302.362347
3275.950809,-10066.800811,-1998.556043,1378.971896
3275.951147,-10510.924376,-1406.391290,3140.991542
3275.951484,-11029.068536,-370.102971,995.924147
3275.951821,-10807.006753,370.102971,-1915.238745
3275.952159,-10510.924376,148.041188,-995.924147
3275.952496,-9992.780217,-370.102971,536.266849
3275.952833,-9992.780217,-888.247130,2987.772442
3275.953170,-10881.027347,-370.102971,4290.134789
3275.953508,-10510.924376,666.185348,2298.286494
3275.953845,-10807.006753,1480.411884,76.609550
3275.954182,-11769.274478,888.247130,-1532.190996
3275.954519,-9844.739029,-592.164754,-1455.581446
3275.954857,-8438.347739,-888.247130,383.047749
3275.955194,-9326.594869,-518.144159,1762.019645
3275.955531,-9400.615463,814.226536,-766.095498
3275.955869,-9474.636058,592.164754,-3370.820191
3275.956206,-9252.574275,296.082377,-2987.772442
3275.956543,-9030.512492,-1110.308913,-1532.190996
3275.956880,-9474.636058,-814.226536,1838.629195
3275.957218,-9548.656652,-444.123565,3753.867940
3275.957555,-8956.491898,0.000000,1838.629195
3275.957892,-10140.821405,1184.329507,536.266849
3275.958230,-11103.089130,518.144159,-229.828649
3275.958567,-10510.924376,0.000000,536.266849
3275.958904,-10140.821405,-222.061783,2757.943793
3275.959241,-10881.027347,0.000000,3217.601092
3275.959579,-10214.842000,2294.638420,459.657299
3275.959916,-10807.006753,1258.350101,-2298.286494
3275.960253,-10066.800811,1406.391290,-1685.410096
3275.960590,-9104.533087,-296.082377,-1378.971896
3275.960928,-10362.883188,-74.020594,1762.019645
3275.961265,-11103.089130,-296.082377,2604.724693
3275.961602,-10214.842000,370.102971,612.876398
3275.961940,-10732.986159,-518.144159,-1991.848295
3275.962277,-10658.965565,-222.061783,-2911.162892
3275.962614,-9696.697840,-2294.638420,-1915.238745
3275.962951,-9030.512492,-3108.864956,306.438199
3275.963289,-9696.697840,-2738.761985,1378.971896
3275.963626,-9844.739029,-1924.535449,-383.047749
3275.963963,-10214.842000,-1406.391290,-2145.067394
3275.964300,-9770.718434,-1332.370696,-2528.115143
3275.964638,-8956.491898,-2516.700203,-306.438199
3275.964975,-9178.553681,-2812.782580,2604.724693
3275.965312,-9622.677246,-1850.514855,3370.820191
3275.965650,-9844.739029,-814.226536,3217.601092
3275.965987,-11177.109724,222.061783,1378.971896
3275.966324,-11103.089130,0.000000,-383.047749
3275.966661,-10214.842000,444.123565,0.000000
3275.966999,-9696.697840,-370.102971,3140.991542
3275.967336,-10362.883188,222.061783,3677.258390
3275.967673,-10140.821405,1776.494261,1072.533697
3275.968011,-10658.965565,2442.679609,-1915.238745
3275.968348,-10807.006753,2072.576638,-2834.553343
3275.968685,-9770.718434,1628.453072,-766.095498
3275.969022,-9326.594869,296.082377,1915.238745
3275.969360,-9696.697840,0.000000,1378.971896
3275.969697,-9770.718434,2442.679609,0.000000
3275.970034,-11473.192101,1036.288319,-1762.019645
3275.970371,-10807.006753,0.000000,-1762.019645
3275.970709,-8808.450710,-1258.350101,-1455.581446
3275.971046,-9104.533087,-1406.391290,2221.676944
3275.971383,-9622.677246,-1554.432478,2834.553343
3275.971721,-9474.636058,-962.267725,842.705048
3275.972058,-10140.821405,0.000000,-1302.362347
3275.972395,-9252.574275,-370.102971,-1378.971896
3275.972732,-9770.718434,-1184.329507,766.095498
3275.973070,-10066.800811,-1850.514855,2374.896044
3275.973407,-9474.636058,-814.226536,3140.991542
3275.973744,-10066.800811,296.082377,1378.971896
3275.974082,-10288.862594,74.020594,-1225.752797
3275.974419,-10584.944971,-296.082377,-919.314598
3275.974756,-10584.944971,-740.205942,-383.047749
3275.975093,-9770.718434,-740.205942,919.314598
3275.975431,-10658.965565,-296.082377,1072.533697
3275.975768,-10658.965565,-296.082377,-459.657299
3275.976105,-10584.944971,0.000000,-2681.334243
3275.976442,-9844.739029,-222.061783,-2451.505594
3275.976780,-9770.718434,-740.205942,-1302.362347
3275.977117,-10214.842000,-1776.494261,766.095498
3275.977454,-10362.883188,-1332.370696,1991.848295
3275.977792,-9844.739029,-370.102971,0.000000
3275.978129,-10881.027347,0.000000,-919.314598
3275.978466,-11177.109724,-370.102971,-1532.190996
3275.978803,-9696.697840,-1480.411884,-612.876398
3275.979141,-8808.450710,-1554.432478,1991.848295
3275.979478,-9770.718434,-1406.391290,3524.039291
3275.979815,-9844.739029,740.205942,2068.457845
3275.980152,-9548.656652,370.102971,-459.657299
3275.980490,-10584.944971,1036.288319,-153.219100
3275.980827,-9474.636058,1406.391290,689.485948
3275.981164,-9770.718434,518.144159,2604.724693
3275.981502,-10140.821405,1258.350101,3524.039291
3275.981839,-9178.553681,1776.494261,1149.143247
3275.982176,-10584.944971,2812.782580,-1072.533697
3275.982513,-11029.068536,888.247130,-2374.896044
3275.982851,-10140.821405,518.144159,-1072.533697
3275.983188,-8660.409521,-740.205942,-306.438199
3275.983525,-9178.553681,-592.164754,766.095498
3275.983863,-9844.739029,222.061783,-612.876398
3275.984200,-9992.780217,74.020594,-3600.648841
3275.984537,-9474.636058,-888.247130,-3064.381992
3275.984874,-9844.739029,-1924.535449,-1072.533697
3275.985212,-10436.903782,-1628.453072,2145.067394
3275.985549,-10955.047942,-888.247130,2987.772442
3275.985886,-10140.821405,-740.205942,689.485948
3275.986223,-10658.965565,-888.247130,-536.266849
3275.986561,-11103.089130,-1110.308913,-995.924147
3275.986898,-9918.759623,-1850.514855,612.876398
3275.987235,-9696.697840,-2368.659014,2911.162892
3275.987573,-10288.862594,-1628.453072,3753.867940
3275.987910,-9696.697840,-370.102971,919.314598
3275.988247,-10658.965565,296.082377,-306.438199
3275.988584,-10362.883188,148.041188,536.266849
3275.988922,-9474.636058,148.041188,995.924147
3275.989259,-10214.842000,-370.102971,3600.648841
3275.989596,-10140.821405,0.000000,2911.162892
3275.989933,-9622.677246,444.123565,-153.219100
3275.990271,-10214.842000,370.102971,-1762.019645
3275.990608,-10214.842000,0.000000,-2068.457845
3275.990945,-9104.533087,-1110.308913,-1455.581446
3275.991283,-8808.450710,-1184.329507,0.000000
3275.991620,-9252.574275,-962.267725,1149.143247
3275.991957,-9770.718434,-814.226536,-76.609550
3275.992294,-9844.739029,1702.473667,-1685.410096
3275.992632,-10658.965565,148.041188,-842.705048
3275.992969,-9474.636058,-740.205942,0.000000
3275.993306,-9474.636058,-74.020594,2451.505594
3275.993644,-10732.986159,-222.061783,3600.648841
3275.993981,-9622.677246,1110.308913,459.657299
3275.994318,-10881.027347,592.164754,-842.705048
3275.994655,-11769.274478,518.144159,-1532.190996
3275.994993,-9178.553681,0.000000,-1455.581446
3275.995330,-9400.615463,0.000000,842.705048
3275.995667,-9400.615463,0.000000,1378.971896
3275.996004,-9474.636058,518.144159,-612.876398
3275.996342,-10214.842000,888.247130,-1838.629195
3275.996679,-9918.759623,0.000000,-1685.410096
3275.997016,-9474.636058,-592.164754,612.876398
3275.997354,-10584.944971,-1406.391290,2451.505594
3275.997691,-10140.821405,-888.247130,1991.848295
3275.998028,-9696.697840,-444.123565,-612.876398
3275.998365,-10881.027347,-1258.350101,-2221.676944
3275.998703,-10955.047942,-1628.453072,-2451.505594
3275.999040,-9474.636058,-3182.885551,-1225.752797
3275.999377,-9252.574275,-2294.638420,1378.971896
3275.999714,-9918.759623,-2072.576638,1838.629195
3276.000052,-10066.800811,-962.267725,0.000000
3276.000389,-9992.780217,-888.247130,-612.876398
3276.000726,-9844.739029,-962.267725,459.657299
3276.001064,-10436.903782,-592.164754,2681.334243
3276.001401,-11769.274478,-518.144159,4443.353888
3276.001738,-11325.150913,148.041188,4826.401637
3276.002075,-9918.759623,1628.453072,1685.410096
3276.002413,-10658.965565,740.205942,612.876398
3276.002750,-11177.109724,1332.370696,-536.266849
3276.003087,-9252.574275,-444.123565,76.609550
3276.003425,-9030.512492,148.041188,2221.676944
3276.003762,-9474.636058,888.247130,1455.581446
3276.004099,-9770.718434,1702.473667,-689.485948
3276.004436,-10362.883188,1332.370696,-2374.896044
3276.004774,-9474.636058,1110.308913,-2374.896044
3276.005111,-8660.409521,740.205942,-1225.752797
3276.005448,-9770.718434,-740.205942,1302.362347
3276.005785,-9178.553681,0.000000,1072.533697
3276.006123,-9030.512492,-888.247130,-536.266849
3276.006460,-10436.903782,-148.041188,-689.485948
3276.006797,-10362.883188,-1554.432478,-1915.238745
3276.007135,-9622.677246,-1628.453072,-383.047749
3276.007472,-9252.574275,-1702.473667,1685.410096
3276.007809,-9474.636058,-1406.391290,1608.800546
3276.008146,-10510.924376,666.185348,0.000000
3276.008484,-10732.986159,296.082377,-1685.410096
3276.008821,-10288.862594,518.144159,-459.657299
3276.009158,-10436.903782,-666.185348,1225.752797
3276.009495,-11251.130318,-592.164754,2298.286494
3276.009833,-10510.924376,74.020594,2374.896044
3276.010170,-9992.780217,592.164754,153.219100
3276.010507,-11177.109724,148.041188,-1225.752797
3276.010845,-11325.150913,-740.205942,-2298.286494
3276.011182,-10066.800811,-1332.370696,-689.485948
3276.011519,-9548.656652,-1924.535449,612.876398
3276.011856,-9548.656652,-1332.370696,1225.752797
3276.012194,-9770.718434,0.000000,-1608.800546
3276.012531,-9844.739029,-370.102971,-2374.896044
3276.012868,-9474.636058,-962.267725,-995.924147
3276.013206,-9474.636058,-1924.535449,612.876398
3276.013543,-10584.944971,-1776.494261,3447.429741
3276.013880,-10584.944971,-370.102971,2681.334243
3276.014217,-9844.739029,-296.082377,0.000000
3276.014555,-10658.965565,-444.123565,-689.485948
3276.014892,-9992.780217,-1406.391290,0.000000
3276.015229,-8586.388927,-888.247130,1685.410096
3276.015566,-8586.388927,-444.123565,3064.381992
3276.015904,-10066.800811,666.185348,2681.334243
3276.016241,-10066.800811,2220.617826,153.219100
3276.016578,-10510.924376,2368.659014,-1225.752797
3276.016916,-10807.006753,2220.617826,383.047749
3276.017253,-10066.800811,814.226536,1685.410096
3276.017590,-10436.903782,1110.308913,3217.601092
3276.017927,-9696.697840,666.185348,2145.067394
3276.018265,-10214.842000,1776.494261,383.047749
3276.018602,-10881.027347,0.000000,-2221.676944
3276.018939,-10732.986159,-444.123565,-2451.505594
3276.019276,-9178.553681,-1776.494261,-1302.362347
3276.019614,-8068.244768,-1406.391290,0.000000
3276.019951,-9548.656652,-1332.370696,306.438199
3276.020288,-10214.842000,-1480.411884,-1225.752797
3276.020626,-9622.677246,-148.041188,-2221.676944
3276.020963,-9992.780217,-962.267725,-383.047749
3276.021300,-10140.821405,-1480.411884,1378.971896
3276.021637,-10362.883188,-2368.659014,2681.334243
3276.021975,-10362.883188,-1628.453072,2604.724693
3276.022312,-9474.636058,-296.082377,229.828649
3276.022649,-11473.192101,-592.164754,-689.485948
3276.022987,-11325.150913,-1036.288319,-766.095498
3276.023324,-9474.636058,-740.205942,0.000000
3276.023661,-9400.615463,-518.144159,2451.505594
3276.023998,-10584.944971,148.041188,1762.019645
3276.024336,-10288.862594,444.123565,-919.314598
3276.024673,-10140.821405,888.247130,-1149.143247
3276.025010,-9918.759623,222.061783,0.000000
3276.025347,-10436.903782,0.000000,1378.971896
3276.025685,-10955.047942,-296.082377,2068.457845
3276.026022,-10362.883188,296.082377,919.314598
3276.026359,-9474.636058,666.185348,-1762.019645
3276.026697,-10510.924376,-148.041188,-3140.991542
3276.027034,-9770.718434,-962.267725,-1991.848295
3276.027371,-7994.224174,-2368.659014,-1149.143247
3276.027709,-7698.141797,-1332.370696,1532.190996
3276.028046,-9252.574275,-666.185348,2145.067394
3276.028384,-10140.821405,148.041188,229.828649
3276.028721,-10288.862594,1258.350101,-689.485948
3276.029059,-10214.842000,0.000000,1455.581446
3276.029396,-10658.965565,0.000000,2757.943793
3276.029733,-10955.047942,-592.164754,4596.572988
3276.030071,-9844.739029,296.082377,3294.210641
3276.030408,-9104.533087,666.185348,842.705048
3276.030746,-11177.109724,592.164754,-842.705048
3276.031083,-10955.047942,0.000000,-1378.971896
3276.031420,-8956.491898,-592.164754,-1302.362347
3276.031758,-9030.512492,-148.041188,842.705048
3276.032095,-10214.842000,74.020594,919.314598
3276.032433,-10584.944971,1110.308913,-1838.629195
3276.032770,-10436.903782,148.041188,-2298.286494
3276.033107,-10140.821405,-740.205942,-919.314598
3276.033445,-9326.594869,-1332.370696,842.705048
3276.033782,-10436.903782,-2294.638420,2604.724693
3276.034120,-10436.903782,-1702.473667,1838.629195
3276.034457,-9474.636058,-1480.411884,-1378.971896
3276.034795,-10732.986159,-1702.473667,-1991.848295
3276.035132,-10510.924376,-1850.514855,-2451.505594
3276.035469,-9030.512492,-2368.659014,-383.047749
3276.035807,-9030.512492,-2146.597232,2068.457845
3276.036144,-9918.759623,-1406.391290,2451.505594
3276.036482,-10510.924376,518.144159,1378.971896
3276.036819,-11103.089130,666.185348,766.095498
3276.037156,-10214.842000,444.123565,1302.362347
3276.037494,-9918.759623,0.000000,2757.943793
3276.037831,-11547.212695,444.123565,4213.525239
3276.038169,-10362.883188,1628.453072,1991.848295
3276.038506,-9548.656652,1258.350101,-459.657299
3276.038843,-11325.150913,1850.514855,-1302.362347
3276.039181,-10066.800811,1036.288319,-2834.553343
3276.039518,-8068.244768,296.082377,-1532.190996
3276.039856,-9104.533087,-296.082377,536.266849
3276.040193,-10140.821405,518.144159,1149.143247
3276.040531,-9770.718434,1480.411884,-2451.505594
3276.040868,-9918.759623,1332.370696,-2068.457845
3276.041205,-9992.780217,222.061783,-1225.752797
3276.041543,-9474.636058,-518.144159,0.000000
3276.041880,-10955.047942,-1258.350101,2451.505594
3276.042218,-9252.574275,-592.164754,2451.505594
3276.042555,-9474.636058,-962.267725,229.828649
3276.042892,-10288.862594,-592.164754,-1302.362347
3276.043230,-9918.759623,-1184.329507,-2145.067394
3276.043567,-9474.636058,-1036.288319,76.609550
3276.043905,-9992.780217,-1258.350101,2374.896044
3276.044242,-10288.862594,148.041188,1608.800546
3276.044579,-11103.089130,814.226536,0.000000
3276.044917,-10362.883188,666.185348,-1378.971896
3276.045254,-9474.636058,0.000000,76.609550
3276.045592,-9992.780217,-1184.329507,2145.067394
3276.045929,-11325.150913,-1258.350101,3907.087040
3276.046267,-10140.821405,-888.247130,1762.019645
3276.046604,-10140.821405,222.061783,-689.485948
3276.046941,-11621.233289,-296.082377,-2374.896044
3276.047279,-10807.006753,-962.267725,-2987.772442
3276.047616,-8438.347739,-1924.535449,-2374.896044
3276.047954,-9030.512492,-2146.597232,612.876398
3276.048291,-9992.780217,-888.247130,1072.533697
3276.048628,-10140.821405,-740.205942,-459.657299
3276.048966,-9992.780217,148.041188,-689.485948
3276.049303,-10066.800811,-592.164754,76.609550
3276.049641,-9918.759623,-666.185348,1915.238745
3276.049978,-11325.150913,-1184.329507,4673.182538
3276.050315,-10436.903782,0.000000,4060.306139
3276.050653,-9696.697840,666.185348,1225.752797
3276.050990,-11621.233289,1332.370696,536.266849
3276.051328,-10214.842000,370.102971,-689.485948
3276.051665,-8512.368333,-592.164754,536.266849
3276.052003,-9178.553681,296.082377,3370.820191
3276.052340,-9770.718434,1776.494261,1685.410096
3276.052677,-10436.903782,2220.617826,-766.095498
3276.053015,-9770.718434,2368.659014,-2451.505594
3276.053352,-9770.718434,1258.350101,-1532.190996
3276.053690,-9844.739029,-148.041188,1378.971896
3276.054027,-10140.821405,-888.247130,1991.848295
3276.054364,-9474.636058,-962.267725,1991.848295
3276.054702,-9474.636058,-370.102971,-689.485948
3276.055039,-9770.718434,-962.267725,-2681.334243
3276.055377,-9844.739029,-1480.411884,-3064.381992
3276.055714,-9474.636058,-3108.864956,-229.828649
3276.056051,-9400.615463,-2294.638420,1149.143247
3276.056389,-10214.842000,-1480.411884,919.314598
3276.056726,-10658.965565,-370.102971,-1302.362347
3276.057064,-10436.903782,-740.205942,-1838.629195
3276.057401,-10436.903782,-1850.514855,-306.438199
3276.057739,-9770.718434,-1850.514855,2451.505594
3276.058076,-11177.109724,-1924.535449,3983.696590
3276.058413,-10807.006753,-444.123565,3370.820191
3276.058751,-10362.883188,0.000000,229.828649
3276.059088,-11621.233289,296.082377,-919.314598
3276.059426,-11325.150913,0.000000,-1302.362347
3276.059763,-9844.739029,-444.123565,536.266849
3276.060100,-9178.553681,-222.061783,2145.067394
3276.060438,-9844.739029,148.041188,1455.581446
3276.060775,-9844.739029,1184.329507,-1685.410096
3276.061113,-9844.739029,814.226536,-2604.724693
3276.061450,-9622.677246,296.082377,-766.095498
3276.061787,-9622.677246,-1332.370696,1302.362347
3276.062125,-10288.862594,-296.082377,1991.848295
3276.062462,-9474.636058,0.000000,1838.629195
3276.062800,-9622.677246,518.144159,0.000000
3276.063137,-10140.821405,0.000000,-842.705048
3276.063475,-9548.656652,-370.102971,-689.485948
3276.063812,-8882.471304,-888.247130,1225.752797
3276.064149,-9622.677246,-296.082377,2451.505594
3276.064487,-10584.944971,370.102971,2374.896044
3276.064824,-10214.842000,2368.659014,-1072.533697
3276.065162,-9918.759623,1850.514855,-1532.190996
3276.065499,-9992.780217,1702.473667,0.000000
3276.065836,-9178.553681,74.020594,1225.752797
3276.066174,-10510.924376,148.041188,3677.258390
3276.066511,-9918.759623,1258.350101,1991.848295
3276.066849,-9770.718434,1110.308913,-1302.362347
3276.067186,-10881.027347,592.164754,-1915.238745
3276.067523,-10140.821405,-814.226536,-1991.848295
3276.067861,-8734.430116,-962.267725,-536.266849
3276.068198,-9622.677246,-1406.391290,1378.971896
3276.068536,-10214.842000,-1258.350101,0.000000
3276.068873,-9992.780217,-518.144159,-2911.162892
3276.069211,-10288.862594,-888.247130,-2911.162892
3276.069548,-9104.533087,-1702.473667,-1991.848295
3276.069885,-10214.842000,-3108.864956,1378.971896
3276.070223,-10955.047942,-2664.741391,4213.525239
3276.070560,-10214.842000,-1924.535449,1915.238745
3276.070898,-10658.965565,-592.164754,-306.438199
3276.071235,-11103.089130,-888.247130,-1149.143247
3276.071572,-10214.842000,-1480.411884,-1072.533697
3276.071910,-9178.553681,-2442.679609,1608.800546
3276.072247,-9326.594869,-1184.329507,3600.648841
3276.072585,-10658.965565,-814.226536,3217.601092
3276.072922,-10140.821405,1036.288319,-383.047749
3276.073259,-9918.759623,1850.514855,-919.314598
3276.073597,-10732.986159,1184.329507,842.705048
3276.073934,-10288.862594,148.041188,2451.505594
3276.074272,-10658.965565,592.164754,2911.162892
3276.074609,-10214.842000,962.267725,2145.067394
3276.074947,-10066.800811,1850.514855,-306.438199
3276.075284,-11251.130318,1480.411884,-1455.581446
3276.075621,-9844.739029,0.000000,-1991.848295
3276.075959,-8438.347739,148.041188,-153.219100
3276.076296,-9844.739029,-592.164754,1762.019645
3276.076634,-10066.800811,222.061783,459.657299
3276.076971,-9992.780217,888.247130,-1915.238745
3276.077308,-10288.862594,1184.329507,-1915.238745
3276.077646,-8956.491898,-296.082377,-1149.143247
3276.077983,-9918.759623,-1480.411884,1991.848295
3276.078321,-10436.903782,-962.267725,4443.353888
3276.078658,-9178.553681,-666.185348,3140.991542
3276.078995,-9770.718434,0.000000,229.828649
3276.079333,-11103.089130,0.000000,-1149.143247
3276.079670,-10510.924376,-962.267725,-1608.800546
3276.080008,-9326.594869,-1850.514855,1072.533697
3276.080345,-9178.553681,-1628.453072,1762.019645
3276.080683,-9474.636058,-296.082377,0.000000
3276.081020,-10362.883188,296.082377,-3217.601092
3276.081357,-9918.759623,0.000000,-3830.477490
3276.081695,-9622.677246,-1258.350101,-2221.676944
3276.082032,-9548.656652,-1332.370696,306.438199
3276.082370,-10584.944971,-1998.556043,2987.772442
3276.082707,-10066.800811,-740.205942,842.705048
3276.083044,-10732.986159,-814.226536,-1762.019645
3276.083382,-11695.253884,-1184.329507,-2757.943793
3276.083719,-10510.924376,-2072.576638,-2374.896044
3276.084057,-9770.718434,-2368.659014,1302.362347
3276.084394,-10066.800811,-2368.659014,2681.334243
3276.084731,-9400.615463,-888.247130,229.828649
3276.085069,-9548.656652,0.000000,-1302.362347
3276.085406,-10807.006753,0.000000,-612.876398
3276.085744,-10066.800811,-962.267725,1532.190996
3276.086081,-10140.821405,-148.041188,3907.087040
3276.086419,-10584.944971,1332.370696,5362.668486
3276.086756,-9918.759623,1406.391290,2834.553343
3276.087093,-10214.842000,1628.453072,1225.752797
3276.087431,-10436.903782,1184.329507,0.000000
3276.087768,-9178.553681,1110.308913,0.000000
3276.088106,-8808.450710,1036.288319,1762.019645
3276.088443,-9844.739029,740.205942,1455.581446
3276.088780,-9992.780217,1702.473667,-536.266849
3276.089118,-9770.718434,2516.700203,-2298.286494
3276.089455,-9622.677246,1850.514855,-2987.772442
3276.089793,-9252.574275,666.185348,-1302.362347
3276.090130,-9548.656652,-518.144159,766.095498
3276.090467,-9992.780217,-1036.288319,2834.553343
3276.090805,-9252.574275,0.000000,2145.067394
3276.091142,-10658.965565,0.000000,0.000000
3276.091480,-11769.274478,-666.185348,-1455.581446
3276.091817,-10362.883188,-1258.350101,-1225.752797
3276.092155,-9918.759623,-1332.370696,1455.581446
3276.092492,-10436.903782,-1850.514855,2068.457845
3276.092829,-10066.800811,-814.226536,306.438199
3276.093167,-10362.883188,0.000000,-2145.067394
3276.093504,-10362.883188,222.061783,-689.485948
3276.093842,-9474.636058,-444.123565,0.000000
3276.094179,-10214.842000,-1702.473667,2374.896044
3276.094516,-10658.965565,-1036.288319,3524.039291
3276.094854,-9844.739029,518.144159,1915.238745
3276.095191,-10881.027347,444.123565,-536.266849
3276.095529,-11399.171507,0.000000,-1915.238745
3276.095866,-10140.821405,-740.205942,-1608.800546
3276.096203,-8808.450710,-1702.473667,-229.828649
3276.096541,-9178.553681,-1258.350101,229.828649
3276.096878,-9474.636058,-370.102971,-1608.800546
3276.097216,-9474.636058,0.000000,-3447.429741
3276.097553,-9474.636058,-370.102971,-2451.505594
3276.097891,-9178.553681,-1702.473667,-612.876398
3276.098228,-9844.739029,-1480.411884,1915.238745
3276.098565,-10436.903782,-1258.350101,3524.039291
3276.098903,-10362.883188,518.144159,2604.724693
3276.099240,-11251.130318,0.000000,689.485948
3276.099578,-11029.068536,148.041188,0.000000
3276.099915,-9844.739029,-74.020594,612.876398
3276.100252,-9326.594869,-592.164754,2911.162892
3276.100590,-9992.780217,592.164754,1915.238745
3276.100927,-11547.212695,1406.391290,-153.219100
3276.101265,-10436.903782,1924.535449,-2221.676944
3276.101602,-9696.697840,1332.370696,-2451.505594
3276.101939,-9400.615463,0.000000,153.219100
3276.102277,-9474.636058,296.082377,1838.629195
3276.102614,-10066.800811,-444.123565,2987.772442
3276.102952,-9770.718434,-370.102971,1991.848295
3276.103289,-10066.800811,888.247130,-612.876398
3276.103627,-11103.089130,-370.102971,-1149.143247
3276.103964,-10140.821405,-1110.308913,-1532.190996
3276.104301,-9030.512492,-1850.514855,-536.266849
3276.104639,-9474.636058,-2220.617826,306.438199
3276.104976,-9178.553681,-1702.473667,-1072.533697
3276.105314,-9622.677246,-1406.391290,-1991.848295
3276.105651,-10362.883188,-1554.432478,-1378.971896
3276.105988,-9770.718434,-2294.638420,229.828649
3276.106326,-9400.615463,-2294.638420,2528.115143
3276.106663,-10658.965565,-2072.576638,4290.134789
3276.107001,-10807.006753,0.000000,3447.429741
3276.107338,-11399.171507,222.061783,612.876398
3276.107675,-11769.274478,666.185348,229.828649
3276.108013,-10436.903782,-296.082377,612.876398
3276.108350,-9844.739029,-518.144159,2145.067394
3276.108688,-10214.842000,-74.020594,2221.676944
3276.109025,-9918.759623,1036.288319,76.609550
3276.109362,-9326.594869,1998.556043,-1915.238745
3276.109700,-9844.739029,1332.370696,-1608.800546
3276.110037,-9844.739029,740.205942,-536.266849
3276.110375,-9844.739029,148.041188,1225.752797
3276.110712,-9992.780217,444.123565,1378.971896
3276.111050,-9770.718434,1998.556043,383.047749
3276.111387,-9992.780217,592.164754,-1225.752797
3276.111724,-10214.842000,-222.061783,-1455.581446
3276.112062,-8512.368333,-1776.494261,-1149.143247
3276.112399,-8068.244768,-814.226536,1455.581446
3276.112737,-10436.903782,-1036.288319,1915.238745
3276.113074,-9992.780217,0.000000,-842.705048
3276.113411,-9104.533087,666.185348,-3140.991542
3276.113749,-9696.697840,296.082377,-2298.286494
3276.114086,-9992.780217,-592.164754,306.438199
3276.114424,-9326.594869,-962.267725,2374.896044
3276.114761,-9844.739029,0.000000,4213.525239
3276.115098,-10288.862594,1184.329507,2374.896044
3276.115436,-11251.130318,444.123565,0.000000
3276.115773,-11991.336260,0.000000,-1149.143247
3276.116111,-10288.862594,-518.144159,-1072.533697
3276.116448,-9844.739029,-666.185348,1455.581446
3276.116786,-10362.883188,-1184.329507,1302.362347
3276.117123,-9918.759623,-888.247130,-689.485948
3276.117460,-10066.800811,0.000000,-2911.162892
3276.117798,-10510.924376,-888.247130,-1991.848295
3276.118135,-9918.759623,-1258.350101,-919.314598
3276.118473,-9844.739029,-2738.761985,1302.362347
3276.118810,-10288.862594,-1776.494261,2834.553343
3276.119147,-9548.656652,-1628.453072,1685.410096
3276.119485,-11029.068536,-888.247130,-76.609550
3276.119822,-11251.130318,-1554.432478,-842.705048
3276.120160,-9474.636058,-2146.597232,0.000000
3276.120497,-8956.491898,-1924.535449,2145.067394
3276.120834,-9844.739029,-1776.494261,2911.162892
3276.121172,-9844.739029,148.041188,1072.533697
3276.121509,-9622.677246,814.226536,-1072.533697
3276.121847,-10066.800811,1036.288319,229.828649
3276.122184,-9622.677246,1628.453072,842.705048
3276.122522,-10288.862594,444.123565,2681.334243
3276.122859,-10214.842000,1480.411884,3677.258390
3276.123196,-9104.533087,2516.700203,1532.190996
