#time,accel_x,accel_y,accel_z
3189.511212,-10436.903782,-592.164754,3294.210641
3189.511550,-9992.780217,0.000000,2911.162892
3189.511887,-9326.594869,0.000000,1915.238745
3189.512225,-9474.636058,-592.164754,1915.238745
3189.512562,-9474.636058,-666.185348,2604.724693
3189.512899,-9844.739029,-962.267725,2451.505594
3189.513237,-9326.594869,0.000000,995.924147
3189.513574,-9104.533087,962.267725,-766.095498
3189.513911,-8660.409521,296.082377,-919.314598
3189.514249,-8956.491898,-592.164754,-1072.533697
3189.514586,-8660.409521,-1110.308913,0.000000
3189.514923,-8808.450710,-592.164754,536.266849
3189.515261,-9548.656652,-444.123565,1455.581446
3189.515598,-10584.944971,0.000000,1302.362347
3189.515935,-11399.171507,-1036.288319,1762.019645
3189.516273,-12139.377449,-666.185348,2528.115143
3189.516610,-10732.986159,-296.082377,2374.896044
3189.516947,-10658.965565,74.020594,1762.019645
3189.517285,-10955.047942,-296.082377,1608.800546
3189.517622,-10807.006753,-1184.329507,919.314598
3189.517960,-9844.739029,-518.144159,1149.143247
3189.518297,-9918.759623,-518.144159,1302.362347
3189.518634,-10140.821405,-888.247130,1762.019645
3189.518972,-10807.006753,-1332.370696,1455.581446
3189.519309,-10732.986159,-1702.473667,2451.505594
3189.519646,-9474.636058,-814.226536,2068.457845
3189.519984,-9622.677246,-1554.432478,3600.648841
3189.520321,-10732.986159,-2294.638420,3370.820191
3189.520658,-11029.068536,-3404.947333,2681.334243
3189.520996,-10584.944971,-2738.761985,1915.238745
3189.521333,-8882.471304,-2072.576638,689.485948
3189.521670,-8586.388927,-2886.803174,919.314598
3189.522008,-9326.594869,-3552.988522,306.438199
3189.522345,-9400.615463,-3478.967927,-306.438199
3189.522683,-8808.450710,-2738.761985,842.705048
3189.523020,-9104.533087,-2146.597232,1915.238745
3189.523357,-9622.677246,-2516.700203,2068.457845
3189.523695,-10807.006753,-2072.576638,2374.896044
3189.524032,-10658.965565,-1554.432478,1532.190996
3189.524369,-9770.718434,-1406.391290,2604.724693
3189.524707,-10658.965565,-888.247130,3524.039291
3189.525044,-10436.903782,-592.164754,2987.772442
3189.525381,-10955.047942,-666.185348,689.485948
3189.525719,-10732.986159,-370.102971,0.000000
3189.526056,-9622.677246,-1702.473667,-153.219100
3189.526393,-9770.718434,-1628.453072,0.000000
3189.526731,-8512.368333,-1406.391290,-1072.533697
3189.527068,-8882.471304,-1628.453072,-1915.238745
3189.527406,-9918.759623,-1110.308913,-1532.190996
3189.527743,-10584.944971,-2294.638420,-1915.238745
3189.528080,-10066.800811,-2738.761985,-842.705048
3189.528418,-9770.718434,-3034.844362,-153.219100
3189.528755,-10066.800811,-2590.720797,229.828649
3189.529092,-9918.759623,-1998.556043,-229.828649
3189.529430,-9696.697840,-3182.885551,-1072.533697
3189.529767,-9918.759623,-2960.823768,-1685.410096
3189.530104,-9696.697840,-4515.256246,-1072.533697
3189.530442,-9252.574275,-3182.885551,-459.657299
3189.530779,-10140.821405,-2368.659014,0.000000
3189.531116,-10066.800811,-1406.391290,306.438199
3189.531454,-10140.821405,-370.102971,-689.485948
3189.531791,-10807.006753,444.123565,-229.828649
3189.532129,-11399.171507,1480.411884,229.828649
3189.532466,-10807.006753,2516.700203,-229.828649
3189.532803,-11103.089130,2294.638420,0.000000
3189.533141,-11103.089130,1406.391290,0.000000
3189.533478,-10066.800811,0.000000,766.095498
3189.533815,-9770.718434,0.000000,1532.190996
3189.534153,-9326.594869,444.123565,2145.067394
3189.534490,-9696.697840,962.267725,1762.019645
3189.534828,-10510.924376,1924.535449,612.876398
3189.535165,-10658.965565,2886.803174,-689.485948
3189.535503,-10881.027347,3478.967927,-1302.362347
3189.535840,-10658.965565,3849.070898,-1302.362347
3189.536178,-9326.594869,3108.864956,-1762.019645
3189.536515,-8216.285956,1406.391290,76.609550
3189.536853,-8142.265362,1110.308913,2221.676944
3189.537190,-8808.450710,0.000000,3294.210641
3189.537528,-10140.821405,444.123565,3600.648841
3189.537865,-10436.903782,666.185348,3447.429741
3189.538203,-10214.842000,1406.391290,3907.087040
3189.538540,-9844.739029,2886.803174,3600.648841
3189.538878,-9474.636058,3923.091493,1991.848295
3189.539215,-10658.965565,4367.215058,0.000000
3189.539553,-10955.047942,3256.906145,-1225.752797
3189.539890,-10066.800811,2220.617826,-306.438199
3189.540228,-9548.656652,222.061783,842.705048
3189.540566,-9178.553681,-888.247130,1378.971896
3189.540903,-10140.821405,-1258.350101,1455.581446
3189.541241,-10362.883188,-1998.556043,1149.143247
3189.541578,-10658.965565,-666.185348,766.095498
3189.541916,-10584.944971,-518.144159,76.609550
3189.542253,-10658.965565,222.061783,-1991.848295
3189.542591,-11547.212695,74.020594,-2681.334243
3189.542928,-11251.130318,-814.226536,-3140.991542
3189.543266,-9400.615463,-2294.638420,-2757.943793
3189.543603,-9178.553681,-2812.782580,-1378.971896
3189.543941,-9400.615463,-3478.967927,0.000000
3189.544278,-10288.862594,-3552.988522,0.000000
3189.544616,-11325.150913,-3108.864956,919.314598
3189.544953,-10732.986159,-3256.906145,612.876398
3189.545291,-9696.697840,-1184.329507,689.485948
3189.545628,-10066.800811,-148.041188,459.657299
3189.545966,-10732.986159,888.247130,-842.705048
3189.546304,-10140.821405,222.061783,-1532.190996
3189.546641,-9474.636058,-962.267725,-612.876398
3189.546979,-9548.656652,-296.082377,1685.410096
3189.547316,-10436.903782,-1184.329507,2451.505594
3189.547654,-10436.903782,-814.226536,1149.143247
3189.547991,-10140.821405,-1406.391290,383.047749
3189.548329,-9474.636058,-370.102971,536.266849
3189.548666,-8364.327145,-222.061783,-536.266849
3189.549004,-9178.553681,0.000000,-1991.848295
3189.549341,-9252.574275,0.000000,-3217.601092
3189.549679,-9252.574275,-444.123565,-3370.820191
3189.550016,-9696.697840,-1332.370696,-919.314598
3189.550354,-9474.636058,-962.267725,153.219100
3189.550691,-10288.862594,-2738.761985,2068.457845
3189.551029,-9918.759623,-1480.411884,2757.943793
3189.551366,-10066.800811,-2442.679609,2757.943793
3189.551704,-10584.944971,-1702.473667,3907.087040
3189.552042,-9918.759623,-1258.350101,2451.505594
3189.552379,-10658.965565,-1036.288319,1762.019645
3189.552717,-10584.944971,-592.164754,1532.190996
3189.553054,-9622.677246,-1554.432478,383.047749
3189.553392,-9252.574275,-1554.432478,1762.019645
3189.553729,-9992.780217,-2146.597232,2298.286494
3189.554067,-10140.821405,-1184.329507,2451.505594
3189.554404,-10955.047942,-1480.411884,1378.971896
3189.554742,-11325.150913,-222.061783,919.314598
3189.555079,-9918.759623,-444.123565,-76.609550
3189.555417,-9548.656652,-740.205942,-306.438199
3189.555754,-9474.636058,-1110.308913,-842.705048
3189.556092,-9474.636058,-2072.576638,-1225.752797
3189.556429,-9548.656652,-1110.308913,-1225.752797
3189.556767,-9622.677246,-1332.370696,-1685.410096
3189.557104,-10288.862594,-518.144159,-842.705048
3189.557442,-11177.109724,-962.267725,0.000000
3189.557780,-10955.047942,74.020594,0.000000
3189.558117,-10066.800811,1184.329507,536.266849
3189.558455,-10140.821405,1332.370696,0.000000
3189.558792,-10214.842000,1184.329507,0.000000
3189.559130,-10140.821405,666.185348,306.438199
3189.559467,-9918.759623,1776.494261,1225.752797
3189.559805,-9918.759623,1628.453072,2298.286494
3189.560142,-9992.780217,1924.535449,1991.848295
3189.560480,-10066.800811,2368.659014,1608.800546
3189.560817,-10955.047942,2368.659014,1762.019645
3189.561155,-10214.842000,3182.885551,229.828649
3189.561492,-9548.656652,4219.173869,-1378.971896
3189.561830,-9992.780217,3108.864956,-2068.457845
3189.562167,-8808.450710,2368.659014,-3064.381992
3189.562505,-8068.244768,814.226536,-2451.505594
3189.562842,-8660.409521,740.205942,-1762.019645
3189.563180,-8956.491898,-592.164754,-1302.362347
3189.563518,-10362.883188,-296.082377,-995.924147
3189.563855,-10362.883188,-1036.288319,-689.485948
3189.564193,-10214.842000,-296.082377,-76.609550
3189.564530,-10436.903782,-666.185348,229.828649
3189.564868,-10066.800811,-740.205942,0.000000
3189.565205,-10658.965565,-148.041188,0.000000
3189.565543,-10807.006753,-1850.514855,-536.266849
3189.565880,-9918.759623,-1850.514855,0.000000
3189.566218,-10436.903782,-2664.741391,1838.629195
3189.566555,-10584.944971,-2294.638420,3140.991542
3189.566893,-10732.986159,-1924.535449,2528.115143
3189.567230,-11473.192101,-1628.453072,1991.848295
3189.567568,-10955.047942,-962.267725,1685.410096
3189.567905,-10881.027347,-962.267725,995.924147
3189.568243,-10584.944971,0.000000,459.657299
3189.568580,-10362.883188,-962.267725,0.000000
3189.568918,-9474.636058,-1036.288319,0.000000
3189.569256,-8808.450710,-2072.576638,383.047749
3189.569593,-9474.636058,-1702.473667,612.876398
3189.569931,-9696.697840,-2072.576638,459.657299
3189.570268,-10214.842000,-1480.411884,76.609550
3189.570606,-9844.739029,-1998.556043,0.000000
3189.570943,-9622.677246,-888.247130,-383.047749
3189.571281,-9474.636058,-370.102971,-229.828649
3189.571618,-10140.821405,-370.102971,-842.705048
3189.571956,-9548.656652,-888.247130,-919.314598
3189.572293,-9104.533087,-1184.329507,-306.438199
3189.572631,-9030.512492,-1480.411884,1762.019645
3189.572968,-9400.615463,-1184.329507,2911.162892
3189.573306,-10214.842000,-1258.350101,3524.039291
3189.573643,-11029.068536,-518.144159,2681.334243
3189.573981,-10732.986159,592.164754,2068.457845
3189.574318,-10881.027347,1406.391290,689.485948
3189.574656,-9918.759623,1924.535449,-766.095498
3189.574994,-9548.656652,666.185348,-2374.896044
3189.575331,-9844.739029,296.082377,-1608.800546
3189.575669,-9474.636058,-592.164754,-1915.238745
3189.576006,-9104.533087,-1110.308913,-1149.143247
3189.576344,-9326.594869,-1702.473667,-383.047749
3189.576681,-9992.780217,-2072.576638,-766.095498
3189.577019,-10214.842000,-1406.391290,-536.266849
3189.577356,-10510.924376,-1258.350101,0.000000
3189.577694,-10214.842000,-962.267725,-842.705048
3189.578031,-10658.965565,-740.205942,-1915.238745
3189.578369,-10807.006753,-1184.329507,-1838.629195
3189.578706,-10362.883188,-2368.659014,-1072.533697
3189.579044,-9548.656652,-2516.700203,459.657299
3189.579381,-9696.697840,-3182.885551,1838.629195
3189.579719,-10362.883188,-2442.679609,1302.362347
3189.580056,-10732.986159,-1628.453072,1532.190996
3189.580394,-11251.130318,-888.247130,1302.362347
3189.580732,-10436.903782,0.000000,919.314598
3189.581069,-10288.862594,1036.288319,842.705048
3189.581407,-10214.842000,1628.453072,919.314598
3189.581744,-9548.656652,1110.308913,306.438199
3189.582082,-9992.780217,1110.308913,1455.581446
3189.582419,-10140.821405,1924.535449,1378.971896
3189.582757,-9992.780217,2072.576638,1149.143247
3189.583094,-10732.986159,2146.597232,919.314598
3189.583432,-10362.883188,1258.350101,459.657299
3189.583769,-9104.533087,2442.679609,229.828649
3189.584107,-8586.388927,2664.741391,-536.266849
3189.584444,-9696.697840,2590.720797,-1532.190996
3189.584782,-9400.615463,1998.556043,-2374.896044
3189.585119,-9326.594869,1258.350101,-1149.143247
3189.585457,-8808.450710,888.247130,612.876398
3189.585794,-8808.450710,222.061783,2221.676944
3189.586132,-9992.780217,296.082377,2604.724693
3189.586470,-10362.883188,74.020594,2068.457845
3189.586807,-10436.903782,592.164754,2145.067394
3189.587145,-10732.986159,1110.308913,1072.533697
3189.587482,-10214.842000,0.000000,459.657299
3189.587820,-9252.574275,444.123565,-306.438199
3189.588157,-9474.636058,0.000000,0.000000
3189.588495,-9252.574275,-814.226536,0.000000
3189.588832,-9178.553681,-592.164754,-459.657299
3189.589170,-10288.862594,-814.226536,995.924147
3189.589507,-10881.027347,-1036.288319,919.314598
3189.589845,-11029.068536,-888.247130,612.876398
3189.590182,-11695.253884,-592.164754,995.924147
3189.590520,-10436.903782,-518.144159,306.438199
3189.590857,-10288.862594,-1406.391290,-306.438199
3189.591195,-10658.965565,-1110.308913,-1225.752797
3189.591532,-9918.759623,-2368.659014,-1149.143247
3189.591870,-9992.780217,-3034.844362,-459.657299
3189.592208,-10288.862594,-3404.947333,0.000000
3189.592545,-9918.759623,-2738.761985,229.828649
3189.592883,-10732.986159,-2516.700203,766.095498
3189.593220,-10732.986159,-1628.453072,76.609550
3189.593558,-10140.821405,-962.267725,-383.047749
3189.593895,-10140.821405,-666.185348,0.000000
3189.594233,-9992.780217,-592.164754,0.000000
3189.594570,-10066.800811,-1184.329507,383.047749
3189.594908,-9622.677246,-666.185348,1685.410096
3189.595245,-9400.615463,-370.102971,2298.286494
3189.595583,-9770.718434,222.061783,1608.800546
3189.595920,-10510.924376,74.020594,1838.629195
3189.596258,-10288.862594,370.102971,2068.457845
3189.596595,-9844.739029,1480.411884,689.485948
3189.596933,-9770.718434,2812.782580,-229.828649
3189.597270,-9770.718434,2146.597232,-1608.800546
3189.597608,-9622.677246,1406.391290,-2298.286494
3189.597946,-8734.430116,666.185348,-1608.800546
3189.598283,-8956.491898,0.000000,0.000000
3189.598621,-9104.533087,-740.205942,153.219100
3189.598958,-9844.739029,-1480.411884,612.876398
3189.599296,-10658.965565,-1628.453072,1532.190996
3189.599633,-10584.944971,-1332.370696,919.314598
3189.599971,-10288.862594,-888.247130,229.828649
3189.600308,-10436.903782,-296.082377,-383.047749
3189.600646,-9474.636058,-962.267725,-1302.362347
3189.600983,-9696.697840,-1110.308913,-1225.752797
3189.601321,-10066.800811,-2072.576638,-229.828649
3189.601658,-9548.656652,-2072.576638,995.924147
3189.601996,-10436.903782,-1850.514855,1838.629195
3189.602333,-10955.047942,-1406.391290,1685.410096
3189.602671,-10658.965565,-962.267725,1838.629195
3189.603008,-10658.965565,-666.185348,2757.943793
3189.603346,-10362.883188,0.000000,1455.581446
3189.603683,-10436.903782,592.164754,842.705048
3189.604021,-10955.047942,370.102971,0.000000
3189.604359,-10214.842000,0.000000,-766.095498
3189.604696,-9252.574275,-740.205942,689.485948
3189.605034,-9326.594869,-962.267725,1532.190996
3189.605371,-9622.677246,-370.102971,1149.143247
3189.605709,-10658.965565,74.020594,383.047749
3189.606046,-10288.862594,0.000000,-689.485948
3189.606384,-9770.718434,592.164754,-612.876398
3189.606721,-10362.883188,1036.288319,-842.705048
3189.607059,-9992.780217,1480.411884,-995.924147
3189.607396,-9548.656652,1554.432478,-1072.533697
3189.607734,-9474.636058,518.144159,-306.438199
3189.608071,-9474.636058,666.185348,842.705048
3189.608409,-9548.656652,222.061783,1838.629195
3189.608746,-10732.986159,1036.288319,2068.457845
3189.609084,-10510.924376,1406.391290,2068.457845
3189.609421,-10362.883188,1850.514855,1302.362347
3189.609759,-10140.821405,3108.864956,383.047749
3189.610097,-10510.924376,2590.720797,76.609550
3189.610434,-10140.821405,2368.659014,-1685.410096
3189.610772,-9548.656652,1036.288319,-1762.019645
3189.611109,-9770.718434,1258.350101,-383.047749
3189.611447,-8882.471304,-370.102971,153.219100
3189.611784,-9548.656652,-1110.308913,536.266849
3189.612122,-10214.842000,-1036.288319,383.047749
3189.612459,-10584.944971,-74.020594,-459.657299
3189.612797,-10807.006753,0.000000,-1225.752797
3189.613134,-10658.965565,-592.164754,-2068.457845
3189.613472,-9548.656652,-1184.329507,-2374.896044
3189.613809,-9622.677246,-2072.576638,-1838.629195
3189.614147,-9474.636058,-1850.514855,-995.924147
3189.614484,-9696.697840,-2664.741391,-459.657299
3189.614822,-10140.821405,-2738.761985,459.657299
3189.615159,-10436.903782,-2886.803174,612.876398
3189.615497,-10214.842000,-2368.659014,2145.067394
3189.615835,-11473.192101,-1702.473667,3140.991542
3189.616172,-10658.965565,-1036.288319,2221.676944
3189.616510,-10436.903782,0.000000,2451.505594
3189.616847,-10510.924376,74.020594,1532.190996
3189.617185,-10066.800811,-518.144159,1532.190996
3189.617522,-9918.759623,-1110.308913,2451.505594
3189.617860,-9326.594869,-370.102971,2528.115143
3189.618197,-10214.842000,0.000000,2221.676944
3189.618535,-10214.842000,-444.123565,1762.019645
3189.618872,-10214.842000,296.082377,536.266849
3189.619210,-10140.821405,518.144159,0.000000
3189.619547,-9474.636058,1554.432478,-1378.971896
3189.619885,-9030.512492,888.247130,-1915.238745
3189.620222,-9474.636058,-148.041188,-1915.238745
3189.620560,-8808.450710,-222.061783,-1378.971896
3189.620897,-8882.471304,-1258.350101,-536.266849
3189.621235,-9252.574275,-888.247130,459.657299
3189.621573,-9918.759623,-296.082377,766.095498
3189.621910,-11325.150913,-888.247130,1149.143247
3189.622248,-10214.842000,-74.020594,76.609550
3189.622585,-10066.800811,148.041188,612.876398
3189.622923,-10955.047942,518.144159,76.609550
3189.623260,-9474.636058,0.000000,-1378.971896
3189.623598,-9918.759623,-296.082377,-459.657299
3189.623935,-9030.512492,-1184.329507,76.609550
3189.624273,-9178.553681,-1184.329507,919.314598
3189.624610,-10510.924376,-962.267725,1991.848295
3189.624948,-11473.192101,-1258.350101,842.705048
3189.625285,-10955.047942,222.061783,689.485948
3189.625623,-11473.192101,148.041188,-459.657299
3189.625960,-10807.006753,518.144159,-842.705048
3189.626298,-10066.800811,-296.082377,-2298.286494
3189.626635,-9844.739029,-518.144159,-2681.334243
3189.626973,-9696.697840,-592.164754,-2068.457845
3189.627311,-9548.656652,-1924.535449,-1532.190996
3189.627648,-9770.718434,-1480.411884,-842.705048
3189.627986,-10066.800811,-2220.617826,0.000000
3189.628323,-10584.944971,-1036.288319,842.705048
3189.628661,-10436.903782,-740.205942,1378.971896
3189.628998,-10362.883188,370.102971,1685.410096
3189.629336,-10066.800811,592.164754,1455.581446
3189.629673,-10658.965565,888.247130,1072.533697
3189.630011,-10362.883188,444.123565,2068.457845
3189.630348,-9622.677246,1110.308913,2911.162892
3189.630686,-9622.677246,296.082377,4366.744339
3189.631023,-9844.739029,1554.432478,3370.820191
3189.631361,-9844.739029,1406.391290,2145.067394
3189.631698,-10584.944971,1776.494261,2145.067394
3189.632036,-9770.718434,2368.659014,153.219100
3189.632373,-9474.636058,3256.906145,-766.095498
3189.632711,-9474.636058,3256.906145,-1072.533697
3189.633049,-8734.430116,1998.556043,-1915.238745
3189.633386,-8808.450710,1110.308913,-1532.190996
3189.633724,-9252.574275,444.123565,-689.485948
3189.634061,-9030.512492,740.205942,-1302.362347
3189.634399,-10214.842000,-888.247130,-842.705048
3189.634736,-10362.883188,-518.144159,76.609550
3189.635074,-10066.800811,-1258.350101,-689.485948
3189.635411,-10140.821405,-148.041188,0.000000
3189.635749,-10288.862594,-592.164754,-1302.362347
3189.636086,-10362.883188,-1406.391290,-1608.800546
3189.636423,-9918.759623,-1702.473667,-1378.971896
3189.636761,-9844.739029,-2368.659014,-459.657299
3189.637098,-9844.739029,-1776.494261,1532.190996
3189.637435,-10955.047942,-2516.700203,2145.067394
3189.637773,-11325.150913,-1480.411884,1762.019645
3189.638110,-10955.047942,-1258.350101,842.705048
3189.638447,-11473.192101,-592.164754,1378.971896
3189.638785,-10807.006753,-370.102971,229.828649
3189.639122,-10066.800811,-888.247130,-766.095498
3189.639459,-9918.759623,-444.123565,-1149.143247
3189.639797,-9548.656652,-1480.411884,-1378.971896
3189.640134,-9474.636058,-1480.411884,-842.705048
3189.640471,-9326.594869,-1258.350101,-842.705048
3189.640809,-10510.924376,-1110.308913,306.438199
3189.641146,-10066.800811,-1110.308913,0.000000
3189.641483,-10140.821405,-666.185348,-153.219100
3189.641821,-10362.883188,-592.164754,1225.752797
3189.642158,-10066.800811,0.000000,0.000000
3189.642495,-9992.780217,0.000000,229.828649
3189.642832,-9844.739029,-592.164754,459.657299
3189.643170,-8956.491898,-1184.329507,1838.629195
3189.643507,-9252.574275,-1036.288319,3140.991542
3189.643844,-9696.697840,-962.267725,3677.258390
3189.644182,-9918.759623,0.000000,3217.601092
3189.644519,-11029.068536,0.000000,2757.943793
3189.644856,-10362.883188,1628.453072,1838.629195
3189.645194,-9770.718434,2516.700203,1149.143247
3189.645531,-9918.759623,1776.494261,0.000000
3189.645868,-9252.574275,1554.432478,-919.314598
3189.646206,-9474.636058,518.144159,-919.314598
3189.646543,-9178.553681,518.144159,229.828649
3189.646880,-9474.636058,-370.102971,-1149.143247
3189.647218,-10066.800811,-592.164754,153.219100
3189.647555,-10140.821405,-1406.391290,-766.095498
3189.647892,-9548.656652,-666.185348,-689.485948
3189.648230,-9992.780217,148.041188,-1991.848295
3189.648567,-10362.883188,-148.041188,-1991.848295
3189.648904,-10362.883188,-518.144159,-2374.896044
3189.649241,-9918.759623,-1702.473667,-2221.676944
3189.649579,-9918.759623,-1554.432478,-612.876398
3189.649916,-9696.697840,-2738.761985,383.047749
3189.650253,-10658.965565,-2220.617826,919.314598
3189.650591,-10732.986159,-2368.659014,1532.190996
3189.650928,-11621.233289,-1036.288319,2068.457845
3189.651265,-10807.006753,222.061783,689.485948
3189.651603,-11251.130318,296.082377,76.609550
3189.651940,-9770.718434,1110.308913,-153.219100
3189.652277,-9770.718434,518.144159,-612.876398
3189.652615,-9400.615463,444.123565,766.095498
3189.652952,-9178.553681,592.164754,766.095498
3189.653289,-9548.656652,888.247130,1378.971896
3189.653627,-10732.986159,1702.473667,919.314598
3189.653964,-10881.027347,814.226536,76.609550
3189.654301,-10066.800811,1480.411884,766.095498
3189.654639,-9326.594869,1406.391290,842.705048
3189.654976,-9326.594869,2220.617826,76.609550
3189.655313,-9474.636058,1924.535449,-612.876398
3189.655651,-9696.697840,666.185348,-1225.752797
3189.655988,-9030.512492,0.000000,153.219100
3189.656325,-9178.553681,-666.185348,1762.019645
3189.656662,-9696.697840,0.000000,2604.724693
3189.657000,-10584.944971,-592.164754,2451.505594
3189.657337,-10955.047942,0.000000,2145.067394
3189.657674,-10362.883188,148.041188,995.924147
3189.658012,-10362.883188,518.144159,612.876398
3189.658349,-10288.862594,666.185348,0.000000
3189.658686,-10140.821405,-74.020594,-689.485948
3189.659024,-9844.739029,-592.164754,-536.266849
3189.659361,-9400.615463,-962.267725,229.828649
3189.659698,-9548.656652,-1332.370696,612.876398
3189.660036,-10066.800811,-1628.453072,536.266849
3189.660373,-10732.986159,-1776.494261,229.828649
3189.660710,-10881.027347,-740.205942,-459.657299
3189.661048,-10584.944971,-370.102971,-1149.143247
3189.661385,-10288.862594,-370.102971,-1455.581446
3189.661722,-10362.883188,-1702.473667,-2451.505594
3189.662060,-9548.656652,-2072.576638,-2528.115143
3189.662397,-9474.636058,-2516.700203,-1838.629195
3189.662734,-9326.594869,-3330.926739,-536.266849
3189.663072,-9770.718434,-3478.967927,0.000000
3189.663409,-11103.089130,-3775.050304,306.438199
3189.663746,-10807.006753,-1924.535449,306.438199
3189.664083,-10584.944971,-1406.391290,0.000000
3189.664421,-10584.944971,-518.144159,0.000000
3189.664758,-9474.636058,-888.247130,-766.095498
3189.665095,-9770.718434,-370.102971,459.657299
3189.665433,-9326.594869,-740.205942,1225.752797
3189.665770,-9474.636058,-592.164754,1532.190996
3189.666107,-10066.800811,370.102971,1991.848295
3189.666445,-10955.047942,296.082377,1762.019645
3189.666782,-10510.924376,962.267725,2298.286494
3189.667119,-10510.924376,1258.350101,2374.896044
3189.667457,-9844.739029,1554.432478,2528.115143
3189.667794,-8956.491898,2516.700203,459.657299
3189.668131,-10362.883188,1924.535449,-306.438199
3189.668469,-9548.656652,962.267725,-459.657299
3189.668806,-8956.491898,-148.041188,0.000000
3189.669143,-9104.533087,296.082377,1991.848295
3189.669481,-9770.718434,-444.123565,1455.581446
3189.669818,-10288.862594,-1036.288319,766.095498
3189.670155,-10362.883188,-2072.576638,383.047749
3189.670493,-10140.821405,-592.164754,76.609550
3189.670830,-9696.697840,-814.226536,0.000000
3189.671167,-9474.636058,-444.123565,-842.705048
3189.671504,-9474.636058,-962.267725,-1149.143247
3189.671842,-9548.656652,-1924.535449,-536.266849
3189.672179,-9696.697840,-2294.638420,459.657299
3189.672516,-9992.780217,-1184.329507,766.095498
3189.672854,-11325.150913,-1480.411884,1225.752797
3189.673191,-11547.212695,-1036.288319,842.705048
3189.673528,-10807.006753,-370.102971,76.609550
3189.673866,-10214.842000,0.000000,842.705048
3189.674203,-10362.883188,888.247130,689.485948
3189.674540,-10584.944971,148.041188,-1685.410096
3189.674878,-10510.924376,296.082377,-2298.286494
3189.675215,-10066.800811,-444.123565,-536.266849
3189.675552,-9326.594869,-518.144159,153.219100
3189.675890,-9474.636058,-962.267725,612.876398
3189.676227,-10732.986159,0.000000,766.095498
3189.676564,-10658.965565,74.020594,-689.485948
3189.676902,-10510.924376,1332.370696,-306.438199
3189.677239,-9918.759623,666.185348,-1302.362347
3189.677576,-9474.636058,222.061783,-1608.800546
3189.677914,-8956.491898,1184.329507,-1762.019645
3189.678251,-9252.574275,370.102971,0.000000
3189.678588,-9252.574275,74.020594,459.657299
3189.678925,-9030.512492,0.000000,536.266849
3189.679263,-9622.677246,666.185348,1991.848295
3189.679600,-10140.821405,1184.329507,2757.943793
3189.679937,-10214.842000,1184.329507,2757.943793
3189.680275,-10584.944971,2442.679609,2834.553343
3189.680612,-9770.718434,2442.679609,1762.019645
3189.680949,-9918.759623,2812.782580,612.876398
3189.681287,-10436.903782,1110.308913,76.609550
3189.681624,-9474.636058,592.164754,536.266849
3189.681961,-10140.821405,74.020594,2145.067394
3189.682299,-9992.780217,-222.061783,1608.800546
3189.682636,-9548.656652,-814.226536,919.314598
3189.682973,-10732.986159,-1332.370696,76.609550
3189.683311,-10066.800811,-1036.288319,-383.047749
3189.683648,-9844.739029,0.000000,-842.705048
3189.683985,-9844.739029,-814.226536,-1455.581446
3189.684323,-9770.718434,-2368.659014,-1991.848295
3189.684660,-9696.697840,-2738.761985,-766.095498
3189.684997,-10140.821405,-2960.823768,-306.438199
3189.685335,-9992.780217,-3256.906145,0.000000
3189.685672,-10362.883188,-3256.906145,0.000000
3189.686009,-10510.924376,-3627.009116,612.876398
3189.686346,-10881.027347,-2738.761985,1608.800546
3189.686684,-10807.006753,-1554.432478,1149.143247
3189.687021,-10288.862594,-1332.370696,766.095498
3189.687358,-10436.903782,-740.205942,-229.828649
3189.687696,-9918.759623,-1036.288319,-153.219100
3189.688033,-9770.718434,-740.205942,689.485948
3189.688370,-9622.677246,-1036.288319,1762.019645
3189.688708,-10066.800811,-518.144159,2145.067394
3189.689045,-10732.986159,-148.041188,1455.581446
3189.689382,-11029.068536,0.000000,229.828649
3189.689720,-10584.944971,962.267725,-459.657299
3189.690057,-9918.759623,1184.329507,-766.095498
3189.690394,-9474.636058,1036.288319,-1991.848295
3189.690732,-8734.430116,888.247130,-2757.943793
3189.691069,-9178.553681,518.144159,-2451.505594
3189.691406,-8956.491898,-518.144159,-1072.533697
3189.691744,-9030.512492,-444.123565,-383.047749
3189.692081,-9548.656652,0.000000,919.314598
3189.692418,-10288.862594,-148.041188,842.705048
3189.692756,-9844.739029,148.041188,1455.581446
3189.693093,-10658.965565,0.000000,1762.019645
3189.693430,-10066.800811,1258.350101,1762.019645
3189.693767,-10288.862594,888.247130,919.314598
3189.694105,-10807.006753,444.123565,919.314598
3189.694442,-9696.697840,-666.185348,919.314598
3189.694779,-9326.594869,-666.185348,2068.457845
3189.695117,-9326.594869,-888.247130,2451.505594
3189.695454,-9992.780217,-888.247130,2145.067394
3189.695791,-11103.089130,-444.123565,1302.362347
3189.696129,-10658.965565,0.000000,612.876398
3189.696466,-10140.821405,814.226536,-383.047749
3189.696803,-10436.903782,592.164754,-995.924147
3189.697141,-10214.842000,-222.061783,-1991.848295
3189.697478,-10140.821405,-1554.432478,-1378.971896
3189.697815,-9474.636058,-1184.329507,-1302.362347
3189.698153,-9918.759623,-1702.473667,-1072.533697
3189.698490,-10584.944971,-2368.659014,0.000000
3189.698827,-11177.109724,-1850.514855,-383.047749
3189.699165,-10881.027347,-1702.473667,306.438199
3189.699502,-10066.800811,0.000000,0.000000
3189.699839,-9770.718434,0.000000,-153.219100
3189.700177,-10658.965565,0.000000,229.828649
3189.700514,-9696.697840,74.020594,153.219100
3189.700851,-10362.883188,222.061783,1685.410096
3189.701188,-10362.883188,666.185348,2987.772442
3189.701526,-10214.842000,1036.288319,2451.505594
3189.701863,-10732.986159,888.247130,2987.772442
3189.702200,-10881.027347,1628.453072,1378.971896
3189.702538,-9770.718434,1998.556043,1072.533697
3189.702875,-10288.862594,2812.782580,229.828649
3189.703212,-8734.430116,2146.597232,-1455.581446
3189.703550,-9178.553681,2072.576638,-2068.457845
3189.703887,-8956.491898,1332.370696,-2374.896044
3189.704224,-8438.347739,222.061783,-1608.800546
3189.704562,-9104.533087,222.061783,-842.705048
3189.704899,-9622.677246,0.000000,-459.657299
3189.705236,-10288.862594,0.000000,-459.657299
3189.705574,-10584.944971,-1110.308913,0.000000
3189.705911,-10066.800811,-296.082377,995.924147
3189.706248,-9992.780217,-518.144159,229.828649
3189.706586,-10584.944971,-740.205942,0.000000
3189.706923,-9992.780217,-1332.370696,-536.266849
3189.707260,-9622.677246,-3256.906145,612.876398
3189.707597,-9992.780217,-2664.741391,1838.629195
3189.707935,-10066.800811,-2368.659014,2987.772442
3189.708272,-11103.089130,-1924.535449,2834.553343
3189.708609,-11103.089130,-2146.597232,1378.971896
3189.708947,-11251.130318,-1110.308913,1302.362347
3189.709284,-10436.903782,-1184.329507,1072.533697
3189.709621,-10362.883188,-518.144159,0.000000
3189.709959,-9622.677246,-1628.453072,-612.876398
3189.710296,-9548.656652,-1332.370696,-842.705048
3189.710633,-9178.553681,-1998.556043,76.609550
3189.710971,-10140.821405,-1702.473667,-306.438199
3189.711308,-9992.780217,-2146.597232,-536.266849
3189.711645,-10732.986159,-1776.494261,-306.438199
3189.711983,-10362.883188,-1258.350101,76.609550
3189.712320,-9548.656652,-518.144159,-766.095498
3189.712657,-9622.677246,-222.061783,0.000000
3189.712995,-9992.780217,0.000000,-995.924147
3189.713332,-9992.780217,-666.185348,-766.095498
3189.713669,-10288.862594,-592.164754,842.705048
3189.714007,-9104.533087,-888.247130,1762.019645
3189.714344,-9474.636058,-888.247130,2757.943793
3189.714681,-10288.862594,0.000000,3524.039291
3189.715018,-10436.903782,222.061783,2528.115143
3189.715356,-10881.027347,1480.411884,1991.848295
3189.715693,-10214.842000,2442.679609,459.657299
3189.716030,-9622.677246,2664.741391,0.000000
3189.716368,-9696.697840,2368.659014,-766.095498
3189.716705,-9474.636058,1480.411884,-995.924147
3189.717042,-9178.553681,1776.494261,-995.924147
3189.717380,-9622.677246,370.102971,76.609550
3189.717717,-9844.739029,814.226536,0.000000
3189.718054,-9622.677246,-370.102971,0.000000
3189.718392,-10436.903782,0.000000,153.219100
3189.718729,-9474.636058,-74.020594,-153.219100
3189.719066,-10362.883188,296.082377,-766.095498
3189.719404,-10214.842000,0.000000,-1378.971896
3189.719741,-10510.924376,-814.226536,-919.314598
3189.720078,-10214.842000,-2294.638420,-383.047749
3189.720416,-9030.512492,-2146.597232,612.876398
3189.720753,-10288.862594,-2146.597232,1685.410096
3189.721090,-11177.109724,-2146.597232,1532.190996
3189.721428,-10732.986159,-2220.617826,459.657299
3189.721765,-11177.109724,-1554.432478,1302.362347
3189.722102,-10510.924376,-370.102971,766.095498
3189.722439,-10140.821405,148.041188,229.828649
3189.722777,-10955.047942,0.000000,-229.828649
3189.723114,-9474.636058,0.000000,0.000000
3189.723451,-9992.780217,-74.020594,766.095498
3189.723789,-10066.800811,296.082377,1762.019645
3189.724126,-10066.800811,370.102971,229.828649
3189.724463,-11251.130318,0.000000,306.438199
3189.724801,-11029.068536,518.144159,0.000000
3189.725138,-9252.574275,888.247130,0.000000
3189.725475,-9696.697840,1406.391290,-153.219100
3189.725813,-9474.636058,962.267725,-2068.457845
3189.726150,-9326.594869,1110.308913,-2604.724693
3189.726487,-9178.553681,74.020594,-1225.752797
3189.726825,-9030.512492,-222.061783,536.266849
3189.727162,-9326.594869,-518.144159,1991.848295
3189.727499,-9696.697840,-740.205942,2451.505594
3189.727837,-10140.821405,74.020594,1838.629195
3189.728174,-10584.944971,148.041188,1378.971896
3189.728511,-10214.842000,1036.288319,1378.971896
3189.728849,-9696.697840,518.144159,0.000000
3189.729186,-9622.677246,1110.308913,-306.438199
3189.729523,-9622.677246,518.144159,-536.266849
3189.729860,-9548.656652,-814.226536,0.000000
3189.730198,-9326.594869,-518.144159,306.438199
3189.730535,-9474.636058,-888.247130,995.924147
3189.730872,-10436.903782,-592.164754,1072.533697
3189.731210,-10658.965565,-888.247130,306.438199
3189.731547,-10955.047942,-518.144159,1532.190996
3189.731884,-10658.965565,518.144159,536.266849
3189.732222,-10584.944971,0.000000,-766.095498
3189.732559,-10807.006753,-1184.329507,-383.047749
3189.732896,-9844.739029,-2368.659014,-842.705048
3189.733234,-9326.594869,-2960.823768,153.219100
3189.733571,-9992.780217,-2738.761985,842.705048
3189.733908,-9992.780217,-3330.926739,612.876398
3189.734246,-11029.068536,-2590.720797,842.705048
3189.734583,-11029.068536,-2294.638420,383.047749
3189.734920,-10140.821405,-1110.308913,-153.219100
3189.735258,-9918.759623,-1184.329507,0.000000
3189.735595,-9474.636058,-518.144159,-383.047749
3189.735932,-9474.636058,-1258.350101,383.047749
3189.736270,-9992.780217,-962.267725,1991.848295
3189.736607,-9770.718434,-148.041188,2374.896044
3189.736944,-10214.842000,444.123565,689.485948
3189.737281,-11103.089130,592.164754,1378.971896
3189.737619,-10510.924376,740.205942,1149.143247
3189.737956,-9696.697840,1776.494261,1149.143247
3189.738293,-9178.553681,2368.659014,153.219100
3189.738631,-9548.656652,2590.720797,-995.924147
3189.738968,-9770.718434,2146.597232,-1838.629195
3189.739305,-9474.636058,1480.411884,-1608.800546
3189.739642,-8956.491898,814.226536,76.609550
3189.739980,-9474.636058,0.000000,1302.362347
3189.740317,-9770.718434,518.144159,1149.143247
3189.740654,-10955.047942,-370.102971,229.828649
3189.740992,-10510.924376,370.102971,0.000000
3189.741329,-10658.965565,444.123565,-612.876398
3189.741666,-10140.821405,222.061783,-766.095498
3189.742003,-9326.594869,74.020594,-1762.019645
3189.742341,-9252.574275,-592.164754,-1532.190996
3189.742678,-9474.636058,-1036.288319,0.000000
3189.743015,-9104.533087,-1702.473667,0.000000
3189.743353,-10362.883188,-1406.391290,1225.752797
3189.743690,-11103.089130,-444.123565,1149.143247
3189.744027,-11177.109724,-666.185348,1608.800546
3189.744365,-10807.006753,0.000000,2068.457845
3189.744702,-10140.821405,222.061783,1685.410096
3189.745039,-10510.924376,444.123565,1532.190996
3189.745376,-10510.924376,-370.102971,229.828649
3189.745714,-10066.800811,-962.267725,0.000000
3189.746051,-9400.615463,-1406.391290,1072.533697
3189.746388,-9770.718434,-1554.432478,1915.238745
3189.746726,-9770.718434,-1036.288319,1378.971896
3189.747063,-11029.068536,-1110.308913,383.047749
3189.747400,-10807.006753,-296.082377,0.000000
3189.747737,-9844.739029,-296.082377,-1532.190996
3189.748075,-10288.862594,222.061783,-919.314598
3189.748412,-9548.656652,0.000000,-459.657299
3189.748749,-8956.491898,-888.247130,-1072.533697
3189.749087,-9548.656652,-444.123565,306.438199
3189.749424,-10214.842000,-518.144159,1608.800546
3189.749761,-9992.780217,-592.164754,1149.143247
3189.750098,-10584.944971,-592.164754,1532.190996
3189.750436,-10140.821405,1184.329507,1838.629195
3189.750773,-10288.862594,1332.370696,1685.410096
3189.751110,-9548.656652,1776.494261,842.705048
3189.751448,-9474.636058,1998.556043,-76.609550
3189.751785,-9844.739029,1776.494261,-306.438199
3189.752122,-9326.594869,1554.432478,-766.095498
3189.752459,-9252.574275,0.000000,0.000000
3189.752797,-9548.656652,-148.041188,842.705048
3189.753134,-9992.780217,-814.226536,689.485948
3189.753471,-10584.944971,-592.164754,229.828649
3189.753809,-10362.883188,-370.102971,-766.095498
3189.754146,-10288.862594,-222.061783,-1762.019645
3189.754483,-9622.677246,-740.205942,-2451.505594
3189.754820,-8956.491898,-1258.350101,-2911.162892
3189.755158,-9474.636058,-1776.494261,-1685.410096
3189.755495,-9474.636058,-2368.659014,-1302.362347
3189.755832,-9770.718434,-2368.659014,-459.657299
3189.756170,-10362.883188,-1850.514855,0.000000
3189.756507,-11251.130318,-2146.597232,536.266849
3189.756844,-10955.047942,-1702.473667,1455.581446
3189.757182,-10732.986159,-1554.432478,2451.505594
3189.757519,-10584.944971,-740.205942,2757.943793
3189.757856,-10658.965565,74.020594,1532.190996
3189.758193,-11103.089130,222.061783,995.924147
3189.758531,-10288.862594,-666.185348,1302.362347
3189.758868,-9696.697840,-740.205942,2604.724693
3189.759205,-9770.718434,0.000000,3600.648841
3189.759543,-10510.924376,296.082377,2451.505594
3189.759880,-10362.883188,148.041188,1455.581446
3189.760217,-10658.965565,962.267725,766.095498
3189.760554,-10066.800811,1406.391290,229.828649
3189.760892,-9770.718434,2072.576638,-536.266849
3189.761229,-9696.697840,814.226536,-1608.800546
3189.761566,-8438.347739,888.247130,-1915.238745
3189.761904,-8956.491898,-296.082377,-612.876398
3189.762241,-9252.574275,-444.123565,306.438199
3189.762578,-8808.450710,-740.205942,689.485948
3189.762915,-10214.842000,0.000000,1532.190996
3189.763253,-10436.903782,0.000000,766.095498
3189.763590,-10066.800811,814.226536,459.657299
3189.763927,-10140.821405,1406.391290,459.657299
3189.764265,-10066.800811,518.144159,-153.219100
3189.764602,-9992.780217,1406.391290,-842.705048
3189.764939,-9696.697840,0.000000,-536.266849
3189.765276,-9622.677246,0.000000,612.876398
3189.765614,-9992.780217,-444.123565,612.876398
3189.765951,-10510.924376,-888.247130,1225.752797
3189.766288,-10510.924376,-888.247130,1302.362347
3189.766626,-10807.006753,-518.144159,0.000000
3189.766963,-10362.883188,666.185348,-383.047749
3189.767300,-10214.842000,0.000000,-2145.067394
3189.767638,-10140.821405,-296.082377,-2451.505594
3189.767975,-10066.800811,-814.226536,-2528.115143
3189.768312,-9696.697840,-1776.494261,-2221.676944
3189.768649,-9178.553681,-2220.617826,-1532.190996
3189.768987,-9844.739029,-2368.659014,-842.705048
3189.769324,-10362.883188,-2590.720797,-612.876398
3189.769661,-10732.986159,-2294.638420,229.828649
3189.769999,-10732.986159,-1924.535449,1225.752797
3189.770336,-10584.944971,-888.247130,1302.362347
3189.770673,-9844.739029,-740.205942,76.609550
3189.771010,-10584.944971,-666.185348,842.705048
3189.771348,-10436.903782,-1332.370696,1915.238745
3189.771685,-9400.615463,-1184.329507,3370.820191
3189.772022,-9696.697840,-370.102971,4366.744339
3189.772360,-10436.903782,0.000000,3677.258390
3189.772697,-10510.924376,518.144159,2451.505594
3189.773034,-11399.171507,666.185348,2604.724693
3189.773371,-10436.903782,2146.597232,1149.143247
3189.773709,-9474.636058,2294.638420,306.438199
3189.774046,-9474.636058,2368.659014,-536.266849
3189.774383,-8808.450710,1184.329507,-1532.190996
3189.774721,-8956.491898,1036.288319,-536.266849
3189.775058,-9030.512492,296.082377,-153.219100
3189.775395,-9474.636058,0.000000,-76.609550
3189.775732,-9992.780217,222.061783,0.000000
3189.776070,-10214.842000,-444.123565,-153.219100
3189.776407,-9548.656652,148.041188,-306.438199
3189.776744,-10140.821405,0.000000,-306.438199
3189.777082,-10362.883188,666.185348,-919.314598
3189.777419,-10140.821405,-666.185348,-1991.848295
3189.777756,-9474.636058,-962.267725,-1532.190996
3189.778093,-9326.594869,-2146.597232,229.828649
3189.778431,-9178.553681,-3034.844362,1915.238745
3189.778768,-9548.656652,-1850.514855,1991.848295
3189.779105,-11399.171507,-1258.350101,1685.410096
3189.779443,-11769.274478,-370.102971,995.924147
3189.779780,-10807.006753,-296.082377,-459.657299
3189.780117,-11029.068536,0.000000,-153.219100
3189.780455,-9622.677246,888.247130,-1455.581446
3189.780792,-9696.697840,-518.144159,-1838.629195
3189.781129,-9770.718434,-1332.370696,-1378.971896
3189.781466,-8882.471304,-1110.308913,-1685.410096
3189.781804,-9622.677246,-1110.308913,-459.657299
3189.782141,-10807.006753,-1332.370696,-383.047749
3189.782478,-10658.965565,-1036.288319,-229.828649
3189.782816,-10436.903782,-740.205942,76.609550
3189.783153,-9474.636058,-296.082377,0.000000
3189.783490,-9770.718434,222.061783,229.828649
3189.783827,-10584.944971,-444.123565,153.219100
3189.784165,-10140.821405,-592.164754,459.657299
3189.784502,-9548.656652,-962.267725,1838.629195
3189.784839,-9474.636058,-592.164754,3140.991542
3189.785177,-9622.677246,-296.082377,3064.381992
3189.785514,-10140.821405,-666.185348,3064.381992
3189.785851,-10584.944971,740.205942,3217.601092
3189.786188,-9992.780217,1776.494261,1685.410096
3189.786526,-10066.800811,2738.761985,919.314598
3189.786863,-9770.718434,2590.720797,0.000000
3189.787200,-9326.594869,1258.350101,-612.876398
3189.787538,-9030.512492,1554.432478,229.828649
3189.787875,-9104.533087,1184.329507,689.485948
3189.788212,-9696.697840,370.102971,459.657299
3189.788549,-9992.780217,-518.144159,0.000000
3189.788887,-10066.800811,0.000000,-536.266849
3189.789224,-10584.944971,0.000000,-459.657299
3189.789561,-9918.759623,222.061783,-1532.190996
3189.789899,-9474.636058,-518.144159,-2221.676944
3189.790236,-9474.636058,-592.164754,-2451.505594
3189.790573,-9474.636058,-2146.597232,-2221.676944
3189.790910,-10140.821405,-2146.597232,-229.828649
3189.791248,-9992.780217,-2516.700203,612.876398
3189.791585,-10881.027347,-2368.659014,1455.581446
3189.791922,-11843.295072,-2516.700203,1685.410096
3189.792260,-11251.130318,-1924.535449,612.876398
3189.792597,-10955.047942,-1332.370696,1302.362347
3189.792934,-10955.047942,-518.144159,-536.266849
3189.793272,-9696.697840,-666.185348,-1455.581446
3189.793609,-10140.821405,-148.041188,-1302.362347
3189.793946,-9178.553681,-1184.329507,-612.876398
3189.794283,-9104.533087,-962.267725,229.828649
3189.794621,-9770.718434,0.000000,383.047749
3189.794958,-10214.842000,222.061783,76.609550
3189.795295,-10732.986159,222.061783,536.266849
3189.795633,-10436.903782,518.144159,766.095498
3189.795970,-9770.718434,1036.288319,1455.581446
3189.796307,-9918.759623,1776.494261,536.266849
3189.796644,-10214.842000,888.247130,-306.438199
3189.796982,-9770.718434,74.020594,-1455.581446
3189.797319,-9104.533087,-222.061783,306.438199
3189.797656,-9030.512492,-666.185348,1608.800546
3189.797994,-9326.594869,-814.226536,2374.896044
3189.798331,-9992.780217,-666.185348,1991.848295
3189.798668,-10510.924376,222.061783,1378.971896
3189.799005,-10584.944971,888.247130,1608.800546
3189.799343,-10214.842000,740.205942,919.314598
3189.799680,-10140.821405,1554.432478,1455.581446
3189.800017,-9548.656652,74.020594,689.485948
3189.800355,-9326.594869,666.185348,995.924147
3189.800692,-9696.697840,-370.102971,1225.752797
3189.801029,-10066.800811,-518.144159,1378.971896
3189.801366,-10214.842000,-1332.370696,766.095498
3189.801704,-10658.965565,-962.267725,995.924147
3189.802041,-10362.883188,-222.061783,0.000000
3189.802378,-9548.656652,74.020594,-1225.752797
3189.802716,-10214.842000,-296.082377,-1149.143247
3189.803053,-9992.780217,0.000000,-2528.115143
3189.803390,-9696.697840,-1554.432478,-2451.505594
3189.803727,-9992.780217,-2220.617826,-1225.752797
3189.804065,-9400.615463,-2368.659014,-919.314598
3189.804402,-10140.821405,-3404.947333,612.876398
3189.804739,-10807.006753,-2738.761985,612.876398
3189.805077,-11029.068536,-2664.741391,0.000000
3189.805414,-11251.130318,-1480.411884,-689.485948
3189.805751,-10881.027347,-888.247130,-995.924147
3189.806089,-10066.800811,-296.082377,-1838.629195
3189.806426,-9548.656652,-1036.288319,-766.095498
3189.806763,-9474.636058,-888.247130,919.314598
3189.807100,-9252.574275,-518.144159,1378.971896
3189.807438,-10288.862594,0.000000,2298.286494
3189.807775,-10362.883188,962.267725,1532.190996
3189.808112,-10881.027347,740.205942,1685.410096
3189.808450,-11029.068536,1554.432478,2374.896044
3189.808787,-9844.739029,1776.494261,1915.238745
3189.809124,-9696.697840,2886.803174,1225.752797
3189.809461,-9992.780217,2590.720797,-612.876398
3189.809799,-9474.636058,1480.411884,-995.924147
3189.810136,-8956.491898,444.123565,229.828649
3189.810473,-8438.347739,518.144159,689.485948
3189.810811,-9252.574275,0.000000,1378.971896
3189.811148,-9770.718434,-296.082377,995.924147
3189.811485,-9770.718434,0.000000,612.876398
3189.811822,-10436.903782,0.000000,229.828649
3189.812160,-9992.780217,740.205942,-536.266849
3189.812497,-10140.821405,148.041188,-459.657299
3189.812834,-9770.718434,-814.226536,-995.924147
3189.813172,-8808.450710,-1702.473667,-689.485948
3189.813509,-9326.594869,-2072.576638,842.705048
3189.813846,-9548.656652,-2294.638420,766.095498
3189.814183,-10140.821405,-1998.556043,1149.143247
3189.814521,-11251.130318,-1480.411884,919.314598
3189.814858,-10658.965565,-592.164754,0.000000
3189.815195,-10510.924376,0.000000,689.485948
3189.815533,-10881.027347,74.020594,229.828649
3189.815870,-10436.903782,222.061783,-1455.581446
3189.816207,-10362.883188,0.000000,-995.924147
3189.816544,-9918.759623,-1480.411884,-995.924147
3189.816882,-9326.594869,-2146.597232,0.000000
3189.817219,-9992.780217,-2294.638420,995.924147
3189.817556,-10436.903782,-1628.453072,306.438199
3189.817894,-11251.130318,-1258.350101,-919.314598
3189.818231,-10436.903782,-666.185348,-1608.800546
3189.818568,-9992.780217,-370.102971,-1532.190996
3189.818906,-9400.615463,-666.185348,-1991.848295
3189.819243,-8808.450710,-666.185348,-1915.238745
3189.819580,-9178.553681,-962.267725,-766.095498
3189.819917,-9474.636058,-962.267725,459.657299
3189.820255,-8734.430116,0.000000,1072.533697
3189.820592,-10510.924376,-962.267725,1991.848295
3189.820929,-10436.903782,592.164754,2451.505594
3189.821267,-10066.800811,296.082377,2681.334243
3189.821604,-9992.780217,1702.473667,3370.820191
3189.821941,-9400.615463,2368.659014,1762.019645
3189.822278,-10362.883188,2442.679609,1072.533697
3189.822616,-10214.842000,1628.453072,842.705048
3189.822953,-9252.574275,888.247130,766.095498
3189.823290,-9326.594869,1036.288319,2145.067394
3189.823628,-9696.697840,74.020594,2298.286494
3189.823965,-10214.842000,0.000000,1838.629195
3189.824302,-10955.047942,0.000000,995.924147
3189.824639,-10288.862594,370.102971,-766.095498
3189.824977,-10288.862594,740.205942,-1608.800546
3189.825314,-10288.862594,-444.123565,-1608.800546
3189.825651,-9178.553681,-1258.350101,-1685.410096
3189.825989,-9178.553681,-2294.638420,-1072.533697
3189.826326,-9696.697840,-2294.638420,76.609550
3189.826663,-10214.842000,-2664.741391,0.000000
3189.827000,-10732.986159,-2368.659014,383.047749
3189.827338,-11325.150913,-2812.782580,689.485948
3189.827675,-10732.986159,-2738.761985,536.266849
3189.828012,-10436.903782,-1702.473667,1608.800546
3189.828350,-10510.924376,-740.205942,995.924147
3189.828687,-10066.800811,-666.185348,-766.095498
3189.829024,-10288.862594,-518.144159,-1302.362347
3189.829361,-9992.780217,-1036.288319,306.438199
3189.829699,-10066.800811,-1332.370696,1838.629195
3189.830036,-9770.718434,-1184.329507,1991.848295
3189.830373,-10214.842000,222.061783,1302.362347
3189.830711,-11177.109724,0.000000,306.438199
3189.831048,-10436.903782,444.123565,-536.266849
3189.831385,-9844.739029,1110.308913,-1225.752797
3189.831723,-10214.842000,1776.494261,-1149.143247
3189.832060,-9474.636058,1554.432478,-2987.772442
3189.832397,-9104.533087,0.000000,-2528.115143
3189.832734,-8882.471304,0.000000,-1608.800546
3189.833072,-8586.388927,-518.144159,-689.485948
3189.833409,-9696.697840,0.000000,612.876398
3189.833746,-9770.718434,-296.082377,689.485948
3189.834084,-10288.862594,666.185348,1685.410096
3189.834421,-10510.924376,962.267725,2145.067394
3189.834758,-9992.780217,1406.391290,1378.971896
3189.835095,-10140.821405,1850.514855,1608.800546
3189.835433,-10584.944971,592.164754,842.705048
3189.835770,-9548.656652,1110.308913,919.314598
3189.836107,-9326.594869,-370.102971,1685.410096
3189.836445,-9696.697840,-222.061783,2987.772442
3189.836782,-10066.800811,-814.226536,2374.896044
3189.837119,-10732.986159,-444.123565,1225.752797
3189.837456,-10362.883188,296.082377,383.047749
3189.837794,-10140.821405,518.144159,-919.314598
3189.838131,-10066.800811,444.123565,-919.314598
3189.838468,-9770.718434,-1110.308913,-1302.362347
3189.838806,-9400.615463,-888.247130,-1532.190996
3189.839143,-9844.739029,-1628.453072,-995.924147
3189.839481,-10214.842000,-2146.597232,-612.876398
3189.839818,-10066.800811,-3256.906145,-689.485948
3189.840156,-10881.027347,-3182.885551,0.000000
3189.840493,-10436.903782,-2664.741391,459.657299
3189.840831,-11029.068536,-1924.535449,306.438199
3189.841168,-10362.883188,-1332.370696,-229.828649
3189.841506,-10288.862594,-592.164754,-919.314598
3189.841843,-10362.883188,-1332.370696,-76.609550
3189.842181,-10140.821405,-1184.329507,1072.533697
3189.842518,-9548.656652,-1258.350101,2681.334243
3189.842856,-9844.739029,-296.082377,3830.477490
3189.843193,-10584.944971,0.000000,2911.162892
3189.843531,-11473.192101,592.164754,1378.971896
3189.843868,-11029.068536,962.267725,1072.533697
3189.844205,-10066.800811,2072.576638,306.438199
3189.844543,-9474.636058,2738.761985,-766.095498
3189.844880,-8956.491898,1776.494261,-2451.505594
3189.845218,-8734.430116,1702.473667,-2374.896044
3189.845555,-8956.491898,740.205942,-2298.286494
3189.845893,-8734.430116,666.185348,-1302.362347
3189.846230,-9178.553681,444.123565,-689.485948
3189.846568,-9696.697840,74.020594,-383.047749
3189.846905,-9770.718434,148.041188,766.095498
3189.847243,-10066.800811,74.020594,842.705048
3189.847580,-9770.718434,1184.329507,459.657299
3189.847918,-10658.965565,74.020594,-383.047749
3189.848255,-10584.944971,-296.082377,-536.266849
3189.848593,-9992.780217,-1184.329507,0.000000
3189.848930,-9918.759623,-1628.453072,1915.238745
3189.849267,-9400.615463,-1850.514855,2911.162892
3189.849605,-10362.883188,-2072.576638,2221.676944
3189.849942,-10955.047942,-1184.329507,1532.190996
3189.850280,-10436.903782,-814.226536,1149.143247
3189.850617,-10584.944971,296.082377,689.485948
3189.850955,-10955.047942,444.123565,459.657299
3189.851292,-10436.903782,0.000000,-306.438199
3189.851630,-9844.739029,-518.144159,-612.876398
3189.851967,-9696.697840,-1628.453072,-306.438199
3189.852305,-9844.739029,-1924.535449,0.000000
3189.852642,-10140.821405,-2368.659014,0.000000
3189.852980,-10732.986159,-1776.494261,0.000000
3189.853317,-10881.027347,-1702.473667,-1149.143247
3189.853655,-9918.759623,-1184.329507,-1225.752797
3189.853992,-9844.739029,-814.226536,-689.485948
3189.854330,-9770.718434,-370.102971,-1225.752797
3189.854667,-9918.759623,-592.164754,-1378.971896
3189.855004,-9844.739029,-814.226536,0.000000
3189.855342,-9770.718434,-1110.308913,1455.581446
3189.855679,-9548.656652,-666.185348,2987.772442
3189.856017,-10584.944971,-444.123565,3600.648841
3189.856354,-10362.883188,222.061783,2068.457845
3189.856692,-10807.006753,888.247130,1915.238745
3189.857029,-10288.862594,2590.720797,612.876398
3189.857367,-9622.677246,2220.617826,-459.657299
3189.857704,-9326.594869,2886.803174,-1072.533697
3189.858042,-9400.615463,2146.597232,-995.924147
3189.858379,-9104.533087,1628.453072,-229.828649
3189.858717,-8808.450710,1628.453072,-919.314598
3189.859054,-9622.677246,1480.411884,229.828649
3189.859392,-10362.883188,888.247130,306.438199
3189.859729,-9622.677246,222.061783,-229.828649
3189.860066,-10362.883188,740.205942,459.657299
3189.860404,-9770.718434,1258.350101,-612.876398
3189.860741,-10362.883188,-222.061783,-1149.143247
3189.861079,-9918.759623,-1258.350101,-842.705048
3189.861416,-8882.471304,-1924.535449,-612.876398
3189.861754,-9474.636058,-1850.514855,1225.752797
3189.862091,-10584.944971,-2886.803174,1915.238745
3189.862429,-10066.800811,-2516.700203,1455.581446
3189.862766,-11177.109724,-2516.700203,1302.362347
3189.863104,-10732.986159,-2072.576638,1685.410096
3189.863441,-10362.883188,-814.226536,1072.533697
3189.863779,-10881.027347,-592.164754,766.095498
3189.864116,-10140.821405,-370.102971,306.438199
3189.864454,-9992.780217,-1258.350101,0.000000
3189.864791,-9992.780217,-962.267725,612.876398
3189.865128,-10214.842000,-1110.308913,1302.362347
3189.865466,-10362.883188,-962.267725,1685.410096
3189.865803,-10510.924376,-148.041188,766.095498
3189.866141,-10288.862594,0.000000,0.000000
3189.866478,-10140.821405,518.144159,229.828649
3189.866816,-9844.739029,814.226536,-842.705048
3189.867153,-9696.697840,888.247130,-1072.533697
3189.867491,-9844.739029,962.267725,-2145.067394
3189.867828,-9400.615463,518.144159,-1685.410096
3189.868166,-9326.594869,-1184.329507,-383.047749
3189.868503,-9030.512492,-1036.288319,1302.362347
3189.868841,-9474.636058,-814.226536,2374.896044
3189.869178,-10510.924376,-74.020594,1838.629195
3189.869516,-10214.842000,518.144159,383.047749
3189.869853,-10214.842000,518.144159,229.828649
3189.870191,-10214.842000,1628.453072,0.000000
3189.870528,-9400.615463,1776.494261,-383.047749
3189.870865,-9918.759623,888.247130,-153.219100
3189.871203,-9326.594869,1110.308913,-306.438199
3189.871540,-9104.533087,370.102971,0.000000
3189.871878,-10214.842000,148.041188,1225.752797
3189.872215,-10140.821405,-370.102971,229.828649
3189.872553,-10214.842000,-444.123565,1608.800546
3189.872890,-10584.944971,592.164754,689.485948
3189.873228,-9474.636058,592.164754,-766.095498
3189.873565,-10510.924376,814.226536,-1225.752797
3189.873903,-10732.986159,-1406.391290,-919.314598
3189.874240,-9770.718434,-1036.288319,-1072.533697
3189.874578,-9770.718434,-1998.556043,-383.047749
3189.874915,-9696.697840,-2664.741391,766.095498
3189.875253,-9992.780217,-3256.906145,919.314598
3189.875590,-10955.047942,-3478.967927,1149.143247
3189.875927,-10658.965565,-2294.638420,842.705048
3189.876265,-10732.986159,-1776.494261,306.438199
3189.876602,-10955.047942,-1110.308913,229.828649
3189.876940,-10140.821405,-1924.535449,-842.705048
3189.877277,-9844.739029,-1184.329507,0.000000
3189.877615,-9918.759623,-1036.288319,1072.533697
3189.877952,-10066.800811,-1258.350101,2451.505594
3189.878290,-9918.759623,-592.164754,2374.896044
3189.878627,-10584.944971,74.020594,2068.457845
3189.878965,-10584.944971,592.164754,1608.800546
3189.879302,-10584.944971,1184.329507,1302.362347
3189.879640,-10214.842000,2442.679609,459.657299
3189.879977,-9696.697840,2294.638420,-383.047749
3189.880315,-9474.636058,2590.720797,-1378.971896
3189.880652,-9770.718434,1480.411884,-1455.581446
3189.880989,-9178.553681,740.205942,0.000000
3189.881327,-8586.388927,222.061783,229.828649
3189.881664,-9326.594869,222.061783,919.314598
3189.882002,-9992.780217,0.000000,842.705048
3189.882339,-9918.759623,370.102971,0.000000
3189.882677,-10214.842000,518.144159,0.000000
3189.883014,-10066.800811,1850.514855,-612.876398
3189.883352,-9770.718434,518.144159,-1838.629195
3189.883689,-9992.780217,0.000000,-1225.752797
3189.884027,-9252.574275,-1258.350101,-766.095498
3189.884364,-9326.594869,-1332.370696,1072.533697
3189.884702,-9696.697840,-814.226536,995.924147
3189.885039,-10066.800811,-1480.411884,1149.143247
3189.885377,-11029.068536,-888.247130,1149.143247
3189.885714,-11177.109724,-296.082377,1532.190996
3189.886052,-10658.965565,962.267725,1072.533697
3189.886389,-11325.150913,888.247130,919.314598
3189.886726,-11547.212695,0.000000,0.000000
3189.887064,-10362.883188,-74.020594,-995.924147
3189.887401,-9844.739029,-1554.432478,383.047749
3189.887739,-9252.574275,-1850.514855,1072.533697
3189.888076,-9918.759623,-2812.782580,1072.533697
3189.888414,-11029.068536,-1776.494261,842.705048
3189.888751,-10658.965565,-1480.411884,-766.095498
3189.889089,-10955.047942,-518.144159,-689.485948
3189.889426,-10066.800811,-1036.288319,-766.095498
3189.889764,-9548.656652,-962.267725,-1149.143247
3189.890101,-9474.636058,-1184.329507,-536.266849
3189.890439,-9030.512492,-740.205942,0.000000
3189.890776,-10066.800811,-1554.432478,1532.190996
3189.891114,-10140.821405,-1406.391290,2145.067394
3189.891451,-10066.800811,-444.123565,1991.848295
3189.891788,-10955.047942,0.000000,2374.896044
3189.892126,-10140.821405,888.247130,1762.019645
3189.892463,-10214.842000,1850.514855,1378.971896
3189.892801,-10436.903782,2368.659014,612.876398
3189.893138,-9400.615463,2072.576638,-612.876398
3189.893476,-10214.842000,2368.659014,0.000000
3189.893813,-9326.594869,814.226536,76.609550
3189.894151,-8956.491898,1036.288319,842.705048
3189.894488,-9770.718434,222.061783,1532.190996
3189.894826,-10362.883188,370.102971,689.485948
3189.895163,-10955.047942,592.164754,0.000000
3189.895501,-10955.047942,962.267725,-1149.143247
3189.895838,-9918.759623,1110.308913,-2834.553343
3189.896176,-9770.718434,74.020594,-2757.943793
3189.896513,-8882.471304,-1480.411884,-1991.848295
3189.896851,-8808.450710,-1924.535449,-1532.190996
3189.897188,-9030.512492,-2590.720797,-612.876398
3189.897525,-9992.780217,-1850.514855,306.438199
3189.897863,-10881.027347,-2516.700203,229.828649
3189.898200,-11251.130318,-1998.556043,919.314598
3189.898538,-10732.986159,-1702.473667,1762.019645
3189.898875,-10140.821405,-814.226536,2068.457845
3189.899213,-10807.006753,0.000000,1532.190996
3189.899550,-10658.965565,-666.185348,306.438199
3189.899888,-10362.883188,-1258.350101,229.828649
3189.900225,-9918.759623,-814.226536,766.095498
3189.900563,-10066.800811,-1850.514855,2757.943793
3189.900900,-10436.903782,-592.164754,2221.676944
3189.901238,-10436.903782,-962.267725,1455.581446
3189.901575,-10881.027347,0.000000,229.828649
3189.901913,-10288.862594,592.164754,0.000000
3189.902250,-10436.903782,518.144159,-306.438199
3189.902587,-9696.697840,740.205942,-919.314598
3189.902925,-8882.471304,370.102971,-1991.848295
3189.903262,-9104.533087,-296.082377,-1225.752797
3189.903600,-9474.636058,-1036.288319,0.000000
3189.903937,-8956.491898,-740.205942,306.438199
3189.904275,-9918.759623,-740.205942,1302.362347
3189.904612,-10214.842000,370.102971,1302.362347
3189.904950,-10066.800811,222.061783,689.485948
3189.905287,-10362.883188,888.247130,1149.143247
3189.905625,-9770.718434,1850.514855,612.876398
3189.905962,-9844.739029,1554.432478,0.000000
3189.906300,-10140.821405,1406.391290,612.876398
3189.906637,-9622.677246,370.102971,306.438199
3189.906975,-9474.636058,518.144159,1838.629195
3189.907312,-10510.924376,222.061783,2145.067394
3189.907649,-10881.027347,0.000000,919.314598
3189.907987,-10510.924376,296.082377,536.266849
3189.908324,-10362.883188,814.226536,-306.438199
3189.908662,-9548.656652,888.247130,-1915.238745
3189.908999,-9104.533087,74.020594,-2757.943793
3189.909337,-9770.718434,-518.144159,-1915.238745
3189.909674,-9474.636058,-1258.350101,-1455.581446
3189.910012,-9400.615463,-1628.453072,-1302.362347
3189.910349,-9622.677246,-1702.473667,-842.705048
3189.910687,-10658.965565,-2590.720797,0.000000
3189.911024,-10881.027347,-2516.700203,153.219100
3189.911362,-10362.883188,-2368.659014,1072.533697
3189.911699,-10288.862594,-1184.329507,1455.581446
3189.912037,-10510.924376,-888.247130,153.219100
3189.912374,-11029.068536,-1110.308913,0.000000
3189.912712,-10362.883188,-1406.391290,153.219100
3189.913049,-9474.636058,-1332.370696,1838.629195
3189.913386,-10066.800811,-1480.411884,3983.696590
3189.913724,-10066.800811,-962.267725,3677.258390
3189.914061,-10807.006753,222.061783,3064.381992
3189.914399,-11103.089130,518.144159,1838.629195
3189.914736,-10732.986159,1554.432478,1302.362347
3189.915074,-10510.924376,1850.514855,689.485948
3189.915411,-9918.759623,1628.453072,-612.876398
3189.915749,-8586.388927,2220.617826,-689.485948
3189.916086,-8956.491898,592.164754,-995.924147
3189.916424,-9178.553681,444.123565,-306.438199
3189.916761,-8956.491898,-444.123565,-536.266849
3189.917099,-9474.636058,296.082377,459.657299
3189.917436,-9770.718434,-518.144159,0.000000
3189.917774,-9252.574275,-222.061783,0.000000
3189.918111,-9844.739029,666.185348,76.609550
3189.918448,-9770.718434,148.041188,-995.924147
3189.918786,-9992.780217,666.185348,-1685.410096
3189.919123,-10288.862594,-666.185348,-1225.752797
3189.919461,-10140.821405,-1480.411884,459.657299
3189.919798,-8882.471304,-2294.638420,1302.362347
3189.920136,-9918.759623,-1628.453072,1762.019645
3189.920473,-10140.821405,-1258.350101,1685.410096
3189.920811,-11251.130318,-1332.370696,459.657299
3189.921148,-10807.006753,-740.205942,383.047749
3189.921486,-10288.862594,1036.288319,-153.219100
3189.921823,-10362.883188,444.123565,-459.657299
3189.922161,-10807.006753,0.000000,-1532.190996
3189.922498,-9548.656652,-740.205942,-1225.752797
3189.922836,-9252.574275,-1480.411884,-459.657299
3189.923173,-9474.636058,-1702.473667,-459.657299
3189.923510,-10362.883188,-1628.453072,-306.438199
3189.923848,-10584.944971,-1850.514855,-689.485948
3189.924185,-10436.903782,-1924.535449,-153.219100
3189.924523,-10362.883188,-740.205942,0.000000
3189.924860,-9918.759623,-888.247130,76.609550
3189.925198,-9992.780217,-666.185348,229.828649
3189.925535,-9918.759623,-1480.411884,-153.219100
3189.925873,-9474.636058,-1036.288319,2068.457845
3189.926210,-10066.800811,-1406.391290,3294.210641
3189.926548,-10066.800811,-1628.453072,4213.525239
3189.926885,-10510.924376,-444.123565,3064.381992
3189.927223,-10732.986159,222.061783,2451.505594
3189.927560,-10584.944971,1554.432478,2145.067394
3189.927898,-10214.842000,1998.556043,1838.629195
3189.928235,-9474.636058,2072.576638,919.314598
3189.928573,-9030.512492,1850.514855,0.000000
3189.928910,-9474.636058,1776.494261,536.266849
3189.929247,-9474.636058,1406.391290,229.828649
3189.929585,-8808.450710,518.144159,0.000000
3189.929922,-9622.677246,888.247130,306.438199
3189.930260,-10362.883188,370.102971,459.657299
3189.930597,-9992.780217,888.247130,0.000000
3189.930935,-10066.800811,740.205942,-1225.752797
3189.931272,-9696.697840,518.144159,-2221.676944
3189.931610,-9770.718434,-370.102971,-2834.553343
3189.931947,-9622.677246,-1850.514855,-1762.019645
3189.932285,-8956.491898,-2368.659014,-306.438199
3189.932622,-8586.388927,-2442.679609,76.609550
3189.932960,-10140.821405,-2146.597232,1302.362347
3189.933297,-11769.274478,-1924.535449,306.438199
3189.933635,-11473.192101,-1776.494261,76.609550
3189.933972,-11177.109724,-1110.308913,229.828649
3189.934309,-10732.986159,0.000000,229.828649
3189.934647,-10362.883188,222.061783,0.000000
3189.934984,-10140.821405,-444.123565,-1149.143247
3189.935322,-9696.697840,-814.226536,-383.047749
3189.935659,-9992.780217,-888.247130,229.828649
3189.935997,-10510.924376,-370.102971,842.705048
3189.936334,-10436.903782,-296.082377,-306.438199
3189.936672,-10584.944971,-518.144159,0.000000
3189.937009,-10436.903782,370.102971,306.438199
3189.937347,-10066.800811,444.123565,459.657299
3189.937684,-9770.718434,1036.288319,76.609550
3189.938022,-9844.739029,444.123565,-1225.752797
3189.938359,-10140.821405,370.102971,-612.876398
3189.938697,-9622.677246,-222.061783,-306.438199
3189.939034,-9400.615463,-222.061783,1302.362347
3189.939372,-9622.677246,-962.267725,2451.505594
3189.939709,-9844.739029,-592.164754,1685.410096
3189.940046,-10140.821405,-222.061783,2068.457845
3189.940384,-9770.718434,592.164754,1302.362347
3189.940721,-10288.862594,1110.308913,1302.362347
3189.941059,-9992.780217,1406.391290,842.705048
3189.941396,-9178.553681,1184.329507,612.876398
3189.941734,-9474.636058,1332.370696,1378.971896
3189.942071,-9770.718434,296.082377,1302.362347
3189.942408,-9252.574275,370.102971,1225.752797
3189.942746,-10362.883188,-74.020594,2068.457845
3189.943083,-10807.006753,222.061783,1225.752797
3189.943421,-10362.883188,0.000000,229.828649
3189.943758,-10140.821405,0.000000,-536.266849
3189.944096,-9474.636058,518.144159,-842.705048
3189.944433,-9696.697840,-222.061783,-1915.238745
3189.944771,-9918.759623,-814.226536,-1762.019645
3189.945108,-9474.636058,-2442.679609,-1762.019645
3189.945446,-9548.656652,-2516.700203,0.000000
3189.945783,-9844.739029,-3330.926739,306.438199
3189.946120,-10584.944971,-3701.029710,0.000000
3189.946458,-11103.089130,-2738.761985,306.438199
3189.946795,-10807.006753,-2738.761985,76.609550
3189.947133,-10510.924376,-1702.473667,-459.657299
3189.947470,-10362.883188,-1924.535449,-1608.800546
3189.947808,-9770.718434,-1406.391290,-1532.190996
3189.948145,-9992.780217,-2220.617826,-459.657299
3189.948483,-9844.739029,-1480.411884,1225.752797
3189.948820,-9548.656652,-518.144159,1608.800546
3189.949158,-10510.924376,-222.061783,1685.410096
3189.949495,-10807.006753,222.061783,1378.971896
3189.949833,-10955.047942,370.102971,1608.800546
3189.950170,-10881.027347,1702.473667,2298.286494
3189.950507,-9770.718434,2368.659014,919.314598
3189.950845,-10732.986159,2072.576638,0.000000
3189.951182,-9844.739029,1998.556043,-766.095498
3189.951520,-9252.574275,1110.308913,-689.485948
3189.951857,-9104.533087,888.247130,1685.410096
3189.952195,-9030.512492,0.000000,1149.143247
3189.952532,-9696.697840,518.144159,1762.019645
3189.952870,-10436.903782,592.164754,1455.581446
3189.953207,-9770.718434,666.185348,689.485948
3189.953545,-10214.842000,1628.453072,919.314598
3189.953882,-9844.739029,888.247130,-383.047749
3189.954219,-9474.636058,1184.329507,-766.095498
3189.954557,-9474.636058,-444.123565,-383.047749
3189.954894,-9474.636058,-444.123565,766.095498
3189.955232,-9252.574275,-1110.308913,1378.971896
3189.955569,-10214.842000,-962.267725,1302.362347
3189.955907,-10362.883188,-370.102971,842.705048
3189.956244,-10584.944971,-370.102971,383.047749
3189.956582,-10288.862594,74.020594,919.314598
3189.956919,-10140.821405,370.102971,-76.609550
3189.957257,-10362.883188,1184.329507,-612.876398
3189.957594,-10881.027347,74.020594,-1608.800546
3189.957931,-10214.842000,-888.247130,-919.314598
3189.958269,-9178.553681,-1258.350101,0.000000
3189.958606,-9474.636058,-1554.432478,919.314598
3189.958944,-10658.965565,-1776.494261,76.609550
3189.959281,-11251.130318,-1776.494261,-689.485948
3189.959619,-11251.130318,-888.247130,-1532.190996
3189.959956,-10510.924376,-1258.350101,-1455.581446
3189.960294,-10066.800811,-518.144159,-2145.067394
3189.960631,-9326.594869,-1332.370696,-1302.362347
3189.960969,-9548.656652,-1258.350101,-1149.143247
3189.961306,-9104.533087,-1406.391290,-689.485948
3189.961644,-9918.759623,-814.226536,689.485948
3189.961981,-10510.924376,-666.185348,2068.457845
3189.962318,-10214.842000,-296.082377,1532.190996
3189.962656,-10288.862594,-296.082377,2145.067394
3189.962993,-10362.883188,1554.432478,2298.286494
3189.963331,-9918.759623,1480.411884,1991.848295
3189.963668,-9992.780217,2072.576638,1225.752797
3189.964006,-9474.636058,1480.411884,306.438199
3189.964343,-9696.697840,1110.308913,612.876398
3189.964681,-9326.594869,1406.391290,1608.800546
3189.965018,-9178.553681,296.082377,1225.752797
3189.965356,-9844.739029,296.082377,1762.019645
3189.965693,-10584.944971,0.000000,1455.581446
3189.966030,-10140.821405,1184.329507,-153.219100
3189.966368,-10140.821405,592.164754,-1302.362347
3189.966705,-10214.842000,222.061783,-1685.410096
3189.967043,-9474.636058,-740.205942,-2451.505594
3189.967380,-9400.615463,-2146.597232,-689.485948
3189.967718,-8734.430116,-2368.659014,-459.657299
3189.968055,-8956.491898,-3701.029710,0.000000
3189.968393,-10658.965565,-2294.638420,689.485948
3189.968730,-10807.006753,-2664.741391,383.047749
3189.969068,-11547.212695,-1776.494261,842.705048
3189.969405,-10732.986159,-1628.453072,995.924147
3189.969743,-10807.006753,-740.205942,1149.143247
3189.970080,-10658.965565,-740.205942,766.095498
3189.970417,-10140.821405,-666.185348,-766.095498
3189.970755,-10436.903782,-1850.514855,536.266849
3189.971092,-9770.718434,-1924.535449,919.314598
3189.971430,-9992.780217,-740.205942,2221.676944
3189.971767,-11621.233289,-814.226536,1762.019645
3189.972105,-10881.027347,-444.123565,0.000000
3189.972442,-10510.924376,-222.061783,-612.876398
3189.972780,-9992.780217,74.020594,-459.657299
3189.973117,-9474.636058,1110.308913,-1608.800546
3189.973455,-9770.718434,592.164754,-2221.676944
3189.973792,-9400.615463,0.000000,-1762.019645
3189.974129,-8882.471304,-296.082377,-1225.752797
3189.974467,-9474.636058,-1036.288319,842.705048
3189.974804,-9474.636058,-592.164754,536.266849
3189.975142,-9696.697840,-296.082377,689.485948
3189.975479,-10362.883188,222.061783,1532.190996
3189.975817,-9696.697840,888.247130,1455.581446
3189.976154,-10066.800811,1776.494261,1455.581446
3189.976492,-10140.821405,2146.597232,1378.971896
3189.976829,-10140.821405,1480.411884,689.485948
3189.977167,-9548.656652,1628.453072,1991.848295
3189.977504,-9400.615463,1184.329507,2451.505594
3189.977841,-9770.718434,962.267725,2911.162892
3189.978179,-10658.965565,444.123565,1915.238745
3189.978516,-10436.903782,1184.329507,1991.848295
3189.978854,-10955.047942,888.247130,919.314598
3189.979191,-10214.842000,1332.370696,-995.924147
3189.979529,-9400.615463,888.247130,-1915.238745
3189.979866,-9030.512492,-74.020594,-2145.067394
3189.980204,-9326.594869,0.000000,-1762.019645
3189.980541,-9696.697840,-1924.535449,-459.657299
3189.980879,-9622.677246,-1258.350101,-1685.410096
3189.981216,-10214.842000,-2738.761985,-766.095498
3189.981554,-11103.089130,-2590.720797,-612.876398
3189.981891,-10288.862594,-2294.638420,-383.047749
3189.982228,-10288.862594,-2220.617826,0.000000
3189.982566,-10066.800811,-1480.411884,383.047749
3189.982903,-10066.800811,-1628.453072,-766.095498
3189.983241,-10732.986159,-1258.350101,-229.828649
3189.983578,-10732.986159,-1776.494261,153.219100
3189.983916,-9548.656652,-1480.411884,2681.334243
3189.984253,-10140.821405,-1036.288319,2987.772442
3189.984591,-10658.965565,148.041188,3217.601092
3189.984928,-11103.089130,296.082377,1838.629195
3189.985266,-11399.171507,814.226536,919.314598
3189.985603,-10436.903782,1702.473667,306.438199
3189.985940,-9696.697840,2072.576638,0.000000
3189.986278,-9622.677246,1702.473667,-689.485948
3189.986615,-8660.409521,666.185348,-1838.629195
3189.986953,-8660.409521,814.226536,-1302.362347
3189.987290,-9030.512492,592.164754,0.000000
3189.987628,-9474.636058,296.082377,-766.095498
3189.987965,-9622.677246,370.102971,76.609550
3189.988303,-9770.718434,0.000000,612.876398
3189.988640,-9474.636058,74.020594,1072.533697
3189.988978,-9474.636058,888.247130,612.876398
3189.989315,-10066.800811,740.205942,689.485948
3189.989653,-10510.924376,296.082377,0.000000
3189.989990,-9770.718434,-962.267725,383.047749
3189.990327,-9474.636058,-814.226536,1991.848295
3189.990665,-9548.656652,-2368.659014,3370.820191
3189.991002,-10658.965565,-1332.370696,2451.505594
3189.991340,-10436.903782,-814.226536,1685.410096
3189.991677,-10658.965565,-370.102971,1072.533697
3189.992015,-10436.903782,666.185348,0.000000
3189.992352,-10584.944971,0.000000,0.000000
3189.992690,-10362.883188,296.082377,-383.047749
3189.993027,-9918.759623,-740.205942,-612.876398
3189.993365,-10140.821405,-1702.473667,-612.876398
3189.993702,-9548.656652,-1924.535449,-612.876398
3189.994039,-9992.780217,-2220.617826,0.000000
3189.994377,-11103.089130,-2516.700203,-306.438199
3189.994714,-10732.986159,-2220.617826,-1149.143247
3189.995052,-10288.862594,-1850.514855,-1378.971896
3189.995389,-10214.842000,-1776.494261,-689.485948
3189.995727,-9622.677246,-962.267725,-1608.800546
3189.996064,-9696.697840,-1258.350101,-1762.019645
3189.996402,-9770.718434,-1480.411884,0.000000
3189.996739,-9844.739029,-1998.556043,1455.581446
3189.997077,-9992.780217,-1332.370696,2911.162892
3189.997414,-11029.068536,-1184.329507,3217.601092
3189.997752,-10807.006753,0.000000,2374.896044
3189.998089,-11029.068536,962.267725,1915.238745
3189.998426,-10510.924376,1628.453072,1149.143247
3189.998764,-9474.636058,2442.679609,76.609550
3189.999101,-9474.636058,2368.659014,0.000000
3189.999439,-9770.718434,2294.638420,-459.657299
3189.999776,-8956.491898,2368.659014,-536.266849
3190.000114,-8956.491898,1776.494261,0.000000
3190.000451,-8956.491898,1184.329507,-229.828649
3190.000789,-9696.697840,1184.329507,459.657299
3190.001126,-10066.800811,666.185348,1225.752797
3190.001464,-9918.759623,1776.494261,306.438199
3190.001801,-10436.903782,1332.370696,0.000000
3190.002138,-10288.862594,1184.329507,-1838.629195
3190.002476,-9992.780217,-518.144159,-1608.800546
3190.002813,-9770.718434,-1258.350101,-383.047749
3190.003151,-8882.471304,-1480.411884,842.705048
3190.003488,-9178.553681,-2590.720797,1608.800546
3190.003826,-10214.842000,-2442.679609,1302.362347
3190.004163,-11251.130318,-2146.597232,1608.800546
3190.004501,-11621.233289,-1184.329507,1149.143247
3190.004838,-10955.047942,-1036.288319,1149.143247
3190.005176,-10510.924376,-222.061783,842.705048
3190.005513,-9844.739029,-370.102971,76.609550
3190.005850,-10066.800811,-740.205942,229.828649
3190.006188,-9770.718434,-1110.308913,0.000000
3190.006525,-10066.800811,-1554.432478,766.095498
3190.006863,-10362.883188,-518.144159,536.266849
3190.007200,-11029.068536,-814.226536,76.609550
3190.007538,-10510.924376,-740.205942,-153.219100
3190.007875,-9918.759623,-222.061783,-306.438199
3190.008213,-9770.718434,148.041188,-383.047749
3190.008550,-9770.718434,518.144159,-306.438199
3190.008888,-10214.842000,370.102971,-1225.752797
3190.009225,-9918.759623,-296.082377,-1455.581446
3190.009563,-9252.574275,-1184.329507,-153.219100
3190.009900,-9474.636058,-1258.350101,1378.971896
3190.010237,-10214.842000,-962.267725,2374.896044
3190.010575,-10214.842000,-444.123565,1532.190996
3190.010912,-10066.800811,222.061783,919.314598
3190.011250,-10362.883188,1110.308913,1072.533697
3190.011587,-9696.697840,1702.473667,0.000000
3190.011925,-9696.697840,1406.391290,0.000000
3190.012262,-9548.656652,1110.308913,-153.219100
3190.012600,-8956.491898,1332.370696,612.876398
3190.012937,-9252.574275,962.267725,919.314598
3190.013275,-9844.739029,1036.288319,536.266849
3190.013612,-10288.862594,444.123565,689.485948
3190.013949,-10658.965565,444.123565,1302.362347
3190.014287,-10584.944971,1110.308913,459.657299
3190.014624,-9696.697840,1258.350101,0.000000
3190.014962,-10066.800811,518.144159,-995.924147
3190.015299,-9770.718434,-888.247130,-1225.752797
3190.015637,-9474.636058,-1258.350101,-842.705048
3190.015974,-9474.636058,-2072.576638,0.000000
3190.016312,-9696.697840,-2294.638420,0.000000
3190.016649,-10362.883188,-3034.844362,689.485948
3190.016987,-11251.130318,-2516.700203,459.657299
3190.017324,-11029.068536,-2516.700203,383.047749
3190.017662,-10807.006753,-1702.473667,229.828649
3190.017999,-10214.842000,-1924.535449,76.609550
3190.018336,-10214.842000,-1702.473667,-459.657299
3190.018674,-9918.759623,-1628.453072,-1072.533697
3190.019011,-10066.800811,-1850.514855,919.314598
3190.019349,-10288.862594,-1998.556043,1838.629195
3190.019686,-9992.780217,-962.267725,1838.629195
3190.020024,-10732.986159,-296.082377,1991.848295
3190.020361,-10658.965565,370.102971,842.705048
3190.020699,-10807.006753,222.061783,1225.752797
3190.021036,-10066.800811,1480.411884,1225.752797
3190.021374,-9548.656652,2220.617826,-153.219100
3190.021711,-10362.883188,1776.494261,-536.266849
3190.022048,-9844.739029,888.247130,-1225.752797
3190.022386,-8512.368333,518.144159,-612.876398
3190.022723,-8956.491898,370.102971,612.876398
3190.023061,-9400.615463,296.082377,1072.533697
3190.023398,-9770.718434,222.061783,612.876398
3190.023736,-10066.800811,296.082377,689.485948
3190.024073,-9696.697840,888.247130,0.000000
3190.024411,-9696.697840,1480.411884,-536.266849
3190.024748,-9992.780217,1406.391290,-612.876398
3190.025086,-9474.636058,0.000000,-1225.752797
3190.025423,-9252.574275,0.000000,0.000000
3190.025760,-9326.594869,-222.061783,612.876398
3190.026098,-9844.739029,-518.144159,1302.362347
3190.026435,-10658.965565,-740.205942,1685.410096
3190.026773,-10732.986159,-296.082377,1378.971896
3190.027110,-10288.862594,518.144159,1378.971896
3190.027448,-10288.862594,518.144159,689.485948
3190.027785,-10140.821405,1184.329507,459.657299
3190.028123,-11251.130318,74.020594,-459.657299
3190.028460,-10584.944971,-148.041188,0.000000
3190.028798,-9696.697840,-1036.288319,-153.219100
3190.029135,-9770.718434,-1924.535449,689.485948
3190.029473,-9992.780217,-2146.597232,612.876398
3190.029810,-10732.986159,-2516.700203,229.828649
3190.030147,-11177.109724,-1776.494261,-459.657299
3190.030485,-10658.965565,-740.205942,-2145.067394
3190.030822,-10732.986159,-2072.576638,-766.095498
3190.031160,-9548.656652,-1406.391290,-1762.019645
3190.031497,-8882.471304,-1332.370696,-1608.800546
3190.031835,-9992.780217,-1554.432478,-383.047749
3190.032172,-9622.677246,-2146.597232,0.000000
3190.032510,-9918.759623,-2146.597232,1532.190996
3190.032847,-11029.068536,-1184.329507,1838.629195
3190.033185,-10214.842000,-518.144159,1149.143247
3190.033522,-10881.027347,888.247130,1532.190996
3190.033859,-10658.965565,1036.288319,1378.971896
3190.034197,-9474.636058,2664.741391,459.657299
3190.034534,-9548.656652,1776.494261,0.000000
3190.034872,-9770.718434,1702.473667,229.828649
3190.035209,-9326.594869,888.247130,76.609550
3190.035547,-9474.636058,962.267725,1991.848295
3190.035884,-9548.656652,740.205942,1225.752797
3190.036222,-10066.800811,592.164754,1149.143247
3190.036559,-10584.944971,814.226536,1149.143247
3190.036897,-10436.903782,962.267725,-229.828649
3190.037234,-9992.780217,1554.432478,-1532.190996
3190.037572,-9992.780217,592.164754,-2757.943793
3190.037909,-9326.594869,-888.247130,-2221.676944
3190.038246,-8660.409521,-1776.494261,-995.924147
3190.038584,-8586.388927,-1924.535449,383.047749
3190.038921,-9178.553681,-2294.638420,459.657299
3190.039259,-10436.903782,-2220.617826,842.705048
3190.039596,-11251.130318,-1702.473667,1302.362347
3190.039934,-11177.109724,-1480.411884,1762.019645
3190.040271,-10732.986159,-148.041188,2145.067394
3190.040609,-10732.986159,-518.144159,1608.800546
3190.040946,-10807.006753,-296.082377,1072.533697
3190.041283,-9918.759623,-1110.308913,0.000000
3190.041621,-9770.718434,-1480.411884,1149.143247
3190.041958,-10140.821405,-1480.411884,1915.238745
3190.042296,-10214.842000,-1258.350101,1455.581446
3190.042633,-10955.047942,-1036.288319,1455.581446
3190.042971,-11103.089130,0.000000,-306.438199
3190.043308,-10584.944971,0.000000,-842.705048
3190.043645,-10214.842000,592.164754,-1302.362347
3190.043983,-9770.718434,296.082377,-1838.629195
3190.044320,-9326.594869,0.000000,-2068.457845
3190.044658,-9474.636058,-518.144159,-1762.019645
3190.044995,-9326.594869,-1332.370696,-766.095498
3190.045332,-9622.677246,-888.247130,229.828649
3190.045670,-9992.780217,-1184.329507,536.266849
3190.046007,-9918.759623,-222.061783,76.609550
3190.046345,-10066.800811,-148.041188,612.876398
3190.046682,-9844.739029,666.185348,1225.752797
3190.047019,-9696.697840,1776.494261,0.000000
3190.047357,-10436.903782,1998.556043,229.828649
3190.047694,-9622.677246,1480.411884,-306.438199
3190.048032,-9252.574275,370.102971,995.924147
3190.048369,-9030.512492,1184.329507,2298.286494
3190.048707,-9696.697840,444.123565,2681.334243
3190.049044,-11029.068536,962.267725,2298.286494
3190.049381,-11029.068536,370.102971,995.924147
3190.049719,-11029.068536,1924.535449,-153.219100
3190.050056,-10066.800811,1258.350101,-1455.581446
3190.050394,-9326.594869,1258.350101,-2451.505594
3190.050731,-9474.636058,-592.164754,-1991.848295
3190.051068,-9030.512492,-1036.288319,-1762.019645
3190.051406,-8586.388927,-1480.411884,-1302.362347
3190.051743,-9770.718434,-2072.576638,-689.485948
3190.052081,-10584.944971,-2590.720797,-383.047749
3190.052418,-10955.047942,-2368.659014,229.828649
3190.052755,-11177.109724,-2294.638420,1072.533697
3190.053093,-10362.883188,-1258.350101,1455.581446
3190.053430,-10584.944971,-1480.411884,1149.143247
3190.053768,-10732.986159,-1998.556043,612.876398
3190.054105,-10362.883188,-1480.411884,536.266849
3190.054443,-10214.842000,-2368.659014,2068.457845
3190.054780,-9770.718434,-1850.514855,2604.724693
3190.055117,-10288.862594,-1554.432478,4060.306139
3190.055455,-10807.006753,-666.185348,2757.943793
3190.055792,-10732.986159,0.000000,1762.019645
3190.056130,-10807.006753,888.247130,1149.143247
3190.056467,-10436.903782,962.267725,536.266849
3190.056804,-9770.718434,1702.473667,-612.876398
3190.057142,-9474.636058,1184.329507,-766.095498
3190.057479,-9104.533087,444.123565,-995.924147
3190.057817,-8734.430116,-222.061783,-1225.752797
3190.058154,-8808.450710,0.000000,-1149.143247
3190.058491,-9474.636058,0.000000,-383.047749
3190.058829,-9918.759623,-222.061783,-612.876398
3190.059166,-9474.636058,-148.041188,0.000000
3190.059504,-9770.718434,444.123565,-76.609550
3190.059841,-9770.718434,444.123565,-459.657299
3190.060179,-10066.800811,1628.453072,-766.095498
3190.060516,-10362.883188,814.226536,-766.095498
3190.060853,-9696.697840,0.000000,612.876398
3190.061191,-9400.615463,-1702.473667,1149.143247
3190.061528,-10140.821405,-814.226536,2528.115143
3190.061866,-10584.944971,-888.247130,2374.896044
3190.062203,-10955.047942,-444.123565,1072.533697
3190.062540,-10510.924376,444.123565,306.438199
3190.062878,-10066.800811,1184.329507,-689.485948
3190.063215,-10288.862594,1110.308913,-1302.362347
3190.063553,-10288.862594,222.061783,-1762.019645
3190.063890,-9474.636058,0.000000,-1455.581446
3190.064227,-9474.636058,-1110.308913,-1302.362347
3190.064565,-9548.656652,-1184.329507,-766.095498
3190.064902,-10066.800811,-1554.432478,-383.047749
3190.065240,-10955.047942,-1998.556043,76.609550
3190.065577,-10436.903782,-1406.391290,-383.047749
3190.065915,-10658.965565,-1110.308913,-995.924147
3190.066252,-10510.924376,-962.267725,229.828649
3190.066589,-10362.883188,-1776.494261,-919.314598
3190.066927,-9918.759623,-1036.288319,-153.219100
3190.067264,-9844.739029,-1406.391290,842.705048
3190.067602,-9178.553681,-1776.494261,1685.410096
3190.067939,-10066.800811,-1850.514855,3370.820191
3190.068276,-10955.047942,-888.247130,3907.087040
3190.068614,-10881.027347,74.020594,2911.162892
3190.068951,-10732.986159,740.205942,1915.238745
3190.069289,-10658.965565,1998.556043,1685.410096
3190.069626,-10066.800811,2294.638420,536.266849
3190.069964,-9178.553681,1776.494261,-229.828649
3190.070301,-8956.491898,1850.514855,0.000000
3190.070638,-9252.574275,370.102971,766.095498
3190.070976,-9030.512492,1406.391290,153.219100
3190.071313,-9252.574275,740.205942,229.828649
3190.071651,-9992.780217,370.102971,842.705048
3190.071988,-9844.739029,518.144159,459.657299
3190.072325,-9992.780217,888.247130,-766.095498
3190.072663,-9696.697840,1998.556043,-1608.800546
3190.073000,-9918.759623,148.041188,-2221.676944
3190.073338,-10066.800811,-1110.308913,-1685.410096
3190.073675,-9030.512492,-1850.514855,-766.095498
3190.074012,-9178.553681,-2368.659014,995.924147
3190.074350,-9770.718434,-2368.659014,1225.752797
3190.074687,-10214.842000,-2590.720797,919.314598
3190.075025,-11029.068536,-2368.659014,842.705048
3190.075362,-11325.150913,-1850.514855,1302.362347
3190.075700,-10510.924376,74.020594,612.876398
3190.076037,-11251.130318,0.000000,-76.609550
3190.076374,-10510.924376,-148.041188,-919.314598
3190.076712,-9696.697840,-1258.350101,-1225.752797
3190.077049,-9326.594869,-1184.329507,-306.438199
3190.077387,-9770.718434,-1480.411884,689.485948
3190.077724,-10140.821405,-1406.391290,0.000000
3190.078061,-11029.068536,-1036.288319,-229.828649
3190.078399,-10658.965565,-1184.329507,0.000000
3190.078736,-9992.780217,-370.102971,-76.609550
3190.079074,-10436.903782,0.000000,229.828649
3190.079411,-10510.924376,0.000000,-536.266849
3190.079748,-9474.636058,0.000000,-1149.143247
3190.080086,-9696.697840,-1332.370696,-766.095498
3190.080423,-9252.574275,-740.205942,1225.752797
3190.080761,-9474.636058,-1480.411884,2298.286494
3190.081098,-10288.862594,-1258.350101,2374.896044
3190.081436,-10140.821405,0.000000,1225.752797
3190.081773,-10214.842000,0.000000,995.924147
3190.082110,-10362.883188,888.247130,689.485948
3190.082448,-9474.636058,962.267725,459.657299
3190.082785,-9770.718434,2072.576638,459.657299
3190.083123,-9770.718434,1776.494261,383.047749
3190.083460,-9400.615463,740.205942,919.314598
3190.083797,-9030.512492,962.267725,1225.752797
3190.084135,-9696.697840,518.144159,1838.629195
3190.084472,-10658.965565,1184.329507,1455.581446
3190.084810,-10658.965565,518.144159,995.924147
3190.085147,-10362.883188,1628.453072,536.266849
3190.085484,-10140.821405,1628.453072,-1532.190996
3190.085822,-9918.759623,1480.411884,-1991.848295
3190.086159,-9770.718434,-148.041188,-2221.676944
3190.086497,-9252.574275,-1554.432478,-766.095498
3190.086834,-8956.491898,-1554.432478,0.000000
3190.087172,-9474.636058,-2590.720797,1072.533697
3190.087509,-10732.986159,-2368.659014,1072.533697
3190.087846,-11621.233289,-2368.659014,536.266849
3190.088184,-11325.150913,-1776.494261,766.095498
3190.088521,-10362.883188,-1110.308913,0.000000
3190.088859,-10362.883188,-1036.288319,-612.876398
3190.089196,-9992.780217,-1776.494261,-612.876398
3190.089533,-9474.636058,-2368.659014,-612.876398
3190.089871,-9622.677246,-1184.329507,536.266849
3190.090208,-10436.903782,-1258.350101,1378.971896
3190.090546,-9918.759623,-962.267725,1302.362347
3190.090883,-10658.965565,-666.185348,1225.752797
3190.091220,-10510.924376,222.061783,2068.457845
3190.091558,-10140.821405,1184.329507,1378.971896
3190.091895,-10807.006753,1480.411884,995.924147
3190.092233,-10658.965565,1702.473667,383.047749
3190.092570,-9844.739029,1258.350101,-1072.533697
3190.092908,-9548.656652,592.164754,-306.438199
3190.093245,-9474.636058,0.000000,306.438199
3190.093582,-9252.574275,-592.164754,919.314598
3190.093920,-9474.636058,-592.164754,1149.143247
3190.094257,-9770.718434,-444.123565,536.266849
3190.094595,-9992.780217,-296.082377,0.000000
3190.094932,-10140.821405,148.041188,-612.876398
3190.095269,-9770.718434,666.185348,-612.876398
3190.095607,-9400.615463,592.164754,-919.314598
3190.095944,-9400.615463,-444.123565,766.095498
3190.096282,-9178.553681,-814.226536,153.219100
3190.096619,-9474.636058,-1480.411884,1378.971896
3190.096956,-10288.862594,-74.020594,1608.800546
3190.097294,-10955.047942,-888.247130,1149.143247
3190.097631,-10436.903782,-370.102971,536.266849
3190.097969,-9992.780217,-148.041188,536.266849
3190.098306,-9622.677246,592.164754,459.657299
3190.098644,-9844.739029,592.164754,-995.924147
3190.098981,-10288.862594,-222.061783,-1225.752797
3190.099318,-9844.739029,-666.185348,-689.485948
3190.099656,-9326.594869,-1036.288319,-76.609550
3190.099993,-10066.800811,-1702.473667,1455.581446
3190.100331,-10436.903782,-1702.473667,536.266849
3190.100668,-10807.006753,-2368.659014,76.609550
3190.101005,-11177.109724,-814.226536,-459.657299
3190.101343,-10436.903782,-1110.308913,-1532.190996
3190.101680,-10510.924376,-888.247130,-1532.190996
3190.102018,-10214.842000,-1702.473667,-1762.019645
3190.102355,-9030.512492,-1480.411884,-1608.800546
3190.102693,-9326.594869,-1628.453072,-689.485948
3190.103030,-9548.656652,-1554.432478,995.924147
3190.103367,-9844.739029,-1406.391290,1072.533697
3190.103705,-10881.027347,-740.205942,2451.505594
3190.104042,-11029.068536,222.061783,2604.724693
3190.104380,-10436.903782,1258.350101,2451.505594
3190.104717,-10732.986159,2294.638420,2757.943793
3190.105054,-10436.903782,1924.535449,1532.190996
3190.105392,-10140.821405,2294.638420,229.828649
3190.105729,-9474.636058,1850.514855,766.095498
3190.106067,-8660.409521,740.205942,1378.971896
3190.106404,-9178.553681,814.226536,2298.286494
3190.106741,-9548.656652,444.123565,1532.190996
3190.107079,-9918.759623,1184.329507,1149.143247
3190.107416,-10584.944971,1036.288319,536.266849
3190.107754,-9844.739029,2146.597232,-612.876398
3190.108091,-10066.800811,1258.350101,-2145.067394
3190.108429,-9770.718434,518.144159,-2604.724693
3190.108766,-9178.553681,-370.102971,-2145.067394
3190.109103,-9252.574275,-1850.514855,-459.657299
3190.109441,-9030.512492,-2072.576638,229.828649
3190.109778,-9326.594869,-2368.659014,153.219100
3190.110116,-11473.192101,-2294.638420,766.095498
3190.110453,-10584.944971,-1332.370696,306.438199
3190.110790,-11325.150913,-2072.576638,1378.971896
3190.111128,-10807.006753,0.000000,689.485948
3190.111465,-10436.903782,370.102971,0.000000
3190.111803,-11399.171507,-370.102971,-383.047749
3190.112140,-9696.697840,-1110.308913,-995.924147
3190.112477,-9252.574275,-1702.473667,536.266849
3190.112815,-10362.883188,-1332.370696,1762.019645
3190.113152,-10362.883188,-1480.411884,689.485948
3190.113490,-11177.109724,-962.267725,0.000000
3190.113827,-10881.027347,-1110.308913,-306.438199
3190.114165,-9844.739029,148.041188,-1225.752797
3190.114502,-9844.739029,-370.102971,-1455.581446
3190.114839,-9474.636058,0.000000,-2374.896044
3190.115177,-8808.450710,-518.144159,-2681.334243
3190.115514,-9326.594869,-1332.370696,-995.924147
3190.115852,-8956.491898,-1332.370696,306.438199
3190.116189,-10066.800811,-1258.350101,612.876398
3190.116526,-10436.903782,-814.226536,995.924147
3190.116864,-10362.883188,-444.123565,689.485948
3190.117201,-10066.800811,740.205942,1685.410096
3190.117539,-10140.821405,592.164754,2451.505594
3190.117876,-10214.842000,1110.308913,1838.629195
3190.118213,-10288.862594,1776.494261,995.924147
3190.118551,-9696.697840,1258.350101,1608.800546
3190.118888,-9400.615463,666.185348,2374.896044
3190.119226,-9400.615463,666.185348,2757.943793
3190.119563,-9918.759623,962.267725,2987.772442
3190.119901,-10732.986159,666.185348,2451.505594
3190.120238,-11103.089130,1406.391290,995.924147
3190.120575,-10732.986159,1628.453072,0.000000
3190.120913,-9770.718434,1554.432478,-1455.581446
3190.121250,-8956.491898,148.041188,-1991.848295
3190.121588,-9252.574275,-518.144159,-1762.019645
3190.121925,-8956.491898,-1480.411884,-536.266849
3190.122262,-8734.430116,-2146.597232,-919.314598
3190.122600,-9474.636058,-2812.782580,0.000000
3190.122937,-11029.068536,-2220.617826,-153.219100
3190.123275,-10436.903782,-2664.741391,-229.828649
3190.123612,-10955.047942,-1628.453072,306.438199
3190.123949,-9992.780217,-1110.308913,459.657299
3190.124287,-10140.821405,-1332.370696,-229.828649
3190.124624,-10288.862594,-1332.370696,0.000000
3190.124962,-9992.780217,-2220.617826,-459.657299
3190.125299,-9918.759623,-1776.494261,1838.629195
3190.125637,-10584.944971,-1776.494261,3140.991542
3190.125974,-10214.842000,-814.226536,2528.115143
3190.126311,-11029.068536,-148.041188,1838.629195
3190.126649,-11177.109724,370.102971,1149.143247
3190.126986,-10955.047942,1702.473667,-153.219100
3190.127324,-11029.068536,2072.576638,0.000000
3190.127661,-9548.656652,1776.494261,-1532.190996
3190.127998,-8660.409521,592.164754,-1225.752797
3190.128336,-8956.491898,1036.288319,-842.705048
3190.128673,-9030.512492,222.061783,-842.705048
3190.129011,-9844.739029,296.082377,-536.266849
3190.129348,-9844.739029,-148.041188,-383.047749
3190.129686,-9770.718434,296.082377,536.266849
3190.130023,-9548.656652,-296.082377,689.485948
3190.130360,-9622.677246,1184.329507,383.047749
3190.130698,-10214.842000,814.226536,229.828649
3190.131035,-10066.800811,888.247130,-383.047749
3190.131373,-9474.636058,370.102971,76.609550
3190.131710,-9770.718434,-814.226536,2145.067394
3190.132047,-9252.574275,-1184.329507,2604.724693
3190.132385,-10214.842000,-518.144159,2298.286494
3190.132722,-11325.150913,-222.061783,1915.238745
3190.133060,-10658.965565,222.061783,995.924147
3190.133397,-10658.965565,444.123565,459.657299
3190.133734,-10214.842000,814.226536,-383.047749
3190.134072,-9474.636058,888.247130,-1991.848295
3190.134409,-9918.759623,-370.102971,-1302.362347
3190.134747,-9622.677246,-888.247130,-1225.752797
3190.135084,-9178.553681,-1480.411884,-459.657299
3190.135422,-10288.862594,-1924.535449,-153.219100
3190.135759,-10807.006753,-1702.473667,-536.266849
3190.136096,-10955.047942,-1776.494261,-689.485948
3190.136434,-10362.883188,-2146.597232,-689.485948
3190.136771,-10066.800811,-1776.494261,-459.657299
3190.137109,-10066.800811,-1332.370696,-1378.971896
3190.137446,-10214.842000,-1480.411884,-1378.971896
3190.137783,-9622.677246,-2146.597232,-842.705048
3190.138121,-9548.656652,-2294.638420,229.828649
3190.138458,-9474.636058,-2072.576638,2068.457845
3190.138796,-10658.965565,-1998.556043,3294.210641
3190.139133,-10807.006753,-1406.391290,3447.429741
3190.139470,-10881.027347,0.000000,2145.067394
3190.139808,-10732.986159,1184.329507,1455.581446
3190.140145,-10732.986159,2368.659014,766.095498
3190.140483,-10214.842000,1776.494261,76.609550
3190.140820,-9252.574275,1554.432478,-536.266849
3190.141158,-8882.471304,962.267725,-76.609550
3190.141495,-9030.512492,1406.391290,919.314598
3190.141832,-9326.594869,1036.288319,459.657299
3190.142170,-10214.842000,296.082377,383.047749
3190.142507,-9770.718434,888.247130,919.314598
3190.142845,-9696.697840,888.247130,842.705048
3190.143182,-10214.842000,1480.411884,153.219100
3190.143519,-10214.842000,1850.514855,-995.924147
3190.143857,-10436.903782,740.205942,-1378.971896
3190.144194,-10066.800811,-518.144159,-842.705048
3190.144532,-9400.615463,-1480.411884,995.924147
3190.144869,-8956.491898,-2220.617826,1532.190996
3190.145207,-9844.739029,-2146.597232,2221.676944
3190.145544,-10732.986159,-2146.597232,1762.019645
3190.145881,-10955.047942,-1554.432478,1149.143247
3190.146219,-10955.047942,-740.205942,995.924147
3190.146556,-10510.924376,-740.205942,383.047749
3190.146894,-10066.800811,740.205942,-76.609550
3190.147231,-10288.862594,-222.061783,-383.047749
3190.147568,-10288.862594,-1036.288319,-459.657299
3190.147906,-8956.491898,-962.267725,536.266849
3190.148243,-10066.800811,-962.267725,1149.143247
3190.148581,-10658.965565,-1184.329507,612.876398
3190.148918,-10436.903782,-1258.350101,-306.438199
3190.149256,-10584.944971,-518.144159,0.000000
3190.149593,-10288.862594,0.000000,-919.314598
3190.149930,-9844.739029,370.102971,-1532.190996
3190.150268,-9992.780217,74.020594,-2221.676944
3190.150605,-9548.656652,-444.123565,-1915.238745
3190.150943,-9178.553681,-1184.329507,-612.876398
3190.151280,-9252.574275,-1554.432478,995.924147
3190.151617,-10362.883188,-1258.350101,2221.676944
3190.151955,-10066.800811,-888.247130,1378.971896
3190.152292,-10955.047942,-222.061783,766.095498
3190.152630,-10140.821405,962.267725,153.219100
3190.152967,-10214.842000,1406.391290,842.705048
3190.153305,-9844.739029,1332.370696,153.219100
3190.153642,-9474.636058,1406.391290,-536.266849
3190.153979,-9474.636058,1110.308913,383.047749
3190.154317,-9474.636058,1480.411884,1225.752797
3190.154654,-9252.574275,1036.288319,1532.190996
3190.154992,-9844.739029,592.164754,1455.581446
3190.155329,-10584.944971,740.205942,1838.629195
3190.155666,-10362.883188,1850.514855,1378.971896
3190.156004,-10584.944971,1480.411884,536.266849
3190.156341,-9992.780217,1776.494261,-766.095498
3190.156679,-9918.759623,296.082377,-1915.238745
3190.157016,-9992.780217,-148.041188,-1455.581446
3190.157354,-9104.533087,-1776.494261,0.000000
3190.157691,-8290.306550,-2442.679609,306.438199
3190.158028,-9474.636058,-2960.823768,1378.971896
3190.158366,-11029.068536,-3034.844362,1378.971896
3190.158703,-10955.047942,-1850.514855,766.095498
3190.159041,-11177.109724,-1332.370696,76.609550
3190.159378,-11177.109724,-1184.329507,76.609550
3190.159715,-10066.800811,-1258.350101,-689.485948
3190.160053,-9918.759623,-1998.556043,-612.876398
3190.160390,-9548.656652,-1850.514855,0.000000
3190.160728,-9918.759623,-2590.720797,1149.143247
3190.161065,-10288.862594,-1998.556043,1762.019645
3190.161403,-10510.924376,-666.185348,919.314598
3190.161740,-10807.006753,-1110.308913,1685.410096
3190.162077,-10584.944971,-296.082377,612.876398
3190.162415,-10066.800811,1184.329507,383.047749
3190.162752,-10066.800811,1702.473667,0.000000
3190.163090,-10288.862594,1628.453072,-1532.190996
3190.163427,-9696.697840,444.123565,-1302.362347
3190.163764,-9474.636058,222.061783,-383.047749
3190.164102,-9400.615463,296.082377,1302.362347
3190.164439,-9696.697840,0.000000,459.657299
3190.164777,-9918.759623,-518.144159,0.000000
3190.165114,-9770.718434,0.000000,689.485948
3190.165452,-9696.697840,222.061783,0.000000
3190.165789,-9770.718434,1702.473667,0.000000
3190.166126,-9918.759623,1110.308913,-1302.362347
3190.166464,-9178.553681,740.205942,-919.314598
3190.166801,-9474.636058,814.226536,-536.266849
3190.167139,-9400.615463,0.000000,766.095498
3190.167476,-9252.574275,0.000000,1532.190996
3190.167813,-10066.800811,-370.102971,1608.800546
3190.168151,-10584.944971,0.000000,1838.629195
3190.168488,-10066.800811,296.082377,1302.362347
3190.168826,-10881.027347,1258.350101,1608.800546
3190.169163,-10288.862594,1258.350101,612.876398
3190.169501,-10214.842000,740.205942,-1225.752797
3190.169838,-10288.862594,370.102971,-1072.533697
3190.170175,-10066.800811,-1184.329507,229.828649
3190.170513,-9400.615463,-1480.411884,1225.752797
3190.170850,-9844.739029,-2442.679609,1225.752797
3190.171188,-11029.068536,-1628.453072,1302.362347
3190.171525,-11029.068536,-1406.391290,0.000000
3190.171862,-10732.986159,-1332.370696,-995.924147
3190.172200,-10658.965565,-1554.432478,-1225.752797
3190.172537,-9918.759623,-1258.350101,-1838.629195
3190.172875,-9918.759623,-1480.411884,-1378.971896
3190.173212,-9770.718434,-2072.576638,-1149.143247
3190.173550,-9474.636058,-1924.535449,153.219100
3190.173887,-9696.697840,-2294.638420,1149.143247
3190.174224,-10658.965565,-1406.391290,1762.019645
3190.174562,-10955.047942,-740.205942,2451.505594
3190.174899,-10955.047942,-444.123565,2298.286494
3190.175237,-10510.924376,1332.370696,1915.238745
3190.175574,-10140.821405,1850.514855,842.705048
3190.175911,-10584.944971,1924.535449,306.438199
3190.176249,-9992.780217,1406.391290,-919.314598
3190.176586,-8364.327145,1110.308913,-153.219100
3190.176924,-9104.533087,1776.494261,1149.143247
3190.177261,-9474.636058,592.164754,919.314598
3190.177599,-10140.821405,592.164754,766.095498
3190.177936,-9770.718434,444.123565,612.876398
3190.178273,-9844.739029,1332.370696,536.266849
3190.178611,-9918.759623,1702.473667,-1378.971896
3190.178948,-9992.780217,1702.473667,-2681.334243
3190.179286,-9252.574275,222.061783,-2528.115143
3190.179623,-9104.533087,-814.226536,-1378.971896
3190.179960,-8882.471304,-1184.329507,306.438199
3190.180298,-9252.574275,-1480.411884,76.609550
3190.180635,-9770.718434,-2220.617826,1072.533697
3190.180973,-10807.006753,-1628.453072,1608.800546
3190.181310,-10732.986159,-1776.494261,1532.190996
3190.181648,-10732.986159,-740.205942,1991.848295
3190.181985,-10881.027347,-370.102971,1608.800546
3190.182322,-10436.903782,222.061783,459.657299
3190.182660,-10510.924376,-444.123565,229.828649
3190.182997,-10288.862594,-1332.370696,842.705048
3190.183335,-8956.491898,-2294.638420,919.314598
3190.183672,-10066.800811,-2146.597232,1838.629195
3190.184009,-10658.965565,-1258.350101,1455.581446
3190.184347,-10732.986159,-1554.432478,229.828649
3190.184684,-10732.986159,-740.205942,153.219100
3190.185022,-10362.883188,-592.164754,-612.876398
3190.185359,-10066.800811,370.102971,-1838.629195
3190.185697,-9696.697840,0.000000,-2451.505594
3190.186034,-9252.574275,-962.267725,-1915.238745
3190.186371,-8734.430116,-1480.411884,-536.266849
3190.186709,-9474.636058,-2072.576638,383.047749
3190.187046,-10066.800811,-740.205942,919.314598
3190.187384,-10732.986159,-1258.350101,1149.143247
3190.187721,-10066.800811,222.061783,459.657299
3190.188058,-9918.759623,0.000000,1149.143247
3190.188396,-10066.800811,1406.391290,1225.752797
3190.188733,-10214.842000,1850.514855,459.657299
3190.189071,-10288.862594,1776.494261,306.438199
3190.189408,-9326.594869,1184.329507,919.314598
3190.189746,-8882.471304,1554.432478,2145.067394
3190.190083,-9548.656652,740.205942,2911.162892
3190.190420,-9770.718434,1998.556043,1685.410096
3190.190758,-11177.109724,962.267725,1838.629195
3190.191095,-10658.965565,2590.720797,459.657299
3190.191433,-10362.883188,2368.659014,-1302.362347
3190.191770,-10288.862594,2072.576638,-2145.067394
3190.192107,-9474.636058,518.144159,-3064.381992
3190.192445,-8512.368333,-444.123565,-1838.629195
3190.192782,-8882.471304,-888.247130,-1225.752797
3190.193120,-8438.347739,-2146.597232,-1225.752797
3190.193457,-9622.677246,-2220.617826,-153.219100
3190.193795,-11251.130318,-2664.741391,612.876398
3190.194132,-10584.944971,-1332.370696,689.485948
3190.194469,-10881.027347,-1480.411884,1225.752797
3190.194807,-10955.047942,-666.185348,995.924147
3190.195144,-10510.924376,-1702.473667,536.266849
3190.195482,-11029.068536,-1998.556043,76.609550
3190.195819,-10362.883188,-1628.453072,612.876398
3190.196156,-9844.739029,-2738.761985,2068.457845
3190.196494,-10214.842000,-1628.453072,2757.943793
3190.196831,-10658.965565,-1554.432478,2374.896044
3190.197169,-10807.006753,0.000000,1685.410096
3190.197506,-11251.130318,0.000000,689.485948
3190.197844,-11029.068536,1184.329507,689.485948
3190.198181,-10214.842000,1184.329507,-689.485948
3190.198518,-9844.739029,814.226536,-1072.533697
3190.198856,-8956.491898,74.020594,-1225.752797
3190.199193,-9104.533087,-518.144159,-766.095498
3190.199531,-9326.594869,0.000000,-153.219100
3190.199868,-9474.636058,-740.205942,-689.485948
3190.200205,-10362.883188,-370.102971,-536.266849
3190.200543,-9400.615463,-592.164754,0.000000
3190.200880,-9622.677246,0.000000,536.266849
3190.201218,-9400.615463,962.267725,0.000000
3190.201555,-10066.800811,962.267725,-689.485948
3190.201893,-10066.800811,592.164754,-383.047749
3190.202230,-9474.636058,0.000000,76.609550
3190.202567,-8882.471304,-666.185348,2145.067394
3190.202905,-9844.739029,-370.102971,2987.772442
3190.203242,-10288.862594,-666.185348,2528.115143
3190.203580,-11325.150913,518.144159,2528.115143
3190.203917,-10658.965565,444.123565,995.924147
3190.204254,-10510.924376,1406.391290,459.657299
3190.204592,-10436.903782,1480.411884,-612.876398
3190.204929,-9252.574275,0.000000,-1762.019645
3190.205267,-9474.636058,0.000000,-1225.752797
3190.205604,-9252.574275,-1332.370696,-536.266849
3190.205942,-8956.491898,-1036.288319,-76.609550
3190.206279,-10066.800811,-2146.597232,0.000000
3190.206616,-10584.944971,-1702.473667,153.219100
3190.206954,-10510.924376,-1480.411884,-612.876398
3190.207291,-10658.965565,-1332.370696,536.266849
3190.207629,-10584.944971,-1480.411884,0.000000
3190.207966,-10288.862594,-2146.597232,-153.219100
3190.208303,-10140.821405,-1480.411884,-459.657299
3190.208641,-9770.718434,-2146.597232,0.000000
3190.208978,-9252.574275,-2516.700203,1072.533697
3190.209316,-9770.718434,-2664.741391,2374.896044
3190.209653,-11103.089130,-1184.329507,3370.820191
3190.209991,-11251.130318,-666.185348,2681.334243
3190.210328,-10881.027347,1036.288319,1455.581446
3190.210665,-10881.027347,962.267725,1532.190996
3190.211003,-10584.944971,2220.617826,612.876398
3190.211340,-9696.697840,2294.638420,76.609550
3190.211678,-9770.718434,1110.308913,0.000000
3190.212015,-8956.491898,1480.411884,-229.828649
3190.212352,-9104.533087,1332.370696,-383.047749
3190.212690,-9548.656652,962.267725,0.000000
3190.213027,-9252.574275,962.267725,0.000000
3190.213365,-9844.739029,666.185348,536.266849
3190.213702,-9548.656652,1184.329507,0.000000
3190.214040,-9030.512492,1998.556043,-1532.190996
3190.214377,-10288.862594,1110.308913,-2145.067394
3190.214714,-9844.739029,222.061783,-1991.848295
3190.215052,-9178.553681,-666.185348,-919.314598
3190.215389,-8882.471304,-1110.308913,1072.533697
3190.215727,-9474.636058,-1554.432478,1455.581446
3190.216064,-10510.924376,-1702.473667,1072.533697
3190.216401,-10658.965565,-1628.453072,1225.752797
3190.216739,-10807.006753,-962.267725,1072.533697
3190.217076,-10436.903782,74.020594,306.438199
3190.217414,-10732.986159,296.082377,689.485948
3190.217751,-10362.883188,0.000000,-919.314598
3190.218089,-9992.780217,-444.123565,-612.876398
3190.218426,-9696.697840,-740.205942,153.219100
3190.218763,-9992.780217,-814.226536,229.828649
3190.219101,-10288.862594,-1258.350101,0.000000
3190.219438,-10732.986159,-1332.370696,76.609550
3190.219776,-10436.903782,-1332.370696,459.657299
3190.220113,-10436.903782,-740.205942,612.876398
3190.220450,-10510.924376,-666.185348,459.657299
3190.220788,-10362.883188,-74.020594,-612.876398
3190.221125,-10066.800811,-1184.329507,-1149.143247
3190.221463,-9696.697840,-1258.350101,0.000000
3190.221800,-8956.491898,-2220.617826,1149.143247
3190.222138,-9474.636058,-2294.638420,2068.457845
3190.222475,-10510.924376,-1554.432478,2068.457845
3190.222812,-10807.006753,-814.226536,995.924147
3190.223150,-10510.924376,74.020594,689.485948
3190.223487,-10658.965565,74.020594,919.314598
3190.223825,-9326.594869,666.185348,76.609550
3190.224162,-9400.615463,1184.329507,0.000000
3190.224499,-9326.594869,1036.288319,383.047749
3190.224837,-9474.636058,814.226536,995.924147
3190.225174,-9474.636058,592.164754,1225.752797
3190.225512,-9770.718434,1036.288319,842.705048
3190.225849,-10214.842000,1406.391290,842.705048
3190.226187,-10362.883188,1110.308913,995.924147
3190.226524,-10362.883188,1110.308913,306.438199
3190.226861,-9178.553681,2146.597232,-995.924147
3190.227199,-9844.739029,1480.411884,-2145.067394
3190.227536,-10510.924376,0.000000,-2834.553343
3190.227874,-9178.553681,-222.061783,-2221.676944
3190.228211,-8808.450710,-1554.432478,-229.828649
3190.228548,-8882.471304,-2960.823768,612.876398
3190.228886,-9400.615463,-2738.761985,612.876398
3190.229223,-10955.047942,-2146.597232,919.314598
3190.229561,-11473.192101,-1480.411884,766.095498
3190.229898,-10658.965565,-888.247130,0.000000
3190.230236,-10807.006753,-592.164754,-383.047749
3190.230573,-10288.862594,-1776.494261,0.000000
3190.230910,-9770.718434,-1776.494261,-459.657299
3190.231248,-9548.656652,-1554.432478,536.266849
3190.231585,-10214.842000,-1554.432478,1915.238745
3190.231923,-10732.986159,-1036.288319,1838.629195
3190.232260,-11251.130318,-1110.308913,1225.752797
3190.232597,-10436.903782,-222.061783,995.924147
3190.232935,-10881.027347,222.061783,2374.896044
3190.233272,-10362.883188,740.205942,2068.457845
3190.233610,-10288.862594,1480.411884,153.219100
3190.233947,-9918.759623,962.267725,0.000000
3190.234285,-9992.780217,370.102971,153.219100
3190.234622,-9474.636058,0.000000,842.705048
3190.234959,-9474.636058,-222.061783,919.314598
3190.235297,-9844.739029,0.000000,1149.143247
3190.235634,-9548.656652,0.000000,229.828649
3190.235972,-9844.739029,-370.102971,306.438199
3190.236309,-9622.677246,814.226536,383.047749
3190.236646,-9696.697840,740.205942,-229.828649
3190.236984,-9770.718434,1702.473667,-536.266849
3190.237321,-9548.656652,518.144159,0.000000
3190.237659,-9178.553681,0.000000,383.047749
3190.237996,-9030.512492,0.000000,1225.752797
3190.238334,-10362.883188,222.061783,1991.848295
3190.238671,-10955.047942,814.226536,1378.971896
3190.239008,-10881.027347,370.102971,536.266849
3190.239346,-10584.944971,1036.288319,536.266849
3190.239683,-9844.739029,1406.391290,-766.095498
3190.240021,-10066.800811,962.267725,-1455.581446
3190.240358,-9696.697840,666.185348,-1915.238745
3190.240695,-9326.594869,-666.185348,-1225.752797
3190.241033,-8956.491898,-1184.329507,-306.438199
3190.241370,-9622.677246,-1258.350101,76.609550
3190.241708,-10584.944971,-1554.432478,689.485948
3190.242045,-11399.171507,-1702.473667,-612.876398
3190.242382,-10732.986159,-1406.391290,-1072.533697
3190.242720,-10362.883188,-1480.411884,-1302.362347
3190.243057,-10066.800811,-1332.370696,-1302.362347
3190.243394,-9400.615463,-2368.659014,-2145.067394
3190.243732,-9252.574275,-2442.679609,-2145.067394
3190.244069,-9548.656652,-2368.659014,-306.438199
3190.244407,-9696.697840,-2294.638420,153.219100
3190.244744,-10807.006753,-1702.473667,1532.190996
3190.245081,-10732.986159,-1406.391290,2221.676944
3190.245419,-10658.965565,-962.267725,2145.067394
3190.245756,-10732.986159,296.082377,2911.162892
3190.246094,-10510.924376,888.247130,2528.115143
3190.246431,-10881.027347,1332.370696,2068.457845
3190.246768,-10362.883188,1332.370696,842.705048
3190.247106,-9918.759623,1184.329507,1302.362347
3190.247443,-9400.615463,888.247130,1762.019645
3190.247780,-9178.553681,0.000000,2374.896044
3190.248118,-9622.677246,592.164754,2068.457845
3190.248455,-9770.718434,148.041188,1608.800546
3190.248793,-10362.883188,518.144159,1225.752797
3190.249130,-10066.800811,1406.391290,0.000000
3190.249467,-9178.553681,1110.308913,-1532.190996
3190.249805,-9474.636058,962.267725,-1608.800546
3190.250142,-9696.697840,-296.082377,-1225.752797
3190.250479,-8956.491898,-740.205942,-459.657299
3190.250817,-9104.533087,-1776.494261,0.000000
3190.251154,-10066.800811,-1184.329507,1072.533697
3190.251492,-10214.842000,-1924.535449,306.438199
3190.251829,-10732.986159,-1850.514855,459.657299
3190.252166,-10288.862594,-1184.329507,1072.533697
3190.252504,-9918.759623,0.000000,612.876398
3190.252841,-10658.965565,592.164754,0.000000
3190.253179,-11251.130318,-74.020594,-842.705048
3190.253516,-10214.842000,-296.082377,-1072.533697
3190.253853,-9992.780217,-1184.329507,306.438199
3190.254191,-9696.697840,-888.247130,1378.971896
3190.254528,-10436.903782,-1110.308913,1225.752797
3190.254865,-11399.171507,-888.247130,306.438199
3190.255203,-10658.965565,-740.205942,-229.828649
3190.255540,-10362.883188,0.000000,-1072.533697
3190.255878,-10584.944971,0.000000,-1225.752797
3190.256215,-9548.656652,-666.185348,-2757.943793
3190.256552,-9104.533087,-592.164754,-2451.505594
3190.256890,-8734.430116,-962.267725,-1455.581446
3190.257227,-9252.574275,-1554.432478,-612.876398
3190.257565,-9844.739029,-1184.329507,306.438199
3190.257902,-10436.903782,-1184.329507,842.705048
3190.258239,-10658.965565,-74.020594,1762.019645
3190.258577,-10214.842000,0.000000,1532.190996
3190.258914,-10214.842000,1406.391290,2145.067394
3190.259251,-10214.842000,1110.308913,1608.800546
3190.259589,-10362.883188,1924.535449,689.485948
3190.259926,-9696.697840,1554.432478,1225.752797
3190.260264,-9548.656652,1258.350101,2298.286494
3190.260601,-9252.574275,666.185348,3064.381992
3190.260938,-9992.780217,1554.432478,2681.334243
3190.261276,-10658.965565,1702.473667,1532.190996
3190.261613,-10362.883188,2368.659014,1302.362347
3190.261951,-10807.006753,1628.453072,689.485948
3190.262288,-9548.656652,2368.659014,-1302.362347
3190.262625,-9474.636058,1332.370696,-1838.629195
3190.262963,-9844.739029,518.144159,-1532.190996
3190.263300,-8956.491898,-888.247130,-1608.800546
3190.263637,-8660.409521,-1554.432478,-919.314598
3190.263975,-9104.533087,-1924.535449,-919.314598
3190.264312,-10140.821405,-2738.761985,-459.657299
3190.264650,-10955.047942,-2072.576638,0.000000
3190.264987,-10732.986159,-2516.700203,0.000000
3190.265324,-9918.759623,-1184.329507,0.000000
3190.265662,-10436.903782,-1258.350101,-459.657299
3190.265999,-10732.986159,-1998.556043,-612.876398
3190.266336,-10214.842000,-2146.597232,-612.876398
3190.266674,-9844.739029,-2664.741391,995.924147
3190.267011,-10214.842000,-1850.514855,2298.286494
3190.267349,-10807.006753,-2294.638420,2451.505594
3190.267686,-11325.150913,-1184.329507,1455.581446
3190.268023,-11621.233289,-1184.329507,995.924147
3190.268361,-11029.068536,592.164754,766.095498
3190.268698,-10288.862594,296.082377,-612.876398
3190.269036,-10066.800811,296.082377,-995.924147
3190.269373,-8956.491898,-148.041188,-1915.238745
3190.269710,-9030.512492,-74.020594,-1149.143247
3190.270048,-9474.636058,-592.164754,0.000000
3190.270385,-9400.615463,0.000000,-766.095498
3190.270722,-10288.862594,-666.185348,76.609550
3190.271060,-9992.780217,-444.123565,153.219100
3190.271397,-9326.594869,-370.102971,1378.971896
3190.271735,-9844.739029,0.000000,2145.067394
3190.272072,-9474.636058,518.144159,153.219100
3190.272409,-9474.636058,814.226536,383.047749
3190.272747,-10362.883188,444.123565,536.266849
3190.273084,-8882.471304,-370.102971,1685.410096
3190.273422,-9474.636058,-222.061783,2834.553343
3190.273759,-10288.862594,-370.102971,3524.039291
3190.274096,-10658.965565,962.267725,2451.505594
3190.274434,-10955.047942,444.123565,1608.800546
3190.274771,-10362.883188,1702.473667,1455.581446
3190.275108,-10214.842000,1036.288319,0.000000
3190.275446,-10140.821405,1036.288319,-766.095498
3190.275783,-9474.636058,444.123565,-1149.143247
3190.276121,-9548.656652,-962.267725,-1225.752797
3190.276458,-9178.553681,-592.164754,-76.609550
3190.276795,-9548.656652,-1776.494261,-459.657299
3190.277133,-10362.883188,-666.185348,0.000000
3190.277470,-11399.171507,-1702.473667,-995.924147
3190.277808,-10658.965565,-1036.288319,-995.924147
3190.278145,-9696.697840,-1258.350101,-1608.800546
3190.278482,-10140.821405,-1184.329507,-995.924147
3190.278820,-10140.821405,-1332.370696,-1225.752797
3190.279157,-9474.636058,-2294.638420,-1608.800546
3190.279494,-9400.615463,-1554.432478,-612.876398
3190.279832,-9622.677246,-2368.659014,1225.752797
3190.280169,-11251.130318,-1480.411884,2374.896044
3190.280507,-11177.109724,-1184.329507,2068.457845
3190.280844,-11399.171507,0.000000,2145.067394
3190.281181,-10510.924376,1332.370696,1302.362347
3190.281519,-10214.842000,2146.597232,383.047749
3190.281856,-10140.821405,2072.576638,229.828649
3190.282193,-9696.697840,1702.473667,-459.657299
3190.282531,-9178.553681,1480.411884,0.000000
3190.282868,-9770.718434,1998.556043,-153.219100
3190.283206,-9474.636058,1480.411884,-229.828649
3190.283543,-9622.677246,1184.329507,459.657299
3190.283880,-9844.739029,592.164754,1149.143247
3190.284218,-9770.718434,1702.473667,842.705048
3190.284555,-9770.718434,1850.514855,306.438199
3190.284893,-9992.780217,1332.370696,-766.095498
3190.285230,-9844.739029,1036.288319,-689.485948
3190.285567,-9844.739029,0.000000,0.000000
3190.285905,-8956.491898,-666.185348,612.876398
3190.286242,-8956.491898,-2146.597232,1608.800546
3190.286579,-10140.821405,-1480.411884,2528.115143
3190.286917,-10807.006753,-1776.494261,1685.410096
3190.287254,-10955.047942,-1332.370696,2068.457845
3190.287592,-10140.821405,-888.247130,1225.752797
3190.287929,-10066.800811,-888.247130,1302.362347
3190.288266,-10288.862594,296.082377,842.705048
3190.288604,-10140.821405,-666.185348,0.000000
3190.288941,-9992.780217,-1406.391290,229.828649
3190.289279,-9770.718434,-1850.514855,76.609550
3190.289616,-10436.903782,-814.226536,842.705048
3190.289953,-10436.903782,-1776.494261,229.828649
3190.290291,-10807.006753,-1406.391290,-919.314598
3190.290628,-10436.903782,-2146.597232,-689.485948
3190.290965,-10214.842000,-1184.329507,-842.705048
3190.291303,-10066.800811,-148.041188,-1762.019645
3190.291640,-10732.986159,-1110.308913,-2604.724693
3190.291978,-9474.636058,-1702.473667,-2604.724693
3190.292315,-9104.533087,-2442.679609,-1302.362347
3190.292652,-9252.574275,-2220.617826,1149.143247
3190.292990,-9770.718434,-1850.514855,1302.362347
3190.293327,-11177.109724,-1628.453072,1378.971896
3190.293664,-11251.130318,-740.205942,1072.533697
3190.294002,-10436.903782,296.082377,383.047749
3190.294339,-10584.944971,740.205942,459.657299
3190.294677,-9844.739029,1110.308913,-383.047749
3190.295014,-9252.574275,1036.288319,0.000000
3190.295351,-9326.594869,888.247130,689.485948
3190.295689,-9104.533087,1258.350101,612.876398
3190.296026,-9178.553681,1998.556043,1225.752797
3190.296364,-10140.821405,1554.432478,1302.362347
3190.296701,-9770.718434,1628.453072,1455.581446
3190.297038,-9918.759623,2368.659014,1762.019645
3190.297376,-10214.842000,2368.659014,995.924147
3190.297713,-9400.615463,2072.576638,0.000000
3190.298050,-10214.842000,1332.370696,-995.924147
3190.298388,-10066.800811,1036.288319,-689.485948
3190.298725,-9400.615463,-740.205942,-919.314598
3190.299063,-8734.430116,-1406.391290,229.828649
3190.299400,-9178.553681,-2590.720797,1302.362347
3190.299737,-10066.800811,-2294.638420,1378.971896
3190.300075,-10732.986159,-1924.535449,842.705048
3190.300412,-10732.986159,-1480.411884,1225.752797
3190.300750,-10807.006753,-222.061783,153.219100
3190.301087,-10362.883188,-1184.329507,76.609550
3190.301424,-10584.944971,-962.267725,76.609550
3190.301762,-9918.759623,-1702.473667,383.047749
3190.302099,-9696.697840,-2072.576638,612.876398
3190.302436,-9992.780217,-1406.391290,1225.752797
3190.302774,-10658.965565,-1406.391290,1149.143247
3190.303111,-11177.109724,-222.061783,842.705048
3190.303449,-11473.192101,-518.144159,459.657299
3190.303786,-10066.800811,370.102971,153.219100
3190.304123,-10066.800811,814.226536,-306.438199
3190.304461,-10288.862594,1184.329507,-919.314598
3190.304798,-9474.636058,592.164754,-1149.143247
3190.305136,-9696.697840,-148.041188,-383.047749
3190.305473,-9548.656652,0.000000,459.657299
3190.305810,-9770.718434,-296.082377,229.828649
3190.306148,-10436.903782,-222.061783,0.000000
3190.306485,-10214.842000,-740.205942,-536.266849
3190.306822,-8956.491898,296.082377,-612.876398
3190.307160,-9474.636058,888.247130,-612.876398
3190.307497,-9548.656652,518.144159,-1302.362347
3190.307835,-8808.450710,888.247130,-1915.238745
3190.308172,-9252.574275,296.082377,-689.485948
3190.308509,-9474.636058,148.041188,766.095498
3190.308847,-9178.553681,0.000000,1302.362347
3190.309184,-10214.842000,592.164754,1762.019645
3190.309521,-10510.924376,296.082377,1838.629195
3190.309859,-10140.821405,666.185348,1838.629195
3190.310196,-10584.944971,1332.370696,1915.238745
3190.310534,-10510.924376,1036.288319,1302.362347
3190.310871,-10362.883188,888.247130,-689.485948
3190.311208,-9844.739029,0.000000,-766.095498
3190.311546,-9548.656652,-740.205942,0.000000
3190.311883,-8956.491898,-1406.391290,842.705048
3190.312221,-9696.697840,-2442.679609,1608.800546
3190.312558,-10584.944971,-1776.494261,1072.533697
3190.312895,-11325.150913,-1998.556043,306.438199
3190.313233,-11029.068536,-1850.514855,-383.047749
3190.313570,-10362.883188,-1628.453072,-1072.533697
3190.313907,-9844.739029,-2368.659014,-306.438199
3190.314245,-9770.718434,-2220.617826,-229.828649
3190.314582,-9622.677246,-2590.720797,-612.876398
3190.314920,-9696.697840,-2738.761985,-536.266849
3190.315257,-10140.821405,-2738.761985,919.314598
3190.315594,-10510.924376,-1998.556043,766.095498
3190.315932,-10732.986159,-1850.514855,1838.629195
3190.316269,-10658.965565,-740.205942,1915.238745
3190.316607,-10288.862594,0.000000,1455.581446
3190.316944,-10214.842000,1628.453072,1225.752797
3190.317281,-10881.027347,1184.329507,612.876398
3190.317619,-9918.759623,962.267725,0.000000
3190.317956,-9474.636058,1036.288319,383.047749
3190.318293,-9252.574275,1332.370696,1762.019645
3190.318631,-9696.697840,888.247130,1072.533697
3190.318968,-10066.800811,518.144159,1072.533697
3190.319306,-10066.800811,740.205942,842.705048
3190.319643,-9548.656652,1702.473667,76.609550
3190.319980,-9622.677246,1850.514855,-1455.581446
3190.320318,-9474.636058,2146.597232,-2451.505594
3190.320655,-9252.574275,740.205942,-2374.896044
3190.320993,-8882.471304,518.144159,-1532.190996
3190.321330,-8808.450710,0.000000,-536.266849
3190.321667,-9252.574275,-370.102971,383.047749
3190.322005,-10288.862594,-962.267725,612.876398
3190.322342,-10658.965565,-1110.308913,766.095498
3190.322679,-10214.842000,-740.205942,1915.238745
3190.323017,-10658.965565,222.061783,2374.896044
3190.323354,-10436.903782,0.000000,995.924147
3190.323692,-10362.883188,296.082377,306.438199
3190.324029,-10732.986159,74.020594,306.438199
3190.324366,-10066.800811,-814.226536,612.876398
3190.324704,-9696.697840,-1554.432478,1378.971896
3190.325041,-10140.821405,-1332.370696,1838.629195
3190.325378,-10955.047942,-1554.432478,1302.362347
3190.325716,-10807.006753,-1110.308913,612.876398
3190.326053,-10214.842000,-1480.411884,-689.485948
3190.326391,-10140.821405,-518.144159,-306.438199
3190.326728,-10362.883188,-518.144159,-1608.800546
3190.327065,-9992.780217,-888.247130,-2068.457845
3190.327403,-9400.615463,-1258.350101,-2604.724693
3190.327740,-9474.636058,-2072.576638,-1378.971896
3190.328078,-9400.615463,-1924.535449,-459.657299
3190.328415,-9770.718434,-1998.556043,229.828649
3190.328752,-10807.006753,-1332.370696,536.266849
3190.329090,-10732.986159,-740.205942,766.095498
3190.329427,-10140.821405,-74.020594,995.924147
3190.329764,-10436.903782,1184.329507,842.705048
3190.330102,-10732.986159,1332.370696,842.705048
3190.330439,-10510.924376,1628.453072,0.000000
3190.330777,-9474.636058,592.164754,995.924147
3190.331114,-9252.574275,1110.308913,2681.334243
3190.331451,-9474.636058,1332.370696,2528.115143
3190.331789,-10288.862594,1036.288319,2374.896044
3190.332126,-10658.965565,1332.370696,1991.848295
3190.332464,-9918.759623,1702.473667,1225.752797
3190.332801,-9770.718434,2442.679609,0.000000
3190.333138,-10140.821405,2368.659014,-1378.971896
3190.333476,-9252.574275,1332.370696,-2604.724693
3190.333813,-9178.553681,148.041188,-2298.286494
3190.334150,-9030.512492,-370.102971,-1532.190996
3190.334488,-8586.388927,-1628.453072,-919.314598
3190.334825,-9252.574275,-2368.659014,76.609550
3190.335163,-10140.821405,-2664.741391,766.095498
3190.335500,-10362.883188,-2146.597232,1302.362347
3190.335837,-10955.047942,-1036.288319,2221.676944
3190.336175,-10955.047942,-1110.308913,1149.143247
